[{"width":1540,"height":894,"webaudio":true,"browser":"safari","browser_version":"26.2.0","mobile":false,"os":"Mac OS","fullscreen":true,"vsync_rate":60.24,"webcam":true,"microphone":true,"trial_type":"browser-check","trial_index":0,"plugin_version":"2.1.0","time_elapsed":1013,"subject_id":"92589","group":"Group2","condition":"1_Rep","full_date":"2026-02-14T04:22:33.779Z","date":"2026-02-14","time":"04:22:33"},{"success":true,"timeout":false,"failed_images":[],"failed_audio":[],"failed_video":[],"trial_type":"preload","trial_index":1,"plugin_version":"2.1.0","time_elapsed":7802,"subject_id":"92589","group":"Group2","condition":"1_Rep","full_date":"2026-02-14T04:22:33.779Z","date":"2026-02-14","time":"04:22:33"},{"rt":21621,"url":"SONA_consent_memorability.html","trial_type":"external-html","trial_index":2,"plugin_version":"2.1.0","time_elapsed":29485,"subject_id":"92589","group":"Group2","condition":"1_Rep","full_date":"2026-02-14T04:22:33.779Z","date":"2026-02-14","time":"04:22:33"},{"success":true,"rt":1637,"trial_type":"fullscreen","trial_index":3,"plugin_version":"2.1.0","time_elapsed":32133,"subject_id":"92589","group":"Group2","condition":"1_Rep","full_date":"2026-02-14T04:22:33.779Z","date":"2026-02-14","time":"04:22:33"},{"rt":35788,"stimulus":"<div style=\"max-width: 760px; margin: auto; font-size: 20px; line-height: 1.5;\">\n      <h1 style=\"text-align:center; font-size: 30px;\">Instructions</h1>\n      <p>\n        Welcome to the study on <b>visual memory</b>. This experiment consists of <b>two phases</b>: \n        a <b>study phase</b> and a <b>test phase</b>.\n      </p>\n      <p>\n        In the study phase, you will see a series of rock images along with their category labels.\n        The images will appear one at a time.\n        <b>Your task</b> is to learn the categories to which the rock images belong \n        and to remember each image as accurately as possible.\n      </p> \n      <p>\n        Note that you will see each image only <b>once</b> during the study phase. \n          So, please pay close attention and try to remember each image carefully.\n      </p>\n      <p>\n        After the study phase, <b>your memory will be tested</b>. \n        Additional instructions for the test phase will be provided at that time.\n      </p>\n      <p>\n        If your computer has multiple <b>language settings</b> (e.g., English and another language),\n        please make sure it is set to English before starting.\n      </p>\n      <p>\n        You can track your progress using the <b>completion bar</b> at the top of the screen. \n        Please note that the bar will refresh when the test phase begins \n        to give you an accurate sense of your progress in both phases.\n      </p> \n      <p>\n        Press the button below when you are ready to begin.\n      </p>\n    </div>","response":0,"trial_type":"html-button-response","trial_index":4,"plugin_version":"2.1.0","time_elapsed":67930,"subject_id":"92589","group":"Group2","condition":"1_Rep","full_date":"2026-02-14T04:22:33.779Z","date":"2026-02-14","time":"04:22:33"},{"rt":null,"stimulus":"<p style=\"font-size: 50px; margin: 0; text-align: center;\">+</p>","response":null,"trial_type":"html-keyboard-response","trial_index":5,"plugin_version":"2.1.0","time_elapsed":68937,"subject_id":"92589","group":"Group2","condition":"1_Rep","full_date":"2026-02-14T04:22:33.779Z","date":"2026-02-14","time":"04:22:33"},{"task":"memory_phase","broad_category":"S","image_png":"S_Chert_13.png","image_id":365,"category_name":"Chert","category":23,"distinct_rating":6.57,"distinct_type":"Top","rt":null,"stimulus":"Stimuli_Rocks480/S_Chert_13.png","response":null,"trial_type":"image-keyboard-response","trial_index":6,"plugin_version":"2.1.0","time_elapsed":71468,"subject_id":"92589","group":"Group2","condition":"1_Rep","full_date":"2026-02-14T04:22:33.779Z","date":"2026-02-14","time":"04:22:33"},{"rt":null,"stimulus":"<p style=\"font-size: 50px; margin: 0; text-align: center;\">+</p>","response":null,"trial_type":"html-keyboard-response","trial_index":7,"plugin_version":"2.1.0","time_elapsed":72475,"subject_id":"92589","group":"Group2","condition":"1_Rep","full_date":"2026-02-14T04:22:33.779Z","date":"2026-02-14","time":"04:22:33"},{"task":"memory_phase","broad_category":"S","image_png":"S_Sandstone_08.png","image_id":456,"category_name":"Sandstone","category":29,"distinct_rating":1.5,"distinct_type":"Bottom","rt":null,"stimulus":"Stimuli_Rocks480/S_Sandstone_08.png","response":null,"trial_type":"image-keyboard-response","trial_index":8,"plugin_version":"2.1.0","time_elapsed":74993,"subject_id":"92589","group":"Group2","condition":"1_Rep","full_date":"2026-02-14T04:22:33.779Z","date":"2026-02-14","time":"04:22:33"},{"rt":null,"stimulus":"<p style=\"font-size: 50px; margin: 0; text-align: center;\">+</p>","response":null,"trial_type":"html-keyboard-response","trial_index":9,"plugin_version":"2.1.0","time_elapsed":75996,"subject_id":"92589","group":"Group2","condition":"1_Rep","full_date":"2026-02-14T04:22:33.779Z","date":"2026-02-14","time":"04:22:33"},{"task":"memory_phase","broad_category":"M","image_png":"M_Phyllite_05.png","image_id":261,"category_name":"Phyllite","category":17,"distinct_rating":2.14,"distinct_type":"Bottom","rt":null,"stimulus":"Stimuli_Rocks480/M_Phyllite_05.png","response":null,"trial_type":"image-keyboard-response","trial_index":10,"plugin_version":"2.1.0","time_elapsed":78513,"subject_id":"92589","group":"Group2","condition":"1_Rep","full_date":"2026-02-14T04:22:33.779Z","date":"2026-02-14","time":"04:22:33"},{"rt":null,"stimulus":"<p style=\"font-size: 50px; margin: 0; text-align: center;\">+</p>","response":null,"trial_type":"html-keyboard-response","trial_index":11,"plugin_version":"2.1.0","time_elapsed":79515,"subject_id":"92589","group":"Group2","condition":"1_Rep","full_date":"2026-02-14T04:22:33.779Z","date":"2026-02-14","time":"04:22:33"},{"task":"memory_phase","broad_category":"I","image_png":"I_Gabbro_02.png","image_id":50,"category_name":"Gabbro","category":4,"distinct_rating":2.73,"distinct_type":"Bottom","rt":null,"stimulus":"Stimuli_Rocks480/I_Gabbro_02.png","response":null,"trial_type":"image-keyboard-response","trial_index":12,"plugin_version":"2.1.0","time_elapsed":82033,"subject_id":"92589","group":"Group2","condition":"1_Rep","full_date":"2026-02-14T04:22:33.779Z","date":"2026-02-14","time":"04:22:33"},{"rt":null,"stimulus":"<p style=\"font-size: 50px; margin: 0; text-align: center;\">+</p>","response":null,"trial_type":"html-keyboard-response","trial_index":13,"plugin_version":"2.1.0","time_elapsed":83036,"subject_id":"92589","group":"Group2","condition":"1_Rep","full_date":"2026-02-14T04:22:33.779Z","date":"2026-02-14","time":"04:22:33"},{"task":"memory_phase","broad_category":"M","image_png":"M_Marble_14.png","image_id":238,"category_name":"Marble","category":15,"distinct_rating":3.31,"distinct_type":"Bottom","rt":null,"stimulus":"Stimuli_Rocks480/M_Marble_14.png","response":null,"trial_type":"image-keyboard-response","trial_index":14,"plugin_version":"2.1.0","time_elapsed":85550,"subject_id":"92589","group":"Group2","condition":"1_Rep","full_date":"2026-02-14T04:22:33.779Z","date":"2026-02-14","time":"04:22:33"},{"rt":null,"stimulus":"<p style=\"font-size: 50px; margin: 0; text-align: center;\">+</p>","response":null,"trial_type":"html-keyboard-response","trial_index":15,"plugin_version":"2.1.0","time_elapsed":86554,"subject_id":"92589","group":"Group2","condition":"1_Rep","full_date":"2026-02-14T04:22:33.779Z","date":"2026-02-14","time":"04:22:33"},{"task":"memory_phase","broad_category":"I","image_png":"I_Pegmatite_03.png","image_id":99,"category_name":"Pegmatite","category":7,"distinct_rating":7.24,"distinct_type":"Top","rt":null,"stimulus":"Stimuli_Rocks480/I_Pegmatite_03.png","response":null,"trial_type":"image-keyboard-response","trial_index":16,"plugin_version":"2.1.0","time_elapsed":89073,"subject_id":"92589","group":"Group2","condition":"1_Rep","full_date":"2026-02-14T04:22:33.779Z","date":"2026-02-14","time":"04:22:33"},{"rt":null,"stimulus":"<p style=\"font-size: 50px; margin: 0; text-align: center;\">+</p>","response":null,"trial_type":"html-keyboard-response","trial_index":17,"plugin_version":"2.1.0","time_elapsed":90076,"subject_id":"92589","group":"Group2","condition":"1_Rep","full_date":"2026-02-14T04:22:33.779Z","date":"2026-02-14","time":"04:22:33"},{"task":"memory_phase","broad_category":"S","image_png":"S_Shale_07.png","image_id":471,"category_name":"Shale","category":30,"distinct_rating":2.73,"distinct_type":"Bottom","rt":null,"stimulus":"Stimuli_Rocks480/S_Shale_07.png","response":null,"trial_type":"image-keyboard-response","trial_index":18,"plugin_version":"2.1.0","time_elapsed":92595,"subject_id":"92589","group":"Group2","condition":"1_Rep","full_date":"2026-02-14T04:22:33.779Z","date":"2026-02-14","time":"04:22:33"},{"rt":null,"stimulus":"<p style=\"font-size: 50px; margin: 0; text-align: center;\">+</p>","response":null,"trial_type":"html-keyboard-response","trial_index":19,"plugin_version":"2.1.0","time_elapsed":93597,"subject_id":"92589","group":"Group2","condition":"1_Rep","full_date":"2026-02-14T04:22:33.779Z","date":"2026-02-14","time":"04:22:33"},{"task":"memory_phase","broad_category":"I","image_png":"I_Andesite_09.png","image_id":9,"category_name":"Andesite","category":1,"distinct_rating":2.49,"distinct_type":"Bottom","rt":null,"stimulus":"Stimuli_Rocks480/I_Andesite_09.png","response":null,"trial_type":"image-keyboard-response","trial_index":20,"plugin_version":"2.1.0","time_elapsed":96113,"subject_id":"92589","group":"Group2","condition":"1_Rep","full_date":"2026-02-14T04:22:33.779Z","date":"2026-02-14","time":"04:22:33"},{"rt":null,"stimulus":"<p style=\"font-size: 50px; margin: 0; text-align: center;\">+</p>","response":null,"trial_type":"html-keyboard-response","trial_index":21,"plugin_version":"2.1.0","time_elapsed":97115,"subject_id":"92589","group":"Group2","condition":"1_Rep","full_date":"2026-02-14T04:22:33.779Z","date":"2026-02-14","time":"04:22:33"},{"task":"memory_phase","broad_category":"S","image_png":"S_Sandstone_11.png","image_id":459,"category_name":"Sandstone","category":29,"distinct_rating":1.82,"distinct_type":"Bottom","rt":null,"stimulus":"Stimuli_Rocks480/S_Sandstone_11.png","response":null,"trial_type":"image-keyboard-response","trial_index":22,"plugin_version":"2.1.0","time_elapsed":99642,"subject_id":"92589","group":"Group2","condition":"1_Rep","full_date":"2026-02-14T04:22:33.779Z","date":"2026-02-14","time":"04:22:33"},{"rt":null,"stimulus":"<p style=\"font-size: 50px; margin: 0; text-align: center;\">+</p>","response":null,"trial_type":"html-keyboard-response","trial_index":23,"plugin_version":"2.1.0","time_elapsed":100645,"subject_id":"92589","group":"Group2","condition":"1_Rep","full_date":"2026-02-14T04:22:33.779Z","date":"2026-02-14","time":"04:22:33"},{"task":"memory_phase","broad_category":"I","image_png":"I_Rhyolite_10.png","image_id":154,"category_name":"Rhyolite","category":10,"distinct_rating":2.88,"distinct_type":"Bottom","rt":null,"stimulus":"Stimuli_Rocks480/I_Rhyolite_10.png","response":null,"trial_type":"image-keyboard-response","trial_index":24,"plugin_version":"2.1.0","time_elapsed":103174,"subject_id":"92589","group":"Group2","condition":"1_Rep","full_date":"2026-02-14T04:22:33.779Z","date":"2026-02-14","time":"04:22:33"},{"rt":null,"stimulus":"<p style=\"font-size: 50px; margin: 0; text-align: center;\">+</p>","response":null,"trial_type":"html-keyboard-response","trial_index":25,"plugin_version":"2.1.0","time_elapsed":104177,"subject_id":"92589","group":"Group2","condition":"1_Rep","full_date":"2026-02-14T04:22:33.779Z","date":"2026-02-14","time":"04:22:33"},{"task":"memory_phase","broad_category":"S","image_png":"S_Shale_03.png","image_id":467,"category_name":"Shale","category":30,"distinct_rating":1.95,"distinct_type":"Bottom","rt":null,"stimulus":"Stimuli_Rocks480/S_Shale_03.png","response":null,"trial_type":"image-keyboard-response","trial_index":26,"plugin_version":"2.1.0","time_elapsed":106699,"subject_id":"92589","group":"Group2","condition":"1_Rep","full_date":"2026-02-14T04:22:33.779Z","date":"2026-02-14","time":"04:22:33"},{"rt":null,"stimulus":"<p style=\"font-size: 50px; margin: 0; text-align: center;\">+</p>","response":null,"trial_type":"html-keyboard-response","trial_index":27,"plugin_version":"2.1.0","time_elapsed":107702,"subject_id":"92589","group":"Group2","condition":"1_Rep","full_date":"2026-02-14T04:22:33.779Z","date":"2026-02-14","time":"04:22:33"},{"task":"memory_phase","broad_category":"S","image_png":"S_Rock Salt_13.png","image_id":445,"category_name":"Rock Salt","category":28,"distinct_rating":7.58,"distinct_type":"Top","rt":null,"stimulus":"Stimuli_Rocks480/S_Rock Salt_13.png","response":null,"trial_type":"image-keyboard-response","trial_index":28,"plugin_version":"2.1.0","time_elapsed":110227,"subject_id":"92589","group":"Group2","condition":"1_Rep","full_date":"2026-02-14T04:22:33.779Z","date":"2026-02-14","time":"04:22:33"},{"rt":null,"stimulus":"<p style=\"font-size: 50px; margin: 0; text-align: center;\">+</p>","response":null,"trial_type":"html-keyboard-response","trial_index":29,"plugin_version":"2.1.0","time_elapsed":111230,"subject_id":"92589","group":"Group2","condition":"1_Rep","full_date":"2026-02-14T04:22:33.779Z","date":"2026-02-14","time":"04:22:33"},{"task":"memory_phase","broad_category":"S","image_png":"S_Dolomite_01.png","image_id":385,"category_name":"Dolomite","category":25,"distinct_rating":1.43,"distinct_type":"Bottom","rt":null,"stimulus":"Stimuli_Rocks480/S_Dolomite_01.png","response":null,"trial_type":"image-keyboard-response","trial_index":30,"plugin_version":"2.1.0","time_elapsed":113754,"subject_id":"92589","group":"Group2","condition":"1_Rep","full_date":"2026-02-14T04:22:33.779Z","date":"2026-02-14","time":"04:22:33"},{"rt":null,"stimulus":"<p style=\"font-size: 50px; margin: 0; text-align: center;\">+</p>","response":null,"trial_type":"html-keyboard-response","trial_index":31,"plugin_version":"2.1.0","time_elapsed":114756,"subject_id":"92589","group":"Group2","condition":"1_Rep","full_date":"2026-02-14T04:22:33.779Z","date":"2026-02-14","time":"04:22:33"},{"task":"memory_phase","broad_category":"M","image_png":"M_Gneiss_14.png","image_id":206,"category_name":"Gneiss","category":13,"distinct_rating":3.41,"distinct_type":"Bottom","rt":null,"stimulus":"Stimuli_Rocks480/M_Gneiss_14.png","response":null,"trial_type":"image-keyboard-response","trial_index":32,"plugin_version":"2.1.0","time_elapsed":117278,"subject_id":"92589","group":"Group2","condition":"1_Rep","full_date":"2026-02-14T04:22:33.779Z","date":"2026-02-14","time":"04:22:33"},{"rt":null,"stimulus":"<p style=\"font-size: 50px; margin: 0; text-align: center;\">+</p>","response":null,"trial_type":"html-keyboard-response","trial_index":33,"plugin_version":"2.1.0","time_elapsed":118282,"subject_id":"92589","group":"Group2","condition":"1_Rep","full_date":"2026-02-14T04:22:33.779Z","date":"2026-02-14","time":"04:22:33"},{"task":"memory_phase","broad_category":"I","image_png":"I_Peridotite_13.png","image_id":125,"category_name":"Peridotite","category":8,"distinct_rating":7.28,"distinct_type":"Top","rt":null,"stimulus":"Stimuli_Rocks480/I_Peridotite_13.png","response":null,"trial_type":"image-keyboard-response","trial_index":34,"plugin_version":"2.1.0","time_elapsed":120808,"subject_id":"92589","group":"Group2","condition":"1_Rep","full_date":"2026-02-14T04:22:33.779Z","date":"2026-02-14","time":"04:22:33"},{"rt":null,"stimulus":"<p style=\"font-size: 50px; margin: 0; text-align: center;\">+</p>","response":null,"trial_type":"html-keyboard-response","trial_index":35,"plugin_version":"2.1.0","time_elapsed":121811,"subject_id":"92589","group":"Group2","condition":"1_Rep","full_date":"2026-02-14T04:22:33.779Z","date":"2026-02-14","time":"04:22:33"},{"task":"memory_phase","broad_category":"M","image_png":"M_Phyllite_02.png","image_id":258,"category_name":"Phyllite","category":17,"distinct_rating":2.89,"distinct_type":"Bottom","rt":null,"stimulus":"Stimuli_Rocks480/M_Phyllite_02.png","response":null,"trial_type":"image-keyboard-response","trial_index":36,"plugin_version":"2.1.0","time_elapsed":124328,"subject_id":"92589","group":"Group2","condition":"1_Rep","full_date":"2026-02-14T04:22:33.779Z","date":"2026-02-14","time":"04:22:33"},{"rt":null,"stimulus":"<p style=\"font-size: 50px; margin: 0; text-align: center;\">+</p>","response":null,"trial_type":"html-keyboard-response","trial_index":37,"plugin_version":"2.1.0","time_elapsed":125331,"subject_id":"92589","group":"Group2","condition":"1_Rep","full_date":"2026-02-14T04:22:33.779Z","date":"2026-02-14","time":"04:22:33"},{"task":"memory_phase","broad_category":"I","image_png":"I_Diorite_01.png","image_id":33,"category_name":"Diorite","category":3,"distinct_rating":2.97,"distinct_type":"Bottom","rt":null,"stimulus":"Stimuli_Rocks480/I_Diorite_01.png","response":null,"trial_type":"image-keyboard-response","trial_index":38,"plugin_version":"2.1.0","time_elapsed":127855,"subject_id":"92589","group":"Group2","condition":"1_Rep","full_date":"2026-02-14T04:22:33.779Z","date":"2026-02-14","time":"04:22:33"},{"rt":null,"stimulus":"<p style=\"font-size: 50px; margin: 0; text-align: center;\">+</p>","response":null,"trial_type":"html-keyboard-response","trial_index":39,"plugin_version":"2.1.0","time_elapsed":128858,"subject_id":"92589","group":"Group2","condition":"1_Rep","full_date":"2026-02-14T04:22:33.779Z","date":"2026-02-14","time":"04:22:33"},{"task":"memory_phase","broad_category":"I","image_png":"I_Pegmatite_11.png","image_id":107,"category_name":"Pegmatite","category":7,"distinct_rating":7.11,"distinct_type":"Top","rt":null,"stimulus":"Stimuli_Rocks480/I_Pegmatite_11.png","response":null,"trial_type":"image-keyboard-response","trial_index":40,"plugin_version":"2.1.0","time_elapsed":131384,"subject_id":"92589","group":"Group2","condition":"1_Rep","full_date":"2026-02-14T04:22:33.779Z","date":"2026-02-14","time":"04:22:33"},{"rt":null,"stimulus":"<p style=\"font-size: 50px; margin: 0; text-align: center;\">+</p>","response":null,"trial_type":"html-keyboard-response","trial_index":41,"plugin_version":"2.1.0","time_elapsed":132387,"subject_id":"92589","group":"Group2","condition":"1_Rep","full_date":"2026-02-14T04:22:33.779Z","date":"2026-02-14","time":"04:22:33"},{"task":"memory_phase","broad_category":"M","image_png":"M_Marble_02.png","image_id":226,"category_name":"Marble","category":15,"distinct_rating":3.2,"distinct_type":"Bottom","rt":null,"stimulus":"Stimuli_Rocks480/M_Marble_02.png","response":null,"trial_type":"image-keyboard-response","trial_index":42,"plugin_version":"2.1.0","time_elapsed":134905,"subject_id":"92589","group":"Group2","condition":"1_Rep","full_date":"2026-02-14T04:22:33.779Z","date":"2026-02-14","time":"04:22:33"},{"rt":null,"stimulus":"<p style=\"font-size: 50px; margin: 0; text-align: center;\">+</p>","response":null,"trial_type":"html-keyboard-response","trial_index":43,"plugin_version":"2.1.0","time_elapsed":135907,"subject_id":"92589","group":"Group2","condition":"1_Rep","full_date":"2026-02-14T04:22:33.779Z","date":"2026-02-14","time":"04:22:33"},{"task":"memory_phase","broad_category":"I","image_png":"I_Gabbro_12.png","image_id":60,"category_name":"Gabbro","category":4,"distinct_rating":2.6,"distinct_type":"Bottom","rt":null,"stimulus":"Stimuli_Rocks480/I_Gabbro_12.png","response":null,"trial_type":"image-keyboard-response","trial_index":44,"plugin_version":"2.1.0","time_elapsed":138430,"subject_id":"92589","group":"Group2","condition":"1_Rep","full_date":"2026-02-14T04:22:33.779Z","date":"2026-02-14","time":"04:22:33"},{"rt":null,"stimulus":"<p style=\"font-size: 50px; margin: 0; text-align: center;\">+</p>","response":null,"trial_type":"html-keyboard-response","trial_index":45,"plugin_version":"2.1.0","time_elapsed":139433,"subject_id":"92589","group":"Group2","condition":"1_Rep","full_date":"2026-02-14T04:22:33.779Z","date":"2026-02-14","time":"04:22:33"},{"task":"memory_phase","broad_category":"M","image_png":"M_Quartzite_07.png","image_id":279,"category_name":"Quartzite","category":18,"distinct_rating":1.97,"distinct_type":"Bottom","rt":null,"stimulus":"Stimuli_Rocks480/M_Quartzite_07.png","response":null,"trial_type":"image-keyboard-response","trial_index":46,"plugin_version":"2.1.0","time_elapsed":141953,"subject_id":"92589","group":"Group2","condition":"1_Rep","full_date":"2026-02-14T04:22:33.779Z","date":"2026-02-14","time":"04:22:33"},{"rt":null,"stimulus":"<p style=\"font-size: 50px; margin: 0; text-align: center;\">+</p>","response":null,"trial_type":"html-keyboard-response","trial_index":47,"plugin_version":"2.1.0","time_elapsed":142955,"subject_id":"92589","group":"Group2","condition":"1_Rep","full_date":"2026-02-14T04:22:33.779Z","date":"2026-02-14","time":"04:22:33"},{"task":"memory_phase","broad_category":"I","image_png":"I_Pumice_14.png","image_id":142,"category_name":"Pumice","category":9,"distinct_rating":3.22,"distinct_type":"Bottom","rt":null,"stimulus":"Stimuli_Rocks480/I_Pumice_14.png","response":null,"trial_type":"image-keyboard-response","trial_index":48,"plugin_version":"2.1.0","time_elapsed":145473,"subject_id":"92589","group":"Group2","condition":"1_Rep","full_date":"2026-02-14T04:22:33.779Z","date":"2026-02-14","time":"04:22:33"},{"rt":null,"stimulus":"<p style=\"font-size: 50px; margin: 0; text-align: center;\">+</p>","response":null,"trial_type":"html-keyboard-response","trial_index":49,"plugin_version":"2.1.0","time_elapsed":146476,"subject_id":"92589","group":"Group2","condition":"1_Rep","full_date":"2026-02-14T04:22:33.779Z","date":"2026-02-14","time":"04:22:33"},{"task":"memory_phase","broad_category":"M","image_png":"M_Slate_10.png","image_id":314,"category_name":"Slate","category":20,"distinct_rating":1.94,"distinct_type":"Bottom","rt":null,"stimulus":"Stimuli_Rocks480/M_Slate_10.png","response":null,"trial_type":"image-keyboard-response","trial_index":50,"plugin_version":"2.1.0","time_elapsed":148989,"subject_id":"92589","group":"Group2","condition":"1_Rep","full_date":"2026-02-14T04:22:33.779Z","date":"2026-02-14","time":"04:22:33"},{"rt":null,"stimulus":"<p style=\"font-size: 50px; margin: 0; text-align: center;\">+</p>","response":null,"trial_type":"html-keyboard-response","trial_index":51,"plugin_version":"2.1.0","time_elapsed":149992,"subject_id":"92589","group":"Group2","condition":"1_Rep","full_date":"2026-02-14T04:22:33.779Z","date":"2026-02-14","time":"04:22:33"},{"task":"memory_phase","broad_category":"I","image_png":"I_Andesite_03.png","image_id":3,"category_name":"Andesite","category":1,"distinct_rating":3.17,"distinct_type":"Bottom","rt":null,"stimulus":"Stimuli_Rocks480/I_Andesite_03.png","response":null,"trial_type":"image-keyboard-response","trial_index":52,"plugin_version":"2.1.0","time_elapsed":152504,"subject_id":"92589","group":"Group2","condition":"1_Rep","full_date":"2026-02-14T04:22:33.779Z","date":"2026-02-14","time":"04:22:33"},{"rt":null,"stimulus":"<p style=\"font-size: 50px; margin: 0; text-align: center;\">+</p>","response":null,"trial_type":"html-keyboard-response","trial_index":53,"plugin_version":"2.1.0","time_elapsed":153506,"subject_id":"92589","group":"Group2","condition":"1_Rep","full_date":"2026-02-14T04:22:33.779Z","date":"2026-02-14","time":"04:22:33"},{"task":"memory_phase","broad_category":"I","image_png":"I_Pumice_01.png","image_id":129,"category_name":"Pumice","category":9,"distinct_rating":3.25,"distinct_type":"Bottom","rt":null,"stimulus":"Stimuli_Rocks480/I_Pumice_01.png","response":null,"trial_type":"image-keyboard-response","trial_index":54,"plugin_version":"2.1.0","time_elapsed":156025,"subject_id":"92589","group":"Group2","condition":"1_Rep","full_date":"2026-02-14T04:22:33.779Z","date":"2026-02-14","time":"04:22:33"},{"rt":14995,"stimulus":"<p style=\"max-width: 760px; margin: auto; font-size: 35px; line-height: 1.5;\">\n                Press SPACE to continue study phase\n              </p>","response":" ","trial_type":"html-keyboard-response","trial_index":55,"plugin_version":"2.1.0","time_elapsed":171025,"subject_id":"92589","group":"Group2","condition":"1_Rep","full_date":"2026-02-14T04:22:33.779Z","date":"2026-02-14","time":"04:22:33"},{"rt":null,"stimulus":"<p style=\"font-size: 50px; margin: 0; text-align: center;\">+</p>","response":null,"trial_type":"html-keyboard-response","trial_index":56,"plugin_version":"2.1.0","time_elapsed":172028,"subject_id":"92589","group":"Group2","condition":"1_Rep","full_date":"2026-02-14T04:22:33.779Z","date":"2026-02-14","time":"04:22:33"},{"task":"memory_phase","broad_category":"M","image_png":"M_Gneiss_10.png","image_id":202,"category_name":"Gneiss","category":13,"distinct_rating":3.09,"distinct_type":"Bottom","rt":null,"stimulus":"Stimuli_Rocks480/M_Gneiss_10.png","response":null,"trial_type":"image-keyboard-response","trial_index":57,"plugin_version":"2.1.0","time_elapsed":174547,"subject_id":"92589","group":"Group2","condition":"1_Rep","full_date":"2026-02-14T04:22:33.779Z","date":"2026-02-14","time":"04:22:33"},{"rt":null,"stimulus":"<p style=\"font-size: 50px; margin: 0; text-align: center;\">+</p>","response":null,"trial_type":"html-keyboard-response","trial_index":58,"plugin_version":"2.1.0","time_elapsed":175550,"subject_id":"92589","group":"Group2","condition":"1_Rep","full_date":"2026-02-14T04:22:33.779Z","date":"2026-02-14","time":"04:22:33"},{"task":"memory_phase","broad_category":"M","image_png":"M_Quartzite_12.png","image_id":284,"category_name":"Quartzite","category":18,"distinct_rating":1.92,"distinct_type":"Bottom","rt":null,"stimulus":"Stimuli_Rocks480/M_Quartzite_12.png","response":null,"trial_type":"image-keyboard-response","trial_index":59,"plugin_version":"2.1.0","time_elapsed":178068,"subject_id":"92589","group":"Group2","condition":"1_Rep","full_date":"2026-02-14T04:22:33.779Z","date":"2026-02-14","time":"04:22:33"},{"rt":null,"stimulus":"<p style=\"font-size: 50px; margin: 0; text-align: center;\">+</p>","response":null,"trial_type":"html-keyboard-response","trial_index":60,"plugin_version":"2.1.0","time_elapsed":179070,"subject_id":"92589","group":"Group2","condition":"1_Rep","full_date":"2026-02-14T04:22:33.779Z","date":"2026-02-14","time":"04:22:33"},{"task":"memory_phase","broad_category":"I","image_png":"I_Basalt_10.png","image_id":26,"category_name":"Basalt","category":2,"distinct_rating":2.76,"distinct_type":"Bottom","rt":null,"stimulus":"Stimuli_Rocks480/I_Basalt_10.png","response":null,"trial_type":"image-keyboard-response","trial_index":61,"plugin_version":"2.1.0","time_elapsed":181588,"subject_id":"92589","group":"Group2","condition":"1_Rep","full_date":"2026-02-14T04:22:33.779Z","date":"2026-02-14","time":"04:22:33"},{"rt":null,"stimulus":"<p style=\"font-size: 50px; margin: 0; text-align: center;\">+</p>","response":null,"trial_type":"html-keyboard-response","trial_index":62,"plugin_version":"2.1.0","time_elapsed":182590,"subject_id":"92589","group":"Group2","condition":"1_Rep","full_date":"2026-02-14T04:22:33.779Z","date":"2026-02-14","time":"04:22:33"},{"task":"memory_phase","broad_category":"I","image_png":"I_Diorite_15.png","image_id":47,"category_name":"Diorite","category":3,"distinct_rating":3.05,"distinct_type":"Bottom","rt":null,"stimulus":"Stimuli_Rocks480/I_Diorite_15.png","response":null,"trial_type":"image-keyboard-response","trial_index":63,"plugin_version":"2.1.0","time_elapsed":185107,"subject_id":"92589","group":"Group2","condition":"1_Rep","full_date":"2026-02-14T04:22:33.779Z","date":"2026-02-14","time":"04:22:33"},{"rt":null,"stimulus":"<p style=\"font-size: 50px; margin: 0; text-align: center;\">+</p>","response":null,"trial_type":"html-keyboard-response","trial_index":64,"plugin_version":"2.1.0","time_elapsed":186110,"subject_id":"92589","group":"Group2","condition":"1_Rep","full_date":"2026-02-14T04:22:33.779Z","date":"2026-02-14","time":"04:22:33"},{"task":"memory_phase","broad_category":"S","image_png":"S_Dolomite_16.png","image_id":400,"category_name":"Dolomite","category":25,"distinct_rating":1.71,"distinct_type":"Bottom","rt":null,"stimulus":"Stimuli_Rocks480/S_Dolomite_16.png","response":null,"trial_type":"image-keyboard-response","trial_index":65,"plugin_version":"2.1.0","time_elapsed":188628,"subject_id":"92589","group":"Group2","condition":"1_Rep","full_date":"2026-02-14T04:22:33.779Z","date":"2026-02-14","time":"04:22:33"},{"rt":null,"stimulus":"<p style=\"font-size: 50px; margin: 0; text-align: center;\">+</p>","response":null,"trial_type":"html-keyboard-response","trial_index":66,"plugin_version":"2.1.0","time_elapsed":189630,"subject_id":"92589","group":"Group2","condition":"1_Rep","full_date":"2026-02-14T04:22:33.779Z","date":"2026-02-14","time":"04:22:33"},{"task":"memory_phase","broad_category":"S","image_png":"S_Dolomite_07.png","image_id":391,"category_name":"Dolomite","category":25,"distinct_rating":1.73,"distinct_type":"Bottom","rt":null,"stimulus":"Stimuli_Rocks480/S_Dolomite_07.png","response":null,"trial_type":"image-keyboard-response","trial_index":67,"plugin_version":"2.1.0","time_elapsed":192149,"subject_id":"92589","group":"Group2","condition":"1_Rep","full_date":"2026-02-14T04:22:33.779Z","date":"2026-02-14","time":"04:22:33"},{"rt":null,"stimulus":"<p style=\"font-size: 50px; margin: 0; text-align: center;\">+</p>","response":null,"trial_type":"html-keyboard-response","trial_index":68,"plugin_version":"2.1.0","time_elapsed":193152,"subject_id":"92589","group":"Group2","condition":"1_Rep","full_date":"2026-02-14T04:22:33.779Z","date":"2026-02-14","time":"04:22:33"},{"task":"memory_phase","broad_category":"M","image_png":"M_Gneiss_15.png","image_id":207,"category_name":"Gneiss","category":13,"distinct_rating":3.11,"distinct_type":"Bottom","rt":null,"stimulus":"Stimuli_Rocks480/M_Gneiss_15.png","response":null,"trial_type":"image-keyboard-response","trial_index":69,"plugin_version":"2.1.0","time_elapsed":195667,"subject_id":"92589","group":"Group2","condition":"1_Rep","full_date":"2026-02-14T04:22:33.779Z","date":"2026-02-14","time":"04:22:33"},{"rt":null,"stimulus":"<p style=\"font-size: 50px; margin: 0; text-align: center;\">+</p>","response":null,"trial_type":"html-keyboard-response","trial_index":70,"plugin_version":"2.1.0","time_elapsed":196669,"subject_id":"92589","group":"Group2","condition":"1_Rep","full_date":"2026-02-14T04:22:33.779Z","date":"2026-02-14","time":"04:22:33"},{"task":"memory_phase","broad_category":"I","image_png":"I_Diorite_10.png","image_id":42,"category_name":"Diorite","category":3,"distinct_rating":2.84,"distinct_type":"Bottom","rt":null,"stimulus":"Stimuli_Rocks480/I_Diorite_10.png","response":null,"trial_type":"image-keyboard-response","trial_index":71,"plugin_version":"2.1.0","time_elapsed":199190,"subject_id":"92589","group":"Group2","condition":"1_Rep","full_date":"2026-02-14T04:22:33.779Z","date":"2026-02-14","time":"04:22:33"},{"rt":null,"stimulus":"<p style=\"font-size: 50px; margin: 0; text-align: center;\">+</p>","response":null,"trial_type":"html-keyboard-response","trial_index":72,"plugin_version":"2.1.0","time_elapsed":200193,"subject_id":"92589","group":"Group2","condition":"1_Rep","full_date":"2026-02-14T04:22:33.779Z","date":"2026-02-14","time":"04:22:33"},{"task":"memory_phase","broad_category":"M","image_png":"M_Slate_14.png","image_id":318,"category_name":"Slate","category":20,"distinct_rating":2.58,"distinct_type":"Bottom","rt":null,"stimulus":"Stimuli_Rocks480/M_Slate_14.png","response":null,"trial_type":"image-keyboard-response","trial_index":73,"plugin_version":"2.1.0","time_elapsed":202706,"subject_id":"92589","group":"Group2","condition":"1_Rep","full_date":"2026-02-14T04:22:33.779Z","date":"2026-02-14","time":"04:22:33"},{"rt":null,"stimulus":"<p style=\"font-size: 50px; margin: 0; text-align: center;\">+</p>","response":null,"trial_type":"html-keyboard-response","trial_index":74,"plugin_version":"2.1.0","time_elapsed":203709,"subject_id":"92589","group":"Group2","condition":"1_Rep","full_date":"2026-02-14T04:22:33.779Z","date":"2026-02-14","time":"04:22:33"},{"task":"memory_phase","broad_category":"M","image_png":"M_Marble_03.png","image_id":227,"category_name":"Marble","category":15,"distinct_rating":2.67,"distinct_type":"Bottom","rt":null,"stimulus":"Stimuli_Rocks480/M_Marble_03.png","response":null,"trial_type":"image-keyboard-response","trial_index":75,"plugin_version":"2.1.0","time_elapsed":206227,"subject_id":"92589","group":"Group2","condition":"1_Rep","full_date":"2026-02-14T04:22:33.779Z","date":"2026-02-14","time":"04:22:33"},{"rt":null,"stimulus":"<p style=\"font-size: 50px; margin: 0; text-align: center;\">+</p>","response":null,"trial_type":"html-keyboard-response","trial_index":76,"plugin_version":"2.1.0","time_elapsed":207230,"subject_id":"92589","group":"Group2","condition":"1_Rep","full_date":"2026-02-14T04:22:33.779Z","date":"2026-02-14","time":"04:22:33"},{"task":"memory_phase","broad_category":"S","image_png":"S_Rock Salt_15.png","image_id":447,"category_name":"Rock Salt","category":28,"distinct_rating":7.79,"distinct_type":"Top","rt":null,"stimulus":"Stimuli_Rocks480/S_Rock Salt_15.png","response":null,"trial_type":"image-keyboard-response","trial_index":77,"plugin_version":"2.1.0","time_elapsed":209746,"subject_id":"92589","group":"Group2","condition":"1_Rep","full_date":"2026-02-14T04:22:33.779Z","date":"2026-02-14","time":"04:22:33"},{"rt":null,"stimulus":"<p style=\"font-size: 50px; margin: 0; text-align: center;\">+</p>","response":null,"trial_type":"html-keyboard-response","trial_index":78,"plugin_version":"2.1.0","time_elapsed":210749,"subject_id":"92589","group":"Group2","condition":"1_Rep","full_date":"2026-02-14T04:22:33.779Z","date":"2026-02-14","time":"04:22:33"},{"task":"memory_phase","broad_category":"I","image_png":"I_Pumice_13.png","image_id":141,"category_name":"Pumice","category":9,"distinct_rating":3.12,"distinct_type":"Bottom","rt":null,"stimulus":"Stimuli_Rocks480/I_Pumice_13.png","response":null,"trial_type":"image-keyboard-response","trial_index":79,"plugin_version":"2.1.0","time_elapsed":213271,"subject_id":"92589","group":"Group2","condition":"1_Rep","full_date":"2026-02-14T04:22:33.779Z","date":"2026-02-14","time":"04:22:33"},{"rt":null,"stimulus":"<p style=\"font-size: 50px; margin: 0; text-align: center;\">+</p>","response":null,"trial_type":"html-keyboard-response","trial_index":80,"plugin_version":"2.1.0","time_elapsed":214273,"subject_id":"92589","group":"Group2","condition":"1_Rep","full_date":"2026-02-14T04:22:33.779Z","date":"2026-02-14","time":"04:22:33"},{"task":"memory_phase","broad_category":"S","image_png":"S_Shale_02.png","image_id":466,"category_name":"Shale","category":30,"distinct_rating":2.9,"distinct_type":"Bottom","rt":null,"stimulus":"Stimuli_Rocks480/S_Shale_02.png","response":null,"trial_type":"image-keyboard-response","trial_index":81,"plugin_version":"2.1.0","time_elapsed":216790,"subject_id":"92589","group":"Group2","condition":"1_Rep","full_date":"2026-02-14T04:22:33.779Z","date":"2026-02-14","time":"04:22:33"},{"rt":null,"stimulus":"<p style=\"font-size: 50px; margin: 0; text-align: center;\">+</p>","response":null,"trial_type":"html-keyboard-response","trial_index":82,"plugin_version":"2.1.0","time_elapsed":217793,"subject_id":"92589","group":"Group2","condition":"1_Rep","full_date":"2026-02-14T04:22:33.779Z","date":"2026-02-14","time":"04:22:33"},{"task":"memory_phase","broad_category":"I","image_png":"I_Basalt_13.png","image_id":29,"category_name":"Basalt","category":2,"distinct_rating":2.68,"distinct_type":"Bottom","rt":null,"stimulus":"Stimuli_Rocks480/I_Basalt_13.png","response":null,"trial_type":"image-keyboard-response","trial_index":83,"plugin_version":"2.1.0","time_elapsed":220312,"subject_id":"92589","group":"Group2","condition":"1_Rep","full_date":"2026-02-14T04:22:33.779Z","date":"2026-02-14","time":"04:22:33"},{"rt":null,"stimulus":"<p style=\"font-size: 50px; margin: 0; text-align: center;\">+</p>","response":null,"trial_type":"html-keyboard-response","trial_index":84,"plugin_version":"2.1.0","time_elapsed":221314,"subject_id":"92589","group":"Group2","condition":"1_Rep","full_date":"2026-02-14T04:22:33.779Z","date":"2026-02-14","time":"04:22:33"},{"task":"memory_phase","broad_category":"M","image_png":"M_Quartzite_15.png","image_id":287,"category_name":"Quartzite","category":18,"distinct_rating":2.19,"distinct_type":"Bottom","rt":null,"stimulus":"Stimuli_Rocks480/M_Quartzite_15.png","response":null,"trial_type":"image-keyboard-response","trial_index":85,"plugin_version":"2.1.0","time_elapsed":223839,"subject_id":"92589","group":"Group2","condition":"1_Rep","full_date":"2026-02-14T04:22:33.779Z","date":"2026-02-14","time":"04:22:33"},{"rt":null,"stimulus":"<p style=\"font-size: 50px; margin: 0; text-align: center;\">+</p>","response":null,"trial_type":"html-keyboard-response","trial_index":86,"plugin_version":"2.1.0","time_elapsed":224844,"subject_id":"92589","group":"Group2","condition":"1_Rep","full_date":"2026-02-14T04:22:33.779Z","date":"2026-02-14","time":"04:22:33"},{"task":"memory_phase","broad_category":"I","image_png":"I_Andesite_04.png","image_id":4,"category_name":"Andesite","category":1,"distinct_rating":3.18,"distinct_type":"Bottom","rt":null,"stimulus":"Stimuli_Rocks480/I_Andesite_04.png","response":null,"trial_type":"image-keyboard-response","trial_index":87,"plugin_version":"2.1.0","time_elapsed":227365,"subject_id":"92589","group":"Group2","condition":"1_Rep","full_date":"2026-02-14T04:22:33.779Z","date":"2026-02-14","time":"04:22:33"},{"rt":null,"stimulus":"<p style=\"font-size: 50px; margin: 0; text-align: center;\">+</p>","response":null,"trial_type":"html-keyboard-response","trial_index":88,"plugin_version":"2.1.0","time_elapsed":228368,"subject_id":"92589","group":"Group2","condition":"1_Rep","full_date":"2026-02-14T04:22:33.779Z","date":"2026-02-14","time":"04:22:33"},{"task":"memory_phase","broad_category":"M","image_png":"M_Phyllite_13.png","image_id":269,"category_name":"Phyllite","category":17,"distinct_rating":2.8,"distinct_type":"Bottom","rt":null,"stimulus":"Stimuli_Rocks480/M_Phyllite_13.png","response":null,"trial_type":"image-keyboard-response","trial_index":89,"plugin_version":"2.1.0","time_elapsed":230887,"subject_id":"92589","group":"Group2","condition":"1_Rep","full_date":"2026-02-14T04:22:33.779Z","date":"2026-02-14","time":"04:22:33"},{"rt":null,"stimulus":"<p style=\"font-size: 50px; margin: 0; text-align: center;\">+</p>","response":null,"trial_type":"html-keyboard-response","trial_index":90,"plugin_version":"2.1.0","time_elapsed":231889,"subject_id":"92589","group":"Group2","condition":"1_Rep","full_date":"2026-02-14T04:22:33.779Z","date":"2026-02-14","time":"04:22:33"},{"task":"memory_phase","broad_category":"I","image_png":"I_Rhyolite_08.png","image_id":152,"category_name":"Rhyolite","category":10,"distinct_rating":1.38,"distinct_type":"Bottom","rt":null,"stimulus":"Stimuli_Rocks480/I_Rhyolite_08.png","response":null,"trial_type":"image-keyboard-response","trial_index":91,"plugin_version":"2.1.0","time_elapsed":234406,"subject_id":"92589","group":"Group2","condition":"1_Rep","full_date":"2026-02-14T04:22:33.779Z","date":"2026-02-14","time":"04:22:33"},{"rt":null,"stimulus":"<p style=\"font-size: 50px; margin: 0; text-align: center;\">+</p>","response":null,"trial_type":"html-keyboard-response","trial_index":92,"plugin_version":"2.1.0","time_elapsed":235408,"subject_id":"92589","group":"Group2","condition":"1_Rep","full_date":"2026-02-14T04:22:33.779Z","date":"2026-02-14","time":"04:22:33"},{"task":"memory_phase","broad_category":"I","image_png":"I_Rhyolite_05.png","image_id":149,"category_name":"Rhyolite","category":10,"distinct_rating":3.02,"distinct_type":"Bottom","rt":null,"stimulus":"Stimuli_Rocks480/I_Rhyolite_05.png","response":null,"trial_type":"image-keyboard-response","trial_index":93,"plugin_version":"2.1.0","time_elapsed":237929,"subject_id":"92589","group":"Group2","condition":"1_Rep","full_date":"2026-02-14T04:22:33.779Z","date":"2026-02-14","time":"04:22:33"},{"rt":null,"stimulus":"<p style=\"font-size: 50px; margin: 0; text-align: center;\">+</p>","response":null,"trial_type":"html-keyboard-response","trial_index":94,"plugin_version":"2.1.0","time_elapsed":238932,"subject_id":"92589","group":"Group2","condition":"1_Rep","full_date":"2026-02-14T04:22:33.779Z","date":"2026-02-14","time":"04:22:33"},{"task":"memory_phase","broad_category":"S","image_png":"S_Sandstone_04.png","image_id":452,"category_name":"Sandstone","category":29,"distinct_rating":1.8,"distinct_type":"Bottom","rt":null,"stimulus":"Stimuli_Rocks480/S_Sandstone_04.png","response":null,"trial_type":"image-keyboard-response","trial_index":95,"plugin_version":"2.1.0","time_elapsed":241450,"subject_id":"92589","group":"Group2","condition":"1_Rep","full_date":"2026-02-14T04:22:33.779Z","date":"2026-02-14","time":"04:22:33"},{"rt":null,"stimulus":"<p style=\"font-size: 50px; margin: 0; text-align: center;\">+</p>","response":null,"trial_type":"html-keyboard-response","trial_index":96,"plugin_version":"2.1.0","time_elapsed":242453,"subject_id":"92589","group":"Group2","condition":"1_Rep","full_date":"2026-02-14T04:22:33.779Z","date":"2026-02-14","time":"04:22:33"},{"task":"memory_phase","broad_category":"I","image_png":"I_Basalt_08.png","image_id":24,"category_name":"Basalt","category":2,"distinct_rating":2.31,"distinct_type":"Bottom","rt":null,"stimulus":"Stimuli_Rocks480/I_Basalt_08.png","response":null,"trial_type":"image-keyboard-response","trial_index":97,"plugin_version":"2.1.0","time_elapsed":244975,"subject_id":"92589","group":"Group2","condition":"1_Rep","full_date":"2026-02-14T04:22:33.779Z","date":"2026-02-14","time":"04:22:33"},{"rt":null,"stimulus":"<p style=\"font-size: 50px; margin: 0; text-align: center;\">+</p>","response":null,"trial_type":"html-keyboard-response","trial_index":98,"plugin_version":"2.1.0","time_elapsed":245978,"subject_id":"92589","group":"Group2","condition":"1_Rep","full_date":"2026-02-14T04:22:33.779Z","date":"2026-02-14","time":"04:22:33"},{"task":"memory_phase","broad_category":"I","image_png":"I_Obsidian_06.png","image_id":86,"category_name":"Obsidian","category":6,"distinct_rating":8.01,"distinct_type":"Top","rt":null,"stimulus":"Stimuli_Rocks480/I_Obsidian_06.png","response":null,"trial_type":"image-keyboard-response","trial_index":99,"plugin_version":"2.1.0","time_elapsed":248503,"subject_id":"92589","group":"Group2","condition":"1_Rep","full_date":"2026-02-14T04:22:33.779Z","date":"2026-02-14","time":"04:22:33"},{"rt":null,"stimulus":"<p style=\"font-size: 50px; margin: 0; text-align: center;\">+</p>","response":null,"trial_type":"html-keyboard-response","trial_index":100,"plugin_version":"2.1.0","time_elapsed":249507,"subject_id":"92589","group":"Group2","condition":"1_Rep","full_date":"2026-02-14T04:22:33.779Z","date":"2026-02-14","time":"04:22:33"},{"task":"memory_phase","broad_category":"S","image_png":"S_Conglomerate_14.png","image_id":382,"category_name":"Conglomerate","category":24,"distinct_rating":6.86,"distinct_type":"Top","rt":null,"stimulus":"Stimuli_Rocks480/S_Conglomerate_14.png","response":null,"trial_type":"image-keyboard-response","trial_index":101,"plugin_version":"2.1.0","time_elapsed":252027,"subject_id":"92589","group":"Group2","condition":"1_Rep","full_date":"2026-02-14T04:22:33.779Z","date":"2026-02-14","time":"04:22:33"},{"rt":null,"stimulus":"<p style=\"font-size: 50px; margin: 0; text-align: center;\">+</p>","response":null,"trial_type":"html-keyboard-response","trial_index":102,"plugin_version":"2.1.0","time_elapsed":253029,"subject_id":"92589","group":"Group2","condition":"1_Rep","full_date":"2026-02-14T04:22:33.779Z","date":"2026-02-14","time":"04:22:33"},{"task":"memory_phase","broad_category":"I","image_png":"I_Gabbro_14.png","image_id":62,"category_name":"Gabbro","category":4,"distinct_rating":2.95,"distinct_type":"Bottom","rt":null,"stimulus":"Stimuli_Rocks480/I_Gabbro_14.png","response":null,"trial_type":"image-keyboard-response","trial_index":103,"plugin_version":"2.1.0","time_elapsed":255548,"subject_id":"92589","group":"Group2","condition":"1_Rep","full_date":"2026-02-14T04:22:33.779Z","date":"2026-02-14","time":"04:22:33"},{"rt":null,"stimulus":"<p style=\"font-size: 50px; margin: 0; text-align: center;\">+</p>","response":null,"trial_type":"html-keyboard-response","trial_index":104,"plugin_version":"2.1.0","time_elapsed":256550,"subject_id":"92589","group":"Group2","condition":"1_Rep","full_date":"2026-02-14T04:22:33.779Z","date":"2026-02-14","time":"04:22:33"},{"task":"memory_phase","broad_category":"M","image_png":"M_Slate_04.png","image_id":308,"category_name":"Slate","category":20,"distinct_rating":2.2,"distinct_type":"Bottom","rt":null,"stimulus":"Stimuli_Rocks480/M_Slate_04.png","response":null,"trial_type":"image-keyboard-response","trial_index":105,"plugin_version":"2.1.0","time_elapsed":259065,"subject_id":"92589","group":"Group2","condition":"1_Rep","full_date":"2026-02-14T04:22:33.779Z","date":"2026-02-14","time":"04:22:33"},{"rt":23829,"stimulus":"<div style=\"max-width: 760px; margin: auto; font-size: 20px; line-height: 1.5;\">\n      <h1 style=\"text-align:center; font-size: 30px;\">Instructions for the Test Phase</h1>\n      <p>\n        The study phase is now complete.\n      </p>\n      <p>\n        In the test phase, you will again see a series of rock images. \n        Some will be ones you saw before - during the study phase, while others will be new.  \n        <b>Your task</b> is to decide whether you have seen each image before by pressing the corresponding key on your keyboard:<br><br>\n          <b>A</b> - NO (you did not see this image before)<br>\n          <b>L</b> - YES (you saw this image before)<br><br>\n        The test will proceed at your own pace. You will receive feedback after each response.  \n        Please try to respond <b>as accurately as possible</b>.\n      </p>\n      <p>\n        <b>Reminder:</b> If your computer has multiple language settings (e.g., English and another language),\n        please ensure it is set to English during the test phase.\n      </p>\n      <p>\n        You can track your progress using the <b>completion bar</b> at the top of the screen.  \n        Note that it has been refreshed to reflect your progress during this final phase.\n      </p>\n      <p>\n        Press the button below when you are ready to continue.\n      </p>\n    </div>","response":0,"trial_type":"html-button-response","trial_index":106,"plugin_version":"2.1.0","time_elapsed":282914,"subject_id":"92589","group":"Group2","condition":"1_Rep","full_date":"2026-02-14T04:22:33.779Z","date":"2026-02-14","time":"04:22:33"},{"correct_response":"l","task":"test_phase","broad_category":"I","image_png":"I_Diorite_10.png","image_id":42,"category_name":"Diorite","category":3,"distinct_rating":2.84,"distinct_type":"Bottom","item_type":"Target","rt":12642,"stimulus":"Stimuli_Rocks480/I_Diorite_10.png","response":"l","trial_type":"image-keyboard-response","trial_index":107,"plugin_version":"2.1.0","time_elapsed":295568,"subject_id":"92589","group":"Group2","condition":"1_Rep","full_date":"2026-02-14T04:22:33.779Z","date":"2026-02-14","time":"04:22:33","cor_ans":true},{"trial_type":"html-keyboard-response","rt":null,"stimulus":"<p style=\"color: green; font-size: 50px; font-weight: bold;\">Correct</p>","response":null,"trial_index":108,"plugin_version":"2.1.0","time_elapsed":296072,"subject_id":"92589","group":"Group2","condition":"1_Rep","full_date":"2026-02-14T04:22:33.779Z","date":"2026-02-14","time":"04:22:33"},{"correct_response":"l","task":"test_phase","broad_category":"S","image_png":"S_Shale_02.png","image_id":466,"category_name":"Shale","category":30,"distinct_rating":2.9,"distinct_type":"Bottom","item_type":"Target","rt":4686,"stimulus":"Stimuli_Rocks480/S_Shale_02.png","response":"l","trial_type":"image-keyboard-response","trial_index":109,"plugin_version":"2.1.0","time_elapsed":300760,"subject_id":"92589","group":"Group2","condition":"1_Rep","full_date":"2026-02-14T04:22:33.779Z","date":"2026-02-14","time":"04:22:33","cor_ans":true},{"trial_type":"html-keyboard-response","rt":null,"stimulus":"<p style=\"color: green; font-size: 50px; font-weight: bold;\">Correct</p>","response":null,"trial_index":110,"plugin_version":"2.1.0","time_elapsed":301263,"subject_id":"92589","group":"Group2","condition":"1_Rep","full_date":"2026-02-14T04:22:33.779Z","date":"2026-02-14","time":"04:22:33"},{"correct_response":"l","task":"test_phase","broad_category":"I","image_png":"I_Andesite_09.png","image_id":9,"category_name":"Andesite","category":1,"distinct_rating":2.49,"distinct_type":"Bottom","item_type":"Target","rt":3439,"stimulus":"Stimuli_Rocks480/I_Andesite_09.png","response":"a","trial_type":"image-keyboard-response","trial_index":111,"plugin_version":"2.1.0","time_elapsed":304717,"subject_id":"92589","group":"Group2","condition":"1_Rep","full_date":"2026-02-14T04:22:33.779Z","date":"2026-02-14","time":"04:22:33","cor_ans":false},{"trial_type":"html-keyboard-response","rt":null,"stimulus":"<p style=\"color: red; font-size: 50px; font-weight: bold;\">Incorrect</p>","response":null,"trial_index":112,"plugin_version":"2.1.0","time_elapsed":305219,"subject_id":"92589","group":"Group2","condition":"1_Rep","full_date":"2026-02-14T04:22:33.779Z","date":"2026-02-14","time":"04:22:33"},{"correct_response":"l","task":"test_phase","broad_category":"I","image_png":"I_Gabbro_12.png","image_id":60,"category_name":"Gabbro","category":4,"distinct_rating":2.6,"distinct_type":"Bottom","item_type":"Target","rt":9337,"stimulus":"Stimuli_Rocks480/I_Gabbro_12.png","response":"a","trial_type":"image-keyboard-response","trial_index":113,"plugin_version":"2.1.0","time_elapsed":314578,"subject_id":"92589","group":"Group2","condition":"1_Rep","full_date":"2026-02-14T04:22:33.779Z","date":"2026-02-14","time":"04:22:33","cor_ans":false},{"trial_type":"html-keyboard-response","rt":null,"stimulus":"<p style=\"color: red; font-size: 50px; font-weight: bold;\">Incorrect</p>","response":null,"trial_index":114,"plugin_version":"2.1.0","time_elapsed":315081,"subject_id":"92589","group":"Group2","condition":"1_Rep","full_date":"2026-02-14T04:22:33.779Z","date":"2026-02-14","time":"04:22:33"},{"correct_response":"a","task":"test_phase","broad_category":"S","image_png":"S_Sandstone_15.png","image_id":463,"category_name":"Sandstone","category":29,"distinct_rating":2,"distinct_type":"Bottom","item_type":"Foil","rt":10608,"stimulus":"Stimuli_Rocks480/S_Sandstone_15.png","response":"a","trial_type":"image-keyboard-response","trial_index":115,"plugin_version":"2.1.0","time_elapsed":325711,"subject_id":"92589","group":"Group2","condition":"1_Rep","full_date":"2026-02-14T04:22:33.779Z","date":"2026-02-14","time":"04:22:33","cor_ans":true},{"trial_type":"html-keyboard-response","rt":null,"stimulus":"<p style=\"color: green; font-size: 50px; font-weight: bold;\">Correct</p>","response":null,"trial_index":116,"plugin_version":"2.1.0","time_elapsed":326213,"subject_id":"92589","group":"Group2","condition":"1_Rep","full_date":"2026-02-14T04:22:33.779Z","date":"2026-02-14","time":"04:22:33"},{"correct_response":"a","task":"test_phase","broad_category":"M","image_png":"M_Gneiss_05.png","image_id":197,"category_name":"Gneiss","category":13,"distinct_rating":2.97,"distinct_type":"Bottom","item_type":"Foil","rt":11999,"stimulus":"Stimuli_Rocks480/M_Gneiss_05.png","response":"a","trial_type":"image-keyboard-response","trial_index":117,"plugin_version":"2.1.0","time_elapsed":338239,"subject_id":"92589","group":"Group2","condition":"1_Rep","full_date":"2026-02-14T04:22:33.779Z","date":"2026-02-14","time":"04:22:33","cor_ans":true},{"trial_type":"html-keyboard-response","rt":null,"stimulus":"<p style=\"color: green; font-size: 50px; font-weight: bold;\">Correct</p>","response":null,"trial_index":118,"plugin_version":"2.1.0","time_elapsed":338742,"subject_id":"92589","group":"Group2","condition":"1_Rep","full_date":"2026-02-14T04:22:33.779Z","date":"2026-02-14","time":"04:22:33"},{"correct_response":"l","task":"test_phase","broad_category":"S","image_png":"S_Dolomite_01.png","image_id":385,"category_name":"Dolomite","category":25,"distinct_rating":1.43,"distinct_type":"Bottom","item_type":"Target","rt":7684,"stimulus":"Stimuli_Rocks480/S_Dolomite_01.png","response":"l","trial_type":"image-keyboard-response","trial_index":119,"plugin_version":"2.1.0","time_elapsed":346450,"subject_id":"92589","group":"Group2","condition":"1_Rep","full_date":"2026-02-14T04:22:33.779Z","date":"2026-02-14","time":"04:22:33","cor_ans":true},{"trial_type":"html-keyboard-response","rt":null,"stimulus":"<p style=\"color: green; font-size: 50px; font-weight: bold;\">Correct</p>","response":null,"trial_index":120,"plugin_version":"2.1.0","time_elapsed":346952,"subject_id":"92589","group":"Group2","condition":"1_Rep","full_date":"2026-02-14T04:22:33.779Z","date":"2026-02-14","time":"04:22:33"},{"correct_response":"l","task":"test_phase","broad_category":"M","image_png":"M_Gneiss_15.png","image_id":207,"category_name":"Gneiss","category":13,"distinct_rating":3.11,"distinct_type":"Bottom","item_type":"Target","rt":1474,"stimulus":"Stimuli_Rocks480/M_Gneiss_15.png","response":"l","trial_type":"image-keyboard-response","trial_index":121,"plugin_version":"2.1.0","time_elapsed":348441,"subject_id":"92589","group":"Group2","condition":"1_Rep","full_date":"2026-02-14T04:22:33.779Z","date":"2026-02-14","time":"04:22:33","cor_ans":true},{"trial_type":"html-keyboard-response","rt":null,"stimulus":"<p style=\"color: green; font-size: 50px; font-weight: bold;\">Correct</p>","response":null,"trial_index":122,"plugin_version":"2.1.0","time_elapsed":348943,"subject_id":"92589","group":"Group2","condition":"1_Rep","full_date":"2026-02-14T04:22:33.779Z","date":"2026-02-14","time":"04:22:33"},{"correct_response":"a","task":"test_phase","broad_category":"I","image_png":"I_Diorite_04.png","image_id":36,"category_name":"Diorite","category":3,"distinct_rating":2.98,"distinct_type":"Bottom","item_type":"Foil","rt":1352,"stimulus":"Stimuli_Rocks480/I_Diorite_04.png","response":"l","trial_type":"image-keyboard-response","trial_index":123,"plugin_version":"2.1.0","time_elapsed":350315,"subject_id":"92589","group":"Group2","condition":"1_Rep","full_date":"2026-02-14T04:22:33.779Z","date":"2026-02-14","time":"04:22:33","cor_ans":false},{"trial_type":"html-keyboard-response","rt":null,"stimulus":"<p style=\"color: red; font-size: 50px; font-weight: bold;\">Incorrect</p>","response":null,"trial_index":124,"plugin_version":"2.1.0","time_elapsed":350818,"subject_id":"92589","group":"Group2","condition":"1_Rep","full_date":"2026-02-14T04:22:33.779Z","date":"2026-02-14","time":"04:22:33"},{"correct_response":"a","task":"test_phase","broad_category":"I","image_png":"I_Rhyolite_11.png","image_id":155,"category_name":"Rhyolite","category":10,"distinct_rating":1.73,"distinct_type":"Bottom","item_type":"Foil","rt":1547,"stimulus":"Stimuli_Rocks480/I_Rhyolite_11.png","response":"l","trial_type":"image-keyboard-response","trial_index":125,"plugin_version":"2.1.0","time_elapsed":352380,"subject_id":"92589","group":"Group2","condition":"1_Rep","full_date":"2026-02-14T04:22:33.779Z","date":"2026-02-14","time":"04:22:33","cor_ans":false},{"trial_type":"html-keyboard-response","rt":null,"stimulus":"<p style=\"color: red; font-size: 50px; font-weight: bold;\">Incorrect</p>","response":null,"trial_index":126,"plugin_version":"2.1.0","time_elapsed":352882,"subject_id":"92589","group":"Group2","condition":"1_Rep","full_date":"2026-02-14T04:22:33.779Z","date":"2026-02-14","time":"04:22:33"},{"correct_response":"a","task":"test_phase","broad_category":"I","image_png":"I_Gabbro_16.png","image_id":64,"category_name":"Gabbro","category":4,"distinct_rating":2.52,"distinct_type":"Bottom","item_type":"Foil","rt":1216,"stimulus":"Stimuli_Rocks480/I_Gabbro_16.png","response":"l","trial_type":"image-keyboard-response","trial_index":127,"plugin_version":"2.1.0","time_elapsed":354116,"subject_id":"92589","group":"Group2","condition":"1_Rep","full_date":"2026-02-14T04:22:33.779Z","date":"2026-02-14","time":"04:22:33","cor_ans":false},{"trial_type":"html-keyboard-response","rt":null,"stimulus":"<p style=\"color: red; font-size: 50px; font-weight: bold;\">Incorrect</p>","response":null,"trial_index":128,"plugin_version":"2.1.0","time_elapsed":354619,"subject_id":"92589","group":"Group2","condition":"1_Rep","full_date":"2026-02-14T04:22:33.779Z","date":"2026-02-14","time":"04:22:33"},{"correct_response":"a","task":"test_phase","broad_category":"I","image_png":"I_Pumice_12.png","image_id":140,"category_name":"Pumice","category":9,"distinct_rating":2.97,"distinct_type":"Bottom","item_type":"Foil","rt":2228,"stimulus":"Stimuli_Rocks480/I_Pumice_12.png","response":"a","trial_type":"image-keyboard-response","trial_index":129,"plugin_version":"2.1.0","time_elapsed":356858,"subject_id":"92589","group":"Group2","condition":"1_Rep","full_date":"2026-02-14T04:22:33.779Z","date":"2026-02-14","time":"04:22:33","cor_ans":true},{"trial_type":"html-keyboard-response","rt":null,"stimulus":"<p style=\"color: green; font-size: 50px; font-weight: bold;\">Correct</p>","response":null,"trial_index":130,"plugin_version":"2.1.0","time_elapsed":357362,"subject_id":"92589","group":"Group2","condition":"1_Rep","full_date":"2026-02-14T04:22:33.779Z","date":"2026-02-14","time":"04:22:33"},{"correct_response":"l","task":"test_phase","broad_category":"I","image_png":"I_Basalt_10.png","image_id":26,"category_name":"Basalt","category":2,"distinct_rating":2.76,"distinct_type":"Bottom","item_type":"Target","rt":1447,"stimulus":"Stimuli_Rocks480/I_Basalt_10.png","response":"l","trial_type":"image-keyboard-response","trial_index":131,"plugin_version":"2.1.0","time_elapsed":358827,"subject_id":"92589","group":"Group2","condition":"1_Rep","full_date":"2026-02-14T04:22:33.779Z","date":"2026-02-14","time":"04:22:33","cor_ans":true},{"trial_type":"html-keyboard-response","rt":null,"stimulus":"<p style=\"color: green; font-size: 50px; font-weight: bold;\">Correct</p>","response":null,"trial_index":132,"plugin_version":"2.1.0","time_elapsed":359330,"subject_id":"92589","group":"Group2","condition":"1_Rep","full_date":"2026-02-14T04:22:33.779Z","date":"2026-02-14","time":"04:22:33"},{"correct_response":"l","task":"test_phase","broad_category":"S","image_png":"S_Dolomite_16.png","image_id":400,"category_name":"Dolomite","category":25,"distinct_rating":1.71,"distinct_type":"Bottom","item_type":"Target","rt":9468,"stimulus":"Stimuli_Rocks480/S_Dolomite_16.png","response":"l","trial_type":"image-keyboard-response","trial_index":133,"plugin_version":"2.1.0","time_elapsed":368820,"subject_id":"92589","group":"Group2","condition":"1_Rep","full_date":"2026-02-14T04:22:33.779Z","date":"2026-02-14","time":"04:22:33","cor_ans":true},{"trial_type":"html-keyboard-response","rt":null,"stimulus":"<p style=\"color: green; font-size: 50px; font-weight: bold;\">Correct</p>","response":null,"trial_index":134,"plugin_version":"2.1.0","time_elapsed":369326,"subject_id":"92589","group":"Group2","condition":"1_Rep","full_date":"2026-02-14T04:22:33.779Z","date":"2026-02-14","time":"04:22:33"},{"correct_response":"a","task":"test_phase","broad_category":"M","image_png":"M_Slate_11.png","image_id":315,"category_name":"Slate","category":20,"distinct_rating":2.75,"distinct_type":"Bottom","item_type":"Foil","rt":6512,"stimulus":"Stimuli_Rocks480/M_Slate_11.png","response":"a","trial_type":"image-keyboard-response","trial_index":135,"plugin_version":"2.1.0","time_elapsed":375857,"subject_id":"92589","group":"Group2","condition":"1_Rep","full_date":"2026-02-14T04:22:33.779Z","date":"2026-02-14","time":"04:22:33","cor_ans":true},{"trial_type":"html-keyboard-response","rt":null,"stimulus":"<p style=\"color: green; font-size: 50px; font-weight: bold;\">Correct</p>","response":null,"trial_index":136,"plugin_version":"2.1.0","time_elapsed":376360,"subject_id":"92589","group":"Group2","condition":"1_Rep","full_date":"2026-02-14T04:22:33.779Z","date":"2026-02-14","time":"04:22:33"},{"correct_response":"l","task":"test_phase","broad_category":"I","image_png":"I_Rhyolite_05.png","image_id":149,"category_name":"Rhyolite","category":10,"distinct_rating":3.02,"distinct_type":"Bottom","item_type":"Target","rt":1429,"stimulus":"Stimuli_Rocks480/I_Rhyolite_05.png","response":"l","trial_type":"image-keyboard-response","trial_index":137,"plugin_version":"2.1.0","time_elapsed":377812,"subject_id":"92589","group":"Group2","condition":"1_Rep","full_date":"2026-02-14T04:22:33.779Z","date":"2026-02-14","time":"04:22:33","cor_ans":true},{"trial_type":"html-keyboard-response","rt":null,"stimulus":"<p style=\"color: green; font-size: 50px; font-weight: bold;\">Correct</p>","response":null,"trial_index":138,"plugin_version":"2.1.0","time_elapsed":378315,"subject_id":"92589","group":"Group2","condition":"1_Rep","full_date":"2026-02-14T04:22:33.779Z","date":"2026-02-14","time":"04:22:33"},{"correct_response":"a","task":"test_phase","broad_category":"I","image_png":"I_Gabbro_08.png","image_id":56,"category_name":"Gabbro","category":4,"distinct_rating":3.02,"distinct_type":"Bottom","item_type":"Foil","rt":1397,"stimulus":"Stimuli_Rocks480/I_Gabbro_08.png","response":"l","trial_type":"image-keyboard-response","trial_index":139,"plugin_version":"2.1.0","time_elapsed":379728,"subject_id":"92589","group":"Group2","condition":"1_Rep","full_date":"2026-02-14T04:22:33.779Z","date":"2026-02-14","time":"04:22:33","cor_ans":false},{"trial_type":"html-keyboard-response","rt":null,"stimulus":"<p style=\"color: red; font-size: 50px; font-weight: bold;\">Incorrect</p>","response":null,"trial_index":140,"plugin_version":"2.1.0","time_elapsed":380231,"subject_id":"92589","group":"Group2","condition":"1_Rep","full_date":"2026-02-14T04:22:33.779Z","date":"2026-02-14","time":"04:22:33"},{"correct_response":"l","task":"test_phase","broad_category":"S","image_png":"S_Shale_07.png","image_id":471,"category_name":"Shale","category":30,"distinct_rating":2.73,"distinct_type":"Bottom","item_type":"Target","rt":12257,"stimulus":"Stimuli_Rocks480/S_Shale_07.png","response":"l","trial_type":"image-keyboard-response","trial_index":141,"plugin_version":"2.1.0","time_elapsed":392504,"subject_id":"92589","group":"Group2","condition":"1_Rep","full_date":"2026-02-14T04:22:33.779Z","date":"2026-02-14","time":"04:22:33","cor_ans":true},{"trial_type":"html-keyboard-response","rt":null,"stimulus":"<p style=\"color: green; font-size: 50px; font-weight: bold;\">Correct</p>","response":null,"trial_index":142,"plugin_version":"2.1.0","time_elapsed":393008,"subject_id":"92589","group":"Group2","condition":"1_Rep","full_date":"2026-02-14T04:22:33.779Z","date":"2026-02-14","time":"04:22:33"},{"correct_response":"a","task":"test_phase","broad_category":"M","image_png":"M_Quartzite_05.png","image_id":277,"category_name":"Quartzite","category":18,"distinct_rating":2.23,"distinct_type":"Bottom","item_type":"Foil","rt":1145,"stimulus":"Stimuli_Rocks480/M_Quartzite_05.png","response":"a","trial_type":"image-keyboard-response","trial_index":143,"plugin_version":"2.1.0","time_elapsed":394173,"subject_id":"92589","group":"Group2","condition":"1_Rep","full_date":"2026-02-14T04:22:33.779Z","date":"2026-02-14","time":"04:22:33","cor_ans":true},{"trial_type":"html-keyboard-response","rt":null,"stimulus":"<p style=\"color: green; font-size: 50px; font-weight: bold;\">Correct</p>","response":null,"trial_index":144,"plugin_version":"2.1.0","time_elapsed":394676,"subject_id":"92589","group":"Group2","condition":"1_Rep","full_date":"2026-02-14T04:22:33.779Z","date":"2026-02-14","time":"04:22:33"},{"correct_response":"a","task":"test_phase","broad_category":"I","image_png":"I_Pegmatite_16.png","image_id":112,"category_name":"Pegmatite","category":7,"distinct_rating":7.03,"distinct_type":"Top","item_type":"Foil","rt":1168,"stimulus":"Stimuli_Rocks480/I_Pegmatite_16.png","response":"a","trial_type":"image-keyboard-response","trial_index":145,"plugin_version":"2.1.0","time_elapsed":395863,"subject_id":"92589","group":"Group2","condition":"1_Rep","full_date":"2026-02-14T04:22:33.779Z","date":"2026-02-14","time":"04:22:33","cor_ans":true},{"trial_type":"html-keyboard-response","rt":null,"stimulus":"<p style=\"color: green; font-size: 50px; font-weight: bold;\">Correct</p>","response":null,"trial_index":146,"plugin_version":"2.1.0","time_elapsed":396365,"subject_id":"92589","group":"Group2","condition":"1_Rep","full_date":"2026-02-14T04:22:33.779Z","date":"2026-02-14","time":"04:22:33"},{"correct_response":"l","task":"test_phase","broad_category":"I","image_png":"I_Diorite_01.png","image_id":33,"category_name":"Diorite","category":3,"distinct_rating":2.97,"distinct_type":"Bottom","item_type":"Target","rt":10913,"stimulus":"Stimuli_Rocks480/I_Diorite_01.png","response":"l","trial_type":"image-keyboard-response","trial_index":147,"plugin_version":"2.1.0","time_elapsed":407303,"subject_id":"92589","group":"Group2","condition":"1_Rep","full_date":"2026-02-14T04:22:33.779Z","date":"2026-02-14","time":"04:22:33","cor_ans":true},{"trial_type":"html-keyboard-response","rt":null,"stimulus":"<p style=\"color: green; font-size: 50px; font-weight: bold;\">Correct</p>","response":null,"trial_index":148,"plugin_version":"2.1.0","time_elapsed":407807,"subject_id":"92589","group":"Group2","condition":"1_Rep","full_date":"2026-02-14T04:22:33.779Z","date":"2026-02-14","time":"04:22:33"},{"correct_response":"a","task":"test_phase","broad_category":"M","image_png":"M_Phyllite_07.png","image_id":263,"category_name":"Phyllite","category":17,"distinct_rating":2.59,"distinct_type":"Bottom","item_type":"Foil","rt":1156,"stimulus":"Stimuli_Rocks480/M_Phyllite_07.png","response":"a","trial_type":"image-keyboard-response","trial_index":149,"plugin_version":"2.1.0","time_elapsed":408979,"subject_id":"92589","group":"Group2","condition":"1_Rep","full_date":"2026-02-14T04:22:33.779Z","date":"2026-02-14","time":"04:22:33","cor_ans":true},{"trial_type":"html-keyboard-response","rt":null,"stimulus":"<p style=\"color: green; font-size: 50px; font-weight: bold;\">Correct</p>","response":null,"trial_index":150,"plugin_version":"2.1.0","time_elapsed":409482,"subject_id":"92589","group":"Group2","condition":"1_Rep","full_date":"2026-02-14T04:22:33.779Z","date":"2026-02-14","time":"04:22:33"},{"correct_response":"a","task":"test_phase","broad_category":"S","image_png":"S_Dolomite_12.png","image_id":396,"category_name":"Dolomite","category":25,"distinct_rating":1.85,"distinct_type":"Bottom","item_type":"Foil","rt":1159,"stimulus":"Stimuli_Rocks480/S_Dolomite_12.png","response":"a","trial_type":"image-keyboard-response","trial_index":151,"plugin_version":"2.1.0","time_elapsed":410658,"subject_id":"92589","group":"Group2","condition":"1_Rep","full_date":"2026-02-14T04:22:33.779Z","date":"2026-02-14","time":"04:22:33","cor_ans":true},{"trial_type":"html-keyboard-response","rt":null,"stimulus":"<p style=\"color: green; font-size: 50px; font-weight: bold;\">Correct</p>","response":null,"trial_index":152,"plugin_version":"2.1.0","time_elapsed":411161,"subject_id":"92589","group":"Group2","condition":"1_Rep","full_date":"2026-02-14T04:22:33.779Z","date":"2026-02-14","time":"04:22:33"},{"correct_response":"l","task":"test_phase","broad_category":"S","image_png":"S_Rock Salt_13.png","image_id":445,"category_name":"Rock Salt","category":28,"distinct_rating":7.58,"distinct_type":"Top","item_type":"Target","rt":1522,"stimulus":"Stimuli_Rocks480/S_Rock Salt_13.png","response":"l","trial_type":"image-keyboard-response","trial_index":153,"plugin_version":"2.1.0","time_elapsed":412714,"subject_id":"92589","group":"Group2","condition":"1_Rep","full_date":"2026-02-14T04:22:33.779Z","date":"2026-02-14","time":"04:22:33","cor_ans":true},{"trial_type":"html-keyboard-response","rt":null,"stimulus":"<p style=\"color: green; font-size: 50px; font-weight: bold;\">Correct</p>","response":null,"trial_index":154,"plugin_version":"2.1.0","time_elapsed":413218,"subject_id":"92589","group":"Group2","condition":"1_Rep","full_date":"2026-02-14T04:22:33.779Z","date":"2026-02-14","time":"04:22:33"},{"correct_response":"a","task":"test_phase","broad_category":"I","image_png":"I_Gabbro_11.png","image_id":59,"category_name":"Gabbro","category":4,"distinct_rating":1.99,"distinct_type":"Bottom","item_type":"Foil","rt":19407,"stimulus":"Stimuli_Rocks480/I_Gabbro_11.png","response":"a","trial_type":"image-keyboard-response","trial_index":155,"plugin_version":"2.1.0","time_elapsed":432641,"subject_id":"92589","group":"Group2","condition":"1_Rep","full_date":"2026-02-14T04:22:33.779Z","date":"2026-02-14","time":"04:22:33","cor_ans":true},{"trial_type":"html-keyboard-response","rt":null,"stimulus":"<p style=\"color: green; font-size: 50px; font-weight: bold;\">Correct</p>","response":null,"trial_index":156,"plugin_version":"2.1.0","time_elapsed":433144,"subject_id":"92589","group":"Group2","condition":"1_Rep","full_date":"2026-02-14T04:22:33.779Z","date":"2026-02-14","time":"04:22:33"},{"correct_response":"l","task":"test_phase","broad_category":"S","image_png":"S_Sandstone_04.png","image_id":452,"category_name":"Sandstone","category":29,"distinct_rating":1.8,"distinct_type":"Bottom","item_type":"Target","rt":1277,"stimulus":"Stimuli_Rocks480/S_Sandstone_04.png","response":"a","trial_type":"image-keyboard-response","trial_index":157,"plugin_version":"2.1.0","time_elapsed":434441,"subject_id":"92589","group":"Group2","condition":"1_Rep","full_date":"2026-02-14T04:22:33.779Z","date":"2026-02-14","time":"04:22:33","cor_ans":false},{"trial_type":"html-keyboard-response","rt":null,"stimulus":"<p style=\"color: red; font-size: 50px; font-weight: bold;\">Incorrect</p>","response":null,"trial_index":158,"plugin_version":"2.1.0","time_elapsed":434944,"subject_id":"92589","group":"Group2","condition":"1_Rep","full_date":"2026-02-14T04:22:33.779Z","date":"2026-02-14","time":"04:22:33"},{"correct_response":"a","task":"test_phase","broad_category":"I","image_png":"I_Pumice_08.png","image_id":136,"category_name":"Pumice","category":9,"distinct_rating":3.1,"distinct_type":"Bottom","item_type":"Foil","rt":1379,"stimulus":"Stimuli_Rocks480/I_Pumice_08.png","response":"a","trial_type":"image-keyboard-response","trial_index":159,"plugin_version":"2.1.0","time_elapsed":436342,"subject_id":"92589","group":"Group2","condition":"1_Rep","full_date":"2026-02-14T04:22:33.779Z","date":"2026-02-14","time":"04:22:33","cor_ans":true},{"trial_type":"html-keyboard-response","rt":null,"stimulus":"<p style=\"color: green; font-size: 50px; font-weight: bold;\">Correct</p>","response":null,"trial_index":160,"plugin_version":"2.1.0","time_elapsed":436845,"subject_id":"92589","group":"Group2","condition":"1_Rep","full_date":"2026-02-14T04:22:33.779Z","date":"2026-02-14","time":"04:22:33"},{"correct_response":"a","task":"test_phase","broad_category":"I","image_png":"I_Andesite_06.png","image_id":6,"category_name":"Andesite","category":1,"distinct_rating":3.17,"distinct_type":"Bottom","item_type":"Foil","rt":1504,"stimulus":"Stimuli_Rocks480/I_Andesite_06.png","response":"a","trial_type":"image-keyboard-response","trial_index":161,"plugin_version":"2.1.0","time_elapsed":438369,"subject_id":"92589","group":"Group2","condition":"1_Rep","full_date":"2026-02-14T04:22:33.779Z","date":"2026-02-14","time":"04:22:33","cor_ans":true},{"trial_type":"html-keyboard-response","rt":null,"stimulus":"<p style=\"color: green; font-size: 50px; font-weight: bold;\">Correct</p>","response":null,"trial_index":162,"plugin_version":"2.1.0","time_elapsed":438871,"subject_id":"92589","group":"Group2","condition":"1_Rep","full_date":"2026-02-14T04:22:33.779Z","date":"2026-02-14","time":"04:22:33"},{"correct_response":"l","task":"test_phase","broad_category":"M","image_png":"M_Slate_14.png","image_id":318,"category_name":"Slate","category":20,"distinct_rating":2.58,"distinct_type":"Bottom","item_type":"Target","rt":1188,"stimulus":"Stimuli_Rocks480/M_Slate_14.png","response":"l","trial_type":"image-keyboard-response","trial_index":163,"plugin_version":"2.1.0","time_elapsed":440072,"subject_id":"92589","group":"Group2","condition":"1_Rep","full_date":"2026-02-14T04:22:33.779Z","date":"2026-02-14","time":"04:22:33","cor_ans":true},{"trial_type":"html-keyboard-response","rt":null,"stimulus":"<p style=\"color: green; font-size: 50px; font-weight: bold;\">Correct</p>","response":null,"trial_index":164,"plugin_version":"2.1.0","time_elapsed":440574,"subject_id":"92589","group":"Group2","condition":"1_Rep","full_date":"2026-02-14T04:22:33.779Z","date":"2026-02-14","time":"04:22:33"},{"correct_response":"l","task":"test_phase","broad_category":"I","image_png":"I_Gabbro_02.png","image_id":50,"category_name":"Gabbro","category":4,"distinct_rating":2.73,"distinct_type":"Bottom","item_type":"Target","rt":24728,"stimulus":"Stimuli_Rocks480/I_Gabbro_02.png","response":"a","trial_type":"image-keyboard-response","trial_index":165,"plugin_version":"2.1.0","time_elapsed":465334,"subject_id":"92589","group":"Group2","condition":"1_Rep","full_date":"2026-02-14T04:22:33.779Z","date":"2026-02-14","time":"04:22:33","cor_ans":false},{"trial_type":"html-keyboard-response","rt":null,"stimulus":"<p style=\"color: red; font-size: 50px; font-weight: bold;\">Incorrect</p>","response":null,"trial_index":166,"plugin_version":"2.1.0","time_elapsed":465842,"subject_id":"92589","group":"Group2","condition":"1_Rep","full_date":"2026-02-14T04:22:33.779Z","date":"2026-02-14","time":"04:22:33"},{"correct_response":"a","task":"test_phase","broad_category":"I","image_png":"I_Andesite_08.png","image_id":8,"category_name":"Andesite","category":1,"distinct_rating":1.95,"distinct_type":"Bottom","item_type":"Foil","rt":1060,"stimulus":"Stimuli_Rocks480/I_Andesite_08.png","response":"a","trial_type":"image-keyboard-response","trial_index":167,"plugin_version":"2.1.0","time_elapsed":466922,"subject_id":"92589","group":"Group2","condition":"1_Rep","full_date":"2026-02-14T04:22:33.779Z","date":"2026-02-14","time":"04:22:33","cor_ans":true},{"trial_type":"html-keyboard-response","rt":null,"stimulus":"<p style=\"color: green; font-size: 50px; font-weight: bold;\">Correct</p>","response":null,"trial_index":168,"plugin_version":"2.1.0","time_elapsed":467424,"subject_id":"92589","group":"Group2","condition":"1_Rep","full_date":"2026-02-14T04:22:33.779Z","date":"2026-02-14","time":"04:22:33"},{"correct_response":"l","task":"test_phase","broad_category":"I","image_png":"I_Pegmatite_03.png","image_id":99,"category_name":"Pegmatite","category":7,"distinct_rating":7.24,"distinct_type":"Top","item_type":"Target","rt":1757,"stimulus":"Stimuli_Rocks480/I_Pegmatite_03.png","response":"a","trial_type":"image-keyboard-response","trial_index":169,"plugin_version":"2.1.0","time_elapsed":469196,"subject_id":"92589","group":"Group2","condition":"1_Rep","full_date":"2026-02-14T04:22:33.779Z","date":"2026-02-14","time":"04:22:33","cor_ans":false},{"trial_type":"html-keyboard-response","rt":null,"stimulus":"<p style=\"color: red; font-size: 50px; font-weight: bold;\">Incorrect</p>","response":null,"trial_index":170,"plugin_version":"2.1.0","time_elapsed":469698,"subject_id":"92589","group":"Group2","condition":"1_Rep","full_date":"2026-02-14T04:22:33.779Z","date":"2026-02-14","time":"04:22:33"},{"correct_response":"l","task":"test_phase","broad_category":"I","image_png":"I_Andesite_04.png","image_id":4,"category_name":"Andesite","category":1,"distinct_rating":3.18,"distinct_type":"Bottom","item_type":"Target","rt":7130,"stimulus":"Stimuli_Rocks480/I_Andesite_04.png","response":"l","trial_type":"image-keyboard-response","trial_index":171,"plugin_version":"2.1.0","time_elapsed":476845,"subject_id":"92589","group":"Group2","condition":"1_Rep","full_date":"2026-02-14T04:22:33.779Z","date":"2026-02-14","time":"04:22:33","cor_ans":true},{"trial_type":"html-keyboard-response","rt":null,"stimulus":"<p style=\"color: green; font-size: 50px; font-weight: bold;\">Correct</p>","response":null,"trial_index":172,"plugin_version":"2.1.0","time_elapsed":477347,"subject_id":"92589","group":"Group2","condition":"1_Rep","full_date":"2026-02-14T04:22:33.779Z","date":"2026-02-14","time":"04:22:33"},{"correct_response":"l","task":"test_phase","broad_category":"M","image_png":"M_Quartzite_07.png","image_id":279,"category_name":"Quartzite","category":18,"distinct_rating":1.97,"distinct_type":"Bottom","item_type":"Target","rt":1273,"stimulus":"Stimuli_Rocks480/M_Quartzite_07.png","response":"a","trial_type":"image-keyboard-response","trial_index":173,"plugin_version":"2.1.0","time_elapsed":478640,"subject_id":"92589","group":"Group2","condition":"1_Rep","full_date":"2026-02-14T04:22:33.779Z","date":"2026-02-14","time":"04:22:33","cor_ans":false},{"trial_type":"html-keyboard-response","rt":null,"stimulus":"<p style=\"color: red; font-size: 50px; font-weight: bold;\">Incorrect</p>","response":null,"trial_index":174,"plugin_version":"2.1.0","time_elapsed":479143,"subject_id":"92589","group":"Group2","condition":"1_Rep","full_date":"2026-02-14T04:22:33.779Z","date":"2026-02-14","time":"04:22:33"},{"correct_response":"a","task":"test_phase","broad_category":"M","image_png":"M_Phyllite_10.png","image_id":266,"category_name":"Phyllite","category":17,"distinct_rating":2.6,"distinct_type":"Bottom","item_type":"Foil","rt":1499,"stimulus":"Stimuli_Rocks480/M_Phyllite_10.png","response":"a","trial_type":"image-keyboard-response","trial_index":175,"plugin_version":"2.1.0","time_elapsed":480656,"subject_id":"92589","group":"Group2","condition":"1_Rep","full_date":"2026-02-14T04:22:33.779Z","date":"2026-02-14","time":"04:22:33","cor_ans":true},{"trial_type":"html-keyboard-response","rt":null,"stimulus":"<p style=\"color: green; font-size: 50px; font-weight: bold;\">Correct</p>","response":null,"trial_index":176,"plugin_version":"2.1.0","time_elapsed":481159,"subject_id":"92589","group":"Group2","condition":"1_Rep","full_date":"2026-02-14T04:22:33.779Z","date":"2026-02-14","time":"04:22:33"},{"correct_response":"l","task":"test_phase","broad_category":"M","image_png":"M_Gneiss_10.png","image_id":202,"category_name":"Gneiss","category":13,"distinct_rating":3.09,"distinct_type":"Bottom","item_type":"Target","rt":1176,"stimulus":"Stimuli_Rocks480/M_Gneiss_10.png","response":"a","trial_type":"image-keyboard-response","trial_index":177,"plugin_version":"2.1.0","time_elapsed":482355,"subject_id":"92589","group":"Group2","condition":"1_Rep","full_date":"2026-02-14T04:22:33.779Z","date":"2026-02-14","time":"04:22:33","cor_ans":false},{"trial_type":"html-keyboard-response","rt":null,"stimulus":"<p style=\"color: red; font-size: 50px; font-weight: bold;\">Incorrect</p>","response":null,"trial_index":178,"plugin_version":"2.1.0","time_elapsed":482857,"subject_id":"92589","group":"Group2","condition":"1_Rep","full_date":"2026-02-14T04:22:33.779Z","date":"2026-02-14","time":"04:22:33"},{"correct_response":"a","task":"test_phase","broad_category":"S","image_png":"S_Rock Salt_01.png","image_id":433,"category_name":"Rock Salt","category":28,"distinct_rating":7.18,"distinct_type":"Top","item_type":"Foil","rt":1403,"stimulus":"Stimuli_Rocks480/S_Rock Salt_01.png","response":"a","trial_type":"image-keyboard-response","trial_index":179,"plugin_version":"2.1.0","time_elapsed":484280,"subject_id":"92589","group":"Group2","condition":"1_Rep","full_date":"2026-02-14T04:22:33.779Z","date":"2026-02-14","time":"04:22:33","cor_ans":true},{"trial_type":"html-keyboard-response","rt":null,"stimulus":"<p style=\"color: green; font-size: 50px; font-weight: bold;\">Correct</p>","response":null,"trial_index":180,"plugin_version":"2.1.0","time_elapsed":484782,"subject_id":"92589","group":"Group2","condition":"1_Rep","full_date":"2026-02-14T04:22:33.779Z","date":"2026-02-14","time":"04:22:33"},{"correct_response":"l","task":"test_phase","broad_category":"I","image_png":"I_Pumice_14.png","image_id":142,"category_name":"Pumice","category":9,"distinct_rating":3.22,"distinct_type":"Bottom","item_type":"Target","rt":1320,"stimulus":"Stimuli_Rocks480/I_Pumice_14.png","response":"l","trial_type":"image-keyboard-response","trial_index":181,"plugin_version":"2.1.0","time_elapsed":486119,"subject_id":"92589","group":"Group2","condition":"1_Rep","full_date":"2026-02-14T04:22:33.779Z","date":"2026-02-14","time":"04:22:33","cor_ans":true},{"trial_type":"html-keyboard-response","rt":null,"stimulus":"<p style=\"color: green; font-size: 50px; font-weight: bold;\">Correct</p>","response":null,"trial_index":182,"plugin_version":"2.1.0","time_elapsed":486622,"subject_id":"92589","group":"Group2","condition":"1_Rep","full_date":"2026-02-14T04:22:33.779Z","date":"2026-02-14","time":"04:22:33"},{"correct_response":"l","task":"test_phase","broad_category":"I","image_png":"I_Rhyolite_08.png","image_id":152,"category_name":"Rhyolite","category":10,"distinct_rating":1.38,"distinct_type":"Bottom","item_type":"Target","rt":1716,"stimulus":"Stimuli_Rocks480/I_Rhyolite_08.png","response":"l","trial_type":"image-keyboard-response","trial_index":183,"plugin_version":"2.1.0","time_elapsed":488354,"subject_id":"92589","group":"Group2","condition":"1_Rep","full_date":"2026-02-14T04:22:33.779Z","date":"2026-02-14","time":"04:22:33","cor_ans":true},{"trial_type":"html-keyboard-response","rt":null,"stimulus":"<p style=\"color: green; font-size: 50px; font-weight: bold;\">Correct</p>","response":null,"trial_index":184,"plugin_version":"2.1.0","time_elapsed":488857,"subject_id":"92589","group":"Group2","condition":"1_Rep","full_date":"2026-02-14T04:22:33.779Z","date":"2026-02-14","time":"04:22:33"},{"correct_response":"a","task":"test_phase","broad_category":"M","image_png":"M_Marble_06.png","image_id":230,"category_name":"Marble","category":15,"distinct_rating":3.4,"distinct_type":"Bottom","item_type":"Foil","rt":1238,"stimulus":"Stimuli_Rocks480/M_Marble_06.png","response":"a","trial_type":"image-keyboard-response","trial_index":185,"plugin_version":"2.1.0","time_elapsed":490115,"subject_id":"92589","group":"Group2","condition":"1_Rep","full_date":"2026-02-14T04:22:33.779Z","date":"2026-02-14","time":"04:22:33","cor_ans":true},{"trial_type":"html-keyboard-response","rt":null,"stimulus":"<p style=\"color: green; font-size: 50px; font-weight: bold;\">Correct</p>","response":null,"trial_index":186,"plugin_version":"2.1.0","time_elapsed":490617,"subject_id":"92589","group":"Group2","condition":"1_Rep","full_date":"2026-02-14T04:22:33.779Z","date":"2026-02-14","time":"04:22:33"},{"correct_response":"l","task":"test_phase","broad_category":"S","image_png":"S_Chert_13.png","image_id":365,"category_name":"Chert","category":23,"distinct_rating":6.57,"distinct_type":"Top","item_type":"Target","rt":1490,"stimulus":"Stimuli_Rocks480/S_Chert_13.png","response":"a","trial_type":"image-keyboard-response","trial_index":187,"plugin_version":"2.1.0","time_elapsed":492121,"subject_id":"92589","group":"Group2","condition":"1_Rep","full_date":"2026-02-14T04:22:33.779Z","date":"2026-02-14","time":"04:22:33","cor_ans":false},{"trial_type":"html-keyboard-response","rt":null,"stimulus":"<p style=\"color: red; font-size: 50px; font-weight: bold;\">Incorrect</p>","response":null,"trial_index":188,"plugin_version":"2.1.0","time_elapsed":492624,"subject_id":"92589","group":"Group2","condition":"1_Rep","full_date":"2026-02-14T04:22:33.779Z","date":"2026-02-14","time":"04:22:33"},{"correct_response":"a","task":"test_phase","broad_category":"M","image_png":"M_Slate_03.png","image_id":307,"category_name":"Slate","category":20,"distinct_rating":1.87,"distinct_type":"Bottom","item_type":"Foil","rt":6240,"stimulus":"Stimuli_Rocks480/M_Slate_03.png","response":"l","trial_type":"image-keyboard-response","trial_index":189,"plugin_version":"2.1.0","time_elapsed":498882,"subject_id":"92589","group":"Group2","condition":"1_Rep","full_date":"2026-02-14T04:22:33.779Z","date":"2026-02-14","time":"04:22:33","cor_ans":false},{"trial_type":"html-keyboard-response","rt":null,"stimulus":"<p style=\"color: red; font-size: 50px; font-weight: bold;\">Incorrect</p>","response":null,"trial_index":190,"plugin_version":"2.1.0","time_elapsed":499385,"subject_id":"92589","group":"Group2","condition":"1_Rep","full_date":"2026-02-14T04:22:33.779Z","date":"2026-02-14","time":"04:22:33"},{"correct_response":"l","task":"test_phase","broad_category":"M","image_png":"M_Slate_10.png","image_id":314,"category_name":"Slate","category":20,"distinct_rating":1.94,"distinct_type":"Bottom","item_type":"Target","rt":1219,"stimulus":"Stimuli_Rocks480/M_Slate_10.png","response":"l","trial_type":"image-keyboard-response","trial_index":191,"plugin_version":"2.1.0","time_elapsed":500617,"subject_id":"92589","group":"Group2","condition":"1_Rep","full_date":"2026-02-14T04:22:33.779Z","date":"2026-02-14","time":"04:22:33","cor_ans":true},{"trial_type":"html-keyboard-response","rt":null,"stimulus":"<p style=\"color: green; font-size: 50px; font-weight: bold;\">Correct</p>","response":null,"trial_index":192,"plugin_version":"2.1.0","time_elapsed":501119,"subject_id":"92589","group":"Group2","condition":"1_Rep","full_date":"2026-02-14T04:22:33.779Z","date":"2026-02-14","time":"04:22:33"},{"correct_response":"l","task":"test_phase","broad_category":"S","image_png":"S_Dolomite_07.png","image_id":391,"category_name":"Dolomite","category":25,"distinct_rating":1.73,"distinct_type":"Bottom","item_type":"Target","rt":4645,"stimulus":"Stimuli_Rocks480/S_Dolomite_07.png","response":"l","trial_type":"image-keyboard-response","trial_index":193,"plugin_version":"2.1.0","time_elapsed":505782,"subject_id":"92589","group":"Group2","condition":"1_Rep","full_date":"2026-02-14T04:22:33.779Z","date":"2026-02-14","time":"04:22:33","cor_ans":true},{"trial_type":"html-keyboard-response","rt":null,"stimulus":"<p style=\"color: green; font-size: 50px; font-weight: bold;\">Correct</p>","response":null,"trial_index":194,"plugin_version":"2.1.0","time_elapsed":506284,"subject_id":"92589","group":"Group2","condition":"1_Rep","full_date":"2026-02-14T04:22:33.779Z","date":"2026-02-14","time":"04:22:33"},{"correct_response":"l","task":"test_phase","broad_category":"I","image_png":"I_Pumice_13.png","image_id":141,"category_name":"Pumice","category":9,"distinct_rating":3.12,"distinct_type":"Bottom","item_type":"Target","rt":1197,"stimulus":"Stimuli_Rocks480/I_Pumice_13.png","response":"l","trial_type":"image-keyboard-response","trial_index":195,"plugin_version":"2.1.0","time_elapsed":507503,"subject_id":"92589","group":"Group2","condition":"1_Rep","full_date":"2026-02-14T04:22:33.779Z","date":"2026-02-14","time":"04:22:33","cor_ans":true},{"trial_type":"html-keyboard-response","rt":null,"stimulus":"<p style=\"color: green; font-size: 50px; font-weight: bold;\">Correct</p>","response":null,"trial_index":196,"plugin_version":"2.1.0","time_elapsed":508005,"subject_id":"92589","group":"Group2","condition":"1_Rep","full_date":"2026-02-14T04:22:33.779Z","date":"2026-02-14","time":"04:22:33"},{"correct_response":"l","task":"test_phase","broad_category":"M","image_png":"M_Marble_03.png","image_id":227,"category_name":"Marble","category":15,"distinct_rating":2.67,"distinct_type":"Bottom","item_type":"Target","rt":1273,"stimulus":"Stimuli_Rocks480/M_Marble_03.png","response":"a","trial_type":"image-keyboard-response","trial_index":197,"plugin_version":"2.1.0","time_elapsed":509298,"subject_id":"92589","group":"Group2","condition":"1_Rep","full_date":"2026-02-14T04:22:33.779Z","date":"2026-02-14","time":"04:22:33","cor_ans":false},{"trial_type":"html-keyboard-response","rt":null,"stimulus":"<p style=\"color: red; font-size: 50px; font-weight: bold;\">Incorrect</p>","response":null,"trial_index":198,"plugin_version":"2.1.0","time_elapsed":509800,"subject_id":"92589","group":"Group2","condition":"1_Rep","full_date":"2026-02-14T04:22:33.779Z","date":"2026-02-14","time":"04:22:33"},{"correct_response":"a","task":"test_phase","broad_category":"S","image_png":"S_Sandstone_03.png","image_id":451,"category_name":"Sandstone","category":29,"distinct_rating":1.86,"distinct_type":"Bottom","item_type":"Foil","rt":1212,"stimulus":"Stimuli_Rocks480/S_Sandstone_03.png","response":"a","trial_type":"image-keyboard-response","trial_index":199,"plugin_version":"2.1.0","time_elapsed":511031,"subject_id":"92589","group":"Group2","condition":"1_Rep","full_date":"2026-02-14T04:22:33.779Z","date":"2026-02-14","time":"04:22:33","cor_ans":true},{"trial_type":"html-keyboard-response","rt":null,"stimulus":"<p style=\"color: green; font-size: 50px; font-weight: bold;\">Correct</p>","response":null,"trial_index":200,"plugin_version":"2.1.0","time_elapsed":511534,"subject_id":"92589","group":"Group2","condition":"1_Rep","full_date":"2026-02-14T04:22:33.779Z","date":"2026-02-14","time":"04:22:33"},{"correct_response":"a","task":"test_phase","broad_category":"I","image_png":"I_Diorite_05.png","image_id":37,"category_name":"Diorite","category":3,"distinct_rating":3.08,"distinct_type":"Bottom","item_type":"Foil","rt":1109,"stimulus":"Stimuli_Rocks480/I_Diorite_05.png","response":"l","trial_type":"image-keyboard-response","trial_index":201,"plugin_version":"2.1.0","time_elapsed":512661,"subject_id":"92589","group":"Group2","condition":"1_Rep","full_date":"2026-02-14T04:22:33.779Z","date":"2026-02-14","time":"04:22:33","cor_ans":false},{"trial_type":"html-keyboard-response","rt":null,"stimulus":"<p style=\"color: red; font-size: 50px; font-weight: bold;\">Incorrect</p>","response":null,"trial_index":202,"plugin_version":"2.1.0","time_elapsed":513163,"subject_id":"92589","group":"Group2","condition":"1_Rep","full_date":"2026-02-14T04:22:33.779Z","date":"2026-02-14","time":"04:22:33"},{"correct_response":"a","task":"test_phase","broad_category":"S","image_png":"S_Shale_08.png","image_id":472,"category_name":"Shale","category":30,"distinct_rating":2.55,"distinct_type":"Bottom","item_type":"Foil","rt":1511,"stimulus":"Stimuli_Rocks480/S_Shale_08.png","response":"l","trial_type":"image-keyboard-response","trial_index":203,"plugin_version":"2.1.0","time_elapsed":514696,"subject_id":"92589","group":"Group2","condition":"1_Rep","full_date":"2026-02-14T04:22:33.779Z","date":"2026-02-14","time":"04:22:33","cor_ans":false},{"trial_type":"html-keyboard-response","rt":null,"stimulus":"<p style=\"color: red; font-size: 50px; font-weight: bold;\">Incorrect</p>","response":null,"trial_index":204,"plugin_version":"2.1.0","time_elapsed":515200,"subject_id":"92589","group":"Group2","condition":"1_Rep","full_date":"2026-02-14T04:22:33.779Z","date":"2026-02-14","time":"04:22:33"},{"correct_response":"l","task":"test_phase","broad_category":"I","image_png":"I_Diorite_15.png","image_id":47,"category_name":"Diorite","category":3,"distinct_rating":3.05,"distinct_type":"Bottom","item_type":"Target","rt":1419,"stimulus":"Stimuli_Rocks480/I_Diorite_15.png","response":"a","trial_type":"image-keyboard-response","trial_index":205,"plugin_version":"2.1.0","time_elapsed":516636,"subject_id":"92589","group":"Group2","condition":"1_Rep","full_date":"2026-02-14T04:22:33.779Z","date":"2026-02-14","time":"04:22:33","cor_ans":false},{"trial_type":"html-keyboard-response","rt":null,"stimulus":"<p style=\"color: red; font-size: 50px; font-weight: bold;\">Incorrect</p>","response":null,"trial_index":206,"plugin_version":"2.1.0","time_elapsed":517139,"subject_id":"92589","group":"Group2","condition":"1_Rep","full_date":"2026-02-14T04:22:33.779Z","date":"2026-02-14","time":"04:22:33"},{"correct_response":"l","task":"test_phase","broad_category":"M","image_png":"M_Phyllite_05.png","image_id":261,"category_name":"Phyllite","category":17,"distinct_rating":2.14,"distinct_type":"Bottom","item_type":"Target","rt":1304,"stimulus":"Stimuli_Rocks480/M_Phyllite_05.png","response":"l","trial_type":"image-keyboard-response","trial_index":207,"plugin_version":"2.1.0","time_elapsed":518459,"subject_id":"92589","group":"Group2","condition":"1_Rep","full_date":"2026-02-14T04:22:33.779Z","date":"2026-02-14","time":"04:22:33","cor_ans":true},{"trial_type":"html-keyboard-response","rt":null,"stimulus":"<p style=\"color: green; font-size: 50px; font-weight: bold;\">Correct</p>","response":null,"trial_index":208,"plugin_version":"2.1.0","time_elapsed":518962,"subject_id":"92589","group":"Group2","condition":"1_Rep","full_date":"2026-02-14T04:22:33.779Z","date":"2026-02-14","time":"04:22:33"},{"correct_response":"a","task":"test_phase","broad_category":"S","image_png":"S_Shale_12.png","image_id":476,"category_name":"Shale","category":30,"distinct_rating":2.48,"distinct_type":"Bottom","item_type":"Foil","rt":892,"stimulus":"Stimuli_Rocks480/S_Shale_12.png","response":"l","trial_type":"image-keyboard-response","trial_index":209,"plugin_version":"2.1.0","time_elapsed":519873,"subject_id":"92589","group":"Group2","condition":"1_Rep","full_date":"2026-02-14T04:22:33.779Z","date":"2026-02-14","time":"04:22:33","cor_ans":false},{"trial_type":"html-keyboard-response","rt":null,"stimulus":"<p style=\"color: red; font-size: 50px; font-weight: bold;\">Incorrect</p>","response":null,"trial_index":210,"plugin_version":"2.1.0","time_elapsed":520375,"subject_id":"92589","group":"Group2","condition":"1_Rep","full_date":"2026-02-14T04:22:33.779Z","date":"2026-02-14","time":"04:22:33"},{"correct_response":"l","task":"test_phase","broad_category":"M","image_png":"M_Marble_14.png","image_id":238,"category_name":"Marble","category":15,"distinct_rating":3.31,"distinct_type":"Bottom","item_type":"Target","rt":915,"stimulus":"Stimuli_Rocks480/M_Marble_14.png","response":"a","trial_type":"image-keyboard-response","trial_index":211,"plugin_version":"2.1.0","time_elapsed":521309,"subject_id":"92589","group":"Group2","condition":"1_Rep","full_date":"2026-02-14T04:22:33.779Z","date":"2026-02-14","time":"04:22:33","cor_ans":false},{"trial_type":"html-keyboard-response","rt":null,"stimulus":"<p style=\"color: red; font-size: 50px; font-weight: bold;\">Incorrect</p>","response":null,"trial_index":212,"plugin_version":"2.1.0","time_elapsed":521812,"subject_id":"92589","group":"Group2","condition":"1_Rep","full_date":"2026-02-14T04:22:33.779Z","date":"2026-02-14","time":"04:22:33"},{"correct_response":"l","task":"test_phase","broad_category":"S","image_png":"S_Sandstone_08.png","image_id":456,"category_name":"Sandstone","category":29,"distinct_rating":1.5,"distinct_type":"Bottom","item_type":"Target","rt":1926,"stimulus":"Stimuli_Rocks480/S_Sandstone_08.png","response":"l","trial_type":"image-keyboard-response","trial_index":213,"plugin_version":"2.1.0","time_elapsed":523757,"subject_id":"92589","group":"Group2","condition":"1_Rep","full_date":"2026-02-14T04:22:33.779Z","date":"2026-02-14","time":"04:22:33","cor_ans":true},{"trial_type":"html-keyboard-response","rt":null,"stimulus":"<p style=\"color: green; font-size: 50px; font-weight: bold;\">Correct</p>","response":null,"trial_index":214,"plugin_version":"2.1.0","time_elapsed":524260,"subject_id":"92589","group":"Group2","condition":"1_Rep","full_date":"2026-02-14T04:22:33.779Z","date":"2026-02-14","time":"04:22:33"},{"correct_response":"l","task":"test_phase","broad_category":"M","image_png":"M_Quartzite_12.png","image_id":284,"category_name":"Quartzite","category":18,"distinct_rating":1.92,"distinct_type":"Bottom","item_type":"Target","rt":2107,"stimulus":"Stimuli_Rocks480/M_Quartzite_12.png","response":"l","trial_type":"image-keyboard-response","trial_index":215,"plugin_version":"2.1.0","time_elapsed":526385,"subject_id":"92589","group":"Group2","condition":"1_Rep","full_date":"2026-02-14T04:22:33.779Z","date":"2026-02-14","time":"04:22:33","cor_ans":true},{"trial_type":"html-keyboard-response","rt":null,"stimulus":"<p style=\"color: green; font-size: 50px; font-weight: bold;\">Correct</p>","response":null,"trial_index":216,"plugin_version":"2.1.0","time_elapsed":526888,"subject_id":"92589","group":"Group2","condition":"1_Rep","full_date":"2026-02-14T04:22:33.779Z","date":"2026-02-14","time":"04:22:33"},{"correct_response":"l","task":"test_phase","broad_category":"I","image_png":"I_Rhyolite_10.png","image_id":154,"category_name":"Rhyolite","category":10,"distinct_rating":2.88,"distinct_type":"Bottom","item_type":"Target","rt":1141,"stimulus":"Stimuli_Rocks480/I_Rhyolite_10.png","response":"l","trial_type":"image-keyboard-response","trial_index":217,"plugin_version":"2.1.0","time_elapsed":528057,"subject_id":"92589","group":"Group2","condition":"1_Rep","full_date":"2026-02-14T04:22:33.779Z","date":"2026-02-14","time":"04:22:33","cor_ans":true},{"trial_type":"html-keyboard-response","rt":null,"stimulus":"<p style=\"color: green; font-size: 50px; font-weight: bold;\">Correct</p>","response":null,"trial_index":218,"plugin_version":"2.1.0","time_elapsed":528559,"subject_id":"92589","group":"Group2","condition":"1_Rep","full_date":"2026-02-14T04:22:33.779Z","date":"2026-02-14","time":"04:22:33"},{"correct_response":"l","task":"test_phase","broad_category":"S","image_png":"S_Rock Salt_15.png","image_id":447,"category_name":"Rock Salt","category":28,"distinct_rating":7.79,"distinct_type":"Top","item_type":"Target","rt":1075,"stimulus":"Stimuli_Rocks480/S_Rock Salt_15.png","response":"l","trial_type":"image-keyboard-response","trial_index":219,"plugin_version":"2.1.0","time_elapsed":529650,"subject_id":"92589","group":"Group2","condition":"1_Rep","full_date":"2026-02-14T04:22:33.779Z","date":"2026-02-14","time":"04:22:33","cor_ans":true},{"trial_type":"html-keyboard-response","rt":null,"stimulus":"<p style=\"color: green; font-size: 50px; font-weight: bold;\">Correct</p>","response":null,"trial_index":220,"plugin_version":"2.1.0","time_elapsed":530152,"subject_id":"92589","group":"Group2","condition":"1_Rep","full_date":"2026-02-14T04:22:33.779Z","date":"2026-02-14","time":"04:22:33"},{"correct_response":"l","task":"test_phase","broad_category":"I","image_png":"I_Obsidian_06.png","image_id":86,"category_name":"Obsidian","category":6,"distinct_rating":8.01,"distinct_type":"Top","item_type":"Target","rt":789,"stimulus":"Stimuli_Rocks480/I_Obsidian_06.png","response":"l","trial_type":"image-keyboard-response","trial_index":221,"plugin_version":"2.1.0","time_elapsed":530964,"subject_id":"92589","group":"Group2","condition":"1_Rep","full_date":"2026-02-14T04:22:33.779Z","date":"2026-02-14","time":"04:22:33","cor_ans":true},{"trial_type":"html-keyboard-response","rt":null,"stimulus":"<p style=\"color: green; font-size: 50px; font-weight: bold;\">Correct</p>","response":null,"trial_index":222,"plugin_version":"2.1.0","time_elapsed":531466,"subject_id":"92589","group":"Group2","condition":"1_Rep","full_date":"2026-02-14T04:22:33.779Z","date":"2026-02-14","time":"04:22:33"},{"correct_response":"a","task":"test_phase","broad_category":"I","image_png":"I_Andesite_10.png","image_id":10,"category_name":"Andesite","category":1,"distinct_rating":3.15,"distinct_type":"Bottom","item_type":"Foil","rt":1470,"stimulus":"Stimuli_Rocks480/I_Andesite_10.png","response":"a","trial_type":"image-keyboard-response","trial_index":223,"plugin_version":"2.1.0","time_elapsed":532948,"subject_id":"92589","group":"Group2","condition":"1_Rep","full_date":"2026-02-14T04:22:33.779Z","date":"2026-02-14","time":"04:22:33","cor_ans":true},{"trial_type":"html-keyboard-response","rt":null,"stimulus":"<p style=\"color: green; font-size: 50px; font-weight: bold;\">Correct</p>","response":null,"trial_index":224,"plugin_version":"2.1.0","time_elapsed":533450,"subject_id":"92589","group":"Group2","condition":"1_Rep","full_date":"2026-02-14T04:22:33.779Z","date":"2026-02-14","time":"04:22:33"},{"correct_response":"a","task":"test_phas