[{"width":1275,"height":626,"webaudio":true,"browser":"safari","browser_version":"26.3.0","mobile":false,"os":"Mac OS","fullscreen":true,"vsync_rate":60.12,"webcam":true,"microphone":true,"trial_type":"browser-check","trial_index":0,"plugin_version":"2.1.0","time_elapsed":1007,"subject_id":"90676","group":"Group1","condition":"1_Rep","full_date":"2026-03-05T14:44:17.193Z","date":"2026-03-05","time":"14:44:17"},{"success":true,"timeout":false,"failed_images":[],"failed_audio":[],"failed_video":[],"trial_type":"preload","trial_index":1,"plugin_version":"2.1.0","time_elapsed":3414,"subject_id":"90676","group":"Group1","condition":"1_Rep","full_date":"2026-03-05T14:44:17.193Z","date":"2026-03-05","time":"14:44:17"},{"rt":77180,"url":"SONA_consent_memorability.html","trial_type":"external-html","trial_index":2,"plugin_version":"2.1.0","time_elapsed":80642,"subject_id":"90676","group":"Group1","condition":"1_Rep","full_date":"2026-03-05T14:44:17.193Z","date":"2026-03-05","time":"14:44:17"},{"success":true,"rt":4413,"trial_type":"fullscreen","trial_index":3,"plugin_version":"2.1.0","time_elapsed":86061,"subject_id":"90676","group":"Group1","condition":"1_Rep","full_date":"2026-03-05T14:44:17.193Z","date":"2026-03-05","time":"14:44:17"},{"rt":26912,"stimulus":"<div style=\"max-width: 760px; margin: auto; font-size: 20px; line-height: 1.5;\">\n      <h1 style=\"text-align:center; font-size: 30px;\">Instructions</h1>\n      <p>\n        Welcome to the study on <b>visual memory</b>. This experiment consists of <b>two phases</b>: \n        a <b>study phase</b> and a <b>test phase</b>.\n      </p>\n      <p>\n        In the study phase, you will see a series of rock images along with their category labels.\n        The images will appear one at a time.\n        <b>Your task</b> is to learn the categories to which the rock images belong \n        and to remember each image as accurately as possible.\n      </p> \n      <p>\n        Note that you will see each image only <b>once</b> during the study phase. \n          So, please pay close attention and try to remember each image carefully.\n      </p>\n      <p>\n        After the study phase, <b>your memory will be tested</b>. \n        Additional instructions for the test phase will be provided at that time.\n      </p>\n      <p>\n        If your computer has multiple <b>language settings</b> (e.g., English and another language),\n        please make sure it is set to English before starting.\n      </p>\n      <p>\n        You can track your progress using the <b>completion bar</b> at the top of the screen. \n        Please note that the bar will refresh when the test phase begins \n        to give you an accurate sense of your progress in both phases.\n      </p> \n      <p>\n        Press the button below when you are ready to begin.\n      </p>\n    </div>","response":0,"trial_type":"html-button-response","trial_index":4,"plugin_version":"2.1.0","time_elapsed":112975,"subject_id":"90676","group":"Group1","condition":"1_Rep","full_date":"2026-03-05T14:44:17.193Z","date":"2026-03-05","time":"14:44:17"},{"rt":null,"stimulus":"<p style=\"font-size: 50px; margin: 0; text-align: center;\">+</p>","response":null,"trial_type":"html-keyboard-response","trial_index":5,"plugin_version":"2.1.0","time_elapsed":113979,"subject_id":"90676","group":"Group1","condition":"1_Rep","full_date":"2026-03-05T14:44:17.193Z","date":"2026-03-05","time":"14:44:17"},{"task":"memory_phase","broad_category":"I","image_png":"I_Andesite_10.png","image_id":10,"category_name":"Andesite","category":1,"distinct_rating":3.15,"distinct_type":"Bottom","rt":null,"stimulus":"Stimuli_Rocks480/I_Andesite_10.png","response":null,"trial_type":"image-keyboard-response","trial_index":6,"plugin_version":"2.1.0","time_elapsed":116492,"subject_id":"90676","group":"Group1","condition":"1_Rep","full_date":"2026-03-05T14:44:17.193Z","date":"2026-03-05","time":"14:44:17"},{"rt":null,"stimulus":"<p style=\"font-size: 50px; margin: 0; text-align: center;\">+</p>","response":null,"trial_type":"html-keyboard-response","trial_index":7,"plugin_version":"2.1.0","time_elapsed":117494,"subject_id":"90676","group":"Group1","condition":"1_Rep","full_date":"2026-03-05T14:44:17.193Z","date":"2026-03-05","time":"14:44:17"},{"task":"memory_phase","broad_category":"M","image_png":"M_Gneiss_06.png","image_id":198,"category_name":"Gneiss","category":13,"distinct_rating":2.65,"distinct_type":"Bottom","rt":null,"stimulus":"Stimuli_Rocks480/M_Gneiss_06.png","response":null,"trial_type":"image-keyboard-response","trial_index":8,"plugin_version":"2.1.0","time_elapsed":120011,"subject_id":"90676","group":"Group1","condition":"1_Rep","full_date":"2026-03-05T14:44:17.193Z","date":"2026-03-05","time":"14:44:17"},{"rt":null,"stimulus":"<p style=\"font-size: 50px; margin: 0; text-align: center;\">+</p>","response":null,"trial_type":"html-keyboard-response","trial_index":9,"plugin_version":"2.1.0","time_elapsed":121013,"subject_id":"90676","group":"Group1","condition":"1_Rep","full_date":"2026-03-05T14:44:17.193Z","date":"2026-03-05","time":"14:44:17"},{"task":"memory_phase","broad_category":"M","image_png":"M_Slate_15.png","image_id":319,"category_name":"Slate","category":20,"distinct_rating":2.13,"distinct_type":"Bottom","rt":null,"stimulus":"Stimuli_Rocks480/M_Slate_15.png","response":null,"trial_type":"image-keyboard-response","trial_index":10,"plugin_version":"2.1.0","time_elapsed":123525,"subject_id":"90676","group":"Group1","condition":"1_Rep","full_date":"2026-03-05T14:44:17.193Z","date":"2026-03-05","time":"14:44:17"},{"rt":null,"stimulus":"<p style=\"font-size: 50px; margin: 0; text-align: center;\">+</p>","response":null,"trial_type":"html-keyboard-response","trial_index":11,"plugin_version":"2.1.0","time_elapsed":124527,"subject_id":"90676","group":"Group1","condition":"1_Rep","full_date":"2026-03-05T14:44:17.193Z","date":"2026-03-05","time":"14:44:17"},{"task":"memory_phase","broad_category":"I","image_png":"I_Gabbro_11.png","image_id":59,"category_name":"Gabbro","category":4,"distinct_rating":1.99,"distinct_type":"Bottom","rt":null,"stimulus":"Stimuli_Rocks480/I_Gabbro_11.png","response":null,"trial_type":"image-keyboard-response","trial_index":12,"plugin_version":"2.1.0","time_elapsed":127039,"subject_id":"90676","group":"Group1","condition":"1_Rep","full_date":"2026-03-05T14:44:17.193Z","date":"2026-03-05","time":"14:44:17"},{"rt":null,"stimulus":"<p style=\"font-size: 50px; margin: 0; text-align: center;\">+</p>","response":null,"trial_type":"html-keyboard-response","trial_index":13,"plugin_version":"2.1.0","time_elapsed":128042,"subject_id":"90676","group":"Group1","condition":"1_Rep","full_date":"2026-03-05T14:44:17.193Z","date":"2026-03-05","time":"14:44:17"},{"task":"memory_phase","broad_category":"M","image_png":"M_Gneiss_13.png","image_id":205,"category_name":"Gneiss","category":13,"distinct_rating":3.26,"distinct_type":"Bottom","rt":null,"stimulus":"Stimuli_Rocks480/M_Gneiss_13.png","response":null,"trial_type":"image-keyboard-response","trial_index":14,"plugin_version":"2.1.0","time_elapsed":130554,"subject_id":"90676","group":"Group1","condition":"1_Rep","full_date":"2026-03-05T14:44:17.193Z","date":"2026-03-05","time":"14:44:17"},{"rt":null,"stimulus":"<p style=\"font-size: 50px; margin: 0; text-align: center;\">+</p>","response":null,"trial_type":"html-keyboard-response","trial_index":15,"plugin_version":"2.1.0","time_elapsed":131556,"subject_id":"90676","group":"Group1","condition":"1_Rep","full_date":"2026-03-05T14:44:17.193Z","date":"2026-03-05","time":"14:44:17"},{"task":"memory_phase","broad_category":"M","image_png":"M_Gneiss_05.png","image_id":197,"category_name":"Gneiss","category":13,"distinct_rating":2.97,"distinct_type":"Bottom","rt":null,"stimulus":"Stimuli_Rocks480/M_Gneiss_05.png","response":null,"trial_type":"image-keyboard-response","trial_index":16,"plugin_version":"2.1.0","time_elapsed":134075,"subject_id":"90676","group":"Group1","condition":"1_Rep","full_date":"2026-03-05T14:44:17.193Z","date":"2026-03-05","time":"14:44:17"},{"rt":null,"stimulus":"<p style=\"font-size: 50px; margin: 0; text-align: center;\">+</p>","response":null,"trial_type":"html-keyboard-response","trial_index":17,"plugin_version":"2.1.0","time_elapsed":135077,"subject_id":"90676","group":"Group1","condition":"1_Rep","full_date":"2026-03-05T14:44:17.193Z","date":"2026-03-05","time":"14:44:17"},{"task":"memory_phase","broad_category":"I","image_png":"I_Diorite_03.png","image_id":35,"category_name":"Diorite","category":3,"distinct_rating":3.14,"distinct_type":"Bottom","rt":null,"stimulus":"Stimuli_Rocks480/I_Diorite_03.png","response":null,"trial_type":"image-keyboard-response","trial_index":18,"plugin_version":"2.1.0","time_elapsed":137593,"subject_id":"90676","group":"Group1","condition":"1_Rep","full_date":"2026-03-05T14:44:17.193Z","date":"2026-03-05","time":"14:44:17"},{"rt":null,"stimulus":"<p style=\"font-size: 50px; margin: 0; text-align: center;\">+</p>","response":null,"trial_type":"html-keyboard-response","trial_index":19,"plugin_version":"2.1.0","time_elapsed":138595,"subject_id":"90676","group":"Group1","condition":"1_Rep","full_date":"2026-03-05T14:44:17.193Z","date":"2026-03-05","time":"14:44:17"},{"task":"memory_phase","broad_category":"M","image_png":"M_Marble_04.png","image_id":228,"category_name":"Marble","category":15,"distinct_rating":3.15,"distinct_type":"Bottom","rt":null,"stimulus":"Stimuli_Rocks480/M_Marble_04.png","response":null,"trial_type":"image-keyboard-response","trial_index":20,"plugin_version":"2.1.0","time_elapsed":141109,"subject_id":"90676","group":"Group1","condition":"1_Rep","full_date":"2026-03-05T14:44:17.193Z","date":"2026-03-05","time":"14:44:17"},{"rt":null,"stimulus":"<p style=\"font-size: 50px; margin: 0; text-align: center;\">+</p>","response":null,"trial_type":"html-keyboard-response","trial_index":21,"plugin_version":"2.1.0","time_elapsed":142112,"subject_id":"90676","group":"Group1","condition":"1_Rep","full_date":"2026-03-05T14:44:17.193Z","date":"2026-03-05","time":"14:44:17"},{"task":"memory_phase","broad_category":"I","image_png":"I_Basalt_09.png","image_id":25,"category_name":"Basalt","category":2,"distinct_rating":1.89,"distinct_type":"Bottom","rt":null,"stimulus":"Stimuli_Rocks480/I_Basalt_09.png","response":null,"trial_type":"image-keyboard-response","trial_index":22,"plugin_version":"2.1.0","time_elapsed":144624,"subject_id":"90676","group":"Group1","condition":"1_Rep","full_date":"2026-03-05T14:44:17.193Z","date":"2026-03-05","time":"14:44:17"},{"rt":null,"stimulus":"<p style=\"font-size: 50px; margin: 0; text-align: center;\">+</p>","response":null,"trial_type":"html-keyboard-response","trial_index":23,"plugin_version":"2.1.0","time_elapsed":145627,"subject_id":"90676","group":"Group1","condition":"1_Rep","full_date":"2026-03-05T14:44:17.193Z","date":"2026-03-05","time":"14:44:17"},{"task":"memory_phase","broad_category":"S","image_png":"S_Conglomerate_05.png","image_id":373,"category_name":"Conglomerate","category":24,"distinct_rating":7.32,"distinct_type":"Top","rt":null,"stimulus":"Stimuli_Rocks480/S_Conglomerate_05.png","response":null,"trial_type":"image-keyboard-response","trial_index":24,"plugin_version":"2.1.0","time_elapsed":148142,"subject_id":"90676","group":"Group1","condition":"1_Rep","full_date":"2026-03-05T14:44:17.193Z","date":"2026-03-05","time":"14:44:17"},{"rt":null,"stimulus":"<p style=\"font-size: 50px; margin: 0; text-align: center;\">+</p>","response":null,"trial_type":"html-keyboard-response","trial_index":25,"plugin_version":"2.1.0","time_elapsed":149144,"subject_id":"90676","group":"Group1","condition":"1_Rep","full_date":"2026-03-05T14:44:17.193Z","date":"2026-03-05","time":"14:44:17"},{"task":"memory_phase","broad_category":"I","image_png":"I_Basalt_02.png","image_id":18,"category_name":"Basalt","category":2,"distinct_rating":1.84,"distinct_type":"Bottom","rt":null,"stimulus":"Stimuli_Rocks480/I_Basalt_02.png","response":null,"trial_type":"image-keyboard-response","trial_index":26,"plugin_version":"2.1.0","time_elapsed":151660,"subject_id":"90676","group":"Group1","condition":"1_Rep","full_date":"2026-03-05T14:44:17.193Z","date":"2026-03-05","time":"14:44:17"},{"rt":null,"stimulus":"<p style=\"font-size: 50px; margin: 0; text-align: center;\">+</p>","response":null,"trial_type":"html-keyboard-response","trial_index":27,"plugin_version":"2.1.0","time_elapsed":152662,"subject_id":"90676","group":"Group1","condition":"1_Rep","full_date":"2026-03-05T14:44:17.193Z","date":"2026-03-05","time":"14:44:17"},{"task":"memory_phase","broad_category":"I","image_png":"I_Diorite_05.png","image_id":37,"category_name":"Diorite","category":3,"distinct_rating":3.08,"distinct_type":"Bottom","rt":null,"stimulus":"Stimuli_Rocks480/I_Diorite_05.png","response":null,"trial_type":"image-keyboard-response","trial_index":28,"plugin_version":"2.1.0","time_elapsed":155177,"subject_id":"90676","group":"Group1","condition":"1_Rep","full_date":"2026-03-05T14:44:17.193Z","date":"2026-03-05","time":"14:44:17"},{"rt":null,"stimulus":"<p style=\"font-size: 50px; margin: 0; text-align: center;\">+</p>","response":null,"trial_type":"html-keyboard-response","trial_index":29,"plugin_version":"2.1.0","time_elapsed":156180,"subject_id":"90676","group":"Group1","condition":"1_Rep","full_date":"2026-03-05T14:44:17.193Z","date":"2026-03-05","time":"14:44:17"},{"task":"memory_phase","broad_category":"I","image_png":"I_Basalt_01.png","image_id":17,"category_name":"Basalt","category":2,"distinct_rating":1.92,"distinct_type":"Bottom","rt":null,"stimulus":"Stimuli_Rocks480/I_Basalt_01.png","response":null,"trial_type":"image-keyboard-response","trial_index":30,"plugin_version":"2.1.0","time_elapsed":158698,"subject_id":"90676","group":"Group1","condition":"1_Rep","full_date":"2026-03-05T14:44:17.193Z","date":"2026-03-05","time":"14:44:17"},{"rt":null,"stimulus":"<p style=\"font-size: 50px; margin: 0; text-align: center;\">+</p>","response":null,"trial_type":"html-keyboard-response","trial_index":31,"plugin_version":"2.1.0","time_elapsed":159700,"subject_id":"90676","group":"Group1","condition":"1_Rep","full_date":"2026-03-05T14:44:17.193Z","date":"2026-03-05","time":"14:44:17"},{"task":"memory_phase","broad_category":"I","image_png":"I_Pegmatite_16.png","image_id":112,"category_name":"Pegmatite","category":7,"distinct_rating":7.03,"distinct_type":"Top","rt":null,"stimulus":"Stimuli_Rocks480/I_Pegmatite_16.png","response":null,"trial_type":"image-keyboard-response","trial_index":32,"plugin_version":"2.1.0","time_elapsed":162215,"subject_id":"90676","group":"Group1","condition":"1_Rep","full_date":"2026-03-05T14:44:17.193Z","date":"2026-03-05","time":"14:44:17"},{"rt":null,"stimulus":"<p style=\"font-size: 50px; margin: 0; text-align: center;\">+</p>","response":null,"trial_type":"html-keyboard-response","trial_index":33,"plugin_version":"2.1.0","time_elapsed":163217,"subject_id":"90676","group":"Group1","condition":"1_Rep","full_date":"2026-03-05T14:44:17.193Z","date":"2026-03-05","time":"14:44:17"},{"task":"memory_phase","broad_category":"S","image_png":"S_Shale_08.png","image_id":472,"category_name":"Shale","category":30,"distinct_rating":2.55,"distinct_type":"Bottom","rt":null,"stimulus":"Stimuli_Rocks480/S_Shale_08.png","response":null,"trial_type":"image-keyboard-response","trial_index":34,"plugin_version":"2.1.0","time_elapsed":165732,"subject_id":"90676","group":"Group1","condition":"1_Rep","full_date":"2026-03-05T14:44:17.193Z","date":"2026-03-05","time":"14:44:17"},{"rt":null,"stimulus":"<p style=\"font-size: 50px; margin: 0; text-align: center;\">+</p>","response":null,"trial_type":"html-keyboard-response","trial_index":35,"plugin_version":"2.1.0","time_elapsed":166735,"subject_id":"90676","group":"Group1","condition":"1_Rep","full_date":"2026-03-05T14:44:17.193Z","date":"2026-03-05","time":"14:44:17"},{"task":"memory_phase","broad_category":"I","image_png":"I_Gabbro_08.png","image_id":56,"category_name":"Gabbro","category":4,"distinct_rating":3.02,"distinct_type":"Bottom","rt":null,"stimulus":"Stimuli_Rocks480/I_Gabbro_08.png","response":null,"trial_type":"image-keyboard-response","trial_index":36,"plugin_version":"2.1.0","time_elapsed":169248,"subject_id":"90676","group":"Group1","condition":"1_Rep","full_date":"2026-03-05T14:44:17.193Z","date":"2026-03-05","time":"14:44:17"},{"rt":null,"stimulus":"<p style=\"font-size: 50px; margin: 0; text-align: center;\">+</p>","response":null,"trial_type":"html-keyboard-response","trial_index":37,"plugin_version":"2.1.0","time_elapsed":170250,"subject_id":"90676","group":"Group1","condition":"1_Rep","full_date":"2026-03-05T14:44:17.193Z","date":"2026-03-05","time":"14:44:17"},{"task":"memory_phase","broad_category":"I","image_png":"I_Pumice_11.png","image_id":139,"category_name":"Pumice","category":9,"distinct_rating":1.74,"distinct_type":"Bottom","rt":null,"stimulus":"Stimuli_Rocks480/I_Pumice_11.png","response":null,"trial_type":"image-keyboard-response","trial_index":38,"plugin_version":"2.1.0","time_elapsed":172760,"subject_id":"90676","group":"Group1","condition":"1_Rep","full_date":"2026-03-05T14:44:17.193Z","date":"2026-03-05","time":"14:44:17"},{"rt":null,"stimulus":"<p style=\"font-size: 50px; margin: 0; text-align: center;\">+</p>","response":null,"trial_type":"html-keyboard-response","trial_index":39,"plugin_version":"2.1.0","time_elapsed":173762,"subject_id":"90676","group":"Group1","condition":"1_Rep","full_date":"2026-03-05T14:44:17.193Z","date":"2026-03-05","time":"14:44:17"},{"task":"memory_phase","broad_category":"I","image_png":"I_Andesite_08.png","image_id":8,"category_name":"Andesite","category":1,"distinct_rating":1.95,"distinct_type":"Bottom","rt":null,"stimulus":"Stimuli_Rocks480/I_Andesite_08.png","response":null,"trial_type":"image-keyboard-response","trial_index":40,"plugin_version":"2.1.0","time_elapsed":176277,"subject_id":"90676","group":"Group1","condition":"1_Rep","full_date":"2026-03-05T14:44:17.193Z","date":"2026-03-05","time":"14:44:17"},{"rt":null,"stimulus":"<p style=\"font-size: 50px; margin: 0; text-align: center;\">+</p>","response":null,"trial_type":"html-keyboard-response","trial_index":41,"plugin_version":"2.1.0","time_elapsed":177280,"subject_id":"90676","group":"Group1","condition":"1_Rep","full_date":"2026-03-05T14:44:17.193Z","date":"2026-03-05","time":"14:44:17"},{"task":"memory_phase","broad_category":"M","image_png":"M_Marble_06.png","image_id":230,"category_name":"Marble","category":15,"distinct_rating":3.4,"distinct_type":"Bottom","rt":null,"stimulus":"Stimuli_Rocks480/M_Marble_06.png","response":null,"trial_type":"image-keyboard-response","trial_index":42,"plugin_version":"2.1.0","time_elapsed":179793,"subject_id":"90676","group":"Group1","condition":"1_Rep","full_date":"2026-03-05T14:44:17.193Z","date":"2026-03-05","time":"14:44:17"},{"rt":null,"stimulus":"<p style=\"font-size: 50px; margin: 0; text-align: center;\">+</p>","response":null,"trial_type":"html-keyboard-response","trial_index":43,"plugin_version":"2.1.0","time_elapsed":180796,"subject_id":"90676","group":"Group1","condition":"1_Rep","full_date":"2026-03-05T14:44:17.193Z","date":"2026-03-05","time":"14:44:17"},{"task":"memory_phase","broad_category":"S","image_png":"S_Sandstone_16.png","image_id":464,"category_name":"Sandstone","category":29,"distinct_rating":1.93,"distinct_type":"Bottom","rt":null,"stimulus":"Stimuli_Rocks480/S_Sandstone_16.png","response":null,"trial_type":"image-keyboard-response","trial_index":44,"plugin_version":"2.1.0","time_elapsed":183307,"subject_id":"90676","group":"Group1","condition":"1_Rep","full_date":"2026-03-05T14:44:17.193Z","date":"2026-03-05","time":"14:44:17"},{"rt":null,"stimulus":"<p style=\"font-size: 50px; margin: 0; text-align: center;\">+</p>","response":null,"trial_type":"html-keyboard-response","trial_index":45,"plugin_version":"2.1.0","time_elapsed":184309,"subject_id":"90676","group":"Group1","condition":"1_Rep","full_date":"2026-03-05T14:44:17.193Z","date":"2026-03-05","time":"14:44:17"},{"task":"memory_phase","broad_category":"M","image_png":"M_Marble_16.png","image_id":240,"category_name":"Marble","category":15,"distinct_rating":2.57,"distinct_type":"Bottom","rt":null,"stimulus":"Stimuli_Rocks480/M_Marble_16.png","response":null,"trial_type":"image-keyboard-response","trial_index":46,"plugin_version":"2.1.0","time_elapsed":186824,"subject_id":"90676","group":"Group1","condition":"1_Rep","full_date":"2026-03-05T14:44:17.193Z","date":"2026-03-05","time":"14:44:17"},{"rt":null,"stimulus":"<p style=\"font-size: 50px; margin: 0; text-align: center;\">+</p>","response":null,"trial_type":"html-keyboard-response","trial_index":47,"plugin_version":"2.1.0","time_elapsed":187826,"subject_id":"90676","group":"Group1","condition":"1_Rep","full_date":"2026-03-05T14:44:17.193Z","date":"2026-03-05","time":"14:44:17"},{"task":"memory_phase","broad_category":"I","image_png":"I_Diorite_04.png","image_id":36,"category_name":"Diorite","category":3,"distinct_rating":2.98,"distinct_type":"Bottom","rt":null,"stimulus":"Stimuli_Rocks480/I_Diorite_04.png","response":null,"trial_type":"image-keyboard-response","trial_index":48,"plugin_version":"2.1.0","time_elapsed":190342,"subject_id":"90676","group":"Group1","condition":"1_Rep","full_date":"2026-03-05T14:44:17.193Z","date":"2026-03-05","time":"14:44:17"},{"rt":null,"stimulus":"<p style=\"font-size: 50px; margin: 0; text-align: center;\">+</p>","response":null,"trial_type":"html-keyboard-response","trial_index":49,"plugin_version":"2.1.0","time_elapsed":191344,"subject_id":"90676","group":"Group1","condition":"1_Rep","full_date":"2026-03-05T14:44:17.193Z","date":"2026-03-05","time":"14:44:17"},{"task":"memory_phase","broad_category":"S","image_png":"S_Rock Gypsum_04.png","image_id":420,"category_name":"Rock Gypsum","category":27,"distinct_rating":7.61,"distinct_type":"Top","rt":null,"stimulus":"Stimuli_Rocks480/S_Rock Gypsum_04.png","response":null,"trial_type":"image-keyboard-response","trial_index":50,"plugin_version":"2.1.0","time_elapsed":193859,"subject_id":"90676","group":"Group1","condition":"1_Rep","full_date":"2026-03-05T14:44:17.193Z","date":"2026-03-05","time":"14:44:17"},{"rt":null,"stimulus":"<p style=\"font-size: 50px; margin: 0; text-align: center;\">+</p>","response":null,"trial_type":"html-keyboard-response","trial_index":51,"plugin_version":"2.1.0","time_elapsed":194861,"subject_id":"90676","group":"Group1","condition":"1_Rep","full_date":"2026-03-05T14:44:17.193Z","date":"2026-03-05","time":"14:44:17"},{"task":"memory_phase","broad_category":"S","image_png":"S_Shale_12.png","image_id":476,"category_name":"Shale","category":30,"distinct_rating":2.48,"distinct_type":"Bottom","rt":null,"stimulus":"Stimuli_Rocks480/S_Shale_12.png","response":null,"trial_type":"image-keyboard-response","trial_index":52,"plugin_version":"2.1.0","time_elapsed":197376,"subject_id":"90676","group":"Group1","condition":"1_Rep","full_date":"2026-03-05T14:44:17.193Z","date":"2026-03-05","time":"14:44:17"},{"rt":null,"stimulus":"<p style=\"font-size: 50px; margin: 0; text-align: center;\">+</p>","response":null,"trial_type":"html-keyboard-response","trial_index":53,"plugin_version":"2.1.0","time_elapsed":198378,"subject_id":"90676","group":"Group1","condition":"1_Rep","full_date":"2026-03-05T14:44:17.193Z","date":"2026-03-05","time":"14:44:17"},{"task":"memory_phase","broad_category":"M","image_png":"M_Quartzite_05.png","image_id":277,"category_name":"Quartzite","category":18,"distinct_rating":2.23,"distinct_type":"Bottom","rt":null,"stimulus":"Stimuli_Rocks480/M_Quartzite_05.png","response":null,"trial_type":"image-keyboard-response","trial_index":54,"plugin_version":"2.1.0","time_elapsed":200894,"subject_id":"90676","group":"Group1","condition":"1_Rep","full_date":"2026-03-05T14:44:17.193Z","date":"2026-03-05","time":"14:44:17"},{"rt":3290,"stimulus":"<p style=\"max-width: 760px; margin: auto; font-size: 35px; line-height: 1.5;\">\n                Press SPACE to continue study phase\n              </p>","response":" ","trial_type":"html-keyboard-response","trial_index":55,"plugin_version":"2.1.0","time_elapsed":204187,"subject_id":"90676","group":"Group1","condition":"1_Rep","full_date":"2026-03-05T14:44:17.193Z","date":"2026-03-05","time":"14:44:17"},{"rt":null,"stimulus":"<p style=\"font-size: 50px; margin: 0; text-align: center;\">+</p>","response":null,"trial_type":"html-keyboard-response","trial_index":56,"plugin_version":"2.1.0","time_elapsed":205189,"subject_id":"90676","group":"Group1","condition":"1_Rep","full_date":"2026-03-05T14:44:17.193Z","date":"2026-03-05","time":"14:44:17"},{"task":"memory_phase","broad_category":"M","image_png":"M_Phyllite_03.png","image_id":259,"category_name":"Phyllite","category":17,"distinct_rating":2.5,"distinct_type":"Bottom","rt":null,"stimulus":"Stimuli_Rocks480/M_Phyllite_03.png","response":null,"trial_type":"image-keyboard-response","trial_index":57,"plugin_version":"2.1.0","time_elapsed":207704,"subject_id":"90676","group":"Group1","condition":"1_Rep","full_date":"2026-03-05T14:44:17.193Z","date":"2026-03-05","time":"14:44:17"},{"rt":null,"stimulus":"<p style=\"font-size: 50px; margin: 0; text-align: center;\">+</p>","response":null,"trial_type":"html-keyboard-response","trial_index":58,"plugin_version":"2.1.0","time_elapsed":208706,"subject_id":"90676","group":"Group1","condition":"1_Rep","full_date":"2026-03-05T14:44:17.193Z","date":"2026-03-05","time":"14:44:17"},{"task":"memory_phase","broad_category":"M","image_png":"M_Phyllite_07.png","image_id":263,"category_name":"Phyllite","category":17,"distinct_rating":2.59,"distinct_type":"Bottom","rt":null,"stimulus":"Stimuli_Rocks480/M_Phyllite_07.png","response":null,"trial_type":"image-keyboard-response","trial_index":59,"plugin_version":"2.1.0","time_elapsed":211218,"subject_id":"90676","group":"Group1","condition":"1_Rep","full_date":"2026-03-05T14:44:17.193Z","date":"2026-03-05","time":"14:44:17"},{"rt":null,"stimulus":"<p style=\"font-size: 50px; margin: 0; text-align: center;\">+</p>","response":null,"trial_type":"html-keyboard-response","trial_index":60,"plugin_version":"2.1.0","time_elapsed":212220,"subject_id":"90676","group":"Group1","condition":"1_Rep","full_date":"2026-03-05T14:44:17.193Z","date":"2026-03-05","time":"14:44:17"},{"task":"memory_phase","broad_category":"S","image_png":"S_Chert_10.png","image_id":362,"category_name":"Chert","category":23,"distinct_rating":7.17,"distinct_type":"Top","rt":null,"stimulus":"Stimuli_Rocks480/S_Chert_10.png","response":null,"trial_type":"image-keyboard-response","trial_index":61,"plugin_version":"2.1.0","time_elapsed":214733,"subject_id":"90676","group":"Group1","condition":"1_Rep","full_date":"2026-03-05T14:44:17.193Z","date":"2026-03-05","time":"14:44:17"},{"rt":null,"stimulus":"<p style=\"font-size: 50px; margin: 0; text-align: center;\">+</p>","response":null,"trial_type":"html-keyboard-response","trial_index":62,"plugin_version":"2.1.0","time_elapsed":215735,"subject_id":"90676","group":"Group1","condition":"1_Rep","full_date":"2026-03-05T14:44:17.193Z","date":"2026-03-05","time":"14:44:17"},{"task":"memory_phase","broad_category":"S","image_png":"S_Dolomite_14.png","image_id":398,"category_name":"Dolomite","category":25,"distinct_rating":1.43,"distinct_type":"Bottom","rt":null,"stimulus":"Stimuli_Rocks480/S_Dolomite_14.png","response":null,"trial_type":"image-keyboard-response","trial_index":63,"plugin_version":"2.1.0","time_elapsed":218249,"subject_id":"90676","group":"Group1","condition":"1_Rep","full_date":"2026-03-05T14:44:17.193Z","date":"2026-03-05","time":"14:44:17"},{"rt":null,"stimulus":"<p style=\"font-size: 50px; margin: 0; text-align: center;\">+</p>","response":null,"trial_type":"html-keyboard-response","trial_index":64,"plugin_version":"2.1.0","time_elapsed":219251,"subject_id":"90676","group":"Group1","condition":"1_Rep","full_date":"2026-03-05T14:44:17.193Z","date":"2026-03-05","time":"14:44:17"},{"task":"memory_phase","broad_category":"S","image_png":"S_Sandstone_15.png","image_id":463,"category_name":"Sandstone","category":29,"distinct_rating":2,"distinct_type":"Bottom","rt":null,"stimulus":"Stimuli_Rocks480/S_Sandstone_15.png","response":null,"trial_type":"image-keyboard-response","trial_index":65,"plugin_version":"2.1.0","time_elapsed":221768,"subject_id":"90676","group":"Group1","condition":"1_Rep","full_date":"2026-03-05T14:44:17.193Z","date":"2026-03-05","time":"14:44:17"},{"rt":null,"stimulus":"<p style=\"font-size: 50px; margin: 0; text-align: center;\">+</p>","response":null,"trial_type":"html-keyboard-response","trial_index":66,"plugin_version":"2.1.0","time_elapsed":222770,"subject_id":"90676","group":"Group1","condition":"1_Rep","full_date":"2026-03-05T14:44:17.193Z","date":"2026-03-05","time":"14:44:17"},{"task":"memory_phase","broad_category":"I","image_png":"I_Pumice_08.png","image_id":136,"category_name":"Pumice","category":9,"distinct_rating":3.1,"distinct_type":"Bottom","rt":null,"stimulus":"Stimuli_Rocks480/I_Pumice_08.png","response":null,"trial_type":"image-keyboard-response","trial_index":67,"plugin_version":"2.1.0","time_elapsed":225283,"subject_id":"90676","group":"Group1","condition":"1_Rep","full_date":"2026-03-05T14:44:17.193Z","date":"2026-03-05","time":"14:44:17"},{"rt":null,"stimulus":"<p style=\"font-size: 50px; margin: 0; text-align: center;\">+</p>","response":null,"trial_type":"html-keyboard-response","trial_index":68,"plugin_version":"2.1.0","time_elapsed":226285,"subject_id":"90676","group":"Group1","condition":"1_Rep","full_date":"2026-03-05T14:44:17.193Z","date":"2026-03-05","time":"14:44:17"},{"task":"memory_phase","broad_category":"M","image_png":"M_Quartzite_08.png","image_id":280,"category_name":"Quartzite","category":18,"distinct_rating":2.15,"distinct_type":"Bottom","rt":null,"stimulus":"Stimuli_Rocks480/M_Quartzite_08.png","response":null,"trial_type":"image-keyboard-response","trial_index":69,"plugin_version":"2.1.0","time_elapsed":228798,"subject_id":"90676","group":"Group1","condition":"1_Rep","full_date":"2026-03-05T14:44:17.193Z","date":"2026-03-05","time":"14:44:17"},{"rt":null,"stimulus":"<p style=\"font-size: 50px; margin: 0; text-align: center;\">+</p>","response":null,"trial_type":"html-keyboard-response","trial_index":70,"plugin_version":"2.1.0","time_elapsed":229800,"subject_id":"90676","group":"Group1","condition":"1_Rep","full_date":"2026-03-05T14:44:17.193Z","date":"2026-03-05","time":"14:44:17"},{"task":"memory_phase","broad_category":"I","image_png":"I_Pegmatite_10.png","image_id":106,"category_name":"Pegmatite","category":7,"distinct_rating":7.66,"distinct_type":"Top","rt":null,"stimulus":"Stimuli_Rocks480/I_Pegmatite_10.png","response":null,"trial_type":"image-keyboard-response","trial_index":71,"plugin_version":"2.1.0","time_elapsed":232313,"subject_id":"90676","group":"Group1","condition":"1_Rep","full_date":"2026-03-05T14:44:17.193Z","date":"2026-03-05","time":"14:44:17"},{"rt":null,"stimulus":"<p style=\"font-size: 50px; margin: 0; text-align: center;\">+</p>","response":null,"trial_type":"html-keyboard-response","trial_index":72,"plugin_version":"2.1.0","time_elapsed":233315,"subject_id":"90676","group":"Group1","condition":"1_Rep","full_date":"2026-03-05T14:44:17.193Z","date":"2026-03-05","time":"14:44:17"},{"task":"memory_phase","broad_category":"M","image_png":"M_Quartzite_13.png","image_id":285,"category_name":"Quartzite","category":18,"distinct_rating":2.27,"distinct_type":"Bottom","rt":null,"stimulus":"Stimuli_Rocks480/M_Quartzite_13.png","response":null,"trial_type":"image-keyboard-response","trial_index":73,"plugin_version":"2.1.0","time_elapsed":235830,"subject_id":"90676","group":"Group1","condition":"1_Rep","full_date":"2026-03-05T14:44:17.193Z","date":"2026-03-05","time":"14:44:17"},{"rt":null,"stimulus":"<p style=\"font-size: 50px; margin: 0; text-align: center;\">+</p>","response":null,"trial_type":"html-keyboard-response","trial_index":74,"plugin_version":"2.1.0","time_elapsed":236833,"subject_id":"90676","group":"Group1","condition":"1_Rep","full_date":"2026-03-05T14:44:17.193Z","date":"2026-03-05","time":"14:44:17"},{"task":"memory_phase","broad_category":"I","image_png":"I_Rhyolite_16.png","image_id":160,"category_name":"Rhyolite","category":10,"distinct_rating":2.19,"distinct_type":"Bottom","rt":null,"stimulus":"Stimuli_Rocks480/I_Rhyolite_16.png","response":null,"trial_type":"image-keyboard-response","trial_index":75,"plugin_version":"2.1.0","time_elapsed":239345,"subject_id":"90676","group":"Group1","condition":"1_Rep","full_date":"2026-03-05T14:44:17.193Z","date":"2026-03-05","time":"14:44:17"},{"rt":null,"stimulus":"<p style=\"font-size: 50px; margin: 0; text-align: center;\">+</p>","response":null,"trial_type":"html-keyboard-response","trial_index":76,"plugin_version":"2.1.0","time_elapsed":240347,"subject_id":"90676","group":"Group1","condition":"1_Rep","full_date":"2026-03-05T14:44:17.193Z","date":"2026-03-05","time":"14:44:17"},{"task":"memory_phase","broad_category":"S","image_png":"S_Breccia_11.png","image_id":347,"category_name":"Breccia","category":22,"distinct_rating":6.7,"distinct_type":"Top","rt":null,"stimulus":"Stimuli_Rocks480/S_Breccia_11.png","response":null,"trial_type":"image-keyboard-response","trial_index":77,"plugin_version":"2.1.0","time_elapsed":242866,"subject_id":"90676","group":"Group1","condition":"1_Rep","full_date":"2026-03-05T14:44:17.193Z","date":"2026-03-05","time":"14:44:17"},{"rt":null,"stimulus":"<p style=\"font-size: 50px; margin: 0; text-align: center;\">+</p>","response":null,"trial_type":"html-keyboard-response","trial_index":78,"plugin_version":"2.1.0","time_elapsed":243869,"subject_id":"90676","group":"Group1","condition":"1_Rep","full_date":"2026-03-05T14:44:17.193Z","date":"2026-03-05","time":"14:44:17"},{"task":"memory_phase","broad_category":"I","image_png":"I_Rhyolite_14.png","image_id":158,"category_name":"Rhyolite","category":10,"distinct_rating":2.59,"distinct_type":"Bottom","rt":null,"stimulus":"Stimuli_Rocks480/I_Rhyolite_14.png","response":null,"trial_type":"image-keyboard-response","trial_index":79,"plugin_version":"2.1.0","time_elapsed":246382,"subject_id":"90676","group":"Group1","condition":"1_Rep","full_date":"2026-03-05T14:44:17.193Z","date":"2026-03-05","time":"14:44:17"},{"rt":null,"stimulus":"<p style=\"font-size: 50px; margin: 0; text-align: center;\">+</p>","response":null,"trial_type":"html-keyboard-response","trial_index":80,"plugin_version":"2.1.0","time_elapsed":247386,"subject_id":"90676","group":"Group1","condition":"1_Rep","full_date":"2026-03-05T14:44:17.193Z","date":"2026-03-05","time":"14:44:17"},{"task":"memory_phase","broad_category":"S","image_png":"S_Shale_01.png","image_id":465,"category_name":"Shale","category":30,"distinct_rating":2.7,"distinct_type":"Bottom","rt":null,"stimulus":"Stimuli_Rocks480/S_Shale_01.png","response":null,"trial_type":"image-keyboard-response","trial_index":81,"plugin_version":"2.1.0","time_elapsed":249900,"subject_id":"90676","group":"Group1","condition":"1_Rep","full_date":"2026-03-05T14:44:17.193Z","date":"2026-03-05","time":"14:44:17"},{"rt":null,"stimulus":"<p style=\"font-size: 50px; margin: 0; text-align: center;\">+</p>","response":null,"trial_type":"html-keyboard-response","trial_index":82,"plugin_version":"2.1.0","time_elapsed":250903,"subject_id":"90676","group":"Group1","condition":"1_Rep","full_date":"2026-03-05T14:44:17.193Z","date":"2026-03-05","time":"14:44:17"},{"task":"memory_phase","broad_category":"S","image_png":"S_Sandstone_03.png","image_id":451,"category_name":"Sandstone","category":29,"distinct_rating":1.86,"distinct_type":"Bottom","rt":null,"stimulus":"Stimuli_Rocks480/S_Sandstone_03.png","response":null,"trial_type":"image-keyboard-response","trial_index":83,"plugin_version":"2.1.0","time_elapsed":253417,"subject_id":"90676","group":"Group1","condition":"1_Rep","full_date":"2026-03-05T14:44:17.193Z","date":"2026-03-05","time":"14:44:17"},{"rt":null,"stimulus":"<p style=\"font-size: 50px; margin: 0; text-align: center;\">+</p>","response":null,"trial_type":"html-keyboard-response","trial_index":84,"plugin_version":"2.1.0","time_elapsed":254419,"subject_id":"90676","group":"Group1","condition":"1_Rep","full_date":"2026-03-05T14:44:17.193Z","date":"2026-03-05","time":"14:44:17"},{"task":"memory_phase","broad_category":"I","image_png":"I_Pumice_12.png","image_id":140,"category_name":"Pumice","category":9,"distinct_rating":2.97,"distinct_type":"Bottom","rt":null,"stimulus":"Stimuli_Rocks480/I_Pumice_12.png","response":null,"trial_type":"image-keyboard-response","trial_index":85,"plugin_version":"2.1.0","time_elapsed":256930,"subject_id":"90676","group":"Group1","condition":"1_Rep","full_date":"2026-03-05T14:44:17.193Z","date":"2026-03-05","time":"14:44:17"},{"rt":null,"stimulus":"<p style=\"font-size: 50px; margin: 0; text-align: center;\">+</p>","response":null,"trial_type":"html-keyboard-response","trial_index":86,"plugin_version":"2.1.0","time_elapsed":257932,"subject_id":"90676","group":"Group1","condition":"1_Rep","full_date":"2026-03-05T14:44:17.193Z","date":"2026-03-05","time":"14:44:17"},{"task":"memory_phase","broad_category":"M","image_png":"M_Phyllite_10.png","image_id":266,"category_name":"Phyllite","category":17,"distinct_rating":2.6,"distinct_type":"Bottom","rt":null,"stimulus":"Stimuli_Rocks480/M_Phyllite_10.png","response":null,"trial_type":"image-keyboard-response","trial_index":87,"plugin_version":"2.1.0","time_elapsed":260445,"subject_id":"90676","group":"Group1","condition":"1_Rep","full_date":"2026-03-05T14:44:17.193Z","date":"2026-03-05","time":"14:44:17"},{"rt":null,"stimulus":"<p style=\"font-size: 50px; margin: 0; text-align: center;\">+</p>","response":null,"trial_type":"html-keyboard-response","trial_index":88,"plugin_version":"2.1.0","time_elapsed":261448,"subject_id":"90676","group":"Group1","condition":"1_Rep","full_date":"2026-03-05T14:44:17.193Z","date":"2026-03-05","time":"14:44:17"},{"task":"memory_phase","broad_category":"I","image_png":"I_Gabbro_16.png","image_id":64,"category_name":"Gabbro","category":4,"distinct_rating":2.52,"distinct_type":"Bottom","rt":null,"stimulus":"Stimuli_Rocks480/I_Gabbro_16.png","response":null,"trial_type":"image-keyboard-response","trial_index":89,"plugin_version":"2.1.0","time_elapsed":263962,"subject_id":"90676","group":"Group1","condition":"1_Rep","full_date":"2026-03-05T14:44:17.193Z","date":"2026-03-05","time":"14:44:17"},{"rt":null,"stimulus":"<p style=\"font-size: 50px; margin: 0; text-align: center;\">+</p>","response":null,"trial_type":"html-keyboard-response","trial_index":90,"plugin_version":"2.1.0","time_elapsed":264964,"subject_id":"90676","group":"Group1","condition":"1_Rep","full_date":"2026-03-05T14:44:17.193Z","date":"2026-03-05","time":"14:44:17"},{"task":"memory_phase","broad_category":"M","image_png":"M_Slate_11.png","image_id":315,"category_name":"Slate","category":20,"distinct_rating":2.75,"distinct_type":"Bottom","rt":null,"stimulus":"Stimuli_Rocks480/M_Slate_11.png","response":null,"trial_type":"image-keyboard-response","trial_index":91,"plugin_version":"2.1.0","time_elapsed":267476,"subject_id":"90676","group":"Group1","condition":"1_Rep","full_date":"2026-03-05T14:44:17.193Z","date":"2026-03-05","time":"14:44:17"},{"rt":null,"stimulus":"<p style=\"font-size: 50px; margin: 0; text-align: center;\">+</p>","response":null,"trial_type":"html-keyboard-response","trial_index":92,"plugin_version":"2.1.0","time_elapsed":268479,"subject_id":"90676","group":"Group1","condition":"1_Rep","full_date":"2026-03-05T14:44:17.193Z","date":"2026-03-05","time":"14:44:17"},{"task":"memory_phase","broad_category":"I","image_png":"I_Rhyolite_11.png","image_id":155,"category_name":"Rhyolite","category":10,"distinct_rating":1.73,"distinct_type":"Bottom","rt":null,"stimulus":"Stimuli_Rocks480/I_Rhyolite_11.png","response":null,"trial_type":"image-keyboard-response","trial_index":93,"plugin_version":"2.1.0","time_elapsed":270991,"subject_id":"90676","group":"Group1","condition":"1_Rep","full_date":"2026-03-05T14:44:17.193Z","date":"2026-03-05","time":"14:44:17"},{"rt":null,"stimulus":"<p style=\"font-size: 50px; margin: 0; text-align: center;\">+</p>","response":null,"trial_type":"html-keyboard-response","trial_index":94,"plugin_version":"2.1.0","time_elapsed":271994,"subject_id":"90676","group":"Group1","condition":"1_Rep","full_date":"2026-03-05T14:44:17.193Z","date":"2026-03-05","time":"14:44:17"},{"task":"memory_phase","broad_category":"S","image_png":"S_Rock Salt_01.png","image_id":433,"category_name":"Rock Salt","category":28,"distinct_rating":7.18,"distinct_type":"Top","rt":null,"stimulus":"Stimuli_Rocks480/S_Rock Salt_01.png","response":null,"trial_type":"image-keyboard-response","trial_index":95,"plugin_version":"2.1.0","time_elapsed":274510,"subject_id":"90676","group":"Group1","condition":"1_Rep","full_date":"2026-03-05T14:44:17.193Z","date":"2026-03-05","time":"14:44:17"},{"rt":null,"stimulus":"<p style=\"font-size: 50px; margin: 0; text-align: center;\">+</p>","response":null,"trial_type":"html-keyboard-response","trial_index":96,"plugin_version":"2.1.0","time_elapsed":275512,"subject_id":"90676","group":"Group1","condition":"1_Rep","full_date":"2026-03-05T14:44:17.193Z","date":"2026-03-05","time":"14:44:17"},{"task":"memory_phase","broad_category":"M","image_png":"M_Slate_03.png","image_id":307,"category_name":"Slate","category":20,"distinct_rating":1.87,"distinct_type":"Bottom","rt":null,"stimulus":"Stimuli_Rocks480/M_Slate_03.png","response":null,"trial_type":"image-keyboard-response","trial_index":97,"plugin_version":"2.1.0","time_elapsed":278027,"subject_id":"90676","group":"Group1","condition":"1_Rep","full_date":"2026-03-05T14:44:17.193Z","date":"2026-03-05","time":"14:44:17"},{"rt":null,"stimulus":"<p style=\"font-size: 50px; margin: 0; text-align: center;\">+</p>","response":null,"trial_type":"html-keyboard-response","trial_index":98,"plugin_version":"2.1.0","time_elapsed":279029,"subject_id":"90676","group":"Group1","condition":"1_Rep","full_date":"2026-03-05T14:44:17.193Z","date":"2026-03-05","time":"14:44:17"},{"task":"memory_phase","broad_category":"I","image_png":"I_Obsidian_05.png","image_id":85,"category_name":"Obsidian","category":6,"distinct_rating":7.32,"distinct_type":"Top","rt":null,"stimulus":"Stimuli_Rocks480/I_Obsidian_05.png","response":null,"trial_type":"image-keyboard-response","trial_index":99,"plugin_version":"2.1.0","time_elapsed":281545,"subject_id":"90676","group":"Group1","condition":"1_Rep","full_date":"2026-03-05T14:44:17.193Z","date":"2026-03-05","time":"14:44:17"},{"rt":null,"stimulus":"<p style=\"font-size: 50px; margin: 0; text-align: center;\">+</p>","response":null,"trial_type":"html-keyboard-response","trial_index":100,"plugin_version":"2.1.0","time_elapsed":282547,"subject_id":"90676","group":"Group1","condition":"1_Rep","full_date":"2026-03-05T14:44:17.193Z","date":"2026-03-05","time":"14:44:17"},{"task":"memory_phase","broad_category":"S","image_png":"S_Dolomite_12.png","image_id":396,"category_name":"Dolomite","category":25,"distinct_rating":1.85,"distinct_type":"Bottom","rt":null,"stimulus":"Stimuli_Rocks480/S_Dolomite_12.png","response":null,"trial_type":"image-keyboard-response","trial_index":101,"plugin_version":"2.1.0","time_elapsed":285061,"subject_id":"90676","group":"Group1","condition":"1_Rep","full_date":"2026-03-05T14:44:17.193Z","date":"2026-03-05","time":"14:44:17"},{"rt":null,"stimulus":"<p style=\"font-size: 50px; margin: 0; text-align: center;\">+</p>","response":null,"trial_type":"html-keyboard-response","trial_index":102,"plugin_version":"2.1.0","time_elapsed":286063,"subject_id":"90676","group":"Group1","condition":"1_Rep","full_date":"2026-03-05T14:44:17.193Z","date":"2026-03-05","time":"14:44:17"},{"task":"memory_phase","broad_category":"I","image_png":"I_Andesite_06.png","image_id":6,"category_name":"Andesite","category":1,"distinct_rating":3.17,"distinct_type":"Bottom","rt":null,"stimulus":"Stimuli_Rocks480/I_Andesite_06.png","response":null,"trial_type":"image-keyboard-response","trial_index":103,"plugin_version":"2.1.0","time_elapsed":288578,"subject_id":"90676","group":"Group1","condition":"1_Rep","full_date":"2026-03-05T14:44:17.193Z","date":"2026-03-05","time":"14:44:17"},{"rt":null,"stimulus":"<p style=\"font-size: 50px; margin: 0; text-align: center;\">+</p>","response":null,"trial_type":"html-keyboard-response","trial_index":104,"plugin_version":"2.1.0","time_elapsed":289581,"subject_id":"90676","group":"Group1","condition":"1_Rep","full_date":"2026-03-05T14:44:17.193Z","date":"2026-03-05","time":"14:44:17"},{"task":"memory_phase","broad_category":"S","image_png":"S_Dolomite_13.png","image_id":397,"category_name":"Dolomite","category":25,"distinct_rating":1.77,"distinct_type":"Bottom","rt":null,"stimulus":"Stimuli_Rocks480/S_Dolomite_13.png","response":null,"trial_type":"image-keyboard-response","trial_index":105,"plugin_version":"2.1.0","time_elapsed":292093,"subject_id":"90676","group":"Group1","condition":"1_Rep","full_date":"2026-03-05T14:44:17.193Z","date":"2026-03-05","time":"14:44:17"},{"rt":19644,"stimulus":"<div style=\"max-width: 760px; margin: auto; font-size: 20px; line-height: 1.5;\">\n      <h1 style=\"text-align:center; font-size: 30px;\">Instructions for the Test Phase</h1>\n      <p>\n        The study phase is now complete.\n      </p>\n      <p>\n        In the test phase, you will again see a series of rock images. \n        Some will be ones you saw before - during the study phase, while others will be new.  \n        <b>Your task</b> is to decide whether you have seen each image before by pressing the corresponding key on your keyboard:<br><br>\n          <b>A</b> - NO (you did not see this image before)<br>\n          <b>L</b> - YES (you saw this image before)<br><br>\n        The test will proceed at your own pace. You will receive feedback after each response.  \n        Please try to respond <b>as accurately as possible</b>.\n      </p>\n      <p>\n        <b>Reminder:</b> If your computer has multiple language settings (e.g., English and another language),\n        please ensure it is set to English during the test phase.\n      </p>\n      <p>\n        You can track your progress using the <b>completion bar</b> at the top of the screen.  \n        Note that it has been refreshed to reflect your progress during this final phase.\n      </p>\n      <p>\n        Press the button below when you are ready to continue.\n      </p>\n    </div>","response":0,"trial_type":"html-button-response","trial_index":106,"plugin_version":"2.1.0","time_elapsed":311740,"subject_id":"90676","group":"Group1","condition":"1_Rep","full_date":"2026-03-05T14:44:17.193Z","date":"2026-03-05","time":"14:44:17"},{"correct_response":"l","task":"test_phase","broad_category":"I","image_png":"I_Rhyolite_11.png","image_id":155,"category_name":"Rhyolite","category":10,"distinct_rating":1.73,"distinct_type":"Bottom","item_type":"Target","rt":2173,"stimulus":"Stimuli_Rocks480/I_Rhyolite_11.png","response":"l","trial_type":"image-keyboard-response","trial_index":107,"plugin_version":"2.1.0","time_elapsed":313916,"subject_id":"90676","group":"Group1","condition":"1_Rep","full_date":"2026-03-05T14:44:17.193Z","date":"2026-03-05","time":"14:44:17","cor_ans":true},{"trial_type":"html-keyboard-response","rt":null,"stimulus":"<p style=\"color: green; font-size: 50px; font-weight: bold;\">Correct</p>","response":null,"trial_index":108,"plugin_version":"2.1.0","time_elapsed":314419,"subject_id":"90676","group":"Group1","condition":"1_Rep","full_date":"2026-03-05T14:44:17.193Z","date":"2026-03-05","time":"14:44:17"},{"correct_response":"l","task":"test_phase","broad_category":"M","image_png":"M_Marble_06.png","image_id":230,"category_name":"Marble","category":15,"distinct_rating":3.4,"distinct_type":"Bottom","item_type":"Target","rt":1371,"stimulus":"Stimuli_Rocks480/M_Marble_06.png","response":"l","trial_type":"image-keyboard-response","trial_index":109,"plugin_version":"2.1.0","time_elapsed":315803,"subject_id":"90676","group":"Group1","condition":"1_Rep","full_date":"2026-03-05T14:44:17.193Z","date":"2026-03-05","time":"14:44:17","cor_ans":true},{"trial_type":"html-keyboard-response","rt":null,"stimulus":"<p style=\"color: green; font-size: 50px; font-weight: bold;\">Correct</p>","response":null,"trial_index":110,"plugin_version":"2.1.0","time_elapsed":316305,"subject_id":"90676","group":"Group1","condition":"1_Rep","full_date":"2026-03-05T14:44:17.193Z","date":"2026-03-05","time":"14:44:17"},{"correct_response":"l","task":"test_phase","broad_category":"S","image_png":"S_Sandstone_03.png","image_id":451,"category_name":"Sandstone","category":29,"distinct_rating":1.86,"distinct_type":"Bottom","item_type":"Target","rt":2325,"stimulus":"Stimuli_Rocks480/S_Sandstone_03.png","response":"l","trial_type":"image-keyboard-response","trial_index":111,"plugin_version":"2.1.0","time_elapsed":318632,"subject_id":"90676","group":"Group1","condition":"1_Rep","full_date":"2026-03-05T14:44:17.193Z","date":"2026-03-05","time":"14:44:17","cor_ans":true},{"trial_type":"html-keyboard-response","rt":null,"stimulus":"<p style=\"color: green; font-size: 50px; font-weight: bold;\">Correct</p>","response":null,"trial_index":112,"plugin_version":"2.1.0","time_elapsed":319134,"subject_id":"90676","group":"Group1","condition":"1_Rep","full_date":"2026-03-05T14:44:17.193Z","date":"2026-03-05","time":"14:44:17"},{"correct_response":"a","task":"test_phase","broad_category":"M","image_png":"M_Marble_14.png","image_id":238,"category_name":"Marble","category":15,"distinct_rating":3.31,"distinct_type":"Bottom","item_type":"Foil","rt":1439,"stimulus":"Stimuli_Rocks480/M_Marble_14.png","response":"a","trial_type":"image-keyboard-response","trial_index":113,"plugin_version":"2.1.0","time_elapsed":320586,"subject_id":"90676","group":"Group1","condition":"1_Rep","full_date":"2026-03-05T14:44:17.193Z","date":"2026-03-05","time":"14:44:17","cor_ans":true},{"trial_type":"html-keyboard-response","rt":null,"stimulus":"<p style=\"color: green; font-size: 50px; font-weight: bold;\">Correct</p>","response":null,"trial_index":114,"plugin_version":"2.1.0","time_elapsed":321088,"subject_id":"90676","group":"Group1","condition":"1_Rep","full_date":"2026-03-05T14:44:17.193Z","date":"2026-03-05","time":"14:44:17"},{"correct_response":"l","task":"test_phase","broad_category":"M","image_png":"M_Phyllite_10.png","image_id":266,"category_name":"Phyllite","category":17,"distinct_rating":2.6,"distinct_type":"Bottom","item_type":"Target","rt":1640,"stimulus":"Stimuli_Rocks480/M_Phyllite_10.png","response":"l","trial_type":"image-keyboard-response","trial_index":115,"plugin_version":"2.1.0","time_elapsed":322739,"subject_id":"90676","group":"Group1","condition":"1_Rep","full_date":"2026-03-05T14:44:17.193Z","date":"2026-03-05","time":"14:44:17","cor_ans":true},{"trial_type":"html-keyboard-response","rt":null,"stimulus":"<p style=\"color: green; font-size: 50px; font-weight: bold;\">Correct</p>","response":null,"trial_index":116,"plugin_version":"2.1.0","time_elapsed":323241,"subject_id":"90676","group":"Group1","condition":"1_Rep","full_date":"2026-03-05T14:44:17.193Z","date":"2026-03-05","time":"14:44:17"},{"correct_response":"l","task":"test_phase","broad_category":"I","image_png":"I_Andesite_10.png","image_id":10,"category_name":"Andesite","category":1,"distinct_rating":3.15,"distinct_type":"Bottom","item_type":"Target","rt":1078,"stimulus":"Stimuli_Rocks480/I_Andesite_10.png","response":"l","trial_type":"image-keyboard-response","trial_index":117,"plugin_version":"2.1.0","time_elapsed":324329,"subject_id":"90676","group":"Group1","condition":"1_Rep","full_date":"2026-03-05T14:44:17.193Z","date":"2026-03-05","time":"14:44:17","cor_ans":true},{"trial_type":"html-keyboard-response","rt":null,"stimulus":"<p style=\"color: green; font-size: 50px; font-weight: bold;\">Correct</p>","response":null,"trial_index":118,"plugin_version":"2.1.0","time_elapsed":324831,"subject_id":"90676","group":"Group1","condition":"1_Rep","full_date":"2026-03-05T14:44:17.193Z","date":"2026-03-05","time":"14:44:17"},{"correct_response":"a","task":"test_phase","broad_category":"I","image_png":"I_Obsidian_06.png","image_id":86,"category_name":"Obsidian","category":6,"distinct_rating":8.01,"distinct_type":"Top","item_type":"Foil","rt":1093,"stimulus":"Stimuli_Rocks480/I_Obsidian_06.png","response":"a","trial_type":"image-keyboard-response","trial_index":119,"plugin_version":"2.1.0","time_elapsed":325938,"subject_id":"90676","group":"Group1","condition":"1_Rep","full_date":"2026-03-05T14:44:17.193Z","date":"2026-03-05","time":"14:44:17","cor_ans":true},{"trial_type":"html-keyboard-response","rt":null,"stimulus":"<p style=\"color: green; font-size: 50px; font-weight: bold;\">Correct</p>","response":null,"trial_index":120,"plugin_version":"2.1.0","time_elapsed":326440,"subject_id":"90676","group":"Group1","condition":"1_Rep","full_date":"2026-03-05T14:44:17.193Z","date":"2026-03-05","time":"14:44:17"},{"correct_response":"a","task":"test_phase","broad_category":"M","image_png":"M_Phyllite_13.png","image_id":269,"category_name":"Phyllite","category":17,"distinct_rating":2.8,"distinct_type":"Bottom","item_type":"Foil","rt":9826,"stimulus":"Stimuli_Rocks480/M_Phyllite_13.png","response":"a","trial_type":"image-keyboard-response","trial_index":121,"plugin_version":"2.1.0","time_elapsed":336279,"subject_id":"90676","group":"Group1","condition":"1_Rep","full_date":"2026-03-05T14:44:17.193Z","date":"2026-03-05","time":"14:44:17","cor_ans":true},{"trial_type":"html-keyboard-response","rt":null,"stimulus":"<p style=\"color: green; font-size: 50px; font-weight: bold;\">Correct</p>","response":null,"trial_index":122,"plugin_version":"2.1.0","time_elapsed":336781,"subject_id":"90676","group":"Group1","condition":"1_Rep","full_date":"2026-03-05T14:44:17.193Z","date":"2026-03-05","time":"14:44:17"},{"correct_response":"l","task":"test_phase","broad_category":"I","image_png":"I_Basalt_02.png","image_id":18,"category_name":"Basalt","category":2,"distinct_rating":1.84,"distinct_type":"Bottom","item_type":"Target","rt":757,"stimulus":"Stimuli_Rocks480/I_Basalt_02.png","response":"l","trial_type":"image-keyboard-response","trial_index":123,"plugin_version":"2.1.0","time_elapsed":337552,"subject_id":"90676","group":"Group1","condition":"1_Rep","full_date":"2026-03-05T14:44:17.193Z","date":"2026-03-05","time":"14:44:17","cor_ans":true},{"trial_type":"html-keyboard-response","rt":null,"stimulus":"<p style=\"color: green; font-size: 50px; font-weight: bold;\">Correct</p>","response":null,"trial_index":124,"plugin_version":"2.1.0","time_elapsed":338054,"subject_id":"90676","group":"Group1","condition":"1_Rep","full_date":"2026-03-05T14:44:17.193Z","date":"2026-03-05","time":"14:44:17"},{"correct_response":"l","task":"test_phase","broad_category":"I","image_png":"I_Diorite_03.png","image_id":35,"category_name":"Diorite","category":3,"distinct_rating":3.14,"distinct_type":"Bottom","item_type":"Target","rt":1137,"stimulus":"Stimuli_Rocks480/I_Diorite_03.png","response":"l","trial_type":"image-keyboard-response","trial_index":125,"plugin_version":"2.1.0","time_elapsed":339208,"subject_id":"90676","group":"Group1","condition":"1_Rep","full_date":"2026-03-05T14:44:17.193Z","date":"2026-03-05","time":"14:44:17","cor_ans":true},{"trial_type":"html-keyboard-response","rt":null,"stimulus":"<p style=\"color: green; font-size: 50px; font-weight: bold;\">Correct</p>","response":null,"trial_index":126,"plugin_version":"2.1.0","time_elapsed":339711,"subject_id":"90676","group":"Group1","condition":"1_Rep","full_date":"2026-03-05T14:44:17.193Z","date":"2026-03-05","time":"14:44:17"},{"correct_response":"a","task":"test_phase","broad_category":"S","image_png":"S_Sandstone_04.png","image_id":452,"category_name":"Sandstone","category":29,"distinct_rating":1.8,"distinct_type":"Bottom","item_type":"Foil","rt":1736,"stimulus":"Stimuli_Rocks480/S_Sandstone_04.png","response":"a","trial_type":"image-keyboard-response","trial_index":127,"plugin_version":"2.1.0","time_elapsed":341461,"subject_id":"90676","group":"Group1","condition":"1_Rep","full_date":"2026-03-05T14:44:17.193Z","date":"2026-03-05","time":"14:44:17","cor_ans":true},{"trial_type":"html-keyboard-response","rt":null,"stimulus":"<p style=\"color: green; font-size: 50px; font-weight: bold;\">Correct</p>","response":null,"trial_index":128,"plugin_version":"2.1.0","time_elapsed":341963,"subject_id":"90676","group":"Group1","condition":"1_Rep","full_date":"2026-03-05T14:44:17.193Z","date":"2026-03-05","time":"14:44:17"},{"correct_response":"l","task":"test_phase","broad_category":"I","image_png":"I_Gabbro_08.png","image_id":56,"category_name":"Gabbro","category":4,"distinct_rating":3.02,"distinct_type":"Bottom","item_type":"Target","rt":9025,"stimulus":"Stimuli_Rocks480/I_Gabbro_08.png","response":"a","trial_type":"image-keyboard-response","trial_index":129,"plugin_version":"2.1.0","time_elapsed":351001,"subject_id":"90676","group":"Group1","condition":"1_Rep","full_date":"2026-03-05T14:44:17.193Z","date":"2026-03-05","time":"14:44:17","cor_ans":false},{"trial_type":"html-keyboard-response","rt":null,"stimulus":"<p style=\"color: red; font-size: 50px; font-weight: bold;\">Incorrect</p>","response":null,"trial_index":130,"plugin_version":"2.1.0","time_elapsed":351503,"subject_id":"90676","group":"Group1","condition":"1_Rep","full_date":"2026-03-05T14:44:17.193Z","date":"2026-03-05","time":"14:44:17"},{"correct_response":"l","task":"test_phase","broad_category":"I","image_png":"I_Pegmatite_16.png","image_id":112,"category_name":"Pegmatite","category":7,"distinct_rating":7.03,"distinct_type":"Top","item_type":"Target","rt":672,"stimulus":"Stimuli_Rocks480/I_Pegmatite_16.png","response":"l","trial_type":"image-keyboard-response","trial_index":131,"plugin_version":"2.1.0","time_elapsed":352189,"subject_id":"90676","group":"Group1","condition":"1_Rep","full_date":"2026-03-05T14:44:17.193Z","date":"2026-03-05","time":"14:44:17","cor_ans":true},{"trial_type":"html-keyboard-response","rt":null,"stimulus":"<p style=\"color: green; font-size: 50px; font-weight: bold;\">Correct</p>","response":null,"trial_index":132,"plugin_version":"2.1.0","time_elapsed":352691,"subject_id":"90676","group":"Group1","condition":"1_Rep","full_date":"2026-03-05T14:44:17.193Z","date":"2026-03-05","time":"14:44:17"},{"correct_response":"l","task":"test_phase","broad_category":"M","image_png":"M_Phyllite_03.png","image_id":259,"category_name":"Phyllite","category":17,"distinct_rating":2.5,"distinct_type":"Bottom","item_type":"Target","rt":1127,"stimulus":"Stimuli_Rocks480/M_Phyllite_03.png","response":"a","trial_type":"image-keyboard-response","trial_index":133,"plugin_version":"2.1.0","time_elapsed":353831,"subject_id":"90676","group":"Group1","condition":"1_Rep","full_date":"2026-03-05T14:44:17.193Z","date":"2026-03-05","time":"14:44:17","cor_ans":false},{"trial_type":"html-keyboard-response","rt":null,"stimulus":"<p style=\"color: red; font-size: 50px; font-weight: bold;\">Incorrect</p>","response":null,"trial_index":134,"plugin_version":"2.1.0","time_elapsed":354333,"subject_id":"90676","group":"Group1","condition":"1_Rep","full_date":"2026-03-05T14:44:17.193Z","date":"2026-03-05","time":"14:44:17"},{"correct_response":"l","task":"test_phase","broad_category":"M","image_png":"M_Marble_04.png","image_id":228,"category_name":"Marble","category":15,"distinct_rating":3.15,"distinct_type":"Bottom","item_type":"Target","rt":557,"stimulus":"Stimuli_Rocks480/M_Marble_04.png","response":"l","trial_type":"image-keyboard-response","trial_index":135,"plugin_version":"2.1.0","time_elapsed":354906,"subject_id":"90676","group":"Group1","condition":"1_Rep","full_date":"2026-03-05T14:44:17.193Z","date":"2026-03-05","time":"14:44:17","cor_ans":true},{"trial_type":"html-keyboard-response","rt":null,"stimulus":"<p style=\"color: green; font-size: 50px; font-weight: bold;\">Correct</p>","response":null,"trial_index":136,"plugin_version":"2.1.0","time_elapsed":355409,"subject_id":"90676","group":"Group1","condition":"1_Rep","full_date":"2026-03-05T14:44:17.193Z","date":"2026-03-05","time":"14:44:17"},{"correct_response":"a","task":"test_phase","broad_category":"I","image_png":"I_Pegmatite_11.png","image_id":107,"category_name":"Pegmatite","category":7,"distinct_rating":7.11,"distinct_type":"Top","item_type":"Foil","rt":616,"stimulus":"Stimuli_Rocks480/I_Pegmatite_11.png","response":"l","trial_type":"image-keyboard-response","trial_index":137,"plugin_version":"2.1.0","time_elapsed":356042,"subject_id":"90676","group":"Group1","condition":"1_Rep","full_date":"2026-03-05T14:44:17.193Z","date":"2026-03-05","time":"14:44:17","cor_ans":false},{"trial_type":"html-keyboard-response","rt":null,"stimulus":"<p style=\"color: red; font-size: 50px; font-weight: bold;\">Incorrect</p>","response":null,"trial_index":138,"plugin_version":"2.1.0","time_elapsed":356544,"subject_id":"90676","group":"Group1","condition":"1_Rep","full_date":"2026-03-05T14:44:17.193Z","date":"2026-03-05","time":"14:44:17"},{"correct_response":"a","task":"test_phase","broad_category":"M","image_png":"M_Slate_14.png","image_id":318,"category_name":"Slate","category":20,"distinct_rating":2.58,"distinct_type":"Bottom","item_type":"Foil","rt":1438,"stimulus":"Stimuli_Rocks480/M_Slate_14.png","response":"l","trial_type":"image-keyboard-response","trial_index":139,"plugin_version":"2.1.0","time_elapsed":357993,"subject_id":"90676","group":"Group1","condition":"1_Rep","full_date":"2026-03-05T14:44:17.193Z","date":"2026-03-05","time":"14:44:17","cor_ans":false},{"trial_type":"html-keyboard-response","rt":null,"stimulus":"<p style=\"color: red; font-size: 50px; font-weight: bold;\">Incorrect</p>","response":null,"trial_index":140,"plugin_version":"2.1.0","time_elapsed":358495,"subject_id":"90676","group":"Group1","condition":"1_Rep","full_date":"2026-03-05T14:44:17.193Z","date":"2026-03-05","time":"14:44:17"},{"correct_response":"l","task":"test_phase","broad_category":"S","image_png":"S_Dolomite_12.png","image_id":396,"category_name":"Dolomite","category":25,"distinct_rating":1.85,"distinct_type":"Bottom","item_type":"Target","rt":7452,"stimulus":"Stimuli_Rocks480/S_Dolomite_12.png","response":"a","trial_type":"image-keyboard-response","trial_index":141,"plugin_version":"2.1.0","time_elapsed":365948,"subject_id":"90676","group":"Group1","condition":"1_Rep","full_date":"2026-03-05T14:44:17.193Z","date":"2026-03-05","time":"14:44:17","cor_ans":false},{"trial_type":"html-keyboard-response","rt":null,"stimulus":"<p style=\"color: red; font-size: 50px; font-weight: bold;\">Incorrect</p>","response":null,"trial_index":142,"plugin_version":"2.1.0","time_elapsed":366451,"subject_id":"90676","group":"Group1","condition":"1_Rep","full_date":"2026-03-05T14:44:17.193Z","date":"2026-03-05","time":"14:44:17"},{"correct_response":"l","task":"test_phase","broad_category":"M","image_png":"M_Gneiss_06.png","image_id":198,"category_name":"Gneiss","category":13,"distinct_rating":2.65,"distinct_type":"Bottom","item_type":"Target","rt":2386,"stimulus":"Stimuli_Rocks480/M_Gneiss_06.png","response":"a","trial_type":"image-keyboard-response","trial_index":143,"plugin_version":"2.1.0","time_elapsed":368852,"subject_id":"90676","group":"Group1","condition":"1_Rep","full_date":"2026-03-05T14:44:17.193Z","date":"2026-03-05","time":"14:44:17","cor_ans":false},{"trial_type":"html-keyboard-response","rt":null,"stimulus":"<p style=\"color: red; font-size: 50px; font-weight: bold;\">Incorrect</p>","response":null,"trial_index":144,"plugin_version":"2.1.0","time_elapsed":369354,"subject_id":"90676","group":"Group1","condition":"1_Rep","full_date":"2026-03-05T14:44:17.193Z","date":"2026-03-05","time":"14:44:17"},{"correct_response":"l","task":"test_phase","broad_category":"I","image_png":"I_Basalt_01.png","image_id":17,"category_name":"Basalt","category":2,"distinct_rating":1.92,"distinct_type":"Bottom","item_type":"Target","rt":1337,"stimulus":"Stimuli_Rocks480/I_Basalt_01.png","response":"l","trial_type":"image-keyboard-response","trial_index":145,"plugin_version":"2.1.0","time_elapsed":370706,"subject_id":"90676","group":"Group1","condition":"1_Rep","full_date":"2026-03-05T14:44:17.193Z","date":"2026-03-05","time":"14:44:17","cor_ans":true},{"trial_type":"html-keyboard-response","rt":null,"stimulus":"<p style=\"color: green; font-size: 50px; font-weight: bold;\">Correct</p>","response":null,"trial_index":146,"plugin_version":"2.1.0","time_elapsed":371207,"subject_id":"90676","group":"Group1","condition":"1_Rep","full_date":"2026-03-05T14:44:17.193Z","date":"2026-03-05","time":"14:44:17"},{"correct_response":"l","task":"test_phase","broad_category":"I","image_png":"I_Rhyolite_16.png","image_id":160,"category_name":"Rhyolite","category":10,"distinct_rating":2.19,"distinct_type":"Bottom","item_type":"Target","rt":1037,"stimulus":"Stimuli_Rocks480/I_Rhyolite_16.png","response":"l","trial_type":"image-keyboard-response","trial_index":147,"plugin_version":"2.1.0","time_elapsed":372256,"subject_id":"90676","group":"Group1","condition":"1_Rep","full_date":"2026-03-05T14:44:17.193Z","date":"2026-03-05","time":"14:44:17","cor_ans":true},{"trial_type":"html-keyboard-response","rt":null,"stimulus":"<p style=\"color: green; font-size: 50px; font-weight: bold;\">Correct</p>","response":null,"trial_index":148,"plugin_version":"2.1.0","time_elapsed":372758,"subject_id":"90676","group":"Group1","condition":"1_Rep","full_date":"2026-03-05T14:44:17.193Z","date":"2026-03-05","time":"14:44:17"},{"correct_response":"a","task":"test_phase","broad_category":"M","image_png":"M_Marble_03.png","image_id":227,"category_name":"Marble","category":15,"distinct_rating":2.67,"distinct_type":"Bottom","item_type":"Foil","rt":749,"stimulus":"Stimuli_Rocks480/M_Marble_03.png","response":"l","trial_type":"image-keyboard-response","trial_index":149,"plugin_version":"2.1.0","time_elapsed":373523,"subject_id":"90676","group":"Group1","condition":"1_Rep","full_date":"2026-03-05T14:44:17.193Z","date":"2026-03-05","time":"14:44:17","cor_ans":false},{"trial_type":"html-keyboard-response","rt":null,"stimulus":"<p style=\"color: red; font-size: 50px; font-weight: bold;\">Incorrect</p>","response":null,"trial_index":150,"plugin_version":"2.1.0","time_elapsed":374025,"subject_id":"90676","group":"Group1","condition":"1_Rep","full_date":"2026-03-05T14:44:17.193Z","date":"2026-03-05","time":"14:44:17"},{"correct_response":"l","task":"test_phase","broad_category":"S","image_png":"S_Rock Gypsum_04.png","image_id":420,"category_name":"Rock Gypsum","category":27,"distinct_rating":7.61,"distinct_type":"Top","item_type":"Target","rt":1060,"stimulus":"Stimuli_Rocks480/S_Rock Gypsum_04.png","response":"l","trial_type":"image-keyboard-response","trial_index":151,"plugin_version":"2.1.0","time_elapsed":375099,"subject_id":"90676","group":"Group1","condition":"1_Rep","full_date":"2026-03-05T14:44:17.193Z","date":"2026-03-05","time":"14:44:17","cor_ans":true},{"trial_type":"html-keyboard-response","rt":null,"stimulus":"<p style=\"color: green; font-size: 50px; font-weight: bold;\">Correct</p>","response":null,"trial_index":152,"plugin_version":"2.1.0","time_elapsed":375602,"subject_id":"90676","group":"Group1","condition":"1_Rep","full_date":"2026-03-05T14:44:17.193Z","date":"2026-03-05","time":"14:44:17"},{"correct_response":"l","task":"test_phase","broad_category":"I","image_png":"I_Andesite_06.png","image_id":6,"category_name":"Andesite","category":1,"distinct_rating":3.17,"distinct_type":"Bottom","item_type":"Target","rt":675,"stimulus":"Stimuli_Rocks480/I_Andesite_06.png","response":"l","trial_type":"image-keyboard-response","trial_index":153,"plugin_version":"2.1.0","time_elapsed":376279,"subject_id":"90676","group":"Group1","condition":"1_Rep","full_date":"2026-03-05T14:44:17.193Z","date":"2026-03-05","time":"14:44:17","cor_ans":true},{"trial_type":"html-keyboard-response","rt":null,"stimulus":"<p style=\"color: green; font-size: 50px; font-weight: bold;\">Correct</p>","response":null,"trial_index":154,"plugin_version":"2.1.0","time_elapsed":376781,"subject_id":"90676","group":"Group1","condition":"1_Rep","full_date":"2026-03-05T14:44:17.193Z","date":"2026-03-05","time":"14:44:17"},{"correct_response":"a","task":"test_phase","broad_category":"I","image_png":"I_Gabbro_12.png","image_id":60,"category_name":"Gabbro","category":4,"distinct_rating":2.6,"distinct_type":"Bottom","item_type":"Foil","rt":1274,"stimulus":"Stimuli_Rocks480/I_Gabbro_12.png","response":"a","trial_type":"image-keyboard-response","trial_index":155,"plugin_version":"2.1.0","time_elapsed":378072,"subject_id":"90676","group":"Group1","condition":"1_Rep","full_date":"2026-03-05T14:44:17.193Z","date":"2026-03-05","time":"14:44:17","cor_ans":true},{"trial_type":"html-keyboard-response","rt":null,"stimulus":"<p style=\"color: green; font-size: 50px; font-weight: bold;\">Correct</p>","response":null,"trial_index":156,"plugin_version":"2.1.0","time_elapsed":378574,"subject_id":"90676","group":"Group1","condition":"1_Rep","full_date":"2026-03-05T14:44:17.193Z","date":"2026-03-05","time":"14:44:17"},{"correct_response":"a","task":"test_phase","broad_category":"S","image_png":"S_Conglomerate_14.png","image_id":382,"category_name":"Conglomerate","category":24,"distinct_rating":6.86,"distinct_type":"Top","item_type":"Foil","rt":836,"stimulus":"Stimuli_Rocks480/S_Conglomerate_14.png","response":"a","trial_type":"image-keyboard-response","trial_index":157,"plugin_version":"2.1.0","time_elapsed":379422,"subject_id":"90676","group":"Group1","condition":"1_Rep","full_date":"2026-03-05T14:44:17.193Z","date":"2026-03-05","time":"14:44:17","cor_ans":true},{"trial_type":"html-keyboard-response","rt":null,"stimulus":"<p style=\"color: green; font-size: 50px; font-weight: bold;\">Correct</p>","response":null,"trial_index":158,"plugin_version":"2.1.0","time_elapsed":379924,"subject_id":"90676","group":"Group1","condition":"1_Rep","full_date":"2026-03-05T14:44:17.193Z","date":"2026-03-05","time":"14:44:17"},{"correct_response":"l","task":"test_phase","broad_category":"S","image_png":"S_Breccia_11.png","image_id":347,"category_name":"Breccia","category":22,"distinct_rating":6.7,"distinct_type":"Top","item_type":"Target","rt":557,"stimulus":"Stimuli_Rocks480/S_Breccia_11.png","response":"l","trial_type":"image-keyboard-response","trial_index":159,"plugin_version":"2.1.0","time_elapsed":380500,"subject_id":"90676","group":"Group1","condition":"1_Rep","full_date":"2026-03-05T14:44:17.193Z","date":"2026-03-05","time":"14:44:17","cor_ans":true},{"trial_type":"html-keyboard-response","rt":null,"stimulus":"<p style=\"color: green; font-size: 50px; font-weight: bold;\">Correct</p>","response":null,"trial_index":160,"plugin_version":"2.1.0","time_elapsed":381002,"subject_id":"90676","group":"Group1","condition":"1_Rep","full_date":"2026-03-05T14:44:17.193Z","date":"2026-03-05","time":"14:44:17"},{"correct_response":"a","task":"test_phase","broad_category":"I","image_png":"I_Diorite_01.png","image_id":33,"category_name":"Diorite","category":3,"distinct_rating":2.97,"distinct_type":"Bottom","item_type":"Foil","rt":815,"stimulus":"Stimuli_Rocks480/I_Diorite_01.png","response":"l","trial_type":"image-keyboard-response","trial_index":161,"plugin_version":"2.1.0","time_elapsed":381834,"subject_id":"90676","group":"Group1","condition":"1_Rep","full_date":"2026-03-05T14:44:17.193Z","date":"2026-03-05","time":"14:44:17","cor_ans":false},{"trial_type":"html-keyboard-response","rt":null,"stimulus":"<p style=\"color: red; font-size: 50px; font-weight: bold;\">Incorrect</p>","response":null,"trial_index":162,"plugin_version":"2.1.0","time_elapsed":382336,"subject_id":"90676","group":"Group1","condition":"1_Rep","full_date":"2026-03-05T14:44:17.193Z","date":"2026-03-05","time":"14:44:17"},{"correct_response":"a","task":"test_phase","broad_category":"I","image_png":"I_Pegmatite_03.png","image_id":99,"category_name":"Pegmatite","category":7,"distinct_rating":7.24,"distinct_type":"Top","item_type":"Foil","rt":752,"stimulus":"Stimuli_Rocks480/I_Pegmatite_03.png","response":"l","trial_type":"image-keyboard-response","trial_index":163,"plugin_version":"2.1.0","time_elapsed":383101,"subject_id":"90676","group":"Group1","condition":"1_Rep","full_date":"2026-03-05T14:44:17.193Z","date":"2026-03-05","time":"14:44:17","cor_ans":false},{"trial_type":"html-keyboard-response","rt":null,"stimulus":"<p style=\"color: red; font-size: 50px; font-weight: bold;\">Incorrect</p>","response":null,"trial_index":164,"plugin_version":"2.1.0","time_elapsed":383603,"subject_id":"90676","group":"Group1","condition":"1_Rep","full_date":"2026-03-05T14:44:17.193Z","date":"2026-03-05","time":"14:44:17"},{"correct_response":"a","task":"test_phase","broad_category":"I","image_png":"I_Pumice_01.png","image_id":129,"category_name":"Pumice","category":9,"distinct_rating":3.25,"distinct_type":"Bottom","item_type":"Foil","rt":871,"stimulus":"Stimuli_Rocks480/I_Pumice_01.png","response":"l","trial_type":"image-keyboard-response","trial_index":165,"plugin_version":"2.1.0","time_elapsed":384488,"subject_id":"90676","group":"Group1","condition":"1_Rep","full_date":"2026-03-05T14:44:17.193Z","date":"2026-03-05","time":"14:44:17","cor_ans":false},{"trial_type":"html-keyboard-response","rt":null,"stimulus":"<p style=\"color: red; font-size: 50px; font-weight: bold;\">Incorrect</p>","response":null,"trial_index":166,"plugin_version":"2.1.0","time_elapsed":384990,"subject_id":"90676","group":"Group1","condition":"1_Rep","full_date":"2026-03-05T14:44:17.193Z","date":"2026-03-05","time":"14:44:17"},{"correct_response":"l","task":"test_phase","broad_category":"I","image_png":"I_Gabbro_11.png","image_id":59,"category_name":"Gabbro","category":4,"distinct_rating":1.99,"distinct_type":"Bottom","item_type":"Target","rt":1228,"stimulus":"Stimuli_Rocks480/I_Gabbro_11.png","response":"l","trial_type":"image-keyboard-response","trial_index":167,"plugin_version":"2.1.0","time_elapsed":386229,"subject_id":"90676","group":"Group1","condition":"1_Rep","full_date":"2026-03-05T14:44:17.193Z","date":"2026-03-05","time":"14:44:17","cor_ans":true},{"trial_type":"html-keyboard-response","rt":null,"stimulus":"<p style=\"color: green; font-size: 50px; font-weight: bold;\">Correct</p>","response":null,"trial_index":168,"plugin_version":"2.1.0","time_elapsed":386731,"subject_id":"90676","group":"Group1","condition":"1_Rep","full_date":"2026-03-05T14:44:17.193Z","date":"2026-03-05","time":"14:44:17"},{"correct_response":"a","task":"test_phase","broad_category":"I","image_png":"I_Basalt_08.png","image_id":24,"category_name":"Basalt","category":2,"distinct_rating":2.31,"distinct_type":"Bottom","item_type":"Foil","rt":1870,"stimulus":"Stimuli_Rocks480/I_Basalt_08.png","response":"a","trial_type":"image-keyboard-response","trial_index":169,"plugin_version":"2.1.0","time_elapsed":388619,"subject_id":"90676","group":"Group1","condition":"1_Rep","full_date":"2026-03-05T14:44:17.193Z","date":"2026-03-05","time":"14:44:17","cor_ans":true},{"trial_type":"html-keyboard-response","rt":null,"stimulus":"<p style=\"color: green; font-size: 50px; font-weight: bold;\">Correct</p>","response":null,"trial_index":170,"plugin_version":"2.1.0","time_elapsed":389120,"subject_id":"90676","group":"Group1","condition":"1_Rep","full_date":"2026-03-05T14:44:17.193Z","date":"2026-03-05","time":"14:44:17"},{"correct_response":"l","task":"test_phase","broad_category":"M","image_png":"M_Gneiss_05.png","image_id":197,"category_name":"Gneiss","category":13,"distinct_rating":2.97,"distinct_type":"Bottom","item_type":"Target","rt":1090,"stimulus":"Stimuli_Rocks480/M_Gneiss_05.png","response":"l","trial_type":"image-keyboard-response","trial_index":171,"plugin_version":"2.1.0","time_elapsed":390229,"subject_id":"90676","group":"Group1","condition":"1_Rep","full_date":"2026-03-05T14:44:17.193Z","date":"2026-03-05","time":"14:44:17","cor_ans":true},{"trial_type":"html-keyboard-response","rt":null,"stimulus":"<p style=\"color: green; font-size: 50px; font-weight: bold;\">Correct</p>","response":null,"trial_index":172,"plugin_version":"2.1.0","time_elapsed":390731,"subject_id":"90676","group":"Group1","condition":"1_Rep","full_date":"2026-03-05T14:44:17.193Z","date":"2026-03-05","time":"14:44:17"},{"correct_response":"l","task":"test_phase","broad_category":"I","image_png":"I_Pegmatite_10.png","image_id":106,"category_name":"Pegmatite","category":7,"distinct_rating":7.66,"distinct_type":"Top","item_type":"Target","rt":757,"stimulus":"Stimuli_Rocks480/I_Pegmatite_10.png","response":"l","trial_type":"image-keyboard-response","trial_index":173,"plugin_version":"2.1.0","time_elapsed":391500,"subject_id":"90676","group":"Group1","condition":"1_Rep","full_date":"2026-03-05T14:44:17.193Z","date":"2026-03-05","time":"14:44:17","cor_ans":true},{"trial_type":"html-keyboard-response","rt":null,"stimulus":"<p style=\"color: green; font-size: 50px; font-weight: bold;\">Correct</p>","response":null,"trial_index":174,"plugin_version":"2.1.0","time_elapsed":392002,"subject_id":"90676","group":"Group1","condition":"1_Rep","full_date":"2026-03-05T14:44:17.193Z","date":"2026-03-05","time":"14:44:17"},{"correct_response":"a","task":"test_phase","broad_category":"S","image_png":"S_Rock Salt_15.png","image_id":447,"category_name":"Rock Salt","category":28,"distinct_rating":7.79,"distinct_type":"Top","item_type":"Foil","rt":946,"stimulus":"Stimuli_Rocks480/S_Rock Salt_15.png","response":"a","trial_type":"image-keyboard-response","trial_index":175,"plugin_version":"2.1.0","time_elapsed":392962,"subject_id":"90676","group":"Group1","condition":"1_Rep","full_date":"2026-03-05T14:44:17.193Z","date":"2026-03-05","time":"14:44:17","cor_ans":true},{"trial_type":"html-keyboard-response","rt":null,"stimulus":"<p style=\"color: green; font-size: 50px; font-weight: bold;\">Correct</p>","response":null,"trial_index":176,"plugin_version":"2.1.0","time_elapsed":393463,"subject_id":"90676","group":"Group1","condition":"1_Rep","full_date":"2026-03-05T14:44:17.193Z","date":"2026-03-05","time":"14:44:17"},{"correct_response":"l","task":"test_phase","broad_category":"M","image_png":"M_Slate_15.png","image_id":319,"category_name":"Slate","category":20,"distinct_rating":2.13,"distinct_type":"Bottom","item_type":"Target","rt":2876,"stimulus":"Stimuli_Rocks480/M_Slate_15.png","response":"l","trial_type":"image-keyboard-response","trial_index":177,"plugin_version":"2.1.0","time_elapsed":396349,"subject_id":"90676","group":"Group1","condition":"1_Rep","full_date":"2026-03-05T14:44:17.193Z","date":"2026-03-05","time":"14:44:17","cor_ans":true},{"trial_type":"html-keyboard-response","rt":null,"stimulus":"<p style=\"color: green; font-size: 50px; font-weight: bold;\">Correct</p>","response":null,"trial_index":178,"plugin_version":"2.1.0","time_elapsed":396850,"subject_id":"90676","group":"Group1","condition":"1_Rep","full_date":"2026-03-05T14:44:17.193Z","date":"2026-03-05","time":"14:44:17"},{"correct_response":"a","task":"test_phase","broad_category":"M","image_png":"M_Quartzite_15.png","image_id":287,"category_name":"Quartzite","category":18,"distinct_rating":2.19,"distinct_type":"Bottom","item_type":"Foil","rt":1418,"stimulus":"Stimuli_Rocks480/M_Quartzite_15.png","response":"l","trial_type":"image-keyboard-response","trial_index":179,"plugin_version":"2.1.0","time_elapsed":398282,"subject_id":"90676","group":"Group1","condition":"1_Rep","full_date":"2026-03-05T14:44:17.193Z","date":"2026-03-05","time":"14:44:17","cor_ans":false},{"trial_type":"html-keyboard-response","rt":null,"stimulus":"<p style=\"color: red; font-size: 50px; font-weight: bold;\">Incorrect</p>","response":null,"trial_index":180,"plugin_version":"2.1.0","time_elapsed":398784,"subject_id":"90676","group":"Group1","condition":"1_Rep","full_date":"2026-03-05T14:44:17.193Z","date":"2026-03-05","time":"14:44:17"},{"correct_response":"l","task":"test_phase","broad_category":"S","image_png":"S_Dolomite_14.png","image_id":398,"category_name":"Dolomite","category":25,"distinct_rating":1.43,"distinct_type":"Bottom","item_type":"Target","rt":1256,"stimulus":"Stimuli_Rocks480/S_Dolomite_14.png","response":"a","trial_type":"image-keyboard-response","trial_index":181,"plugin_version":"2.1.0","time_elapsed":400052,"subject_id":"90676","group":"Group1","condition":"1_Rep","full_date":"2026-03-05T14:44:17.193Z","date":"2026-03-05","time":"14:44:17","cor_ans":false},{"trial_type":"html-keyboard-response","rt":null,"stimulus":"<p style=\"color: red; font-size: 50px; font-weight: bold;\">Incorrect</p>","response":null,"trial_index":182,"plugin_version":"2.1.0","time_elapsed":400555,"subject_id":"90676","group":"Group1","condition":"1_Rep","full_date":"2026-03-05T14:44:17.193Z","date":"2026-03-05","time":"14:44:17"},{"correct_response":"a","task":"test_phase","broad_category":"I","image_png":"I_Gabbro_14.png","image_id":62,"category_name":"Gabbro","category":4,"distinct_rating":2.95,"distinct_type":"Bottom","item_type":"Foil","rt":870,"stimulus":"Stimuli_Rocks480/I_Gabbro_14.png","response":"l","trial_type":"image-keyboard-response","trial_index":183,"plugin_version":"2.1.0","time_elapsed":401438,"subject_id":"90676","group":"Group1","condition":"1_Rep","full_date":"2026-03-05T14:44:17.193Z","date":"2026-03-05","time":"14:44:17","cor_ans":false},{"trial_type":"html-keyboard-response","rt":null,"stimulus":"<p style=\"color: red; font-size: 50px; font-weight: bold;\">Incorrect</p>","response":null,"trial_index":184,"plugin_version":"2.1.0","time_elapsed":401940,"subject_id":"90676","group":"Group1","condition":"1_Rep","full_date":"2026-03-05T14:44:17.193Z","date":"2026-03-05","time":"14:44:17"},{"correct_response":"a","task":"test_phase","broad_category":"S","image_png":"S_Dolomite_01.png","image_id":385,"category_name":"Dolomite","category":25,"distinct_rating":1.43,"distinct_type":"Bottom","item_type":"Foil","rt":857,"stimulus":"Stimuli_Rocks480/S_Dolomite_01.png","response":"a","trial_type":"image-keyboard-response","trial_index":185,"plugin_version":"2.1.0","time_elapsed":402813,"subject_id":"90676","group":"Group1","condition":"1_Rep","full_date":"2026-03-05T14:44:17.193Z","date":"2026-03-05","time":"14:44:17","cor_ans":true},{"trial_type":"html-keyboard-response","rt":null,"stimulus":"<p style=\"color: green; font-size: 50px; font-weight: bold;\">Correct</p>","response":null,"trial_index":186,"plugin_version":"2.1.0","time_elapsed":403314,"subject_id":"90676","group":"Group1","condition":"1_Rep","full_date":"2026-03-05T14:44:17.193Z","date":"2026-03-05","time":"14:44:17"},{"correct_response":"a","task":"test_phase","broad_category":"M","image_png":"M_Quartzite_07.png","image_id":279,"category_name":"Quartzite","category":18,"distinct_rating":1.97,"distinct_type":"Bottom","item_type":"Foil","rt":1091,"stimulus":"Stimuli_Rocks480/M_Quartzite_07.png","response":"l","trial_type":"image-keyboard-response","trial_index":187,"plugin_version":"2.1.0","time_elapsed":404421,"subject_id":"90676","group":"Group1","condition":"1_Rep","full_date":"2026-03-05T14:44:17.193Z","date":"2026-03-05","time":"14:44:17","cor_ans":false},{"trial_type":"html-keyboard-response","rt":null,"stimulus":"<p style=\"color: red; font-size: 50px; font-weight: bold;\">Incorrect</p>","response":null,"trial_index":188,"plugin_version":"2.1.0","time_elapsed":404923,"subject_id":"90676","group":"Group1","condition":"1_Rep","full_date":"2026-03-05T14:44:17.193Z","date":"2026-03-05","time":"14:44:17"},{"correct_response":"l","task":"test_phase","broad_category":"S","image_png":"S_Sandstone_16.png","image_id":464,"category_name":"Sandstone","category":29,"distinct_rating":1.93,"distinct_type":"Bottom","item_type":"Target","rt":1004,"stimulus":"Stimuli_Rocks480/S_Sandstone_16.png","response":"l","trial_type":"image-keyboard-response","trial_index":189,"plugin_version":"2.1.0","time_elapsed":405937,"subject_id":"90676","group":"Group1","condition":"1_Rep","full_date":"2026-03-05T14:44:17.193Z","date":"2026-03-05","time":"14:44:17","cor_ans":true},{"trial_type":"html-keyboard-response","rt":null,"stimulus":"<p style=\"color: green; font-size: 50px; font-weight: bold;\">Correct</p>","response":null,"trial_index":190,"plugin_version":"2.1.0","time_elapsed":406440,"subject_id":"90676","group":"Group1","condition":"1_Rep","full_date":"2026-03-05T14:44:17.193Z","date":"2026-03-05","time":"14:44:17"},{"correct_response":"a","task":"test_phase","broad_category":"I","image_png":"I_Diorite_15.png","image_id":47,"category_name":"Diorite","category":3,"distinct_rating":3.05,"distinct_type":"Bottom","item_type":"Foil","rt":694,"stimulus":"Stimuli_Rocks480/I_Diorite_15.png","response":"l","trial_type":"image-keyboard-response","trial_index":191,"plugin_version":"2.1.0","time_elapsed":407145,"subject_id":"90676","group":"Group1","condition":"1_Rep","full_date":"2026-03-05T14:44:17.193Z","date":"2026-03-05","time":"14:44:17","cor_ans":false},{"trial_type":"html-keyboard-response","rt":null,"stimulus":"<p style=\"color: red; font-size: 50px; font-weight: bold;\">Incorrect</p>","response":null,"trial_index":192,"plugin_version":"2.1.0","time_elapsed":407647,"subject_id":"90676","group":"Group1","condition":"1_Rep","full_date":"2026-03-05T14:44:17.193Z","date":"2026-03-05","time":"14:44:17"},{"correct_response":"a","task":"test_phase","broad_category":"M","image_png":"M_Gneiss_14.png","image_id":206,"category_name":"Gneiss","category":13,"distinct_rating":3.41,"distinct_type":"Bottom","item_type":"Foil","rt":714,"stimulus":"Stimuli_Rocks480/M_Gneiss_14.png","response":"l","trial_type":"image-keyboard-response","trial_index":193,"plugin_version":"2.1.0","time_elapsed":408374,"subject_id":"90676","group":"Group1","condition":"1_Rep","full_date":"2026-03-05T14:44:17.193Z","date":"2026-03-05","time":"14:44:17","cor_ans":false},{"trial_type":"html-keyboard-response","rt":null,"stimulus":"<p style=\"color: red; font-size: 50px; font-weight: bold;\">Incorrect</p>","response":null,"trial_index":194,"plugin_version":"2.1.0","time_elapsed":408876,"subject_id":"90676","group":"Group1","condition":"1_Rep","full_date":"2026-03-05T14:44:17.193Z","date":"2026-03-05","time":"14:44:17"},{"correct_response":"a","task":"test_phase","broad_category":"M","image_png":"M_Phyllite_05.png","image_id":261,"category_name":"Phyllite","category":17,"distinct_rating":2.14,"distinct_type":"Bottom","item_type":"Foil","rt":986,"stimulus":"Stimuli_Rocks480/M_Phyllite_05.png","response":"a","trial_type":"image-keyboard-response","trial_index":195,"plugin_version":"2.1.0","time_elapsed":409876,"subject_id":"90676","group":"Group1","condition":"1_Rep","full_date":"2026-03-05T14:44:17.193Z","date":"2026-03-05","time":"14:44:17","cor_ans":true},{"trial_type":"html-keyboard-response","rt":null,"stimulus":"<p style=\"color: green; font-size: 50px; font-weight: bold;\">Correct</p>","response":null,"trial_index":196,"plugin_version":"2.1.0","time_elapsed":410379,"subject_id":"90676","group":"Group1","condition":"1_Rep","full_date":"2026-03-05T14:44:17.193Z","date":"2026-03-05","time":"14:44:17"},{"correct_response":"l","task":"test_phase","broad_category":"S","image_png":"S_Shale_01.png","image_id":465,"category_name":"Shale","category":30,"distinct_rating":2.7,"distinct_type":"Bottom","item_type":"Target","rt":1790,"stimulus":"Stimuli_Rocks480/S_Shale_01.png","response":"a","trial_type":"image-keyboard-response","trial_index":197,"plugin_version":"2.1.0","time_elapsed":412180,"subject_id":"90676","group":"Group1","condition":"1_Rep","full_date":"2026-03-05T14:44:17.193Z","date":"2026-03-05","time":"14:44:17","cor_ans":false},{"trial_type":"html-keyboard-response","rt":null,"stimulus":"<p style=\"color: red; font-size: 50px; font-weight: bold;\">Incorrect</p>","response":null,"trial_index":198,"plugin_version":"2.1.0","time_elapsed":412682,"subject_id":"90676","group":"Group1","condition":"1_Rep","full_date":"2026-03-05T14:44:17.193Z","date":"2026-03-05","time":"14:44:17"},{"correct_response":"l","task":"test_phase","broad_category":"S","image_png":"S_Chert_10.png","image_id":362,"category_name":"Chert","category":23,"distinct_rating":7.17,"distinct_type":"Top","item_type":"Target","rt":799,"stimulus":"Stimuli_Rocks480/S_Chert_10.png","response":"l","trial_type":"image-keyboard-response","trial_index":199,"plugin_version":"2.1.0","time_elapsed":413494,"subject_id":"90676","group":"Group1","condition":"1_Rep","full_date":"2026-03-05T14:44:17.193Z","date":"2026-03-05","time":"14:44:17","cor_ans":true},{"trial_type":"html-keyboard-response","rt":null,"stimulus":"<p style=\"color: green; font-size: 50px; font-weight: bold;\">Correct</p>","response":null,"trial_index":200,"plugin_version":"2.1.0","time_elapsed":413996,"subject_id":"90676","group":"Group1","condition":"1_Rep","full_date":"2026-03-05T14:44:17.193Z","date":"2026-03-05","time":"14:44:17"},{"correct_response":"a","task":"test_phase","broad_category":"I","image_png":"I_Peridotite_13.png","image_id":125,"category_name":"Peridotite","category":8,"distinct_rating":7.28,"distinct_type":"Top","item_type":"Foil","rt":805,"stimulus":"Stimuli_Rocks480/I_Peridotite_13.png","response":"a","trial_type":"image-keyboard-response","trial_index":201,"plugin_version":"2.1.0","time_elapsed":414816,"subject_id":"90676","group":"Group1","condition":"1_Rep","full_date":"2026-03-05T14:44:17.193Z","date":"2026-03-05","time":"14:44:17","cor_ans":true},{"trial_type":"html-keyboard-response","rt":null,"stimulus":"<p style=\"color: green; font-size: 50px; font-weight: bold;\">Correct</p>","response":null,"trial_index":202,"plugin_version":"2.1.0","time_elapsed":415319,"subject_id":"90676","group":"Group1","condition":"1_Rep","full_date":"2026-03-05T14:44:17.193Z","date":"2026-03-05","time":"14:44:17"},{"correct_response":"a","task":"test_phase","broad_category":"S","image_png":"S_Dolomite_16.png","image_id":400,"category_name":"Dolomite","category":25,"distinct_rating":1.71,"distinct_type":"Bottom","item_type":"Foil","rt":1410,"stimulus":"Stimuli_Rocks480/S_Dolomite_16.png","response":"a","trial_type":"image-keyboard-response","trial_index":203,"plugin_version":"2.1.0","time_elapsed":416741,"subject_id":"90676","group":"Group1","condition":"1_Rep","full_date":"2026-03-05T14:44:17.193Z","date":"2026-03-05","time":"14:44:17","cor_ans":true},{"trial_type":"html-keyboard-response","rt":null,"stimulus":"<p style=\"color: green; font-size: 50px; font-weight: bold;\">Correct</p>","response":null,"trial_index":204,"plugin_version":"2.1.0","time_elapsed":417243,"subject_id":"90676","group":"Group1","condition":"1_Rep","full_date":"2026-03-05T14:44:17.193Z","date":"2026-03-05","time":"14:44:17"},{"correct_response":"a","task":"test_phase","broad_category":"M","image_png":"M_Quartzite_12.png","image_id":284,"category_name":"Quartzite","category":18,"distinct_rating":1.92,"distinct_type":"Bottom","item_type":"Foil","rt":6357,"stimulus":"Stimuli_Rocks480/M_Quartzite_12.png","response":"l","trial_type":"image-keyboard-response","trial_index":205,"plugin_version":"2.1.0","time_elapsed":423613,"subject_id":"90676","group":"Group1","condition":"1_Rep","full_date":"2026-03-05T14:44:17.193Z","date":"2026-03-05","time":"14:44:17","cor_ans":false},{"trial_type":"html-keyboard-response","rt":null,"stimulus":"<p style=\"color: red; font-size: 50px; font-weight: bold;\">Incorrect</p>","response":null,"trial_index":206,"plugin_version":"2.1.0","time_elapsed":424115,"subject_id":"90676","group":"Group1","condition":"1_Rep","full_date":"2026-03-05T14:44:17.193Z","date":"2026-03-05","time":"14:44:17"},{"correct_response":"l","task":"test_phase","broad_category":"M","image_png":"M_Quartzite_13.png","image_id":285,"category_name":"Quartzite","category":18,"distinct_rating":2.27,"distinct_type":"Bottom","item_type":"Target","rt":788,"stimulus":"Stimuli_Rocks480/M_Quartzite_13.png","response":"a","trial_type":"image-keyboard-response","trial_index":207,"plugin_version":"2.1.0","time_elapsed":424916,"subject_id":"90676","group":"Group1","condition":"1_Rep","full_date":"2026-03-05T14:44:17.193Z","date":"2026-03-05","time":"14:44:17","cor_ans":false},{"trial_type":"html-keyboard-response","rt":null,"stimulus":"<p style=\"color: red; font-size: 50px; font-weight: bold;\">Incorrect</p>","response":null,"trial_index":208,"plugin_version":"2.1.0","time_elapsed":425418,"subject_id":"90676","group":"Group1","condition":"1_Rep","full_date":"2026-03-05T14:44:17.193Z","date":"2026-03-05","time":"14:44:17"},{"correct_response":"l","task":"test_phase","broad_category":"S","image_png":"S_Rock Salt_01.png","image_id":433,"category_name":"Rock Salt","category":28,"distinct_rating":7.18,"distinct_type":"Top","item_type":"Target","rt":959,"stimulus":"Stimuli_Rocks480/S_Rock Salt_01.png","response":"l","trial_type":"image-keyboard-response","trial_index":209,"plugin_version":"2.1.0","time_elapsed":426392,"subject_id":"90676","group":"Group1","condition":"1_Rep","full_date":"2026-03-05T14:44:17.193Z","date":"2026-03-05","time":"14:44:17","cor_ans":true},{"trial_type":"html-keyboard-response","rt":null,"stimulus":"<p style=\"color: green; font-size: 50px; font-weight: bold;\">Correct</p>","response":null,"trial_index":210,"plugin_version":"2.1.0","time_elapsed":426894,"subject_id":"90676","group":"Group1","condition":"1_Rep","full_date":"2026-03-05T14:44:17.193Z","date":"2026-03-05","time":"14:44:17"},{"correct_response":"a","task":"test_phase","broad_category":"S","image_png":"S_Chert_13.png","image_id":365,"category_name":"Chert","category":23,"distinct_rating":6.57,"distinct_type":"Top","item_type":"Foil","rt":849,"stimulus":"Stimuli_Rocks480/S_Chert_13.png","response":"a","trial_type":"image-keyboard-response","trial_index":211,"plugin_version":"2.1.0","time_elapsed":427754,"subject_id":"90676","group":"Group1","condition":"1_Rep","full_date":"2026-03-05T14:44:17.193Z","date":"2026-03-05","time":"14:44:17","cor_ans":true},{"trial_type":"html-keyboard-response","rt":null,"stimulus":"<p style=\"color: green; font-size: 50px; font-weight: bold;\">Correct</p>","response":null,"trial_index":212,"plugin_version":"2.1.0","time_elapsed":428256,"subject_id":"90676","group":"Group1","condition":"1_Rep","full_date":"2026-03-05T14:44:17.193Z","date":"2026-03-05","time":"14:44:17"},{"correct_response":"a","task":"test_phase","broad_category":"I","image_png":"I_Gabbro_02.png","image_id":50,"category_name":"Gabbro","category":4,"distinct_rating":2.73,"distinct_type":"Bottom","item_type":"Foil","rt":1052,"stimulus":"Stimuli_Rocks480/I_Gabbro_02.png","response":"a","trial_type":"image-keyboard-response","trial_index":213,"plugin_version":"2.1.0","time_elapsed":429320,"subject_id":"90676","group":"Group1","condition":"1_Rep","full_date":"2026-03-05T14:44:17.193Z","date":"2026-03-05","time":"14:44:17","cor_ans":true},{"trial_type":"html-keyboard-response","rt":null,"stimulus":"<p style=\"color: green; font-size: 50px; font-weight: bold;\">Correct</p>","response":null,"trial_index":214,"plugin_version":"2.1.0","time_elapsed":429822,"subject_id":"90676","group":"Group1","condition":"1_Rep","full_date":"2026-03-05T14:44:17.193Z","date":"2026-03-05","time":"14:44:17"},{"correct_response":"l","task":"test_phase","broad_category":"I","image_png":"I_Basalt_09.png","image_id":25,"category_name":"Basalt","category":2,"distinct_rating":1.89,"distinct_type":"Bottom","item_type":"Target","rt":1014,"stimulus":"Stimuli_Rocks480/I_Basalt_09.png","response":"l","trial_type":"image-keyboard-response","trial_index":215,"plugin_version":"2.1.0","time_elapsed":430847,"subject_id":"90676","group":"Group1","condition":"1_Rep","full_date":"2026-03-05T14:44:17.193Z","date":"2026-03-05","time":"14:44:17","cor_ans":true},{"trial_type":"html-keyboard-response","rt":null,"stimulus":"<p style=\"color: green; font-size: 50px; font-weight: bold;\">Correct</p>","response":null,"trial_index":216,"plugin_version":"2.1.0","time_elapsed":431348,"subject_id":"90676","group":"Group1","condition":"1_Rep","full_date":"2026-03-05T14:44:17.193Z","date":"2026-03-05","time":"14:44:17"},{"correct_response":"l","task":"test_phase","broad_category":"I","image_png":"I_Rhyolite_14.png","image_id":158,"category_name":"Rhyolite","category":10,"distinct_rating":2.59,"distinct_type":"Bottom","item_type":"Target","rt":954,"stimulus":"Stimuli_Rocks480/I_Rhyolite_14.png","response":"a","trial_type":"image-keyboard-response","trial_index":217,"plugin_version":"2.1.0","time_elapsed":432314,"subject_id":"90676","group":"Group1","condition":"1_Rep","full_date":"2026-03-05T14:44:17.193Z","date":"2026-03-05","time":"14:44:17","cor_ans":false},{"trial_type":"html-keyboard-response","rt":null,"stimulus":"<p style=\"color: red; font-size: 50px; font-weight: bold;\">Incorrect</p>","response":null,"trial_index":218,"plugin_version":"2.1.0","time_elapsed":432817,"subject_id":"90676","group":"Group1","condition":"1_Rep","full_date":"2026-03-05T14:44:17.193Z","date":"2026-03-05","time":"14:44:17"},{"correct_response":"l","task":"test_phase","broad_category":"S","image_png":"S_Shale_12.png","image_id":476,"category_name":"Shale","category":30,"distinct_rating":2.48,"distinct_type":"Bottom","item_type":"Target","rt":2251,"stimulus":"Stimuli_Rocks480/S_Shale_12.png","response":"l","trial_type":"image-keyboard-response","trial_index":219,"plugin_version":"2.1.0","time_elapsed":435083,"subject_id":"90676","group":"Group1","condition":"1_Rep","full_date":"2026-03-05T14:44:17.193Z","date":"2026-03-05","time":"14:44:17","cor_ans":true},{"trial_type":"html-keyboard-response","rt":null,"stimulus":"<p style=\"color: green; font-size: 50px; font-weight: bold;\">Correct</p>","response":null,"trial_index":220,"plugin_version":"2.1.0","time_elapsed":435585,"subject_id":"90676","group":"Group1","condition":"1_Rep","full_date":"2026-03-05T14:44:17.193Z","date":"2026-03-05","time":"14:44:17"},{"correct_response":"a","task":"test_phase","broad_category":"S","image_png":"S_Sandstone_08.png","image_id":456,"category_name":"Sandstone","category":29,"distinct_rating":1.5,"distinct_type":"Bottom","item_type":"Foil","rt":1814,"stimulus":"Stimuli_Rocks480/S_Sandstone_08.png","response":"a","trial_type":"image-keyboard-response","trial_index":221,"plugin_version":"2.1.0","time_elapsed":437411,"subject_id":"90676","group":"Group1","condition":"1_Rep","full_date":"2026-03-05T14:44:17.193Z","date":"2026-03-05","time":"14:44:17","cor_ans":true},{"trial_type":"html-keyboard-response","rt":null,"stimulus":"<p style=\"color: green; font-size: 50px; font-weight: bold;\">Correct</p>","response":null,"trial_index":222,"plugin_version":"2.1.0","time_elapsed":437914,"subject_id":"90676","group":"Group1","condition":"1_Rep","full_date":"2026-03-05T14:44:17.193Z","date":"2026-03-05","time":"14:44:17"},{"correct_response":"a","task":"test_phase","broad_category":"I","image_png":"I_Rhyolite_08.png","image_id":152,"category_name":"Rhyolite","category":10,"distinct_rating":1.38,"distinct_type":"Bottom","item_type":"Foil","rt":1202,"stimulus":"Stimuli_Rocks480/I_Rhyolite_08.png","response":"a","trial_type":"image-keyboard-response","trial_index":223,"plugin_version":"2.1.0","time_elapsed":439128,"subject_id":"90676","group":"Group1","condition":"1_Rep","full_date":"2026-03-05T14:44:17.193Z","date":"2026-03-05","time":"14:44:17","cor_ans":true},{"trial_type":"html-keyboard-response","rt":null,"stimulus":"<p style=\"color: green; font-size: 50px; font-weight: bold;\">Correct</p>","response":null,"trial_index":224,"plugin_version":"2.1.0","time_elapsed":439631,"subject_id":"90676","group":"Group1","condition":"1_Rep","full_date":"2026-03-05T14:44:17.193Z","date":"2026-03-05","time":"14:44:17"},{"correct_r