[{"width":1536,"height":730,"webaudio":true,"browser":"chrome","browser_version":"144.0.0","mobile":false,"os":"Windows 10","fullscreen":true,"vsync_rate":146.74,"webcam":true,"microphone":true,"trial_type":"browser-check","trial_index":0,"plugin_version":"2.1.0","time_elapsed":1162,"subject_id":"92328","group":"Group2","condition":"3_Rep","full_date":"2026-01-29T16:37:40.391Z","date":"2026-01-29","time":"16:37:40"},{"success":true,"timeout":false,"failed_images":[],"failed_audio":[],"failed_video":[],"trial_type":"preload","trial_index":1,"plugin_version":"2.1.0","time_elapsed":3956,"subject_id":"92328","group":"Group2","condition":"3_Rep","full_date":"2026-01-29T16:37:40.391Z","date":"2026-01-29","time":"16:37:40"},{"rt":21719,"url":"SONA_consent_memorability.html","trial_type":"external-html","trial_index":2,"plugin_version":"2.1.0","time_elapsed":25745,"subject_id":"92328","group":"Group2","condition":"3_Rep","full_date":"2026-01-29T16:37:40.391Z","date":"2026-01-29","time":"16:37:40"},{"success":true,"rt":2025,"trial_type":"fullscreen","trial_index":3,"plugin_version":"2.1.0","time_elapsed":28783,"subject_id":"92328","group":"Group2","condition":"3_Rep","full_date":"2026-01-29T16:37:40.391Z","date":"2026-01-29","time":"16:37:40"},{"rt":24408,"stimulus":"<div style=\"max-width: 760px; margin: auto; font-size: 20px; line-height: 1.5;\">\n      <h1 style=\"text-align:center; font-size: 30px;\">Instructions</h1>\n      <p>\n        Welcome to the study on <b>visual memory</b>. This experiment consists of <b>two phases</b>: \n        a <b>study phase</b> and a <b>test phase</b>.\n      </p>\n      <p>\n        In the study phase, you will see a series of rock images along with their category labels.\n        The images will appear one at a time.\n        <b>Your task</b> is to learn the categories to which the rock images belong \n        and to remember each image as accurately as possible.\n      </p> \n      <p>\n        Note that we will repeat the study phase <b>3 times</b>, \n             so you will have multiple opportunities to see and remember each image.\n      </p>\n      <p>\n        After the study phase, <b>your memory will be tested</b>. \n        Additional instructions for the test phase will be provided at that time.\n      </p>\n      <p>\n        If your computer has multiple <b>language settings</b> (e.g., English and another language),\n        please make sure it is set to English before starting.\n      </p>\n      <p>\n        You can track your progress using the <b>completion bar</b> at the top of the screen. \n        Please note that the bar will refresh when the test phase begins \n        to give you an accurate sense of your progress in both phases.\n      </p> \n      <p>\n        Press the button below when you are ready to begin.\n      </p>\n    </div>","response":0,"trial_type":"html-button-response","trial_index":4,"plugin_version":"2.1.0","time_elapsed":53202,"subject_id":"92328","group":"Group2","condition":"3_Rep","full_date":"2026-01-29T16:37:40.391Z","date":"2026-01-29","time":"16:37:40"},{"rt":null,"stimulus":"<p style=\"font-size: 50px; margin: 0; text-align: center;\">+</p>","response":null,"trial_type":"html-keyboard-response","trial_index":5,"plugin_version":"2.1.0","time_elapsed":54216,"subject_id":"92328","group":"Group2","condition":"3_Rep","full_date":"2026-01-29T16:37:40.391Z","date":"2026-01-29","time":"16:37:40"},{"task":"memory_phase","broad_category":"S","image_png":"S_Shale_07.png","image_id":471,"category_name":"Shale","category":30,"distinct_rating":2.73,"distinct_type":"Bottom","rt":null,"stimulus":"Stimuli_Rocks480/S_Shale_07.png","response":null,"trial_type":"image-keyboard-response","trial_index":6,"plugin_version":"2.1.0","time_elapsed":56726,"subject_id":"92328","group":"Group2","condition":"3_Rep","full_date":"2026-01-29T16:37:40.391Z","date":"2026-01-29","time":"16:37:40"},{"rt":null,"stimulus":"<p style=\"font-size: 50px; margin: 0; text-align: center;\">+</p>","response":null,"trial_type":"html-keyboard-response","trial_index":7,"plugin_version":"2.1.0","time_elapsed":57744,"subject_id":"92328","group":"Group2","condition":"3_Rep","full_date":"2026-01-29T16:37:40.391Z","date":"2026-01-29","time":"16:37:40"},{"task":"memory_phase","broad_category":"I","image_png":"I_Diorite_01.png","image_id":33,"category_name":"Diorite","category":3,"distinct_rating":2.97,"distinct_type":"Bottom","rt":null,"stimulus":"Stimuli_Rocks480/I_Diorite_01.png","response":null,"trial_type":"image-keyboard-response","trial_index":8,"plugin_version":"2.1.0","time_elapsed":60255,"subject_id":"92328","group":"Group2","condition":"3_Rep","full_date":"2026-01-29T16:37:40.391Z","date":"2026-01-29","time":"16:37:40"},{"rt":null,"stimulus":"<p style=\"font-size: 50px; margin: 0; text-align: center;\">+</p>","response":null,"trial_type":"html-keyboard-response","trial_index":9,"plugin_version":"2.1.0","time_elapsed":61268,"subject_id":"92328","group":"Group2","condition":"3_Rep","full_date":"2026-01-29T16:37:40.391Z","date":"2026-01-29","time":"16:37:40"},{"task":"memory_phase","broad_category":"I","image_png":"I_Andesite_03.png","image_id":3,"category_name":"Andesite","category":1,"distinct_rating":3.17,"distinct_type":"Bottom","rt":null,"stimulus":"Stimuli_Rocks480/I_Andesite_03.png","response":null,"trial_type":"image-keyboard-response","trial_index":10,"plugin_version":"2.1.0","time_elapsed":63787,"subject_id":"92328","group":"Group2","condition":"3_Rep","full_date":"2026-01-29T16:37:40.391Z","date":"2026-01-29","time":"16:37:40"},{"rt":null,"stimulus":"<p style=\"font-size: 50px; margin: 0; text-align: center;\">+</p>","response":null,"trial_type":"html-keyboard-response","trial_index":11,"plugin_version":"2.1.0","time_elapsed":64791,"subject_id":"92328","group":"Group2","condition":"3_Rep","full_date":"2026-01-29T16:37:40.391Z","date":"2026-01-29","time":"16:37:40"},{"task":"memory_phase","broad_category":"I","image_png":"I_Diorite_10.png","image_id":42,"category_name":"Diorite","category":3,"distinct_rating":2.84,"distinct_type":"Bottom","rt":null,"stimulus":"Stimuli_Rocks480/I_Diorite_10.png","response":null,"trial_type":"image-keyboard-response","trial_index":12,"plugin_version":"2.1.0","time_elapsed":67308,"subject_id":"92328","group":"Group2","condition":"3_Rep","full_date":"2026-01-29T16:37:40.391Z","date":"2026-01-29","time":"16:37:40"},{"rt":null,"stimulus":"<p style=\"font-size: 50px; margin: 0; text-align: center;\">+</p>","response":null,"trial_type":"html-keyboard-response","trial_index":13,"plugin_version":"2.1.0","time_elapsed":68315,"subject_id":"92328","group":"Group2","condition":"3_Rep","full_date":"2026-01-29T16:37:40.391Z","date":"2026-01-29","time":"16:37:40"},{"task":"memory_phase","broad_category":"M","image_png":"M_Gneiss_15.png","image_id":207,"category_name":"Gneiss","category":13,"distinct_rating":3.11,"distinct_type":"Bottom","rt":null,"stimulus":"Stimuli_Rocks480/M_Gneiss_15.png","response":null,"trial_type":"image-keyboard-response","trial_index":14,"plugin_version":"2.1.0","time_elapsed":70833,"subject_id":"92328","group":"Group2","condition":"3_Rep","full_date":"2026-01-29T16:37:40.391Z","date":"2026-01-29","time":"16:37:40"},{"rt":null,"stimulus":"<p style=\"font-size: 50px; margin: 0; text-align: center;\">+</p>","response":null,"trial_type":"html-keyboard-response","trial_index":15,"plugin_version":"2.1.0","time_elapsed":71841,"subject_id":"92328","group":"Group2","condition":"3_Rep","full_date":"2026-01-29T16:37:40.391Z","date":"2026-01-29","time":"16:37:40"},{"task":"memory_phase","broad_category":"I","image_png":"I_Rhyolite_10.png","image_id":154,"category_name":"Rhyolite","category":10,"distinct_rating":2.88,"distinct_type":"Bottom","rt":null,"stimulus":"Stimuli_Rocks480/I_Rhyolite_10.png","response":null,"trial_type":"image-keyboard-response","trial_index":16,"plugin_version":"2.1.0","time_elapsed":74348,"subject_id":"92328","group":"Group2","condition":"3_Rep","full_date":"2026-01-29T16:37:40.391Z","date":"2026-01-29","time":"16:37:40"},{"rt":null,"stimulus":"<p style=\"font-size: 50px; margin: 0; text-align: center;\">+</p>","response":null,"trial_type":"html-keyboard-response","trial_index":17,"plugin_version":"2.1.0","time_elapsed":75368,"subject_id":"92328","group":"Group2","condition":"3_Rep","full_date":"2026-01-29T16:37:40.391Z","date":"2026-01-29","time":"16:37:40"},{"task":"memory_phase","broad_category":"M","image_png":"M_Phyllite_13.png","image_id":269,"category_name":"Phyllite","category":17,"distinct_rating":2.8,"distinct_type":"Bottom","rt":null,"stimulus":"Stimuli_Rocks480/M_Phyllite_13.png","response":null,"trial_type":"image-keyboard-response","trial_index":18,"plugin_version":"2.1.0","time_elapsed":77882,"subject_id":"92328","group":"Group2","condition":"3_Rep","full_date":"2026-01-29T16:37:40.391Z","date":"2026-01-29","time":"16:37:40"},{"rt":null,"stimulus":"<p style=\"font-size: 50px; margin: 0; text-align: center;\">+</p>","response":null,"trial_type":"html-keyboard-response","trial_index":19,"plugin_version":"2.1.0","time_elapsed":78888,"subject_id":"92328","group":"Group2","condition":"3_Rep","full_date":"2026-01-29T16:37:40.391Z","date":"2026-01-29","time":"16:37:40"},{"task":"memory_phase","broad_category":"S","image_png":"S_Rock Salt_13.png","image_id":445,"category_name":"Rock Salt","category":28,"distinct_rating":7.58,"distinct_type":"Top","rt":null,"stimulus":"Stimuli_Rocks480/S_Rock Salt_13.png","response":null,"trial_type":"image-keyboard-response","trial_index":20,"plugin_version":"2.1.0","time_elapsed":81410,"subject_id":"92328","group":"Group2","condition":"3_Rep","full_date":"2026-01-29T16:37:40.391Z","date":"2026-01-29","time":"16:37:40"},{"rt":null,"stimulus":"<p style=\"font-size: 50px; margin: 0; text-align: center;\">+</p>","response":null,"trial_type":"html-keyboard-response","trial_index":21,"plugin_version":"2.1.0","time_elapsed":82417,"subject_id":"92328","group":"Group2","condition":"3_Rep","full_date":"2026-01-29T16:37:40.391Z","date":"2026-01-29","time":"16:37:40"},{"task":"memory_phase","broad_category":"I","image_png":"I_Basalt_13.png","image_id":29,"category_name":"Basalt","category":2,"distinct_rating":2.68,"distinct_type":"Bottom","rt":null,"stimulus":"Stimuli_Rocks480/I_Basalt_13.png","response":null,"trial_type":"image-keyboard-response","trial_index":22,"plugin_version":"2.1.0","time_elapsed":84939,"subject_id":"92328","group":"Group2","condition":"3_Rep","full_date":"2026-01-29T16:37:40.391Z","date":"2026-01-29","time":"16:37:40"},{"rt":null,"stimulus":"<p style=\"font-size: 50px; margin: 0; text-align: center;\">+</p>","response":null,"trial_type":"html-keyboard-response","trial_index":23,"plugin_version":"2.1.0","time_elapsed":85947,"subject_id":"92328","group":"Group2","condition":"3_Rep","full_date":"2026-01-29T16:37:40.391Z","date":"2026-01-29","time":"16:37:40"},{"task":"memory_phase","broad_category":"M","image_png":"M_Slate_10.png","image_id":314,"category_name":"Slate","category":20,"distinct_rating":1.94,"distinct_type":"Bottom","rt":null,"stimulus":"Stimuli_Rocks480/M_Slate_10.png","response":null,"trial_type":"image-keyboard-response","trial_index":24,"plugin_version":"2.1.0","time_elapsed":88460,"subject_id":"92328","group":"Group2","condition":"3_Rep","full_date":"2026-01-29T16:37:40.391Z","date":"2026-01-29","time":"16:37:40"},{"rt":null,"stimulus":"<p style=\"font-size: 50px; margin: 0; text-align: center;\">+</p>","response":null,"trial_type":"html-keyboard-response","trial_index":25,"plugin_version":"2.1.0","time_elapsed":89467,"subject_id":"92328","group":"Group2","condition":"3_Rep","full_date":"2026-01-29T16:37:40.391Z","date":"2026-01-29","time":"16:37:40"},{"task":"memory_phase","broad_category":"I","image_png":"I_Pegmatite_03.png","image_id":99,"category_name":"Pegmatite","category":7,"distinct_rating":7.24,"distinct_type":"Top","rt":null,"stimulus":"Stimuli_Rocks480/I_Pegmatite_03.png","response":null,"trial_type":"image-keyboard-response","trial_index":26,"plugin_version":"2.1.0","time_elapsed":91974,"subject_id":"92328","group":"Group2","condition":"3_Rep","full_date":"2026-01-29T16:37:40.391Z","date":"2026-01-29","time":"16:37:40"},{"rt":null,"stimulus":"<p style=\"font-size: 50px; margin: 0; text-align: center;\">+</p>","response":null,"trial_type":"html-keyboard-response","trial_index":27,"plugin_version":"2.1.0","time_elapsed":92981,"subject_id":"92328","group":"Group2","condition":"3_Rep","full_date":"2026-01-29T16:37:40.391Z","date":"2026-01-29","time":"16:37:40"},{"task":"memory_phase","broad_category":"M","image_png":"M_Marble_03.png","image_id":227,"category_name":"Marble","category":15,"distinct_rating":2.67,"distinct_type":"Bottom","rt":null,"stimulus":"Stimuli_Rocks480/M_Marble_03.png","response":null,"trial_type":"image-keyboard-response","trial_index":28,"plugin_version":"2.1.0","time_elapsed":95491,"subject_id":"92328","group":"Group2","condition":"3_Rep","full_date":"2026-01-29T16:37:40.391Z","date":"2026-01-29","time":"16:37:40"},{"rt":null,"stimulus":"<p style=\"font-size: 50px; margin: 0; text-align: center;\">+</p>","response":null,"trial_type":"html-keyboard-response","trial_index":29,"plugin_version":"2.1.0","time_elapsed":96499,"subject_id":"92328","group":"Group2","condition":"3_Rep","full_date":"2026-01-29T16:37:40.391Z","date":"2026-01-29","time":"16:37:40"},{"task":"memory_phase","broad_category":"M","image_png":"M_Marble_02.png","image_id":226,"category_name":"Marble","category":15,"distinct_rating":3.2,"distinct_type":"Bottom","rt":null,"stimulus":"Stimuli_Rocks480/M_Marble_02.png","response":null,"trial_type":"image-keyboard-response","trial_index":30,"plugin_version":"2.1.0","time_elapsed":99016,"subject_id":"92328","group":"Group2","condition":"3_Rep","full_date":"2026-01-29T16:37:40.391Z","date":"2026-01-29","time":"16:37:40"},{"rt":null,"stimulus":"<p style=\"font-size: 50px; margin: 0; text-align: center;\">+</p>","response":null,"trial_type":"html-keyboard-response","trial_index":31,"plugin_version":"2.1.0","time_elapsed":100023,"subject_id":"92328","group":"Group2","condition":"3_Rep","full_date":"2026-01-29T16:37:40.391Z","date":"2026-01-29","time":"16:37:40"},{"task":"memory_phase","broad_category":"S","image_png":"S_Sandstone_08.png","image_id":456,"category_name":"Sandstone","category":29,"distinct_rating":1.5,"distinct_type":"Bottom","rt":null,"stimulus":"Stimuli_Rocks480/S_Sandstone_08.png","response":null,"trial_type":"image-keyboard-response","trial_index":32,"plugin_version":"2.1.0","time_elapsed":102532,"subject_id":"92328","group":"Group2","condition":"3_Rep","full_date":"2026-01-29T16:37:40.391Z","date":"2026-01-29","time":"16:37:40"},{"rt":null,"stimulus":"<p style=\"font-size: 50px; margin: 0; text-align: center;\">+</p>","response":null,"trial_type":"html-keyboard-response","trial_index":33,"plugin_version":"2.1.0","time_elapsed":103547,"subject_id":"92328","group":"Group2","condition":"3_Rep","full_date":"2026-01-29T16:37:40.391Z","date":"2026-01-29","time":"16:37:40"},{"task":"memory_phase","broad_category":"S","image_png":"S_Conglomerate_14.png","image_id":382,"category_name":"Conglomerate","category":24,"distinct_rating":6.86,"distinct_type":"Top","rt":null,"stimulus":"Stimuli_Rocks480/S_Conglomerate_14.png","response":null,"trial_type":"image-keyboard-response","trial_index":34,"plugin_version":"2.1.0","time_elapsed":106060,"subject_id":"92328","group":"Group2","condition":"3_Rep","full_date":"2026-01-29T16:37:40.391Z","date":"2026-01-29","time":"16:37:40"},{"rt":null,"stimulus":"<p style=\"font-size: 50px; margin: 0; text-align: center;\">+</p>","response":null,"trial_type":"html-keyboard-response","trial_index":35,"plugin_version":"2.1.0","time_elapsed":107069,"subject_id":"92328","group":"Group2","condition":"3_Rep","full_date":"2026-01-29T16:37:40.391Z","date":"2026-01-29","time":"16:37:40"},{"task":"memory_phase","broad_category":"S","image_png":"S_Dolomite_07.png","image_id":391,"category_name":"Dolomite","category":25,"distinct_rating":1.73,"distinct_type":"Bottom","rt":null,"stimulus":"Stimuli_Rocks480/S_Dolomite_07.png","response":null,"trial_type":"image-keyboard-response","trial_index":36,"plugin_version":"2.1.0","time_elapsed":109580,"subject_id":"92328","group":"Group2","condition":"3_Rep","full_date":"2026-01-29T16:37:40.391Z","date":"2026-01-29","time":"16:37:40"},{"rt":null,"stimulus":"<p style=\"font-size: 50px; margin: 0; text-align: center;\">+</p>","response":null,"trial_type":"html-keyboard-response","trial_index":37,"plugin_version":"2.1.0","time_elapsed":110594,"subject_id":"92328","group":"Group2","condition":"3_Rep","full_date":"2026-01-29T16:37:40.391Z","date":"2026-01-29","time":"16:37:40"},{"task":"memory_phase","broad_category":"S","image_png":"S_Shale_02.png","image_id":466,"category_name":"Shale","category":30,"distinct_rating":2.9,"distinct_type":"Bottom","rt":null,"stimulus":"Stimuli_Rocks480/S_Shale_02.png","response":null,"trial_type":"image-keyboard-response","trial_index":38,"plugin_version":"2.1.0","time_elapsed":113102,"subject_id":"92328","group":"Group2","condition":"3_Rep","full_date":"2026-01-29T16:37:40.391Z","date":"2026-01-29","time":"16:37:40"},{"rt":null,"stimulus":"<p style=\"font-size: 50px; margin: 0; text-align: center;\">+</p>","response":null,"trial_type":"html-keyboard-response","trial_index":39,"plugin_version":"2.1.0","time_elapsed":114119,"subject_id":"92328","group":"Group2","condition":"3_Rep","full_date":"2026-01-29T16:37:40.391Z","date":"2026-01-29","time":"16:37:40"},{"task":"memory_phase","broad_category":"I","image_png":"I_Pegmatite_11.png","image_id":107,"category_name":"Pegmatite","category":7,"distinct_rating":7.11,"distinct_type":"Top","rt":null,"stimulus":"Stimuli_Rocks480/I_Pegmatite_11.png","response":null,"trial_type":"image-keyboard-response","trial_index":40,"plugin_version":"2.1.0","time_elapsed":116632,"subject_id":"92328","group":"Group2","condition":"3_Rep","full_date":"2026-01-29T16:37:40.391Z","date":"2026-01-29","time":"16:37:40"},{"rt":null,"stimulus":"<p style=\"font-size: 50px; margin: 0; text-align: center;\">+</p>","response":null,"trial_type":"html-keyboard-response","trial_index":41,"plugin_version":"2.1.0","time_elapsed":117641,"subject_id":"92328","group":"Group2","condition":"3_Rep","full_date":"2026-01-29T16:37:40.391Z","date":"2026-01-29","time":"16:37:40"},{"task":"memory_phase","broad_category":"I","image_png":"I_Gabbro_14.png","image_id":62,"category_name":"Gabbro","category":4,"distinct_rating":2.95,"distinct_type":"Bottom","rt":null,"stimulus":"Stimuli_Rocks480/I_Gabbro_14.png","response":null,"trial_type":"image-keyboard-response","trial_index":42,"plugin_version":"2.1.0","time_elapsed":120164,"subject_id":"92328","group":"Group2","condition":"3_Rep","full_date":"2026-01-29T16:37:40.391Z","date":"2026-01-29","time":"16:37:40"},{"rt":null,"stimulus":"<p style=\"font-size: 50px; margin: 0; text-align: center;\">+</p>","response":null,"trial_type":"html-keyboard-response","trial_index":43,"plugin_version":"2.1.0","time_elapsed":121168,"subject_id":"92328","group":"Group2","condition":"3_Rep","full_date":"2026-01-29T16:37:40.391Z","date":"2026-01-29","time":"16:37:40"},{"task":"memory_phase","broad_category":"M","image_png":"M_Slate_14.png","image_id":318,"category_name":"Slate","category":20,"distinct_rating":2.58,"distinct_type":"Bottom","rt":null,"stimulus":"Stimuli_Rocks480/M_Slate_14.png","response":null,"trial_type":"image-keyboard-response","trial_index":44,"plugin_version":"2.1.0","time_elapsed":123678,"subject_id":"92328","group":"Group2","condition":"3_Rep","full_date":"2026-01-29T16:37:40.391Z","date":"2026-01-29","time":"16:37:40"},{"rt":null,"stimulus":"<p style=\"font-size: 50px; margin: 0; text-align: center;\">+</p>","response":null,"trial_type":"html-keyboard-response","trial_index":45,"plugin_version":"2.1.0","time_elapsed":124686,"subject_id":"92328","group":"Group2","condition":"3_Rep","full_date":"2026-01-29T16:37:40.391Z","date":"2026-01-29","time":"16:37:40"},{"task":"memory_phase","broad_category":"I","image_png":"I_Pumice_14.png","image_id":142,"category_name":"Pumice","category":9,"distinct_rating":3.22,"distinct_type":"Bottom","rt":null,"stimulus":"Stimuli_Rocks480/I_Pumice_14.png","response":null,"trial_type":"image-keyboard-response","trial_index":46,"plugin_version":"2.1.0","time_elapsed":127193,"subject_id":"92328","group":"Group2","condition":"3_Rep","full_date":"2026-01-29T16:37:40.391Z","date":"2026-01-29","time":"16:37:40"},{"rt":null,"stimulus":"<p style=\"font-size: 50px; margin: 0; text-align: center;\">+</p>","response":null,"trial_type":"html-keyboard-response","trial_index":47,"plugin_version":"2.1.0","time_elapsed":128202,"subject_id":"92328","group":"Group2","condition":"3_Rep","full_date":"2026-01-29T16:37:40.391Z","date":"2026-01-29","time":"16:37:40"},{"task":"memory_phase","broad_category":"S","image_png":"S_Chert_13.png","image_id":365,"category_name":"Chert","category":23,"distinct_rating":6.57,"distinct_type":"Top","rt":null,"stimulus":"Stimuli_Rocks480/S_Chert_13.png","response":null,"trial_type":"image-keyboard-response","trial_index":48,"plugin_version":"2.1.0","time_elapsed":130715,"subject_id":"92328","group":"Group2","condition":"3_Rep","full_date":"2026-01-29T16:37:40.391Z","date":"2026-01-29","time":"16:37:40"},{"rt":null,"stimulus":"<p style=\"font-size: 50px; margin: 0; text-align: center;\">+</p>","response":null,"trial_type":"html-keyboard-response","trial_index":49,"plugin_version":"2.1.0","time_elapsed":131721,"subject_id":"92328","group":"Group2","condition":"3_Rep","full_date":"2026-01-29T16:37:40.391Z","date":"2026-01-29","time":"16:37:40"},{"task":"memory_phase","broad_category":"I","image_png":"I_Rhyolite_08.png","image_id":152,"category_name":"Rhyolite","category":10,"distinct_rating":1.38,"distinct_type":"Bottom","rt":null,"stimulus":"Stimuli_Rocks480/I_Rhyolite_08.png","response":null,"trial_type":"image-keyboard-response","trial_index":50,"plugin_version":"2.1.0","time_elapsed":134241,"subject_id":"92328","group":"Group2","condition":"3_Rep","full_date":"2026-01-29T16:37:40.391Z","date":"2026-01-29","time":"16:37:40"},{"rt":null,"stimulus":"<p style=\"font-size: 50px; margin: 0; text-align: center;\">+</p>","response":null,"trial_type":"html-keyboard-response","trial_index":51,"plugin_version":"2.1.0","time_elapsed":135256,"subject_id":"92328","group":"Group2","condition":"3_Rep","full_date":"2026-01-29T16:37:40.391Z","date":"2026-01-29","time":"16:37:40"},{"task":"memory_phase","broad_category":"S","image_png":"S_Sandstone_11.png","image_id":459,"category_name":"Sandstone","category":29,"distinct_rating":1.82,"distinct_type":"Bottom","rt":null,"stimulus":"Stimuli_Rocks480/S_Sandstone_11.png","response":null,"trial_type":"image-keyboard-response","trial_index":52,"plugin_version":"2.1.0","time_elapsed":137765,"subject_id":"92328","group":"Group2","condition":"3_Rep","full_date":"2026-01-29T16:37:40.391Z","date":"2026-01-29","time":"16:37:40"},{"rt":null,"stimulus":"<p style=\"font-size: 50px; margin: 0; text-align: center;\">+</p>","response":null,"trial_type":"html-keyboard-response","trial_index":53,"plugin_version":"2.1.0","time_elapsed":138776,"subject_id":"92328","group":"Group2","condition":"3_Rep","full_date":"2026-01-29T16:37:40.391Z","date":"2026-01-29","time":"16:37:40"},{"task":"memory_phase","broad_category":"S","image_png":"S_Sandstone_04.png","image_id":452,"category_name":"Sandstone","category":29,"distinct_rating":1.8,"distinct_type":"Bottom","rt":null,"stimulus":"Stimuli_Rocks480/S_Sandstone_04.png","response":null,"trial_type":"image-keyboard-response","trial_index":54,"plugin_version":"2.1.0","time_elapsed":141285,"subject_id":"92328","group":"Group2","condition":"3_Rep","full_date":"2026-01-29T16:37:40.391Z","date":"2026-01-29","time":"16:37:40"},{"rt":2619,"stimulus":"<p style=\"max-width: 760px; margin: auto; font-size: 35px; line-height: 1.5;\">\n                Press SPACE to continue study phase\n              </p>","response":" ","trial_type":"html-keyboard-response","trial_index":55,"plugin_version":"2.1.0","time_elapsed":143909,"subject_id":"92328","group":"Group2","condition":"3_Rep","full_date":"2026-01-29T16:37:40.391Z","date":"2026-01-29","time":"16:37:40"},{"rt":null,"stimulus":"<p style=\"font-size: 50px; margin: 0; text-align: center;\">+</p>","response":null,"trial_type":"html-keyboard-response","trial_index":56,"plugin_version":"2.1.0","time_elapsed":144926,"subject_id":"92328","group":"Group2","condition":"3_Rep","full_date":"2026-01-29T16:37:40.391Z","date":"2026-01-29","time":"16:37:40"},{"task":"memory_phase","broad_category":"M","image_png":"M_Gneiss_10.png","image_id":202,"category_name":"Gneiss","category":13,"distinct_rating":3.09,"distinct_type":"Bottom","rt":null,"stimulus":"Stimuli_Rocks480/M_Gneiss_10.png","response":null,"trial_type":"image-keyboard-response","trial_index":57,"plugin_version":"2.1.0","time_elapsed":147444,"subject_id":"92328","group":"Group2","condition":"3_Rep","full_date":"2026-01-29T16:37:40.391Z","date":"2026-01-29","time":"16:37:40"},{"rt":null,"stimulus":"<p style=\"font-size: 50px; margin: 0; text-align: center;\">+</p>","response":null,"trial_type":"html-keyboard-response","trial_index":58,"plugin_version":"2.1.0","time_elapsed":148453,"subject_id":"92328","group":"Group2","condition":"3_Rep","full_date":"2026-01-29T16:37:40.391Z","date":"2026-01-29","time":"16:37:40"},{"task":"memory_phase","broad_category":"I","image_png":"I_Andesite_09.png","image_id":9,"category_name":"Andesite","category":1,"distinct_rating":2.49,"distinct_type":"Bottom","rt":null,"stimulus":"Stimuli_Rocks480/I_Andesite_09.png","response":null,"trial_type":"image-keyboard-response","trial_index":59,"plugin_version":"2.1.0","time_elapsed":150969,"subject_id":"92328","group":"Group2","condition":"3_Rep","full_date":"2026-01-29T16:37:40.391Z","date":"2026-01-29","time":"16:37:40"},{"rt":null,"stimulus":"<p style=\"font-size: 50px; margin: 0; text-align: center;\">+</p>","response":null,"trial_type":"html-keyboard-response","trial_index":60,"plugin_version":"2.1.0","time_elapsed":151976,"subject_id":"92328","group":"Group2","condition":"3_Rep","full_date":"2026-01-29T16:37:40.391Z","date":"2026-01-29","time":"16:37:40"},{"task":"memory_phase","broad_category":"I","image_png":"I_Pumice_13.png","image_id":141,"category_name":"Pumice","category":9,"distinct_rating":3.12,"distinct_type":"Bottom","rt":null,"stimulus":"Stimuli_Rocks480/I_Pumice_13.png","response":null,"trial_type":"image-keyboard-response","trial_index":61,"plugin_version":"2.1.0","time_elapsed":154487,"subject_id":"92328","group":"Group2","condition":"3_Rep","full_date":"2026-01-29T16:37:40.391Z","date":"2026-01-29","time":"16:37:40"},{"rt":null,"stimulus":"<p style=\"font-size: 50px; margin: 0; text-align: center;\">+</p>","response":null,"trial_type":"html-keyboard-response","trial_index":62,"plugin_version":"2.1.0","time_elapsed":155497,"subject_id":"92328","group":"Group2","condition":"3_Rep","full_date":"2026-01-29T16:37:40.391Z","date":"2026-01-29","time":"16:37:40"},{"task":"memory_phase","broad_category":"I","image_png":"I_Obsidian_06.png","image_id":86,"category_name":"Obsidian","category":6,"distinct_rating":8.01,"distinct_type":"Top","rt":null,"stimulus":"Stimuli_Rocks480/I_Obsidian_06.png","response":null,"trial_type":"image-keyboard-response","trial_index":63,"plugin_version":"2.1.0","time_elapsed":158013,"subject_id":"92328","group":"Group2","condition":"3_Rep","full_date":"2026-01-29T16:37:40.391Z","date":"2026-01-29","time":"16:37:40"},{"rt":null,"stimulus":"<p style=\"font-size: 50px; margin: 0; text-align: center;\">+</p>","response":null,"trial_type":"html-keyboard-response","trial_index":64,"plugin_version":"2.1.0","time_elapsed":159022,"subject_id":"92328","group":"Group2","condition":"3_Rep","full_date":"2026-01-29T16:37:40.391Z","date":"2026-01-29","time":"16:37:40"},{"task":"memory_phase","broad_category":"S","image_png":"S_Shale_03.png","image_id":467,"category_name":"Shale","category":30,"distinct_rating":1.95,"distinct_type":"Bottom","rt":null,"stimulus":"Stimuli_Rocks480/S_Shale_03.png","response":null,"trial_type":"image-keyboard-response","trial_index":65,"plugin_version":"2.1.0","time_elapsed":161530,"subject_id":"92328","group":"Group2","condition":"3_Rep","full_date":"2026-01-29T16:37:40.391Z","date":"2026-01-29","time":"16:37:40"},{"rt":null,"stimulus":"<p style=\"font-size: 50px; margin: 0; text-align: center;\">+</p>","response":null,"trial_type":"html-keyboard-response","trial_index":66,"plugin_version":"2.1.0","time_elapsed":162548,"subject_id":"92328","group":"Group2","condition":"3_Rep","full_date":"2026-01-29T16:37:40.391Z","date":"2026-01-29","time":"16:37:40"},{"task":"memory_phase","broad_category":"I","image_png":"I_Rhyolite_05.png","image_id":149,"category_name":"Rhyolite","category":10,"distinct_rating":3.02,"distinct_type":"Bottom","rt":null,"stimulus":"Stimuli_Rocks480/I_Rhyolite_05.png","response":null,"trial_type":"image-keyboard-response","trial_index":67,"plugin_version":"2.1.0","time_elapsed":165061,"subject_id":"92328","group":"Group2","condition":"3_Rep","full_date":"2026-01-29T16:37:40.391Z","date":"2026-01-29","time":"16:37:40"},{"rt":null,"stimulus":"<p style=\"font-size: 50px; margin: 0; text-align: center;\">+</p>","response":null,"trial_type":"html-keyboard-response","trial_index":68,"plugin_version":"2.1.0","time_elapsed":166069,"subject_id":"92328","group":"Group2","condition":"3_Rep","full_date":"2026-01-29T16:37:40.391Z","date":"2026-01-29","time":"16:37:40"},{"task":"memory_phase","broad_category":"M","image_png":"M_Quartzite_12.png","image_id":284,"category_name":"Quartzite","category":18,"distinct_rating":1.92,"distinct_type":"Bottom","rt":null,"stimulus":"Stimuli_Rocks480/M_Quartzite_12.png","response":null,"trial_type":"image-keyboard-response","trial_index":69,"plugin_version":"2.1.0","time_elapsed":168589,"subject_id":"92328","group":"Group2","condition":"3_Rep","full_date":"2026-01-29T16:37:40.391Z","date":"2026-01-29","time":"16:37:40"},{"rt":null,"stimulus":"<p style=\"font-size: 50px; margin: 0; text-align: center;\">+</p>","response":null,"trial_type":"html-keyboard-response","trial_index":70,"plugin_version":"2.1.0","time_elapsed":169600,"subject_id":"92328","group":"Group2","condition":"3_Rep","full_date":"2026-01-29T16:37:40.391Z","date":"2026-01-29","time":"16:37:40"},{"task":"memory_phase","broad_category":"S","image_png":"S_Dolomite_01.png","image_id":385,"category_name":"Dolomite","category":25,"distinct_rating":1.43,"distinct_type":"Bottom","rt":null,"stimulus":"Stimuli_Rocks480/S_Dolomite_01.png","response":null,"trial_type":"image-keyboard-response","trial_index":71,"plugin_version":"2.1.0","time_elapsed":172114,"subject_id":"92328","group":"Group2","condition":"3_Rep","full_date":"2026-01-29T16:37:40.391Z","date":"2026-01-29","time":"16:37:40"},{"rt":null,"stimulus":"<p style=\"font-size: 50px; margin: 0; text-align: center;\">+</p>","response":null,"trial_type":"html-keyboard-response","trial_index":72,"plugin_version":"2.1.0","time_elapsed":173121,"subject_id":"92328","group":"Group2","condition":"3_Rep","full_date":"2026-01-29T16:37:40.391Z","date":"2026-01-29","time":"16:37:40"},{"task":"memory_phase","broad_category":"I","image_png":"I_Gabbro_12.png","image_id":60,"category_name":"Gabbro","category":4,"distinct_rating":2.6,"distinct_type":"Bottom","rt":null,"stimulus":"Stimuli_Rocks480/I_Gabbro_12.png","response":null,"trial_type":"image-keyboard-response","trial_index":73,"plugin_version":"2.1.0","time_elapsed":175628,"subject_id":"92328","group":"Group2","condition":"3_Rep","full_date":"2026-01-29T16:37:40.391Z","date":"2026-01-29","time":"16:37:40"},{"rt":null,"stimulus":"<p style=\"font-size: 50px; margin: 0; text-align: center;\">+</p>","response":null,"trial_type":"html-keyboard-response","trial_index":74,"plugin_version":"2.1.0","time_elapsed":176643,"subject_id":"92328","group":"Group2","condition":"3_Rep","full_date":"2026-01-29T16:37:40.391Z","date":"2026-01-29","time":"16:37:40"},{"task":"memory_phase","broad_category":"I","image_png":"I_Gabbro_02.png","image_id":50,"category_name":"Gabbro","category":4,"distinct_rating":2.73,"distinct_type":"Bottom","rt":null,"stimulus":"Stimuli_Rocks480/I_Gabbro_02.png","response":null,"trial_type":"image-keyboard-response","trial_index":75,"plugin_version":"2.1.0","time_elapsed":179164,"subject_id":"92328","group":"Group2","condition":"3_Rep","full_date":"2026-01-29T16:37:40.391Z","date":"2026-01-29","time":"16:37:40"},{"rt":null,"stimulus":"<p style=\"font-size: 50px; margin: 0; text-align: center;\">+</p>","response":null,"trial_type":"html-keyboard-response","trial_index":76,"plugin_version":"2.1.0","time_elapsed":180181,"subject_id":"92328","group":"Group2","condition":"3_Rep","full_date":"2026-01-29T16:37:40.391Z","date":"2026-01-29","time":"16:37:40"},{"task":"memory_phase","broad_category":"M","image_png":"M_Phyllite_02.png","image_id":258,"category_name":"Phyllite","category":17,"distinct_rating":2.89,"distinct_type":"Bottom","rt":null,"stimulus":"Stimuli_Rocks480/M_Phyllite_02.png","response":null,"trial_type":"image-keyboard-response","trial_index":77,"plugin_version":"2.1.0","time_elapsed":182688,"subject_id":"92328","group":"Group2","condition":"3_Rep","full_date":"2026-01-29T16:37:40.391Z","date":"2026-01-29","time":"16:37:40"},{"rt":null,"stimulus":"<p style=\"font-size: 50px; margin: 0; text-align: center;\">+</p>","response":null,"trial_type":"html-keyboard-response","trial_index":78,"plugin_version":"2.1.0","time_elapsed":183692,"subject_id":"92328","group":"Group2","condition":"3_Rep","full_date":"2026-01-29T16:37:40.391Z","date":"2026-01-29","time":"16:37:40"},{"task":"memory_phase","broad_category":"M","image_png":"M_Quartzite_15.png","image_id":287,"category_name":"Quartzite","category":18,"distinct_rating":2.19,"distinct_type":"Bottom","rt":null,"stimulus":"Stimuli_Rocks480/M_Quartzite_15.png","response":null,"trial_type":"image-keyboard-response","trial_index":79,"plugin_version":"2.1.0","time_elapsed":186199,"subject_id":"92328","group":"Group2","condition":"3_Rep","full_date":"2026-01-29T16:37:40.391Z","date":"2026-01-29","time":"16:37:40"},{"rt":null,"stimulus":"<p style=\"font-size: 50px; margin: 0; text-align: center;\">+</p>","response":null,"trial_type":"html-keyboard-response","trial_index":80,"plugin_version":"2.1.0","time_elapsed":187207,"subject_id":"92328","group":"Group2","condition":"3_Rep","full_date":"2026-01-29T16:37:40.391Z","date":"2026-01-29","time":"16:37:40"},{"task":"memory_phase","broad_category":"M","image_png":"M_Marble_14.png","image_id":238,"category_name":"Marble","category":15,"distinct_rating":3.31,"distinct_type":"Bottom","rt":null,"stimulus":"Stimuli_Rocks480/M_Marble_14.png","response":null,"trial_type":"image-keyboard-response","trial_index":81,"plugin_version":"2.1.0","time_elapsed":189713,"subject_id":"92328","group":"Group2","condition":"3_Rep","full_date":"2026-01-29T16:37:40.391Z","date":"2026-01-29","time":"16:37:40"},{"rt":null,"stimulus":"<p style=\"font-size: 50px; margin: 0; text-align: center;\">+</p>","response":null,"trial_type":"html-keyboard-response","trial_index":82,"plugin_version":"2.1.0","time_elapsed":190715,"subject_id":"92328","group":"Group2","condition":"3_Rep","full_date":"2026-01-29T16:37:40.391Z","date":"2026-01-29","time":"16:37:40"},{"task":"memory_phase","broad_category":"M","image_png":"M_Slate_04.png","image_id":308,"category_name":"Slate","category":20,"distinct_rating":2.2,"distinct_type":"Bottom","rt":null,"stimulus":"Stimuli_Rocks480/M_Slate_04.png","response":null,"trial_type":"image-keyboard-response","trial_index":83,"plugin_version":"2.1.0","time_elapsed":193220,"subject_id":"92328","group":"Group2","condition":"3_Rep","full_date":"2026-01-29T16:37:40.391Z","date":"2026-01-29","time":"16:37:40"},{"rt":null,"stimulus":"<p style=\"font-size: 50px; margin: 0; text-align: center;\">+</p>","response":null,"trial_type":"html-keyboard-response","trial_index":84,"plugin_version":"2.1.0","time_elapsed":194229,"subject_id":"92328","group":"Group2","condition":"3_Rep","full_date":"2026-01-29T16:37:40.391Z","date":"2026-01-29","time":"16:37:40"},{"task":"memory_phase","broad_category":"I","image_png":"I_Basalt_08.png","image_id":24,"category_name":"Basalt","category":2,"distinct_rating":2.31,"distinct_type":"Bottom","rt":null,"stimulus":"Stimuli_Rocks480/I_Basalt_08.png","response":null,"trial_type":"image-keyboard-response","trial_index":85,"plugin_version":"2.1.0","time_elapsed":196743,"subject_id":"92328","group":"Group2","condition":"3_Rep","full_date":"2026-01-29T16:37:40.391Z","date":"2026-01-29","time":"16:37:40"},{"rt":null,"stimulus":"<p style=\"font-size: 50px; margin: 0; text-align: center;\">+</p>","response":null,"trial_type":"html-keyboard-response","trial_index":86,"plugin_version":"2.1.0","time_elapsed":197755,"subject_id":"92328","group":"Group2","condition":"3_Rep","full_date":"2026-01-29T16:37:40.391Z","date":"2026-01-29","time":"16:37:40"},{"task":"memory_phase","broad_category":"M","image_png":"M_Quartzite_07.png","image_id":279,"category_name":"Quartzite","category":18,"distinct_rating":1.97,"distinct_type":"Bottom","rt":null,"stimulus":"Stimuli_Rocks480/M_Quartzite_07.png","response":null,"trial_type":"image-keyboard-response","trial_index":87,"plugin_version":"2.1.0","time_elapsed":200264,"subject_id":"92328","group":"Group2","condition":"3_Rep","full_date":"2026-01-29T16:37:40.391Z","date":"2026-01-29","time":"16:37:40"},{"rt":null,"stimulus":"<p style=\"font-size: 50px; margin: 0; text-align: center;\">+</p>","response":null,"trial_type":"html-keyboard-response","trial_index":88,"plugin_version":"2.1.0","time_elapsed":201281,"subject_id":"92328","group":"Group2","condition":"3_Rep","full_date":"2026-01-29T16:37:40.391Z","date":"2026-01-29","time":"16:37:40"},{"task":"memory_phase","broad_category":"I","image_png":"I_Diorite_15.png","image_id":47,"category_name":"Diorite","category":3,"distinct_rating":3.05,"distinct_type":"Bottom","rt":null,"stimulus":"Stimuli_Rocks480/I_Diorite_15.png","response":null,"trial_type":"image-keyboard-response","trial_index":89,"plugin_version":"2.1.0","time_elapsed":203785,"subject_id":"92328","group":"Group2","condition":"3_Rep","full_date":"2026-01-29T16:37:40.391Z","date":"2026-01-29","time":"16:37:40"},{"rt":null,"stimulus":"<p style=\"font-size: 50px; margin: 0; text-align: center;\">+</p>","response":null,"trial_type":"html-keyboard-response","trial_index":90,"plugin_version":"2.1.0","time_elapsed":204798,"subject_id":"92328","group":"Group2","condition":"3_Rep","full_date":"2026-01-29T16:37:40.391Z","date":"2026-01-29","time":"16:37:40"},{"task":"memory_phase","broad_category":"S","image_png":"S_Rock Salt_15.png","image_id":447,"category_name":"Rock Salt","category":28,"distinct_rating":7.79,"distinct_type":"Top","rt":null,"stimulus":"Stimuli_Rocks480/S_Rock Salt_15.png","response":null,"trial_type":"image-keyboard-response","trial_index":91,"plugin_version":"2.1.0","time_elapsed":207316,"subject_id":"92328","group":"Group2","condition":"3_Rep","full_date":"2026-01-29T16:37:40.391Z","date":"2026-01-29","time":"16:37:40"},{"rt":null,"stimulus":"<p style=\"font-size: 50px; margin: 0; text-align: center;\">+</p>","response":null,"trial_type":"html-keyboard-response","trial_index":92,"plugin_version":"2.1.0","time_elapsed":208326,"subject_id":"92328","group":"Group2","condition":"3_Rep","full_date":"2026-01-29T16:37:40.391Z","date":"2026-01-29","time":"16:37:40"},{"task":"memory_phase","broad_category":"I","image_png":"I_Basalt_10.png","image_id":26,"category_name":"Basalt","category":2,"distinct_rating":2.76,"distinct_type":"Bottom","rt":null,"stimulus":"Stimuli_Rocks480/I_Basalt_10.png","response":null,"trial_type":"image-keyboard-response","trial_index":93,"plugin_version":"2.1.0","time_elapsed":210836,"subject_id":"92328","group":"Group2","condition":"3_Rep","full_date":"2026-01-29T16:37:40.391Z","date":"2026-01-29","time":"16:37:40"},{"rt":null,"stimulus":"<p style=\"font-size: 50px; margin: 0; text-align: center;\">+</p>","response":null,"trial_type":"html-keyboard-response","trial_index":94,"plugin_version":"2.1.0","time_elapsed":211844,"subject_id":"92328","group":"Group2","condition":"3_Rep","full_date":"2026-01-29T16:37:40.391Z","date":"2026-01-29","time":"16:37:40"},{"task":"memory_phase","broad_category":"M","image_png":"M_Phyllite_05.png","image_id":261,"category_name":"Phyllite","category":17,"distinct_rating":2.14,"distinct_type":"Bottom","rt":null,"stimulus":"Stimuli_Rocks480/M_Phyllite_05.png","response":null,"trial_type":"image-keyboard-response","trial_index":95,"plugin_version":"2.1.0","time_elapsed":214351,"subject_id":"92328","group":"Group2","condition":"3_Rep","full_date":"2026-01-29T16:37:40.391Z","date":"2026-01-29","time":"16:37:40"},{"rt":null,"stimulus":"<p style=\"font-size: 50px; margin: 0; text-align: center;\">+</p>","response":null,"trial_type":"html-keyboard-response","trial_index":96,"plugin_version":"2.1.0","time_elapsed":215360,"subject_id":"92328","group":"Group2","condition":"3_Rep","full_date":"2026-01-29T16:37:40.391Z","date":"2026-01-29","time":"16:37:40"},{"task":"memory_phase","broad_category":"I","image_png":"I_Andesite_04.png","image_id":4,"category_name":"Andesite","category":1,"distinct_rating":3.18,"distinct_type":"Bottom","rt":null,"stimulus":"Stimuli_Rocks480/I_Andesite_04.png","response":null,"trial_type":"image-keyboard-response","trial_index":97,"plugin_version":"2.1.0","time_elapsed":217869,"subject_id":"92328","group":"Group2","condition":"3_Rep","full_date":"2026-01-29T16:37:40.391Z","date":"2026-01-29","time":"16:37:40"},{"rt":null,"stimulus":"<p style=\"font-size: 50px; margin: 0; text-align: center;\">+</p>","response":null,"trial_type":"html-keyboard-response","trial_index":98,"plugin_version":"2.1.0","time_elapsed":218880,"subject_id":"92328","group":"Group2","condition":"3_Rep","full_date":"2026-01-29T16:37:40.391Z","date":"2026-01-29","time":"16:37:40"},{"task":"memory_phase","broad_category":"M","image_png":"M_Gneiss_14.png","image_id":206,"category_name":"Gneiss","category":13,"distinct_rating":3.41,"distinct_type":"Bottom","rt":null,"stimulus":"Stimuli_Rocks480/M_Gneiss_14.png","response":null,"trial_type":"image-keyboard-response","trial_index":99,"plugin_version":"2.1.0","time_elapsed":221387,"subject_id":"92328","group":"Group2","condition":"3_Rep","full_date":"2026-01-29T16:37:40.391Z","date":"2026-01-29","time":"16:37:40"},{"rt":null,"stimulus":"<p style=\"font-size: 50px; margin: 0; text-align: center;\">+</p>","response":null,"trial_type":"html-keyboard-response","trial_index":100,"plugin_version":"2.1.0","time_elapsed":222395,"subject_id":"92328","group":"Group2","condition":"3_Rep","full_date":"2026-01-29T16:37:40.391Z","date":"2026-01-29","time":"16:37:40"},{"task":"memory_phase","broad_category":"I","image_png":"I_Peridotite_13.png","image_id":125,"category_name":"Peridotite","category":8,"distinct_rating":7.28,"distinct_type":"Top","rt":null,"stimulus":"Stimuli_Rocks480/I_Peridotite_13.png","response":null,"trial_type":"image-keyboard-response","trial_index":101,"plugin_version":"2.1.0","time_elapsed":224902,"subject_id":"92328","group":"Group2","condition":"3_Rep","full_date":"2026-01-29T16:37:40.391Z","date":"2026-01-29","time":"16:37:40"},{"rt":null,"stimulus":"<p style=\"font-size: 50px; margin: 0; text-align: center;\">+</p>","response":null,"trial_type":"html-keyboard-response","trial_index":102,"plugin_version":"2.1.0","time_elapsed":225911,"subject_id":"92328","group":"Group2","condition":"3_Rep","full_date":"2026-01-29T16:37:40.391Z","date":"2026-01-29","time":"16:37:40"},{"task":"memory_phase","broad_category":"I","image_png":"I_Pumice_01.png","image_id":129,"category_name":"Pumice","category":9,"distinct_rating":3.25,"distinct_type":"Bottom","rt":null,"stimulus":"Stimuli_Rocks480/I_Pumice_01.png","response":null,"trial_type":"image-keyboard-response","trial_index":103,"plugin_version":"2.1.0","time_elapsed":228427,"subject_id":"92328","group":"Group2","condition":"3_Rep","full_date":"2026-01-29T16:37:40.391Z","date":"2026-01-29","time":"16:37:40"},{"rt":null,"stimulus":"<p style=\"font-size: 50px; margin: 0; text-align: center;\">+</p>","response":null,"trial_type":"html-keyboard-response","trial_index":104,"plugin_version":"2.1.0","time_elapsed":229430,"subject_id":"92328","group":"Group2","condition":"3_Rep","full_date":"2026-01-29T16:37:40.391Z","date":"2026-01-29","time":"16:37:40"},{"task":"memory_phase","broad_category":"S","image_png":"S_Dolomite_16.png","image_id":400,"category_name":"Dolomite","category":25,"distinct_rating":1.71,"distinct_type":"Bottom","rt":null,"stimulus":"Stimuli_Rocks480/S_Dolomite_16.png","response":null,"trial_type":"image-keyboard-response","trial_index":105,"plugin_version":"2.1.0","time_elapsed":231941,"subject_id":"92328","group":"Group2","condition":"3_Rep","full_date":"2026-01-29T16:37:40.391Z","date":"2026-01-29","time":"16:37:40"},{"rt":5574,"stimulus":"<p style=\"max-width: 760px; margin: auto; font-size: 35px; line-height: 1.5;\">\n                You have completed 1 study phase. \n                Now, we'll show you all the images again 2 more times.\n                <br><br>Press SPACE to continue\n              </p>","response":" ","trial_type":"html-keyboard-response","trial_index":106,"plugin_version":"2.1.0","time_elapsed":237518,"subject_id":"92328","group":"Group2","condition":"3_Rep","full_date":"2026-01-29T16:37:40.391Z","date":"2026-01-29","time":"16:37:40"},{"rt":null,"stimulus":"<p style=\"font-size: 50px; margin: 0; text-align: center;\">+</p>","response":null,"trial_type":"html-keyboard-response","trial_index":107,"plugin_version":"2.1.0","time_elapsed":238522,"subject_id":"92328","group":"Group2","condition":"3_Rep","full_date":"2026-01-29T16:37:40.391Z","date":"2026-01-29","time":"16:37:40"},{"task":"memory_phase","broad_category":"S","image_png":"S_Conglomerate_14.png","image_id":382,"category_name":"Conglomerate","category":24,"distinct_rating":6.86,"distinct_type":"Top","rt":null,"stimulus":"Stimuli_Rocks480/S_Conglomerate_14.png","response":null,"trial_type":"image-keyboard-response","trial_index":108,"plugin_version":"2.1.0","time_elapsed":241029,"subject_id":"92328","group":"Group2","condition":"3_Rep","full_date":"2026-01-29T16:37:40.391Z","date":"2026-01-29","time":"16:37:40"},{"rt":null,"stimulus":"<p style=\"font-size: 50px; margin: 0; text-align: center;\">+</p>","response":null,"trial_type":"html-keyboard-response","trial_index":109,"plugin_version":"2.1.0","time_elapsed":242041,"subject_id":"92328","group":"Group2","condition":"3_Rep","full_date":"2026-01-29T16:37:40.391Z","date":"2026-01-29","time":"16:37:40"},{"task":"memory_phase","broad_category":"M","image_png":"M_Quartzite_15.png","image_id":287,"category_name":"Quartzite","category":18,"distinct_rating":2.19,"distinct_type":"Bottom","rt":null,"stimulus":"Stimuli_Rocks480/M_Quartzite_15.png","response":null,"trial_type":"image-keyboard-response","trial_index":110,"plugin_version":"2.1.0","time_elapsed":244551,"subject_id":"92328","group":"Group2","condition":"3_Rep","full_date":"2026-01-29T16:37:40.391Z","date":"2026-01-29","time":"16:37:40"},{"rt":null,"stimulus":"<p style=\"font-size: 50px; margin: 0; text-align: center;\">+</p>","response":null,"trial_type":"html-keyboard-response","trial_index":111,"plugin_version":"2.1.0","time_elapsed":245561,"subject_id":"92328","group":"Group2","condition":"3_Rep","full_date":"2026-01-29T16:37:40.391Z","date":"2026-01-29","time":"16:37:40"},{"task":"memory_phase","broad_category":"S","image_png":"S_Sandstone_04.png","image_id":452,"category_name":"Sandstone","category":29,"distinct_rating":1.8,"distinct_type":"Bottom","rt":null,"stimulus":"Stimuli_Rocks480/S_Sandstone_04.png","response":null,"trial_type":"image-keyboard-response","trial_index":112,"plugin_version":"2.1.0","time_elapsed":248074,"subject_id":"92328","group":"Group2","condition":"3_Rep","full_date":"2026-01-29T16:37:40.391Z","date":"2026-01-29","time":"16:37:40"},{"rt":null,"stimulus":"<p style=\"font-size: 50px; margin: 0; text-align: center;\">+</p>","response":null,"trial_type":"html-keyboard-response","trial_index":113,"plugin_version":"2.1.0","time_elapsed":249087,"subject_id":"92328","group":"Group2","condition":"3_Rep","full_date":"2026-01-29T16:37:40.391Z","date":"2026-01-29","time":"16:37:40"},{"task":"memory_phase","broad_category":"I","image_png":"I_Pumice_01.png","image_id":129,"category_name":"Pumice","category":9,"distinct_rating":3.25,"distinct_type":"Bottom","rt":null,"stimulus":"Stimuli_Rocks480/I_Pumice_01.png","response":null,"trial_type":"image-keyboard-response","trial_index":114,"plugin_version":"2.1.0","time_elapsed":251593,"subject_id":"92328","group":"Group2","condition":"3_Rep","full_date":"2026-01-29T16:37:40.391Z","date":"2026-01-29","time":"16:37:40"},{"rt":null,"stimulus":"<p style=\"font-size: 50px; margin: 0; text-align: center;\">+</p>","response":null,"trial_type":"html-keyboard-response","trial_index":115,"plugin_version":"2.1.0","time_elapsed":252612,"subject_id":"92328","group":"Group2","condition":"3_Rep","full_date":"2026-01-29T16:37:40.391Z","date":"2026-01-29","time":"16:37:40"},{"task":"memory_phase","broad_category":"M","image_png":"M_Phyllite_05.png","image_id":261,"category_name":"Phyllite","category":17,"distinct_rating":2.14,"distinct_type":"Bottom","rt":null,"stimulus":"Stimuli_Rocks480/M_Phyllite_05.png","response":null,"trial_type":"image-keyboard-response","trial_index":116,"plugin_version":"2.1.0","time_elapsed":255130,"subject_id":"92328","group":"Group2","condition":"3_Rep","full_date":"2026-01-29T16:37:40.391Z","date":"2026-01-29","time":"16:37:40"},{"rt":null,"stimulus":"<p style=\"font-size: 50px; margin: 0; text-align: center;\">+</p>","response":null,"trial_type":"html-keyboard-response","trial_index":117,"plugin_version":"2.1.0","time_elapsed":256134,"subject_id":"92328","group":"Group2","condition":"3_Rep","full_date":"2026-01-29T16:37:40.391Z","date":"2026-01-29","time":"16:37:40"},{"task":"memory_phase","broad_category":"I","image_png":"I_Gabbro_12.png","image_id":60,"category_name":"Gabbro","category":4,"distinct_rating":2.6,"distinct_type":"Bottom","rt":null,"stimulus":"Stimuli_Rocks480/I_Gabbro_12.png","response":null,"trial_type":"image-keyboard-response","trial_index":118,"plugin_version":"2.1.0","time_elapsed":258640,"subject_id":"92328","group":"Group2","condition":"3_Rep","full_date":"2026-01-29T16:37:40.391Z","date":"2026-01-29","time":"16:37:40"},{"rt":null,"stimulus":"<p style=\"font-size: 50px; margin: 0; text-align: center;\">+</p>","response":null,"trial_type":"html-keyboard-response","trial_index":119,"plugin_version":"2.1.0","time_elapsed":259656,"subject_id":"92328","group":"Group2","condition":"3_Rep","full_date":"2026-01-29T16:37:40.391Z","date":"2026-01-29","time":"16:37:40"},{"task":"memory_phase","broad_category":"S","image_png":"S_Sandstone_08.png","image_id":456,"category_name":"Sandstone","category":29,"distinct_rating":1.5,"distinct_type":"Bottom","rt":null,"stimulus":"Stimuli_Rocks480/S_Sandstone_08.png","response":null,"trial_type":"image-keyboard-response","trial_index":120,"plugin_version":"2.1.0","time_elapsed":262173,"subject_id":"92328","group":"Group2","condition":"3_Rep","full_date":"2026-01-29T16:37:40.391Z","date":"2026-01-29","time":"16:37:40"},{"rt":null,"stimulus":"<p style=\"font-size: 50px; margin: 0; text-align: center;\">+</p>","response":null,"trial_type":"html-keyboard-response","trial_index":121,"plugin_version":"2.1.0","time_elapsed":263191,"subject_id":"92328","group":"Group2","condition":"3_Rep","full_date":"2026-01-29T16:37:40.391Z","date":"2026-01-29","time":"16:37:40"},{"task":"memory_phase","broad_category":"I","image_png":"I_Pegmatite_11.png","image_id":107,"category_name":"Pegmatite","category":7,"distinct_rating":7.11,"distinct_type":"Top","rt":null,"stimulus":"Stimuli_Rocks480/I_Pegmatite_11.png","response":null,"trial_type":"image-keyboard-response","trial_index":122,"plugin_version":"2.1.0","time_elapsed":265708,"subject_id":"92328","group":"Group2","condition":"3_Rep","full_date":"2026-01-29T16:37:40.391Z","date":"2026-01-29","time":"16:37:40"},{"rt":null,"stimulus":"<p style=\"font-size: 50px; margin: 0; text-align: center;\">+</p>","response":null,"trial_type":"html-keyboard-response","trial_index":123,"plugin_version":"2.1.0","time_elapsed":266726,"subject_id":"92328","group":"Group2","condition":"3_Rep","full_date":"2026-01-29T16:37:40.391Z","date":"2026-01-29","time":"16:37:40"},{"task":"memory_phase","broad_category":"S","image_png":"S_Dolomite_01.png","image_id":385,"category_name":"Dolomite","category":25,"distinct_rating":1.43,"distinct_type":"Bottom","rt":null,"stimulus":"Stimuli_Rocks480/S_Dolomite_01.png","response":null,"trial_type":"image-keyboard-response","trial_index":124,"plugin_version":"2.1.0","time_elapsed":269238,"subject_id":"92328","group":"Group2","condition":"3_Rep","full_date":"2026-01-29T16:37:40.391Z","date":"2026-01-29","time":"16:37:40"},{"rt":null,"stimulus":"<p style=\"font-size: 50px; margin: 0; text-align: center;\">+</p>","response":null,"trial_type":"html-keyboard-response","trial_index":125,"plugin_version":"2.1.0","time_elapsed":270251,"subject_id":"92328","group":"Group2","condition":"3_Rep","full_date":"2026-01-29T16:37:40.391Z","date":"2026-01-29","time":"16:37:40"},{"task":"memory_phase","broad_category":"M","image_png":"M_Quartzite_12.png","image_id":284,"category_name":"Quartzite","category":18,"distinct_rating":1.92,"distinct_type":"Bottom","rt":null,"stimulus":"Stimuli_Rocks480/M_Quartzite_12.png","response":null,"trial_type":"image-keyboard-response","trial_index":126,"plugin_version":"2.1.0","time_elapsed":272767,"subject_id":"92328","group":"Group2","condition":"3_Rep","full_date":"2026-01-29T16:37:40.391Z","date":"2026-01-29","time":"16:37:40"},{"rt":null,"stimulus":"<p style=\"font-size: 50px; margin: 0; text-align: center;\">+</p>","response":null,"trial_type":"html-keyboard-response","trial_index":127,"plugin_version":"2.1.0","time_elapsed":273785,"subject_id":"92328","group":"Group2","condition":"3_Rep","full_date":"2026-01-29T16:37:40.391Z","date":"2026-01-29","time":"16:37:40"},{"task":"memory_phase","broad_category":"I","image_png":"I_Diorite_10.png","image_id":42,"category_name":"Diorite","category":3,"distinct_rating":2.84,"distinct_type":"Bottom","rt":null,"stimulus":"Stimuli_Rocks480/I_Diorite_10.png","response":null,"trial_type":"image-keyboard-response","trial_index":128,"plugin_version":"2.1.0","time_elapsed":276289,"subject_id":"92328","group":"Group2","condition":"3_Rep","full_date":"2026-01-29T16:37:40.391Z","date":"2026-01-29","time":"16:37:40"},{"rt":null,"stimulus":"<p style=\"font-size: 50px; margin: 0; text-align: center;\">+</p>","response":null,"trial_type":"html-keyboard-response","trial_index":129,"plugin_version":"2.1.0","time_elapsed":277307,"subject_id":"92328","group":"Group2","condition":"3_Rep","full_date":"2026-01-29T16:37:40.391Z","date":"2026-01-29","time":"16:37:40"},{"task":"memory_phase","broad_category":"S","image_png":"S_Chert_13.png","image_id":365,"category_name":"Chert","category":23,"distinct_rating":6.57,"distinct_type":"Top","rt":null,"stimulus":"Stimuli_Rocks480/S_Chert_13.png","response":null,"trial_type":"image-keyboard-response","trial_index":130,"plugin_version":"2.1.0","time_elapsed":279821,"subject_id":"92328","group":"Group2","condition":"3_Rep","full_date":"2026-01-29T16:37:40.391Z","date":"2026-01-29","time":"16:37:40"},{"rt":null,"stimulus":"<p style=\"font-size: 50px; margin: 0; text-align: center;\">+</p>","response":null,"trial_type":"html-keyboard-response","trial_index":131,"plugin_version":"2.1.0","time_elapsed":280833,"subject_id":"92328","group":"Group2","condition":"3_Rep","full_date":"2026-01-29T16:37:40.391Z","date":"2026-01-29","time":"16:37:40"},{"task":"memory_phase","broad_category":"I","image_png":"I_Rhyolite_05.png","image_id":149,"category_name":"Rhyolite","category":10,"distinct_rating":3.02,"distinct_type":"Bottom","rt":null,"stimulus":"Stimuli_Rocks480/I_Rhyolite_05.png","response":null,"trial_type":"image-keyboard-response","trial_index":132,"plugin_version":"2.1.0","time_elapsed":283352,"subject_id":"92328","group":"Group2","condition":"3_Rep","full_date":"2026-01-29T16:37:40.391Z","date":"2026-01-29","time":"16:37:40"},{"rt":null,"stimulus":"<p style=\"font-size: 50px; margin: 0; text-align: center;\">+</p>","response":null,"trial_type":"html-keyboard-response","trial_index":133,"plugin_version":"2.1.0","time_elapsed":284361,"subject_id":"92328","group":"Group2","condition":"3_Rep","full_date":"2026-01-29T16:37:40.391Z","date":"2026-01-29","time":"16:37:40"},{"task":"memory_phase","broad_category":"I","image_png":"I_Basalt_10.png","image_id":26,"category_name":"Basalt","category":2,"distinct_rating":2.76,"distinct_type":"Bottom","rt":null,"stimulus":"Stimuli_Rocks480/I_Basalt_10.png","response":null,"trial_type":"image-keyboard-response","trial_index":134,"plugin_version":"2.1.0","time_elapsed":286869,"subject_id":"92328","group":"Group2","condition":"3_Rep","full_date":"2026-01-29T16:37:40.391Z","date":"2026-01-29","time":"16:37:40"},{"rt":null,"stimulus":"<p style=\"font-size: 50px; margin: 0; text-align: center;\">+</p>","response":null,"trial_type":"html-keyboard-response","trial_index":135,"plugin_version":"2.1.0","time_elapsed":287882,"subject_id":"92328","group":"Group2","condition":"3_Rep","full_date":"2026-01-29T16:37:40.391Z","date":"2026-01-29","time":"16:37:40"},{"task":"memory_phase","broad_category":"I","image_png":"I_Rhyolite_10.png","image_id":154,"category_name":"Rhyolite","category":10,"distinct_rating":2.88,"distinct_type":"Bottom","rt":null,"stimulus":"Stimuli_Rocks480/I_Rhyolite_10.png","response":null,"trial_type":"image-keyboard-response","trial_index":136,"plugin_version":"2.1.0","time_elapsed":290396,"subject_id":"92328","group":"Group2","condition":"3_Rep","full_date":"2026-01-29T16:37:40.391Z","date":"2026-01-29","time":"16:37:40"},{"rt":null,"stimulus":"<p style=\"font-size: 50px; margin: 0; text-align: center;\">+</p>","response":null,"trial_type":"html-keyboard-response","trial_index":137,"plugin_version":"2.1.0","time_elapsed":291404,"subject_id":"92328","group":"Group2","condition":"3_Rep","full_date":"2026-01-29T16:37:40.391Z","date":"2026-01-29","time":"16:37:40"},{"task":"memory_phase","broad_category":"I","image_png":"I_Andesite_04.png","image_id":4,"category_name":"Andesite","category":1,"distinct_rating":3.18,"distinct_type":"Bottom","rt":null,"stimulus":"Stimuli_Rocks480/I_Andesite_04.png","response":null,"trial_type":"image-keyboard-response","trial_index":138,"plugin_version":"2.1.0","time_elapsed":293913,"subject_id":"92328","group":"Group2","condition":"3_Rep","full_date":"2026-01-29T16:37:40.391Z","date":"2026-01-29","time":"16:37:40"},{"rt":null,"stimulus":"<p style=\"font-size: 50px; margin: 0; text-align: center;\">+</p>","response":null,"trial_type":"html-keyboard-response","trial_index":139,"plugin_version":"2.1.0","time_elapsed":294922,"subject_id":"92328","group":"Group2","condition":"3_Rep","full_date":"2026-01-29T16:37:40.391Z","date":"2026-01-29","time":"16:37:40"},{"task":"memory_phase","broad_category":"I","image_png":"I_Pumice_13.png","image_id":141,"category_name":"Pumice","category":9,"distinct_rating":3.12,"distinct_type":"Bottom","rt":null,"stimulus":"Stimuli_Rocks480/I_Pumice_13.png","response":null,"trial_type":"image-keyboard-response","trial_index":140,"plugin_version":"2.1.0","time_elapsed":297431,"subject_id":"92328","group":"Group2","condition":"3_Rep","full_date":"2026-01-29T16:37:40.391Z","date":"2026-01-29","time":"16:37:40"},{"rt":null,"stimulus":"<p style=\"font-size: 50px; margin: 0; text-align: center;\">+</p>","response":null,"trial_type":"html-keyboard-response","trial_index":141,"plugin_version":"2.1.0","time_elapsed":298438,"subject_id":"92328","group":"Group2","condition":"3_Rep","full_date":"2026-01-29T16:37:40.391Z","date":"2026-01-29","time":"16:37:40"},{"task":"memory_phase","broad_category":"M","image_png":"M_Gneiss_15.png","image_id":207,"category_name":"Gneiss","category":13,"distinct_rating":3.11,"distinct_type":"Bottom","rt":null,"stimulus":"Stimuli_Rocks480/M_Gneiss_15.png","response":null,"trial_type":"image-keyboard-response","trial_index":142,"plugin_version":"2.1.0","time_elapsed":300954,"subject_id":"92328","group":"Group2","condition":"3_Rep","full_date":"2026-01-29T16:37:40.391Z","date":"2026-01-29","time":"16:37:40"},{"rt":null,"stimulus":"<p style=\"font-size: 50px; margin: 0; text-align: center;\">+</p>","response":null,"trial_type":"html-keyboard-response","trial_index":143,"plugin_version":"2.1.0","time_elapsed":301964,"subject_id":"92328","group":"Group2","condition":"3_Rep","full_date":"2026-01-29T16:37:40.391Z","date":"2026-01-29","time":"16:37:40"},{"task":"memory_phase","broad_category":"I","image_png":"I_Andesite_09.png","image_id":9,"category_name":"Andesite","category":1,"distinct_rating":2.49,"distinct_type":"Bottom","rt":null,"stimulus":"Stimuli_Rocks480/I_Andesite_09.png","response":null,"trial_type":"image-keyboard-response","trial_index":144,"plugin_version":"2.1.0","time_elapsed":304469,"subject_id":"92328","group":"Group2","condition":"3_Rep","full_date":"2026-01-29T16:37:40.391Z","date":"2026-01-29","time":"16:37:40"},{"rt":null,"stimulus":"<p style=\"font-size: 50px; margin: 0; text-align: center;\">+</p>","response":null,"trial_type":"html-keyboard-response","trial_index":145,"plugin_version":"2.1.0","time_elapsed":305475,"subject_id":"92328","group":"Group2","condition":"3_Rep","full_date":"2026-01-29T16:37:40.391Z","date":"2026-01-29","time":"16:37:40"},{"task":"memory_phase","broad_category":"S","image_png":"S_Shale_02.png","image_id":466,"category_name":"Shale","category":30,"distinct_rating":2.9,"distinct_type":"Bottom","rt":null,"stimulus":"Stimuli_Rocks480/S_Shale_02.png","response":null,"trial_type":"image-keyboard-response","trial_index":146,"plugin_version":"2.1.0","time_elapsed":307983,"subject_id":"92328","group":"Group2","condition":"3_Rep","full_date":"2026-01-29T16:37:40.391Z","date":"2026-01-29","time":"16:37:40"},{"rt":null,"stimulus":"<p style=\"font-size: 50px; margin: 0; text-align: center;\">+</p>","response":null,"trial_type":"html-keyboard-response","trial_index":147,"plugin_version":"2.1.0","time_elapsed":308992,"subject_id":"92328","group":"Group2","condition":"3_Rep","full_date":"2026-01-29T16:37:40.391Z","date":"2026-01-29","time":"16:37:40"},{"task":"memory_phase","broad_category":"I","image_png":"I_Obsidian_06.png","image_id":86,"category_name":"Obsidian","category":6,"distinct_rating":8.01,"distinct_type":"Top","rt":null,"stimulus":"Stimuli_Rocks480/I_Obsidian_06.png","response":null,"trial_type":"image-keyboard-response","trial_index":148,"plugin_version":"2.1.0","time_elapsed":311503,"subject_id":"92328","group":"Group2","condition":"3_Rep","full_date":"2026-01-29T16:37:40.391Z","date":"2026-01-29","time":"16:37:40"},{"rt":null,"stimulus":"<p style=\"font-size: 50px; margin: 0; text-align: center;\">+</p>","response":null,"trial_type":"html-keyboard-response","trial_index":149,"plugin_version":"2.1.0","time_elapsed":312517,"subject_id":"92328","group":"Group2","condition":"3_Rep","full_date":"2026-01-29T16:37:40.391Z","date":"2026-01-29","time":"16:37:40"},{"task":"memory_phase","broad_category":"S","image_png":"S_Rock Salt_13.png","image_id":445,"category_name":"Rock Salt","category":28,"distinct_rating":7.58,"distinct_type":"Top","rt":null,"stimulus":"Stimuli_Rocks480/S_Rock Salt_13.png","response":null,"trial_type":"image-keyboard-response","trial_index":150,"plugin_version":"2.1.0","time_elapsed":315034,"subject_id":"92328","group":"Group2","condition":"3_Rep","full_date":"2026-01-29T16:37:40.391Z","date":"2026-01-29","time":"16:37:40"},{"rt":null,"stimulus":"<p style=\"font-size: 50px; margin: 0; text-align: center;\">+</p>","response":null,"trial_type":"html-keyboard-response","trial_index":151,"plugin_version":"2.1.0","time_elapsed":316038,"subject_id":"92328","group":"Group2","condition":"3_Rep","full_date":"2026-01-29T16:37:40.391Z","date":"2026-01-29","time":"16:37:40"},{"task":"memory_phase","broad_category":"M","image_png":"M_Gneiss_10.png","image_id":202,"category_name":"Gneiss","category":13,"distinct_rating":3.09,"distinct_type":"Bottom","rt":null,"stimulus":"Stimuli_Rocks480/M_Gneiss_10.png","response":null,"trial_type":"image-keyboard-response","trial_index":152,"plugin_version":"2.1.0","time_elapsed":318550,"subject_id":"92328","group":"Group2","condition":"3_Rep","full_date":"2026-01-29T16:37:40.391Z","date":"2026-01-29","time":"16:37:40"},{"rt":null,"stimulus":"<p style=\"font-size: 50px; margin: 0; text-align: center;\">+</p>","response":null,"trial_type":"html-keyboard-response","trial_index":153,"plugin_version":"2.1.0","time_elapsed":319563,"subject_id":"92328","group":"Group2","condition":"3_Rep","full_date":"2026-01-29T16:37:40.391Z","date":"2026-01-29","time":"16:37:40"},{"task":"memory_phase","broad_category":"S","image_png":"S_Dolomite_16.png","image_id":400,"category_name":"Dolomite","category":25,"distinct_rating":1.71,"distinct_type":"Bottom","rt":null,"stimulus":"Stimuli_Rocks480/S_Dolomite_16.png","response":null,"trial_type":"image-keyboard-response","trial_index":154,"plugin_version":"2.1.0","time_elapsed":322075,"subject_id":"92328","group":"Group2","condition":"3_Rep","full_date":"2026-01-29T16:37:40.391Z","date":"2026-01-29","time":"16:37:40"},{"rt":null,"stimulus":"<p style=\"font-size: 50px; margin: 0; text-align: center;\">+</p>","response":null,"trial_type":"html-keyboard-response","trial_index":155,"plugin_version":"2.1.0","time_elapsed":323085,"subject_id":"92328","group":"Group2","condition":"3_Rep","full_date":"2026-01-29T16:37:40.391Z","date":"2026-01-29","time":"16:37:40"},{"task":"memory_phase","broad_category":"M","image_png":"M_Phyllite_13.png","image_id":269,"category_name":"Phyllite","category":17,"distinct_rating":2.8,"distinct_type":"Bottom","rt":null,"stimulus":"Stimuli_Rocks480/M_Phyllite_13.png","response":null,"trial_type":"image-keyboard-response","trial_index":156,"plugin_version":"2.1.0","time_elapsed":325597,"subject_id":"92328","group":"Group2","condition":"3_Rep","full_date":"2026-01-29T16:37:40.391Z","date":"2026-01-29","time":"16:37:40"},{"rt":3387,"stimulus":"<p style=\"max-width: 760px; margin: auto; font-size: 35px; line-height: 1.5;\">\n                Press SPACE to continue study phase\n              </p>","response":" ","trial_type":"html-keyboard-response","trial_index":157,"plugin_version":"2.1.0","time_elapsed":328987,"subject_id":"92328","group":"Group2","condition":"3_Rep","full_date":"2026-01-29T16:37:40.391Z","date":"2026-01-29","time":"16:37:40"},{"rt":null,"stimulus":"<p style=\"font-size: 50px; margin: 0; text-align: center;\">+</p>","response":null,"trial_type":"html-keyboard-response","trial_index":158,"plugin_version":"2.1.0","time_elapsed":329997,"subject_id":"92328","group":"Group2","condition":"3_Rep","full_date":"2026-01-29T16:37:40.391Z","date":"2026-01-29","time":"16:37:40"},{"task":"memory_phase","broad_category":"S","image_png":"S_Shale_07.png","image_id":471,"category_name":"Shale","category":30,"distinct_rating":2.73,"distinct_type":"Bottom","rt":null,"stimulus":"Stimuli_Rocks480/S_Shale_07.png","response":null,"trial_type":"image-keyboard-response","trial_index":159,"plugin_version":"2.1.0","time_elapsed":332516,"subject_id":"92328","group":"Group2","condition":"3_Rep","full_date":"2026-01-29T16:37:40.391Z","date":"2026-01-29","time":"16:37:40"},{"rt":null,"stimulus":"<p style=\"font-size: 50px; margin: 0; text-align: center;\">+</p>","response":null,"trial_type":"html-keyboard-response","trial_index":160,"plugin_version":"2.1.0","time_elapsed":333526,"subject_id":"92328","group":"Group2","condition":"3_Rep","full_date":"2026-01-29T16:37:40.391Z","date":"2026-01-29","time":"16:37:40"},{"task":"memory_phase","broad_category":"M","image_png":"M_Marble_03.png","image_id":227,"category_name":"Marble","category":15,"distinct_rating":2.67,"distinct_type":"Bottom","rt":null,"stimulus":"Stimuli_Rocks480/M_Marble_03.png","response":null,"trial_type":"image-keyboard-response","trial_index":161,"plugin_version":"2.1.0","time_elapsed":336036,"subject_id":"92328","group":"Group2","condition":"3_Rep","full_date":"2026-01-29T16:37:40.391Z","date":"2026-01-29","time":"16:37:40"},{"rt":null,"stimulus":"<p style=\"font-size: 50px; margin: 0; text-align: center;\">+</p>","response":null,"trial_type":"html-keyboard-response","trial_index":162,"plugin_version":"2.1.0","time_elapsed":337044,"subject_id":"92328","group":"Group2","condition":"3_Rep","full_date":"2026-01-29T16:37:40.391Z","date":"2026-01-29","time":"16:37:40"},{"task":"memory_phase","broad_category":"I","image_png":"I_Peridotite_13.png","image_id":125,"category_name":"Peridotite","category":8,"distinct_rating":7.28,"distinct_type":"Top","rt":null,"stimulus":"Stimuli_Rocks480/I_Peridotite_13.png","response":null,"trial_type":"image-keyboard-response","trial_index":163,"plugin_version":"2.1.0","time_elapsed":339563,"subject_id":"92328","group":"Group2","condition":"3_Rep","full_date":"2026-01-29T16:37:40.391Z","date":"2026-01-29","time":"16:37:40"},{"rt":null,"stimulus":"<p style=\"font-size: 50px; margin: 0; text-align: center;\">+</p>","response":null,"trial_type":"html-keyboard-response","trial_index":164,"plugin_version":"2.1.0","time_elapsed":340570,"subject_id":"92328","group":"Group2","condition":"3_Rep","full_date":"2026-01-29T16:37:40.391Z","date":"2026-01-29","time":"16:37:40"},{"task":"memory_phase","broad_category":"M","image_png":"M_Gneiss_14.png","image_id":206,"category_name":"Gneiss","category":13,"distinct_rating":3.41,"distinct_type":"Bottom","rt":null,"stimulus":"Stimuli_Rocks480/M_Gneiss_14.png","response":null,"trial_type":"image-keyboard-response","trial_index":165,"plugin_version":"2.1.0","time_elapsed":343088,"subject_id":"92328","group":"Group2","condition":"3_Rep","full_date":"2026-01-29T16:37:40.391Z","date":"2026-01-29","time":"16:37:40"},{"rt":null,"stimulus":"<p style=\"font-size: 50px; margin: 0; text-align: center;\">+</p>","response":null,"trial_type":"html-keyboard-response","trial_index":166,"plugin_version":"2.1.0","time_elapsed":344098,"subject_id":"92328","group":"Group2","condition":"3_Rep","full_date":"2026-01-29T16:37:40.391Z","date":"2026-01-29","time":"16:37:40"},{"task":"memory_phase","broad_category":"M","image_png":"M_Marble_14.png","image_id":238,"category_name":"Marble","category":15,"distinct_rating":3.31,"distinct_type":"Bottom","rt":null,"stimulus":"Stimuli_Rocks480/M_Marble_14.png","response":null,"trial_type":"image-keyboard-response","trial_index":167,"plugin_version":"2.1.0","time_elapsed":346610,"subject_id":"92328","group":"Group2","condition":"3_Rep","full_date":"2026-01-29T16:37:40.391Z","date":"2026-01-29","time":"16:37:40"},{"rt":null,"stimulus":"<p style=\"font-size: 50px; margin: 0; text-align: center;\">+</p>","response":null,"trial_type":"html-keyboard-response","trial_index":168,"plugin_version":"2.1.0","time_elapsed":347627,"subject_id":"92328","group":"Group2","condition":"3_Rep","full_date":"2026-01-29T16:37:40.391Z","date":"2026-01-29","time":"16:37:40"},{"task":"memory_phase","broad_category":"M","image_png":"M_Slate_14.png","image_id":318,"category_name":"Slate","category":20,"distinct_rating":2.58,"distinct_type":"Bottom","rt":null,"stimulus":"Stimuli_Rocks480/M_Slate_14.png","response":null,"trial_type":"image-keyboard-response","trial_index":169,"plugin_version":"2.1.0","time_elapsed":350141,"subject_id":"92328","group":"Group2","condition":"3_Rep","full_date":"2026-01-29T16:37:40.391Z","date":"2026-01-29","time":"16:37:40"},{"rt":null,"stimulus":"<p style=\"font-size: 50px; margin: 0; text-align: center;\">+</p>","response":null,"trial_type":"html-keyboard-response","trial_index":170,"plugin_version":"2.1.0","time_elapsed":351147,"subject_id":"92328","group":"Group2","condition":"3_Rep","full_date":"2026-01-29T16:37:40.391Z","date":"2026-01-29","time":"16:37:40"},{"task":"memory_phase","broad_category":"I","image_png":"I_Rhyolite_08.png","image_id":152,"category_name":"Rhyolite","category":10,"distinct_rating":1.38,"distinct_type":"Bottom","rt":null,"stimulus":"Stimuli_Rocks480/I_Rhyolite_08.png","response":null,"trial_type":"image-keyboard-response","trial_index":171,"plugin_version":"2.1.0","time_elapsed":353658,"subject_id":"92328","group":"Group2","condition":"3_Rep","full_date":"2026-01-29T16:37:40.391Z","date":"2026-01-29","time":"16:37:40"},{"rt":null,"stimulus":"<p style=\"font-size: 50px; margin: 0; text-align: center;\">+</p>","response":null,"trial_type":"html-keyboard-response","trial_index":172,"plugin_version":"2.1.0","time_elapsed":354668,"subject_id":"92328","group":"Group2","condition":"3_Rep","full_date":"2026-01-29T16:37:40.391Z","date":"2026-01-29","time":"16:37:40"},{"task":"memory_phase","broad_category":"S","image_png":"S_Shale_03.png","image_id":467,"category_name":"Shale","category":30,"distinct_rating":1.95,"distinct_type":"Bottom","rt":null,"stimulus":"Stimuli_Rocks480/S_Shale_03.png","response":null,"trial_type":"image-keyboard-response","trial_index":173,"plugin_version":"2.1.0","time_elapsed":357175,"subject_id":"92328","group":"Group2","condition":"3_Rep","full_date":"2026-01-29T16:37:40.391Z","date":"2026-01-29","time":"16:37:40"},{"rt":null,"stimulus":"<p style=\"font-size: 50px; margin: 0; text-align: center;\">+</p>","response":null,"trial_type":"html-keyboard-response","trial_index":174,"plugin_version":"2.1.0","time_elapsed":358191,"subject_id":"92328","group":"Group2","condition":"3_Rep","full_date":"2026-01-29T16:37:40.391Z","date":"2026-01-29","time":"16:37:40"},{"task":"memory_phase","broad_category":"I","image_png":"I_Diorite_01.png","image_id":33,"category_name":"Diorite","category":3,"distinct_rating":2.97,"distinct_type":"Bottom","rt":null,"stimulus":"Stimuli_Rocks480/I_Diorite_01.png","response":null,"trial_type":"image-keyboard-response","trial_index":175,"plugin_version":"2.1.0","time_elapsed":360711,"subject_id":"92328","group":"Group2","condition":"3_Rep","full_date":"2026-01-29T16:37:40.391Z","date":"2026-01-29","time":"16:37:40"},{"rt":null,"stimulus":"<p style=\"font-size: 50px; margin: 0; text-align: center;\">+</p>","response":null,"trial_type":"html-keyboard-response","trial_index":176,"plugin_version":"2.1.0","time_elapsed":361721,"subject_id":"92328","group":"Group2","condition":"3_Rep","full_date":"2026-01-29T16:37:40.391Z","date":"2026-01-29","time":"16:37:40"},{"task":"memory_phase","broad_category":"I","image_png":"I_Gabbro_14.png","image_id":62,"category_name":"Gabbro","category":4,"distinct_rating":2.95,"distinct_type":"Bottom","rt":null,"stimulus":"Stimuli_Rocks480/I_Gabbro_14.png","response":null,"trial_type":"image-keyboard-response","trial_index":177,"plugin_version":"2.1.0","time_elapsed":364242,"subject_id":"92328","group":"Group2","condition":"3_Rep","full_date":"2026-01-29T16:37:40.391Z","date":"2026-01-29","time":"16:37:40"},{"rt":null,"stimulus":"<p style=\"font-size: 50px; margin: 0; text-align: center;\">+</p>","response":null,"trial_type":"html-keyboard-response","trial_index":178,"plugin_version":"2.1.0","time_elapsed":365259,"subject_id":"92328","group":"Group2","condition":"3_Rep","full_date":"2026-01-29T16:37:40.391Z","date":"2026-01-29","time":"16:37:40"},{"task":"memory_phase","broad_category":"M","image_png":"M_Slate_10.png","image_id":314,"category_name":"Slate","category":20,"distinct_rating":1.94,"distinct_type":"Bottom","rt":null,"stimulus":"Stimuli_Rocks480/M_Slate_10.png","response":null,"trial_type":"image-keyboard-response","trial_index":179,"plugin_version":"2.1.0","time_elapsed":367765,"subject_id":"92328","group":"Group2","condition":"3_Rep","full_date":"2026-01-29T16:37:40.391Z","date":"2026-01-29","time":"16:37:40"},{"rt":null,"stimulus":"<p style=\"font-size: 50px; margin: 0; text-align: center;\">+</p>","response":null,"trial_type":"html-keyboard-response","trial_index":180,"plugin_version":"2.1.0","time_elapsed":368776,"subject_id":"92328","group":"Group2","condition":"3_Rep","full_date":"2026-01-29T16:37:40.391Z","date":"2026-01-29","time":"16:37:40"},{"task":"memory_phase","broad_category":"S","image_png":"S_Sandstone_11.png","image_id":459,"category_name":"Sandstone","category":29,"distinct_rating":1.82,"distinct_type":"Bottom","rt":null,"stimulus":"Stimuli_Rocks480/S_Sandstone_11.png","response":null,"trial_type":"image-keyboard-response","trial_index":181,"plugin_version":"2.1.0","time_elapsed":371281,"subject_id":"92328","group":"Group2","condition":"3_Rep","full_date":"2026-01-29T16:37:40.391Z","date":"2026-01-29","time":"16:37:40"},{"rt":null,"stimulus":"<p style=\"font-size: 50px; margin: 0; text-align: center;\">+</p>","response":null,"trial_type":"html-keyboard-response","trial_index":182,"plugin_version":"2.1.0","time_elapsed":372289,"subject_id":"92328","group":"Group2","condition":"3_Rep","full_date":"2026-01-29T16:37:40.391Z","date":"2026-01-29","time":"16:37:40"},{"task":"memory_phase","broad_category":"I","image_png":"I_Basalt_13.png","image_id":29,"category_name":"Basalt","category":2,"distinct_rating":2.68,"distinct_type":"Bottom","rt":null,"stimulus":"Stimuli_Rocks480/I_Basalt_13.png","response":null,"trial_type":"image-keyboard-response","trial_index":183,"plugin_version":"2.1.0","time_elapsed":374800,"subject_id":"92328","group":"Group2","condition":"3_Rep","full_date":"2026-01-29T16:37:40.391Z","date":"2026-01-29","time":"16:37:40"},{"rt":null,"stimulus":"<p style=\"font-size: 50px; margin: 0; text-align: center;\">+</p>","response":null,"trial_type":"html-keyboard-response","trial_index":184,"plugin_version":"2.1.0","time_elapsed":375812,"subject_id":"92328","group":"Group2","condition":"3_Rep","full_date":"2026-01-29T16:37:40.391Z","date":"2026-01-29","time":"16:37:40"},{"task":"memory_phase","broad_category":"M","image_png":"M_Quartzite_07.png","image_id":279,"category_name":"Quartzite","category":18,"distinct_rating":1.97,"distinct_type":"Bottom","rt":null,"stimulus":"Stimuli_Rocks480/M_Quartzite_07.png","response":null,"trial_type":"image-keyboard-response","trial_index":185,"plugin_version":"2.1.0","time_elapsed":378321,"subject_id":"92328","group":"Group2","condition":"3_Rep","full_date":"2026-01-29T16:37:40.391Z","date":"2026-01-29","time":"16:37:40"},{"rt":null,"stimulus":"<p style=\"font-size: 50px; margin: 0; text-align: center;\">+</p>","response":null,"trial_type":"html-keyboard-response","trial_index":186,"plugin_version":"2.1.0","time_elapsed":379328,"subject_id":"92328","group":"Group2","condition":"3_Rep","full_date":"2026-01-29T16:37:40.391Z","date":"2026-01-29","time":"16:37:40"},{"task":"memory_phase","broad_category":"I","image_png":"I_Gabbro_02.png","image_id":50,"category_name":"Gabbro","category":4,"distinct_rating":2.73,"distinct_type":"Bottom","rt":null,"stimulus":"Stimuli_Rocks480/I_Gabbro_02.png","response":null,"trial_type":"image-keyboard-response","trial_index":187,"plugin_version":"2.1.0","time_elapsed":381841,"subject_id":"92328","group":"Group2","condition":"3_Rep","full_date":"2026-01-29T16:37:40.391Z","date":"2026-01-29","time":"16:37:40"},{"rt":null,"stimulus":"<p style=\"font-size: 50px; margin: 0; text-align: center;\">+</p>","response":null,"trial_type":"html-keyboard-response","trial_index":188,"plugin_version":"2.1.0","time_elapsed":382849,"subject_id":"92328","group":"Group2","condition":"3_Rep","full_date":"2026-01-29T16:37:40.391Z","date":"2026-01-29","time":"16:37:40"},{"task":"memory_phase","broad_category":"I","image_png":"I_Basalt_08.png","image_id":24,"category_name":"Basalt","category":2,"distinct_rating":2.31,"distinct_type":"Bottom","rt":null,"stimulus":"Stimuli_Rocks480/I_Basalt_08.png","response":null,"trial_type":"image-keyboard-response","trial_index":189,"plugin_version":"2.1.0","time_elapsed":385366,"subject_id":"92328","group":"Group2","condition":"3_Rep","full_date":"2026-01-29T16:37:40.391Z","date":"2026-01-29","time":"16:37:40"},{"rt":null,"stimulus":"<p style=\"font-size: 50px; margin: 0; text-align: center;\">+</p>","response":null,"trial_type":"html-keyboard-response","trial_index":190,"plugin_version":"2.1.0","time_elapsed":386373,"subject_id":"92328","group":"Group2","condition":"3_Rep","full_date":"2026-01-29T16:37:40.391Z","date":"2026-01-29","time":"16:37:40"},{"task":"memory_phase","broad_category":"S","image_png":"S_Dolomite_07.png","image_id":391,"category_name":"Dolomite","category":25,"distinct_rating":1.73,"distinct_type":"Bottom","rt":null,"stimulus":"Stimuli_Rocks480/S_Dolomite_07.png","response":null,"trial_type":"image-keyboard-response","trial_index":191,"plugin_version":"2.1.0","time_elapsed":388882,"subject_id":"92328","group":"Group2","condition":"3_Rep","full_date":"2026-01-29T16:37:40.391Z","date":"2026-01-29","time":"16:37:40"},{"rt":null,"stimulus":"<p style=\"font-size: 50px; margin: 0; text-align: center;\">+</p>","response":null,"trial_type":"html-keyboard-response","trial_index":192,"plugin_version":"2.1.0","time_elapsed":389896,"subject_id":"92328","group":"Group2","condition":"3_Rep","full_date":"2026-01-29T16:37:40.391Z","date":"2026-01-29","time":"16:37:40"},{"task":"memory_phase","broad_category":"M","image_png":"M_Marble_02.png","image_id":226,"category_name":"Marble","category":15,"distinct_rating":3.2,"distinct_type":"Bottom","rt":null,"stimulus":"Stimuli_Rocks480/M_Marble_02.png","response":null,"trial_type":"image-keyboard-response","trial_index":193,"plugin_version":"2.1.0","time_elapsed":392405,"subject_id":"92328","group":"Group2","condition":"3_Rep","full_date":"2026-01-29T16:37:40.391Z","date":"2026-01-29","time":"16:37:40"},{"rt":null,"stimulus":"<p style=\"font-size: 50px; margin: 0; text-align: center;\">+</p>","response":null,"trial_type":"html-keyboard-response","trial_index":194,"plugin_version":"2.1.0","time_elapsed":393414,"subject_id":"92328","group":"Group2","condition":"3_Rep","full_date":"2026-01-29T16:37:40.391Z","date":"2026-01-29","time":"16:37:40"},{"task":"memory_phase","broad_category":"I","image_png":"I_Pegmatite_03.png","image_id":99,"category_name":"Pegmatite","category":7,"distinct_rating":7.24,"distinct_type":"Top","rt":null,"stimulus":"Stimuli_Rocks480/I_Pegmatite_03.png","response":null,"trial_type":"image-keyboard-response","trial_index":195,"plugin_version":"2.1.0","time_elapsed":395919,"subject_id":"92328","group":"Group2","condition":"3_Rep","full_date":"2026-01-29T16:37:40.391Z","date":"2026-01-29","time":"16:37:40"},{"rt":null,"stimulus":"<p style=\"font-size: 50px; margin: 0; text-align: center;\">+</p>","response":null,"trial_type":"html-keyboard-response","trial_index":196,"plugin_version":"2.1.0","time_elapsed":396928,"subject_id":"92328","group":"Group2","condition":"3_Rep","full_date":"2026-01-29T16:37:40.391Z","date":"2026-01-29","time":"16:37:40"},{"task":"memory_phase","broad_category":"I","image_png":"I_Andesite_03.png","image_id":3,"category_name":"Andesite","category":1,"distinct_rating":3.17,"distinct_type":"Bottom","rt":null,"stimulus":"Stimuli_Rocks480/I_Andesite_03.png","response":null,"trial_type":"image-keyboard-response","trial_index":197,"plugin_version":"2.1.0","time_elapsed":399442,"subject_id":"92328","group":"Group2","condition":"3_Rep","full_date":"2026-01-29T16:37:40.391Z","date":"2026-01-29","time":"16:37:40"},{"rt":null,"stimulus":"<p style=\"font-size: 50px; margin: 0; text-align: center;\">+</p>","response":null,"trial_type":"html-keyboard-response","trial_index":198,"plugin_version":"2.1.0","time_elapsed":400454,"subject_id":"92328","group":"Group2","condition":"3_Rep","full_date":"2026-01-29T16:37:40.391Z","date":"2026-01-29","time":"16:37:40"},{"task":"memory_phase","broad_category":"S","image_png":"S_Rock Salt_15.png","image_id":447,"category_name":"Rock Salt","category":28,"distinct_rating":7.79,"distinct_type":"Top","rt":null,"stimulus":"Stimuli_Rocks480/S_Rock Salt_15.png","response":null,"trial_type":"image-keyboard-response","trial_index":199,"plugin_version":"2.1.0","time_elapsed":402970,"subject_id":"92328","group":"Group2","condition":"3_Rep","full_date":"2026-01-29T16:37:40.391Z","date":"2026-01-29","time":"16:37:40"},{"rt":null,"stimulus":"<p style=\"font-size: 50px; margin: 0; text-align: center;\">+</p>","response":null,"trial_type":"html-keyboard-response","trial_index":200,"plugin_version":"2.1.0","time_elapsed":403979,"subject_id":"92328","group":"Group2","condition":"3_Rep","full_date":"2026-01-29T16:37:40.391Z","date":"2026-01-29","time":"16:37:40"},{"task":"memory_phase","broad_category":"I","image_png":"I_Diorite_15.png","image_id":47,"category_name":"Diorite","category":3,"distinct_rating":3.05,"distinct_type":"Bottom","rt":null,"stimulus":"Stimuli_Rocks480/I_Diorite_15.png","response":null,"trial_type":"image-keyboard-response","trial_index":201,"plugin_version":"2.1.0","time_elapsed":406490,"subject_id":"92328","group":"Group2","condition":"3_Rep","full_date":"2026-01-29T16:37:40.391Z","date":"2026-01-29","time":"16:37:40"},{"rt":null,"stimulus":"<p style=\"font-size: 50px; margin: 0; text-align: center;\">+</p>","response":null,"trial_type":"html-keyboard-response","trial_index":202,"plugin_version":"2.1.0","time_elapsed":407502,"subject_id":"92328","group":"Group2","condition":"3_Rep","full_date":"2026-01-29T16:37:40.391Z","date":"2026-01-29","time":"16:37:40"},{"task":"memory_phase","broad_category":"M","image_png":"M_Slate_04.png","image_id":308,"category_name":"Slate","category":20,"distinct_rating":2.2,"distinct_type":"Bottom","rt":null,"stimulus":"Stimuli_Rocks480/M_Slate_04.png","response":null,"trial_type":"image-keyboard-response","trial_index":203,"plugin_version":"2.1.0","time_elapsed":410018,"subject_id":"92328","group":"Group2","condition":"3_Rep","full_date":"2026-01-29T16:37:40.391Z","date":"2026-01-29","time":"16:37:40"},{"rt":null,"stimulus":"<p style=\"font-size: 50px; margin: 0; text-align: center;\">+</p>","response":null,"trial_type":"html-keyboard-response","trial_index":204,"plugin_version":"2.1.0","time_elapsed":411029,"subject_id":"92328","group":"Group2","condition":"3_Rep","full_date":"2026-01-29T16:37:40.391Z","date":"2026-01-29","time":"16:37:40"},{"task":"memory_phase","broad_category":"I","image_png":"I_Pumice_14.png","image_id":142,"category_name":"Pumice","category":9,"distinct_rating":3.22,"distinct_type":"Bottom","rt":null,"stimulus":"Stimuli_Rocks480/I_Pumice_14.png","response":null,"trial_type":"image-keyboard-response","trial_index":205,"plugin_version":"2.1.0","time_elapsed":413535,"subject_id":"92328","group":"Group2","condition":"3_Rep","full_date":"2026-01-29T16:37:40.391Z","date":"2026-01-29","time":"16:37:40"},{"rt":null,"stimulus":"<p style=\"font-size: 50px; margin: 0; text-align: center;\">+</p>","response":null,"trial_type":"html-keyboard-response","trial_index":206,"plugin_version":"2.1.0","time_elapsed":414545,"subject_id":"92328","group":"Group2","condition":"3_Rep","full_date":"2026-01-29T16:37:40.391Z","date":"2026-01-29","time":"16:37:40"},{"task":"memory_phase","broad_category":"M","image_png":"M_Phyllite_02.png","image_id":258,"category_name":"Phyllite","category":17,"distinct_rating":2.89,"distinct_type":"Bottom","rt":null,"stimulus":"Stimuli_Rocks480/M_Phyllite_02.png","response":null,"trial_type":"image-keyboard-response","trial_index":207,"plugin_version":"2.1.0","time_elapsed":417055,"subject_id":"92328","group":"Group2","condition":"3_Rep","full_date":"2026-01-29T16:37:40.391Z","date":"2026-01-29","time":"16:37:40"},{"rt":3887,"stimulus":"<p style=\"max-width: 760px; margin: auto; font-size: 35px; line-height: 1.5;\">\n                You have completed 2 study phases. \n                Now, we'll show you all the images again 1 more time.\n                <br><br>Press SPACE to continue\n              </p>","response":" ","trial_type":"html-keyboard-response","trial_index":208,"plugin_version":"2.1.0","time_elapsed":420944,"subject_id":"92328","group":"Group2","condition":"3_Rep","full_date":"2026-01-29T16:37:40.391Z","date":"2026-01-29","time":"16:37:40"},{"rt":null,"stimulus":"<p style=\"font-size: 50px; margin: 0; text-align: center;\">+</p>","response":null,"trial_type":"html-keyboard-response","trial_index":209,"plugin_version":"2.1.0","time_elapsed":421948,"subject_id":"92328","group":"Group2","condition":"3_Rep","full_date":"2026-01-29T16:37:40.391Z","date":"2026-01-29","time":"16:37:40"},{"task":"memory_phase","broad_category":"I","image_png":"I_Pegmatite_11.png","image_id":107,"category_name":"Pegmatite","category":7,"distinct_rating":7.11,"distinct_type":"Top","rt":null,"stimulus":"Stimuli_Rocks480/I_Pegmatite_11.png","response":null,"trial_type":"image-keyboard-response","trial_index":210,"plugin_version":"2.1.0","time_elapsed":424463,"subject_id":"92328","group":"Group2","condition":"3_Rep","full_date":"2026-01-29T16:37:40.391Z","date":"2026-01-29","time":"16:37:40"},{"rt":null,"stimulus":"<p style=\"font-size: 50px; margin: 0; text-align: center;\">+</p>","response":null,"trial_type":"html-keyboard-response","trial_index":211,"plugin_version":"2.1.0","time_elapsed":425469,"subject_id":"92328","group":"Group2","condition":"3_Rep","full_date":"2026-01-29T16:37:40.391Z","date":"2026-01-29","time":"16:37:40"},{"task":"memory_phase","broad_category":"M","image_png":"M_Quartzite_15.png","image_id":287,"category_name":"Quartzite","category":18,"distinct_rating":2.19,"distinct_type":"Bottom","rt":null,"stimulus":"Stimuli_Rocks480/M_Quartzite_15.png","response":null,"trial_type":"image-keyboard-response","trial_index":212,"plugin_version":"2.1.0","time_elapsed":427989,"subject_id":"92328","group":"Group2","condition":"3_Rep","full_date":"2026-01-29T16:37:40.391Z","date":"2026-01-29","time":"16:37:40"},{"rt":null,"stimulus":"<p style=\"font-size: 50px; margin: 0; text-align: center;\">+</p>","response":null,"trial_type":"html-keyboard-response","trial_index":213,"plugin_version":"2.1.0","time_elapsed":428999,"subject_id":"92328","group":"Group2","condition":"3_Rep","full_date":"2026-01-29T16:37:40.391Z","date":"2026-01-29","time":"16:37:40"},{"task":"memory_phase","broad_category":"S","image_png":"S_Rock Salt_15.png","image_id":447,"category_name":"Rock Salt","category":28,"distinct_rating":7.79,"distinct_type":"Top","rt":null,"stimulus":"Stimuli_Rocks480/S_Rock Salt_15.png","response":null,"trial_type":"image-keyboard-response","trial_index":214,"plugin_version":"2.1.0","time_elapsed":431518,"subject_id":"92328","group":"Group2","condition":"3_Rep","full_date":"2026-01-29T16:37:40.391Z","date":"2026-01-29","time":"16:37:40"},{"rt":null,"stimulus":"<p style=\"font-size: 50px; margin: 0; text-align: center;\">+</p>","response":null,"trial_type":"html-keyboard-response","trial_index":215,"plugin_version":"2.1.0","time_elapsed":432530,"subject_id":"92328","group":"Group2","condition":"3_Rep","full_date":"2026-01-29T16:37:40.391Z","date":"2026-01-29","time":"16:37:40"},{"task":"memory_phase","broad_category":"I","image_png":"I_Rhyolite_10.png","image_id":154,"category_name":"Rhyolite","category":10,"distinct_rating":2.88,"distinct_type":"Bottom","rt":null,"stimulus":"Stimuli_Rocks480/I_Rhyolite_10.png","response":null,"trial_type":"image-keyboard-response","trial_index":216,"plugin_version":"2.1.0","time_elapsed":435048,"subject_id":"92328","group":"Group2","condition":"3_Rep","full_date":"2026-01-29T16:37:40.391Z","date":"2026-01-29","time":"16:37:40"},{"rt":null,"stimulus":"<p style=\"font-size: 50px; margin: 0; text-align: center;\">+</p>","response":null,"trial_type":"html-keyboard-response","trial_index":217,"plugin_version":"2.1.0","time_elapsed":436056,"subject_id":"92328","group":"Group2","condition":"3_Rep","full_date":"2026-01-29T16:37:40.391Z","date":"2026-01-29","time":"16:37:40"},{"task":"memory_phase","broad_category":"M","image_png":"M_Slate_14.png","image_id":318,"category_name":"Slate","category":20,"distinct_rating":2.58,"distinct_type":"Bottom","rt":null,"stimulus":"Stimuli_Rocks480/M_Slate_14.png","response":null,"trial_type":"image-keyboard-response","trial_index":218,"plugin_version":"2.1.0","time_elapsed":438567,"subject_id":"92328","group":"Group2","condition":"3_Rep","full_date":"2026-01-29T16:37:40.391Z","date":"2026-01-29","time":"16:37:40"},{"rt":null,"stimulus":"<p style=\"font-size: 50px; margin: 0; text-align: center;\">+</p>","response":null,"trial_type":"html-keyboard-response","trial_index":219,"plugin_version":"2.1.0","time_elapsed":439582,"subject_id":"92328","group":"Group2","condition":"3_Rep","full_date":"2026-01-29T16:37:40.391Z","date":"2026-01-29","time":"16:37:40"},{"task":"memory_phase","broad_category":"M","image_png":"M_Phyllite_13.png","image_id":269,"category_name":"Phyllite","category":17,"distinct_rating":2.8,"distinct_type":"Bottom","rt":null,"stimulus":"Stimuli_Rocks480/M_Phyllite_13.png","response":null,"trial_type":"image-keyboard-response","trial_index":220,"plugin_version":"2.1.0","time_elapsed":442088,"subject_id":"92328","group":"Group2","condition":"3_Rep","full_date":"2026-01-29T16:37:40.391Z","date":"2026-01-29","time":"16:37:40"},{"rt":null,"stimulus":"<p style=\"font-size: 50px; margin: 0; text-align: center;\">+</p>","response":null,"trial_type":"html-keyboard-response","trial_index":221,"plugin_version":"2.1.0","time_elapsed":443095,"subject_id":"92328","group":"Group2","condition":"3_Rep","full_date":"2026-01-29T16:37:40.391Z","date":"2026-01-29","time":"16:37:40"},{"task":"memory_phase","broad_category":"S","image_png":"S_Rock Salt_13.png","image_id":445,"category_name":"Rock Salt","category":28,"distinct_rating":7.58,"distinct_type":"Top","rt":null,"stimulus":"Stimuli_Rocks480/S_Rock Salt_13.png","response":null,"trial_type":"image-keyboard-response","trial_index":222,"plugin_version":"2.1.0","time_elapsed":445612,"subject_id":"92328","group":"Group2","condition":"3_Rep","full_date":"2026-01-29T16:37:40.391Z","date":"2026-01-29","time":"16:37:40"},{"rt":null,"stimulus":"<p style=\"font-size: 50px; margin: 0; text-align: center;\">+</p>","response":null,"trial_type":"html-keyboard-response","trial_index":223,"plugin_version":"2.1.0","time_elapsed":446625,"subject_id":"92328","group":"Group2","condition":"3_Rep","full_date":"2026-01-29T16:37:40.391Z","date":"2026-01-29","time":"16:37:40"},{"task":"memory_phase","broad_category":"S","image_png":"S_Chert_13.png","image_id":365,"category_name":"Chert","category":23,"distinct_rating":6.57,"distinct_type":"Top","rt":null,"stimulus":"Stimuli_Rocks480/S_Chert_13.png","response":null,"trial_type":"image-keyboard-response","trial_index":224,"plugin_version":"2.1.0","time_elapsed":449145,"subject_id":"92328","group":"Group2","condition":"3_Rep","full_date":"2026-01-29T16:37:40.391Z","date":"2026-01-29","time":"16:37:40"},{"rt":null,"stimulus":"<p style=\"font-size: 50px; margin: 0; text-align: center;\">+</p>","response":null,"trial_type":"html-keyboard-response","trial_index":225,"plugin_version":"2.1.0","time_elapsed":450154,"subject_id":"92328","group":"Group2","condition":"3_Rep","full_date":"2026-01-29T16:37:40.391Z","date":"2026-01-29","time":"16:37:40"},{"task":"memory_phase","broad_category":"S","image_png":"S_Shale_02.png","image_id":466,"category_name":"Shale","category":30,"distinct_rating":2.9,"distinct_type":"Bottom","rt":null,"stimulus":"Stimuli_Rocks480/S_Shale_02.png","response":null,"trial_type":"image-keyboard-response","trial_index":226,"plugin_version":"2.1.0","time_elapsed":452661,"subject_id":"92328","group":"Group2","condition":"3_Rep","full_date":"2026-01-29T16:37:40.391Z","date":"2026-01-29","time":"16:37:40"},{"rt":null,"stimulus":"<p style=\"font-size: 50px; margin: 0; text-align: center;\">+</p>","response":null,"trial_type":"html-keyboard-response","trial_index":227,"plugin_version":"2.1.0","time_elapsed":453674,"subject_id":"92328","group":"Group2","condition":"3_Rep","full_date":"2026-01-29T16:37:40.391Z","date":"2026-01-29","time":"16:37:40"},{"task":"memory_phase","broad_category":"I","image_png":"I_Diorite_01.png","image_id":33,"category_name":"Diorite","category":3,"distinct_rating":2.97,"distinct_type":"Bottom","rt":null,"stimulus":"Stimuli_Rocks480/I_Diorite_01.png","response":null,"trial_type":"image-keyboard-response","trial_index":228,"plugin_version":"2.1.0","time_elapsed":456195,"subject_id":"92328","group":"Group2","condition":"3_Rep","full_date":"2026-01-29T16:37:40.391Z","date":"2026-01-29","time":"16:37:40"},{"rt":null,"stimulus":"<p style=\"font-size: 50px; margin: 0; text-align: center;\">+</p>","response":null,"trial_type":"html-keyboard-response","trial_index":229,"plugin_version":"2.1.0","time_elapsed":457210,"subject_id":"92328","group":"Group2","condition":"3_Rep","full_date":"2026-01-29T16:37:40.391Z","date":"2026-01-29","time":"16:37:40"},{"task":"memory_phase","broad_category":"I","image_png":"I_Basalt_13.png","image_id":29,"category_name":"Basalt","category":2,"distinct_rating":2.68,"distinct_type":"Bottom","rt":null,"stimulus":"Stimuli_Rocks480/I_Basalt_13.png","response":null,"trial_type":"image-keyboard-response","trial_index":230,"plugin_version":"2.1.0","time_elapsed":459726,"subject_id":"92328","group":"Group2","condition":"3_Rep","full_date":"2026-01-29T16:37:40.391Z","date":"2026-01-29","time":"16:37:40"},{"rt":null,"stimulus":"<p style=\"font-size: 50px; margin: 0; text-align: center;\">+</p>","response":null,"trial_type":"html-keyboard-response","trial_index":231,"plugin_version":"2.1.0","time_elapsed":460738,"subject_id":"92328","group":"Group2","condition":"3_Rep","full_date":"2026-01-29T16:37:40.391Z","date":"2026-01-29","time":"16:37:40"},{"task":"memory_phase","broad_category":"I","image_png":"I_Gabbro_12.png","image_id":60,"category_name":"Gabbro","category":4,"distinct_rating":2.6,"distinct_type":"Bottom","rt":null,"stimulus":"Stimuli_Rocks480/I_Gabbro_12.png","response":null,"trial_type":"image-keyboard-response","trial_index":232,"plugin_version":"2.1.0","time_elapsed":463255,"subject_id":"92328","group":"Group2","condition":"3_Rep","full_date":"2026-01-29T16:37:40.391Z","date":"2026-01-29","time":"16:37:40"},{"rt":null,"stimulus":"<p style=\"font-size: 50px; margin: 0; text-align: center;\">+</p>","response":null,"trial_type":"html-keyboard-response","trial_index":233,"plugin_version":"2.1.0","time_elapsed":464258,"subject_id":"92328","group":"Group2","condition":"3_Rep","full_date":"2026-01-29T16:37:40.391Z","date":"2026-01-29","time":"16:37:40"},{"task":"memory_phase","broad_category":"I","image_png":"I_Gabbro_14.png","image_id":62,"category_name":"Gabbro","category":4,"distinct_rating":2.95,"distinct_type":"Bottom","rt":null,"stimulus":"Stimuli_Rocks480/I_Gabbro_14.png","response":null,"trial_type":"image-keyboard-response","trial_index":234,"plugin_version":"2.1.0","time_elapsed":466764,"subject_id":"92328","group":"Group2","condition":"3_Rep","full_date":"2026-01-29T16:37:40.391Z","date":"2026-01-29","time":"16:37:40"},{"rt":null,"stimulus":"<p style=\"font-size: 50px; margin: 0; text-align: center;\">+</p>","response":null,"trial_type":"html-keyboard-response","trial_index":235,"plugin_version":"2.1.0","time_elapsed":467782,"subject_id":"92328","group":"Group2","condition":"3_Rep","full_date":"2026-01-29T16:37:40.391Z","date":"2026-01-29","time":"16:37:40"},{"task":"memory_phase","broad_category":"I","image_png":"I_Diorite_15.png","image_id":47,"category_name":"Diorite","category":3,"distinct_rating":3.05,"distinct_type":"Bottom","rt":null,"stimulus":"Stimuli_Rocks480/I_Diorite_1