[{"width":721,"height":755,"webaudio":true,"browser":"safari","browser_version":"26.2.0","mobile":false,"os":"Mac OS","fullscreen":true,"vsync_rate":38.39,"webcam":true,"microphone":true,"trial_type":"browser-check","trial_index":0,"plugin_version":"2.1.0","time_elapsed":1571,"subject_id":"91057","group":"Group2","condition":"3_Rep","full_date":"2026-01-24T22:50:06.965Z","date":"2026-01-24","time":"22:50:06"},{"success":true,"timeout":false,"failed_images":[],"failed_audio":[],"failed_video":[],"trial_type":"preload","trial_index":1,"plugin_version":"2.1.0","time_elapsed":8900,"subject_id":"91057","group":"Group2","condition":"3_Rep","full_date":"2026-01-24T22:50:06.965Z","date":"2026-01-24","time":"22:50:06"},{"rt":96855,"url":"SONA_consent_memorability.html","trial_type":"external-html","trial_index":2,"plugin_version":"2.1.0","time_elapsed":105803,"subject_id":"91057","group":"Group2","condition":"3_Rep","full_date":"2026-01-24T22:50:06.965Z","date":"2026-01-24","time":"22:50:06"},{"success":true,"rt":2663,"trial_type":"fullscreen","trial_index":3,"plugin_version":"2.1.0","time_elapsed":109469,"subject_id":"91057","group":"Group2","condition":"3_Rep","full_date":"2026-01-24T22:50:06.965Z","date":"2026-01-24","time":"22:50:06"},{"rt":28729,"stimulus":"<div style=\"max-width: 760px; margin: auto; font-size: 20px; line-height: 1.5;\">\n      <h1 style=\"text-align:center; font-size: 30px;\">Instructions</h1>\n      <p>\n        Welcome to the study on <b>visual memory</b>. This experiment consists of <b>two phases</b>: \n        a <b>study phase</b> and a <b>test phase</b>.\n      </p>\n      <p>\n        In the study phase, you will see a series of rock images along with their category labels.\n        The images will appear one at a time.\n        <b>Your task</b> is to learn the categories to which the rock images belong \n        and to remember each image as accurately as possible.\n      </p> \n      <p>\n        Note that we will repeat the study phase <b>3 times</b>, \n             so you will have multiple opportunities to see and remember each image.\n      </p>\n      <p>\n        After the study phase, <b>your memory will be tested</b>. \n        Additional instructions for the test phase will be provided at that time.\n      </p>\n      <p>\n        If your computer has multiple <b>language settings</b> (e.g., English and another language),\n        please make sure it is set to English before starting.\n      </p>\n      <p>\n        You can track your progress using the <b>completion bar</b> at the top of the screen. \n        Please note that the bar will refresh when the test phase begins \n        to give you an accurate sense of your progress in both phases.\n      </p> \n      <p>\n        Press the button below when you are ready to begin.\n      </p>\n    </div>","response":0,"trial_type":"html-button-response","trial_index":4,"plugin_version":"2.1.0","time_elapsed":138200,"subject_id":"91057","group":"Group2","condition":"3_Rep","full_date":"2026-01-24T22:50:06.965Z","date":"2026-01-24","time":"22:50:06"},{"rt":null,"stimulus":"<p style=\"font-size: 50px; margin: 0; text-align: center;\">+</p>","response":null,"trial_type":"html-keyboard-response","trial_index":5,"plugin_version":"2.1.0","time_elapsed":139204,"subject_id":"91057","group":"Group2","condition":"3_Rep","full_date":"2026-01-24T22:50:06.965Z","date":"2026-01-24","time":"22:50:06"},{"task":"memory_phase","broad_category":"I","image_png":"I_Pumice_14.png","image_id":142,"category_name":"Pumice","category":9,"distinct_rating":3.22,"distinct_type":"Bottom","rt":null,"stimulus":"Stimuli_Rocks480/I_Pumice_14.png","response":null,"trial_type":"image-keyboard-response","trial_index":6,"plugin_version":"2.1.0","time_elapsed":141721,"subject_id":"91057","group":"Group2","condition":"3_Rep","full_date":"2026-01-24T22:50:06.965Z","date":"2026-01-24","time":"22:50:06"},{"rt":null,"stimulus":"<p style=\"font-size: 50px; margin: 0; text-align: center;\">+</p>","response":null,"trial_type":"html-keyboard-response","trial_index":7,"plugin_version":"2.1.0","time_elapsed":142723,"subject_id":"91057","group":"Group2","condition":"3_Rep","full_date":"2026-01-24T22:50:06.965Z","date":"2026-01-24","time":"22:50:06"},{"task":"memory_phase","broad_category":"I","image_png":"I_Gabbro_14.png","image_id":62,"category_name":"Gabbro","category":4,"distinct_rating":2.95,"distinct_type":"Bottom","rt":null,"stimulus":"Stimuli_Rocks480/I_Gabbro_14.png","response":null,"trial_type":"image-keyboard-response","trial_index":8,"plugin_version":"2.1.0","time_elapsed":145240,"subject_id":"91057","group":"Group2","condition":"3_Rep","full_date":"2026-01-24T22:50:06.965Z","date":"2026-01-24","time":"22:50:06"},{"rt":null,"stimulus":"<p style=\"font-size: 50px; margin: 0; text-align: center;\">+</p>","response":null,"trial_type":"html-keyboard-response","trial_index":9,"plugin_version":"2.1.0","time_elapsed":146243,"subject_id":"91057","group":"Group2","condition":"3_Rep","full_date":"2026-01-24T22:50:06.965Z","date":"2026-01-24","time":"22:50:06"},{"task":"memory_phase","broad_category":"S","image_png":"S_Sandstone_08.png","image_id":456,"category_name":"Sandstone","category":29,"distinct_rating":1.5,"distinct_type":"Bottom","rt":null,"stimulus":"Stimuli_Rocks480/S_Sandstone_08.png","response":null,"trial_type":"image-keyboard-response","trial_index":10,"plugin_version":"2.1.0","time_elapsed":148758,"subject_id":"91057","group":"Group2","condition":"3_Rep","full_date":"2026-01-24T22:50:06.965Z","date":"2026-01-24","time":"22:50:06"},{"rt":null,"stimulus":"<p style=\"font-size: 50px; margin: 0; text-align: center;\">+</p>","response":null,"trial_type":"html-keyboard-response","trial_index":11,"plugin_version":"2.1.0","time_elapsed":149761,"subject_id":"91057","group":"Group2","condition":"3_Rep","full_date":"2026-01-24T22:50:06.965Z","date":"2026-01-24","time":"22:50:06"},{"task":"memory_phase","broad_category":"M","image_png":"M_Marble_02.png","image_id":226,"category_name":"Marble","category":15,"distinct_rating":3.2,"distinct_type":"Bottom","rt":null,"stimulus":"Stimuli_Rocks480/M_Marble_02.png","response":null,"trial_type":"image-keyboard-response","trial_index":12,"plugin_version":"2.1.0","time_elapsed":152274,"subject_id":"91057","group":"Group2","condition":"3_Rep","full_date":"2026-01-24T22:50:06.965Z","date":"2026-01-24","time":"22:50:06"},{"rt":null,"stimulus":"<p style=\"font-size: 50px; margin: 0; text-align: center;\">+</p>","response":null,"trial_type":"html-keyboard-response","trial_index":13,"plugin_version":"2.1.0","time_elapsed":153276,"subject_id":"91057","group":"Group2","condition":"3_Rep","full_date":"2026-01-24T22:50:06.965Z","date":"2026-01-24","time":"22:50:06"},{"task":"memory_phase","broad_category":"I","image_png":"I_Andesite_09.png","image_id":9,"category_name":"Andesite","category":1,"distinct_rating":2.49,"distinct_type":"Bottom","rt":null,"stimulus":"Stimuli_Rocks480/I_Andesite_09.png","response":null,"trial_type":"image-keyboard-response","trial_index":14,"plugin_version":"2.1.0","time_elapsed":155791,"subject_id":"91057","group":"Group2","condition":"3_Rep","full_date":"2026-01-24T22:50:06.965Z","date":"2026-01-24","time":"22:50:06"},{"rt":null,"stimulus":"<p style=\"font-size: 50px; margin: 0; text-align: center;\">+</p>","response":null,"trial_type":"html-keyboard-response","trial_index":15,"plugin_version":"2.1.0","time_elapsed":156793,"subject_id":"91057","group":"Group2","condition":"3_Rep","full_date":"2026-01-24T22:50:06.965Z","date":"2026-01-24","time":"22:50:06"},{"task":"memory_phase","broad_category":"I","image_png":"I_Gabbro_02.png","image_id":50,"category_name":"Gabbro","category":4,"distinct_rating":2.73,"distinct_type":"Bottom","rt":null,"stimulus":"Stimuli_Rocks480/I_Gabbro_02.png","response":null,"trial_type":"image-keyboard-response","trial_index":16,"plugin_version":"2.1.0","time_elapsed":159309,"subject_id":"91057","group":"Group2","condition":"3_Rep","full_date":"2026-01-24T22:50:06.965Z","date":"2026-01-24","time":"22:50:06"},{"rt":null,"stimulus":"<p style=\"font-size: 50px; margin: 0; text-align: center;\">+</p>","response":null,"trial_type":"html-keyboard-response","trial_index":17,"plugin_version":"2.1.0","time_elapsed":160311,"subject_id":"91057","group":"Group2","condition":"3_Rep","full_date":"2026-01-24T22:50:06.965Z","date":"2026-01-24","time":"22:50:06"},{"task":"memory_phase","broad_category":"M","image_png":"M_Slate_04.png","image_id":308,"category_name":"Slate","category":20,"distinct_rating":2.2,"distinct_type":"Bottom","rt":null,"stimulus":"Stimuli_Rocks480/M_Slate_04.png","response":null,"trial_type":"image-keyboard-response","trial_index":18,"plugin_version":"2.1.0","time_elapsed":162824,"subject_id":"91057","group":"Group2","condition":"3_Rep","full_date":"2026-01-24T22:50:06.965Z","date":"2026-01-24","time":"22:50:06"},{"rt":null,"stimulus":"<p style=\"font-size: 50px; margin: 0; text-align: center;\">+</p>","response":null,"trial_type":"html-keyboard-response","trial_index":19,"plugin_version":"2.1.0","time_elapsed":163826,"subject_id":"91057","group":"Group2","condition":"3_Rep","full_date":"2026-01-24T22:50:06.965Z","date":"2026-01-24","time":"22:50:06"},{"task":"memory_phase","broad_category":"M","image_png":"M_Gneiss_14.png","image_id":206,"category_name":"Gneiss","category":13,"distinct_rating":3.41,"distinct_type":"Bottom","rt":null,"stimulus":"Stimuli_Rocks480/M_Gneiss_14.png","response":null,"trial_type":"image-keyboard-response","trial_index":20,"plugin_version":"2.1.0","time_elapsed":166341,"subject_id":"91057","group":"Group2","condition":"3_Rep","full_date":"2026-01-24T22:50:06.965Z","date":"2026-01-24","time":"22:50:06"},{"rt":null,"stimulus":"<p style=\"font-size: 50px; margin: 0; text-align: center;\">+</p>","response":null,"trial_type":"html-keyboard-response","trial_index":21,"plugin_version":"2.1.0","time_elapsed":167343,"subject_id":"91057","group":"Group2","condition":"3_Rep","full_date":"2026-01-24T22:50:06.965Z","date":"2026-01-24","time":"22:50:06"},{"task":"memory_phase","broad_category":"I","image_png":"I_Pegmatite_03.png","image_id":99,"category_name":"Pegmatite","category":7,"distinct_rating":7.24,"distinct_type":"Top","rt":null,"stimulus":"Stimuli_Rocks480/I_Pegmatite_03.png","response":null,"trial_type":"image-keyboard-response","trial_index":22,"plugin_version":"2.1.0","time_elapsed":169858,"subject_id":"91057","group":"Group2","condition":"3_Rep","full_date":"2026-01-24T22:50:06.965Z","date":"2026-01-24","time":"22:50:06"},{"rt":null,"stimulus":"<p style=\"font-size: 50px; margin: 0; text-align: center;\">+</p>","response":null,"trial_type":"html-keyboard-response","trial_index":23,"plugin_version":"2.1.0","time_elapsed":170860,"subject_id":"91057","group":"Group2","condition":"3_Rep","full_date":"2026-01-24T22:50:06.965Z","date":"2026-01-24","time":"22:50:06"},{"task":"memory_phase","broad_category":"S","image_png":"S_Sandstone_04.png","image_id":452,"category_name":"Sandstone","category":29,"distinct_rating":1.8,"distinct_type":"Bottom","rt":null,"stimulus":"Stimuli_Rocks480/S_Sandstone_04.png","response":null,"trial_type":"image-keyboard-response","trial_index":24,"plugin_version":"2.1.0","time_elapsed":173376,"subject_id":"91057","group":"Group2","condition":"3_Rep","full_date":"2026-01-24T22:50:06.965Z","date":"2026-01-24","time":"22:50:06"},{"rt":null,"stimulus":"<p style=\"font-size: 50px; margin: 0; text-align: center;\">+</p>","response":null,"trial_type":"html-keyboard-response","trial_index":25,"plugin_version":"2.1.0","time_elapsed":174378,"subject_id":"91057","group":"Group2","condition":"3_Rep","full_date":"2026-01-24T22:50:06.965Z","date":"2026-01-24","time":"22:50:06"},{"task":"memory_phase","broad_category":"I","image_png":"I_Basalt_10.png","image_id":26,"category_name":"Basalt","category":2,"distinct_rating":2.76,"distinct_type":"Bottom","rt":null,"stimulus":"Stimuli_Rocks480/I_Basalt_10.png","response":null,"trial_type":"image-keyboard-response","trial_index":26,"plugin_version":"2.1.0","time_elapsed":176895,"subject_id":"91057","group":"Group2","condition":"3_Rep","full_date":"2026-01-24T22:50:06.965Z","date":"2026-01-24","time":"22:50:06"},{"rt":null,"stimulus":"<p style=\"font-size: 50px; margin: 0; text-align: center;\">+</p>","response":null,"trial_type":"html-keyboard-response","trial_index":27,"plugin_version":"2.1.0","time_elapsed":177897,"subject_id":"91057","group":"Group2","condition":"3_Rep","full_date":"2026-01-24T22:50:06.965Z","date":"2026-01-24","time":"22:50:06"},{"task":"memory_phase","broad_category":"I","image_png":"I_Basalt_13.png","image_id":29,"category_name":"Basalt","category":2,"distinct_rating":2.68,"distinct_type":"Bottom","rt":null,"stimulus":"Stimuli_Rocks480/I_Basalt_13.png","response":null,"trial_type":"image-keyboard-response","trial_index":28,"plugin_version":"2.1.0","time_elapsed":180412,"subject_id":"91057","group":"Group2","condition":"3_Rep","full_date":"2026-01-24T22:50:06.965Z","date":"2026-01-24","time":"22:50:06"},{"rt":null,"stimulus":"<p style=\"font-size: 50px; margin: 0; text-align: center;\">+</p>","response":null,"trial_type":"html-keyboard-response","trial_index":29,"plugin_version":"2.1.0","time_elapsed":181414,"subject_id":"91057","group":"Group2","condition":"3_Rep","full_date":"2026-01-24T22:50:06.965Z","date":"2026-01-24","time":"22:50:06"},{"task":"memory_phase","broad_category":"M","image_png":"M_Marble_14.png","image_id":238,"category_name":"Marble","category":15,"distinct_rating":3.31,"distinct_type":"Bottom","rt":null,"stimulus":"Stimuli_Rocks480/M_Marble_14.png","response":null,"trial_type":"image-keyboard-response","trial_index":30,"plugin_version":"2.1.0","time_elapsed":183929,"subject_id":"91057","group":"Group2","condition":"3_Rep","full_date":"2026-01-24T22:50:06.965Z","date":"2026-01-24","time":"22:50:06"},{"rt":null,"stimulus":"<p style=\"font-size: 50px; margin: 0; text-align: center;\">+</p>","response":null,"trial_type":"html-keyboard-response","trial_index":31,"plugin_version":"2.1.0","time_elapsed":184931,"subject_id":"91057","group":"Group2","condition":"3_Rep","full_date":"2026-01-24T22:50:06.965Z","date":"2026-01-24","time":"22:50:06"},{"task":"memory_phase","broad_category":"S","image_png":"S_Rock Salt_15.png","image_id":447,"category_name":"Rock Salt","category":28,"distinct_rating":7.79,"distinct_type":"Top","rt":null,"stimulus":"Stimuli_Rocks480/S_Rock Salt_15.png","response":null,"trial_type":"image-keyboard-response","trial_index":32,"plugin_version":"2.1.0","time_elapsed":187445,"subject_id":"91057","group":"Group2","condition":"3_Rep","full_date":"2026-01-24T22:50:06.965Z","date":"2026-01-24","time":"22:50:06"},{"rt":null,"stimulus":"<p style=\"font-size: 50px; margin: 0; text-align: center;\">+</p>","response":null,"trial_type":"html-keyboard-response","trial_index":33,"plugin_version":"2.1.0","time_elapsed":188448,"subject_id":"91057","group":"Group2","condition":"3_Rep","full_date":"2026-01-24T22:50:06.965Z","date":"2026-01-24","time":"22:50:06"},{"task":"memory_phase","broad_category":"I","image_png":"I_Rhyolite_05.png","image_id":149,"category_name":"Rhyolite","category":10,"distinct_rating":3.02,"distinct_type":"Bottom","rt":null,"stimulus":"Stimuli_Rocks480/I_Rhyolite_05.png","response":null,"trial_type":"image-keyboard-response","trial_index":34,"plugin_version":"2.1.0","time_elapsed":190965,"subject_id":"91057","group":"Group2","condition":"3_Rep","full_date":"2026-01-24T22:50:06.965Z","date":"2026-01-24","time":"22:50:06"},{"rt":null,"stimulus":"<p style=\"font-size: 50px; margin: 0; text-align: center;\">+</p>","response":null,"trial_type":"html-keyboard-response","trial_index":35,"plugin_version":"2.1.0","time_elapsed":191967,"subject_id":"91057","group":"Group2","condition":"3_Rep","full_date":"2026-01-24T22:50:06.965Z","date":"2026-01-24","time":"22:50:06"},{"task":"memory_phase","broad_category":"S","image_png":"S_Shale_03.png","image_id":467,"category_name":"Shale","category":30,"distinct_rating":1.95,"distinct_type":"Bottom","rt":null,"stimulus":"Stimuli_Rocks480/S_Shale_03.png","response":null,"trial_type":"image-keyboard-response","trial_index":36,"plugin_version":"2.1.0","time_elapsed":194484,"subject_id":"91057","group":"Group2","condition":"3_Rep","full_date":"2026-01-24T22:50:06.965Z","date":"2026-01-24","time":"22:50:06"},{"rt":null,"stimulus":"<p style=\"font-size: 50px; margin: 0; text-align: center;\">+</p>","response":null,"trial_type":"html-keyboard-response","trial_index":37,"plugin_version":"2.1.0","time_elapsed":195486,"subject_id":"91057","group":"Group2","condition":"3_Rep","full_date":"2026-01-24T22:50:06.965Z","date":"2026-01-24","time":"22:50:06"},{"task":"memory_phase","broad_category":"I","image_png":"I_Andesite_03.png","image_id":3,"category_name":"Andesite","category":1,"distinct_rating":3.17,"distinct_type":"Bottom","rt":null,"stimulus":"Stimuli_Rocks480/I_Andesite_03.png","response":null,"trial_type":"image-keyboard-response","trial_index":38,"plugin_version":"2.1.0","time_elapsed":197997,"subject_id":"91057","group":"Group2","condition":"3_Rep","full_date":"2026-01-24T22:50:06.965Z","date":"2026-01-24","time":"22:50:06"},{"rt":null,"stimulus":"<p style=\"font-size: 50px; margin: 0; text-align: center;\">+</p>","response":null,"trial_type":"html-keyboard-response","trial_index":39,"plugin_version":"2.1.0","time_elapsed":199000,"subject_id":"91057","group":"Group2","condition":"3_Rep","full_date":"2026-01-24T22:50:06.965Z","date":"2026-01-24","time":"22:50:06"},{"task":"memory_phase","broad_category":"I","image_png":"I_Peridotite_13.png","image_id":125,"category_name":"Peridotite","category":8,"distinct_rating":7.28,"distinct_type":"Top","rt":null,"stimulus":"Stimuli_Rocks480/I_Peridotite_13.png","response":null,"trial_type":"image-keyboard-response","trial_index":40,"plugin_version":"2.1.0","time_elapsed":201516,"subject_id":"91057","group":"Group2","condition":"3_Rep","full_date":"2026-01-24T22:50:06.965Z","date":"2026-01-24","time":"22:50:06"},{"rt":null,"stimulus":"<p style=\"font-size: 50px; margin: 0; text-align: center;\">+</p>","response":null,"trial_type":"html-keyboard-response","trial_index":41,"plugin_version":"2.1.0","time_elapsed":202519,"subject_id":"91057","group":"Group2","condition":"3_Rep","full_date":"2026-01-24T22:50:06.965Z","date":"2026-01-24","time":"22:50:06"},{"task":"memory_phase","broad_category":"S","image_png":"S_Conglomerate_14.png","image_id":382,"category_name":"Conglomerate","category":24,"distinct_rating":6.86,"distinct_type":"Top","rt":null,"stimulus":"Stimuli_Rocks480/S_Conglomerate_14.png","response":null,"trial_type":"image-keyboard-response","trial_index":42,"plugin_version":"2.1.0","time_elapsed":205034,"subject_id":"91057","group":"Group2","condition":"3_Rep","full_date":"2026-01-24T22:50:06.965Z","date":"2026-01-24","time":"22:50:06"},{"rt":null,"stimulus":"<p style=\"font-size: 50px; margin: 0; text-align: center;\">+</p>","response":null,"trial_type":"html-keyboard-response","trial_index":43,"plugin_version":"2.1.0","time_elapsed":206036,"subject_id":"91057","group":"Group2","condition":"3_Rep","full_date":"2026-01-24T22:50:06.965Z","date":"2026-01-24","time":"22:50:06"},{"task":"memory_phase","broad_category":"I","image_png":"I_Rhyolite_10.png","image_id":154,"category_name":"Rhyolite","category":10,"distinct_rating":2.88,"distinct_type":"Bottom","rt":null,"stimulus":"Stimuli_Rocks480/I_Rhyolite_10.png","response":null,"trial_type":"image-keyboard-response","trial_index":44,"plugin_version":"2.1.0","time_elapsed":208556,"subject_id":"91057","group":"Group2","condition":"3_Rep","full_date":"2026-01-24T22:50:06.965Z","date":"2026-01-24","time":"22:50:06"},{"rt":null,"stimulus":"<p style=\"font-size: 50px; margin: 0; text-align: center;\">+</p>","response":null,"trial_type":"html-keyboard-response","trial_index":45,"plugin_version":"2.1.0","time_elapsed":209558,"subject_id":"91057","group":"Group2","condition":"3_Rep","full_date":"2026-01-24T22:50:06.965Z","date":"2026-01-24","time":"22:50:06"},{"task":"memory_phase","broad_category":"I","image_png":"I_Pegmatite_11.png","image_id":107,"category_name":"Pegmatite","category":7,"distinct_rating":7.11,"distinct_type":"Top","rt":null,"stimulus":"Stimuli_Rocks480/I_Pegmatite_11.png","response":null,"trial_type":"image-keyboard-response","trial_index":46,"plugin_version":"2.1.0","time_elapsed":212077,"subject_id":"91057","group":"Group2","condition":"3_Rep","full_date":"2026-01-24T22:50:06.965Z","date":"2026-01-24","time":"22:50:06"},{"rt":null,"stimulus":"<p style=\"font-size: 50px; margin: 0; text-align: center;\">+</p>","response":null,"trial_type":"html-keyboard-response","trial_index":47,"plugin_version":"2.1.0","time_elapsed":213079,"subject_id":"91057","group":"Group2","condition":"3_Rep","full_date":"2026-01-24T22:50:06.965Z","date":"2026-01-24","time":"22:50:06"},{"task":"memory_phase","broad_category":"M","image_png":"M_Gneiss_15.png","image_id":207,"category_name":"Gneiss","category":13,"distinct_rating":3.11,"distinct_type":"Bottom","rt":null,"stimulus":"Stimuli_Rocks480/M_Gneiss_15.png","response":null,"trial_type":"image-keyboard-response","trial_index":48,"plugin_version":"2.1.0","time_elapsed":215590,"subject_id":"91057","group":"Group2","condition":"3_Rep","full_date":"2026-01-24T22:50:06.965Z","date":"2026-01-24","time":"22:50:06"},{"rt":null,"stimulus":"<p style=\"font-size: 50px; margin: 0; text-align: center;\">+</p>","response":null,"trial_type":"html-keyboard-response","trial_index":49,"plugin_version":"2.1.0","time_elapsed":216592,"subject_id":"91057","group":"Group2","condition":"3_Rep","full_date":"2026-01-24T22:50:06.965Z","date":"2026-01-24","time":"22:50:06"},{"task":"memory_phase","broad_category":"I","image_png":"I_Diorite_15.png","image_id":47,"category_name":"Diorite","category":3,"distinct_rating":3.05,"distinct_type":"Bottom","rt":null,"stimulus":"Stimuli_Rocks480/I_Diorite_15.png","response":null,"trial_type":"image-keyboard-response","trial_index":50,"plugin_version":"2.1.0","time_elapsed":219105,"subject_id":"91057","group":"Group2","condition":"3_Rep","full_date":"2026-01-24T22:50:06.965Z","date":"2026-01-24","time":"22:50:06"},{"rt":null,"stimulus":"<p style=\"font-size: 50px; margin: 0; text-align: center;\">+</p>","response":null,"trial_type":"html-keyboard-response","trial_index":51,"plugin_version":"2.1.0","time_elapsed":220107,"subject_id":"91057","group":"Group2","condition":"3_Rep","full_date":"2026-01-24T22:50:06.965Z","date":"2026-01-24","time":"22:50:06"},{"task":"memory_phase","broad_category":"M","image_png":"M_Gneiss_10.png","image_id":202,"category_name":"Gneiss","category":13,"distinct_rating":3.09,"distinct_type":"Bottom","rt":null,"stimulus":"Stimuli_Rocks480/M_Gneiss_10.png","response":null,"trial_type":"image-keyboard-response","trial_index":52,"plugin_version":"2.1.0","time_elapsed":222625,"subject_id":"91057","group":"Group2","condition":"3_Rep","full_date":"2026-01-24T22:50:06.965Z","date":"2026-01-24","time":"22:50:06"},{"rt":null,"stimulus":"<p style=\"font-size: 50px; margin: 0; text-align: center;\">+</p>","response":null,"trial_type":"html-keyboard-response","trial_index":53,"plugin_version":"2.1.0","time_elapsed":223628,"subject_id":"91057","group":"Group2","condition":"3_Rep","full_date":"2026-01-24T22:50:06.965Z","date":"2026-01-24","time":"22:50:06"},{"task":"memory_phase","broad_category":"M","image_png":"M_Quartzite_15.png","image_id":287,"category_name":"Quartzite","category":18,"distinct_rating":2.19,"distinct_type":"Bottom","rt":null,"stimulus":"Stimuli_Rocks480/M_Quartzite_15.png","response":null,"trial_type":"image-keyboard-response","trial_index":54,"plugin_version":"2.1.0","time_elapsed":226145,"subject_id":"91057","group":"Group2","condition":"3_Rep","full_date":"2026-01-24T22:50:06.965Z","date":"2026-01-24","time":"22:50:06"},{"rt":2449,"stimulus":"<p style=\"max-width: 760px; margin: auto; font-size: 35px; line-height: 1.5;\">\n                Press SPACE to continue study phase\n              </p>","response":" ","trial_type":"html-keyboard-response","trial_index":55,"plugin_version":"2.1.0","time_elapsed":228596,"subject_id":"91057","group":"Group2","condition":"3_Rep","full_date":"2026-01-24T22:50:06.965Z","date":"2026-01-24","time":"22:50:06"},{"rt":null,"stimulus":"<p style=\"font-size: 50px; margin: 0; text-align: center;\">+</p>","response":null,"trial_type":"html-keyboard-response","trial_index":56,"plugin_version":"2.1.0","time_elapsed":229598,"subject_id":"91057","group":"Group2","condition":"3_Rep","full_date":"2026-01-24T22:50:06.965Z","date":"2026-01-24","time":"22:50:06"},{"task":"memory_phase","broad_category":"M","image_png":"M_Quartzite_12.png","image_id":284,"category_name":"Quartzite","category":18,"distinct_rating":1.92,"distinct_type":"Bottom","rt":null,"stimulus":"Stimuli_Rocks480/M_Quartzite_12.png","response":null,"trial_type":"image-keyboard-response","trial_index":57,"plugin_version":"2.1.0","time_elapsed":232111,"subject_id":"91057","group":"Group2","condition":"3_Rep","full_date":"2026-01-24T22:50:06.965Z","date":"2026-01-24","time":"22:50:06"},{"rt":null,"stimulus":"<p style=\"font-size: 50px; margin: 0; text-align: center;\">+</p>","response":null,"trial_type":"html-keyboard-response","trial_index":58,"plugin_version":"2.1.0","time_elapsed":233113,"subject_id":"91057","group":"Group2","condition":"3_Rep","full_date":"2026-01-24T22:50:06.965Z","date":"2026-01-24","time":"22:50:06"},{"task":"memory_phase","broad_category":"M","image_png":"M_Phyllite_02.png","image_id":258,"category_name":"Phyllite","category":17,"distinct_rating":2.89,"distinct_type":"Bottom","rt":null,"stimulus":"Stimuli_Rocks480/M_Phyllite_02.png","response":null,"trial_type":"image-keyboard-response","trial_index":59,"plugin_version":"2.1.0","time_elapsed":235629,"subject_id":"91057","group":"Group2","condition":"3_Rep","full_date":"2026-01-24T22:50:06.965Z","date":"2026-01-24","time":"22:50:06"},{"rt":null,"stimulus":"<p style=\"font-size: 50px; margin: 0; text-align: center;\">+</p>","response":null,"trial_type":"html-keyboard-response","trial_index":60,"plugin_version":"2.1.0","time_elapsed":236632,"subject_id":"91057","group":"Group2","condition":"3_Rep","full_date":"2026-01-24T22:50:06.965Z","date":"2026-01-24","time":"22:50:06"},{"task":"memory_phase","broad_category":"I","image_png":"I_Pumice_01.png","image_id":129,"category_name":"Pumice","category":9,"distinct_rating":3.25,"distinct_type":"Bottom","rt":null,"stimulus":"Stimuli_Rocks480/I_Pumice_01.png","response":null,"trial_type":"image-keyboard-response","trial_index":61,"plugin_version":"2.1.0","time_elapsed":239147,"subject_id":"91057","group":"Group2","condition":"3_Rep","full_date":"2026-01-24T22:50:06.965Z","date":"2026-01-24","time":"22:50:06"},{"rt":null,"stimulus":"<p style=\"font-size: 50px; margin: 0; text-align: center;\">+</p>","response":null,"trial_type":"html-keyboard-response","trial_index":62,"plugin_version":"2.1.0","time_elapsed":240150,"subject_id":"91057","group":"Group2","condition":"3_Rep","full_date":"2026-01-24T22:50:06.965Z","date":"2026-01-24","time":"22:50:06"},{"task":"memory_phase","broad_category":"I","image_png":"I_Diorite_10.png","image_id":42,"category_name":"Diorite","category":3,"distinct_rating":2.84,"distinct_type":"Bottom","rt":null,"stimulus":"Stimuli_Rocks480/I_Diorite_10.png","response":null,"trial_type":"image-keyboard-response","trial_index":63,"plugin_version":"2.1.0","time_elapsed":242665,"subject_id":"91057","group":"Group2","condition":"3_Rep","full_date":"2026-01-24T22:50:06.965Z","date":"2026-01-24","time":"22:50:06"},{"rt":null,"stimulus":"<p style=\"font-size: 50px; margin: 0; text-align: center;\">+</p>","response":null,"trial_type":"html-keyboard-response","trial_index":64,"plugin_version":"2.1.0","time_elapsed":243667,"subject_id":"91057","group":"Group2","condition":"3_Rep","full_date":"2026-01-24T22:50:06.965Z","date":"2026-01-24","time":"22:50:06"},{"task":"memory_phase","broad_category":"M","image_png":"M_Slate_10.png","image_id":314,"category_name":"Slate","category":20,"distinct_rating":1.94,"distinct_type":"Bottom","rt":null,"stimulus":"Stimuli_Rocks480/M_Slate_10.png","response":null,"trial_type":"image-keyboard-response","trial_index":65,"plugin_version":"2.1.0","time_elapsed":246178,"subject_id":"91057","group":"Group2","condition":"3_Rep","full_date":"2026-01-24T22:50:06.965Z","date":"2026-01-24","time":"22:50:06"},{"rt":null,"stimulus":"<p style=\"font-size: 50px; margin: 0; text-align: center;\">+</p>","response":null,"trial_type":"html-keyboard-response","trial_index":66,"plugin_version":"2.1.0","time_elapsed":247180,"subject_id":"91057","group":"Group2","condition":"3_Rep","full_date":"2026-01-24T22:50:06.965Z","date":"2026-01-24","time":"22:50:06"},{"task":"memory_phase","broad_category":"S","image_png":"S_Dolomite_01.png","image_id":385,"category_name":"Dolomite","category":25,"distinct_rating":1.43,"distinct_type":"Bottom","rt":null,"stimulus":"Stimuli_Rocks480/S_Dolomite_01.png","response":null,"trial_type":"image-keyboard-response","trial_index":67,"plugin_version":"2.1.0","time_elapsed":249697,"subject_id":"91057","group":"Group2","condition":"3_Rep","full_date":"2026-01-24T22:50:06.965Z","date":"2026-01-24","time":"22:50:06"},{"rt":null,"stimulus":"<p style=\"font-size: 50px; margin: 0; text-align: center;\">+</p>","response":null,"trial_type":"html-keyboard-response","trial_index":68,"plugin_version":"2.1.0","time_elapsed":250700,"subject_id":"91057","group":"Group2","condition":"3_Rep","full_date":"2026-01-24T22:50:06.965Z","date":"2026-01-24","time":"22:50:06"},{"task":"memory_phase","broad_category":"S","image_png":"S_Shale_02.png","image_id":466,"category_name":"Shale","category":30,"distinct_rating":2.9,"distinct_type":"Bottom","rt":null,"stimulus":"Stimuli_Rocks480/S_Shale_02.png","response":null,"trial_type":"image-keyboard-response","trial_index":69,"plugin_version":"2.1.0","time_elapsed":253214,"subject_id":"91057","group":"Group2","condition":"3_Rep","full_date":"2026-01-24T22:50:06.965Z","date":"2026-01-24","time":"22:50:06"},{"rt":null,"stimulus":"<p style=\"font-size: 50px; margin: 0; text-align: center;\">+</p>","response":null,"trial_type":"html-keyboard-response","trial_index":70,"plugin_version":"2.1.0","time_elapsed":254216,"subject_id":"91057","group":"Group2","condition":"3_Rep","full_date":"2026-01-24T22:50:06.965Z","date":"2026-01-24","time":"22:50:06"},{"task":"memory_phase","broad_category":"M","image_png":"M_Marble_03.png","image_id":227,"category_name":"Marble","category":15,"distinct_rating":2.67,"distinct_type":"Bottom","rt":null,"stimulus":"Stimuli_Rocks480/M_Marble_03.png","response":null,"trial_type":"image-keyboard-response","trial_index":71,"plugin_version":"2.1.0","time_elapsed":256730,"subject_id":"91057","group":"Group2","condition":"3_Rep","full_date":"2026-01-24T22:50:06.965Z","date":"2026-01-24","time":"22:50:06"},{"rt":null,"stimulus":"<p style=\"font-size: 50px; margin: 0; text-align: center;\">+</p>","response":null,"trial_type":"html-keyboard-response","trial_index":72,"plugin_version":"2.1.0","time_elapsed":257733,"subject_id":"91057","group":"Group2","condition":"3_Rep","full_date":"2026-01-24T22:50:06.965Z","date":"2026-01-24","time":"22:50:06"},{"task":"memory_phase","broad_category":"I","image_png":"I_Obsidian_06.png","image_id":86,"category_name":"Obsidian","category":6,"distinct_rating":8.01,"distinct_type":"Top","rt":null,"stimulus":"Stimuli_Rocks480/I_Obsidian_06.png","response":null,"trial_type":"image-keyboard-response","trial_index":73,"plugin_version":"2.1.0","time_elapsed":260250,"subject_id":"91057","group":"Group2","condition":"3_Rep","full_date":"2026-01-24T22:50:06.965Z","date":"2026-01-24","time":"22:50:06"},{"rt":null,"stimulus":"<p style=\"font-size: 50px; margin: 0; text-align: center;\">+</p>","response":null,"trial_type":"html-keyboard-response","trial_index":74,"plugin_version":"2.1.0","time_elapsed":261252,"subject_id":"91057","group":"Group2","condition":"3_Rep","full_date":"2026-01-24T22:50:06.965Z","date":"2026-01-24","time":"22:50:06"},{"task":"memory_phase","broad_category":"S","image_png":"S_Dolomite_16.png","image_id":400,"category_name":"Dolomite","category":25,"distinct_rating":1.71,"distinct_type":"Bottom","rt":null,"stimulus":"Stimuli_Rocks480/S_Dolomite_16.png","response":null,"trial_type":"image-keyboard-response","trial_index":75,"plugin_version":"2.1.0","time_elapsed":263766,"subject_id":"91057","group":"Group2","condition":"3_Rep","full_date":"2026-01-24T22:50:06.965Z","date":"2026-01-24","time":"22:50:06"},{"rt":null,"stimulus":"<p style=\"font-size: 50px; margin: 0; text-align: center;\">+</p>","response":null,"trial_type":"html-keyboard-response","trial_index":76,"plugin_version":"2.1.0","time_elapsed":264768,"subject_id":"91057","group":"Group2","condition":"3_Rep","full_date":"2026-01-24T22:50:06.965Z","date":"2026-01-24","time":"22:50:06"},{"task":"memory_phase","broad_category":"I","image_png":"I_Diorite_01.png","image_id":33,"category_name":"Diorite","category":3,"distinct_rating":2.97,"distinct_type":"Bottom","rt":null,"stimulus":"Stimuli_Rocks480/I_Diorite_01.png","response":null,"trial_type":"image-keyboard-response","trial_index":77,"plugin_version":"2.1.0","time_elapsed":267293,"subject_id":"91057","group":"Group2","condition":"3_Rep","full_date":"2026-01-24T22:50:06.965Z","date":"2026-01-24","time":"22:50:06"},{"rt":null,"stimulus":"<p style=\"font-size: 50px; margin: 0; text-align: center;\">+</p>","response":null,"trial_type":"html-keyboard-response","trial_index":78,"plugin_version":"2.1.0","time_elapsed":268296,"subject_id":"91057","group":"Group2","condition":"3_Rep","full_date":"2026-01-24T22:50:06.965Z","date":"2026-01-24","time":"22:50:06"},{"task":"memory_phase","broad_category":"S","image_png":"S_Rock Salt_13.png","image_id":445,"category_name":"Rock Salt","category":28,"distinct_rating":7.58,"distinct_type":"Top","rt":null,"stimulus":"Stimuli_Rocks480/S_Rock Salt_13.png","response":null,"trial_type":"image-keyboard-response","trial_index":79,"plugin_version":"2.1.0","time_elapsed":270816,"subject_id":"91057","group":"Group2","condition":"3_Rep","full_date":"2026-01-24T22:50:06.965Z","date":"2026-01-24","time":"22:50:06"},{"rt":null,"stimulus":"<p style=\"font-size: 50px; margin: 0; text-align: center;\">+</p>","response":null,"trial_type":"html-keyboard-response","trial_index":80,"plugin_version":"2.1.0","time_elapsed":271818,"subject_id":"91057","group":"Group2","condition":"3_Rep","full_date":"2026-01-24T22:50:06.965Z","date":"2026-01-24","time":"22:50:06"},{"task":"memory_phase","broad_category":"M","image_png":"M_Slate_14.png","image_id":318,"category_name":"Slate","category":20,"distinct_rating":2.58,"distinct_type":"Bottom","rt":null,"stimulus":"Stimuli_Rocks480/M_Slate_14.png","response":null,"trial_type":"image-keyboard-response","trial_index":81,"plugin_version":"2.1.0","time_elapsed":274329,"subject_id":"91057","group":"Group2","condition":"3_Rep","full_date":"2026-01-24T22:50:06.965Z","date":"2026-01-24","time":"22:50:06"},{"rt":null,"stimulus":"<p style=\"font-size: 50px; margin: 0; text-align: center;\">+</p>","response":null,"trial_type":"html-keyboard-response","trial_index":82,"plugin_version":"2.1.0","time_elapsed":275331,"subject_id":"91057","group":"Group2","condition":"3_Rep","full_date":"2026-01-24T22:50:06.965Z","date":"2026-01-24","time":"22:50:06"},{"task":"memory_phase","broad_category":"I","image_png":"I_Basalt_08.png","image_id":24,"category_name":"Basalt","category":2,"distinct_rating":2.31,"distinct_type":"Bottom","rt":null,"stimulus":"Stimuli_Rocks480/I_Basalt_08.png","response":null,"trial_type":"image-keyboard-response","trial_index":83,"plugin_version":"2.1.0","time_elapsed":277852,"subject_id":"91057","group":"Group2","condition":"3_Rep","full_date":"2026-01-24T22:50:06.965Z","date":"2026-01-24","time":"22:50:06"},{"rt":null,"stimulus":"<p style=\"font-size: 50px; margin: 0; text-align: center;\">+</p>","response":null,"trial_type":"html-keyboard-response","trial_index":84,"plugin_version":"2.1.0","time_elapsed":278854,"subject_id":"91057","group":"Group2","condition":"3_Rep","full_date":"2026-01-24T22:50:06.965Z","date":"2026-01-24","time":"22:50:06"},{"task":"memory_phase","broad_category":"M","image_png":"M_Phyllite_13.png","image_id":269,"category_name":"Phyllite","category":17,"distinct_rating":2.8,"distinct_type":"Bottom","rt":null,"stimulus":"Stimuli_Rocks480/M_Phyllite_13.png","response":null,"trial_type":"image-keyboard-response","trial_index":85,"plugin_version":"2.1.0","time_elapsed":281369,"subject_id":"91057","group":"Group2","condition":"3_Rep","full_date":"2026-01-24T22:50:06.965Z","date":"2026-01-24","time":"22:50:06"},{"rt":null,"stimulus":"<p style=\"font-size: 50px; margin: 0; text-align: center;\">+</p>","response":null,"trial_type":"html-keyboard-response","trial_index":86,"plugin_version":"2.1.0","time_elapsed":282371,"subject_id":"91057","group":"Group2","condition":"3_Rep","full_date":"2026-01-24T22:50:06.965Z","date":"2026-01-24","time":"22:50:06"},{"task":"memory_phase","broad_category":"S","image_png":"S_Chert_13.png","image_id":365,"category_name":"Chert","category":23,"distinct_rating":6.57,"distinct_type":"Top","rt":null,"stimulus":"Stimuli_Rocks480/S_Chert_13.png","response":null,"trial_type":"image-keyboard-response","trial_index":87,"plugin_version":"2.1.0","time_elapsed":284882,"subject_id":"91057","group":"Group2","condition":"3_Rep","full_date":"2026-01-24T22:50:06.965Z","date":"2026-01-24","time":"22:50:06"},{"rt":null,"stimulus":"<p style=\"font-size: 50px; margin: 0; text-align: center;\">+</p>","response":null,"trial_type":"html-keyboard-response","trial_index":88,"plugin_version":"2.1.0","time_elapsed":285884,"subject_id":"91057","group":"Group2","condition":"3_Rep","full_date":"2026-01-24T22:50:06.965Z","date":"2026-01-24","time":"22:50:06"},{"task":"memory_phase","broad_category":"I","image_png":"I_Rhyolite_08.png","image_id":152,"category_name":"Rhyolite","category":10,"distinct_rating":1.38,"distinct_type":"Bottom","rt":null,"stimulus":"Stimuli_Rocks480/I_Rhyolite_08.png","response":null,"trial_type":"image-keyboard-response","trial_index":89,"plugin_version":"2.1.0","time_elapsed":288400,"subject_id":"91057","group":"Group2","condition":"3_Rep","full_date":"2026-01-24T22:50:06.965Z","date":"2026-01-24","time":"22:50:06"},{"rt":null,"stimulus":"<p style=\"font-size: 50px; margin: 0; text-align: center;\">+</p>","response":null,"trial_type":"html-keyboard-response","trial_index":90,"plugin_version":"2.1.0","time_elapsed":289402,"subject_id":"91057","group":"Group2","condition":"3_Rep","full_date":"2026-01-24T22:50:06.965Z","date":"2026-01-24","time":"22:50:06"},{"task":"memory_phase","broad_category":"S","image_png":"S_Shale_07.png","image_id":471,"category_name":"Shale","category":30,"distinct_rating":2.73,"distinct_type":"Bottom","rt":null,"stimulus":"Stimuli_Rocks480/S_Shale_07.png","response":null,"trial_type":"image-keyboard-response","trial_index":91,"plugin_version":"2.1.0","time_elapsed":291917,"subject_id":"91057","group":"Group2","condition":"3_Rep","full_date":"2026-01-24T22:50:06.965Z","date":"2026-01-24","time":"22:50:06"},{"rt":null,"stimulus":"<p style=\"font-size: 50px; margin: 0; text-align: center;\">+</p>","response":null,"trial_type":"html-keyboard-response","trial_index":92,"plugin_version":"2.1.0","time_elapsed":292919,"subject_id":"91057","group":"Group2","condition":"3_Rep","full_date":"2026-01-24T22:50:06.965Z","date":"2026-01-24","time":"22:50:06"},{"task":"memory_phase","broad_category":"M","image_png":"M_Quartzite_07.png","image_id":279,"category_name":"Quartzite","category":18,"distinct_rating":1.97,"distinct_type":"Bottom","rt":null,"stimulus":"Stimuli_Rocks480/M_Quartzite_07.png","response":null,"trial_type":"image-keyboard-response","trial_index":93,"plugin_version":"2.1.0","time_elapsed":295435,"subject_id":"91057","group":"Group2","condition":"3_Rep","full_date":"2026-01-24T22:50:06.965Z","date":"2026-01-24","time":"22:50:06"},{"rt":null,"stimulus":"<p style=\"font-size: 50px; margin: 0; text-align: center;\">+</p>","response":null,"trial_type":"html-keyboard-response","trial_index":94,"plugin_version":"2.1.0","time_elapsed":296437,"subject_id":"91057","group":"Group2","condition":"3_Rep","full_date":"2026-01-24T22:50:06.965Z","date":"2026-01-24","time":"22:50:06"},{"task":"memory_phase","broad_category":"M","image_png":"M_Phyllite_05.png","image_id":261,"category_name":"Phyllite","category":17,"distinct_rating":2.14,"distinct_type":"Bottom","rt":null,"stimulus":"Stimuli_Rocks480/M_Phyllite_05.png","response":null,"trial_type":"image-keyboard-response","trial_index":95,"plugin_version":"2.1.0","time_elapsed":298952,"subject_id":"91057","group":"Group2","condition":"3_Rep","full_date":"2026-01-24T22:50:06.965Z","date":"2026-01-24","time":"22:50:06"},{"rt":null,"stimulus":"<p style=\"font-size: 50px; margin: 0; text-align: center;\">+</p>","response":null,"trial_type":"html-keyboard-response","trial_index":96,"plugin_version":"2.1.0","time_elapsed":299954,"subject_id":"91057","group":"Group2","condition":"3_Rep","full_date":"2026-01-24T22:50:06.965Z","date":"2026-01-24","time":"22:50:06"},{"task":"memory_phase","broad_category":"S","image_png":"S_Sandstone_11.png","image_id":459,"category_name":"Sandstone","category":29,"distinct_rating":1.82,"distinct_type":"Bottom","rt":null,"stimulus":"Stimuli_Rocks480/S_Sandstone_11.png","response":null,"trial_type":"image-keyboard-response","trial_index":97,"plugin_version":"2.1.0","time_elapsed":302472,"subject_id":"91057","group":"Group2","condition":"3_Rep","full_date":"2026-01-24T22:50:06.965Z","date":"2026-01-24","time":"22:50:06"},{"rt":null,"stimulus":"<p style=\"font-size: 50px; margin: 0; text-align: center;\">+</p>","response":null,"trial_type":"html-keyboard-response","trial_index":98,"plugin_version":"2.1.0","time_elapsed":303474,"subject_id":"91057","group":"Group2","condition":"3_Rep","full_date":"2026-01-24T22:50:06.965Z","date":"2026-01-24","time":"22:50:06"},{"task":"memory_phase","broad_category":"I","image_png":"I_Pumice_13.png","image_id":141,"category_name":"Pumice","category":9,"distinct_rating":3.12,"distinct_type":"Bottom","rt":null,"stimulus":"Stimuli_Rocks480/I_Pumice_13.png","response":null,"trial_type":"image-keyboard-response","trial_index":99,"plugin_version":"2.1.0","time_elapsed":305989,"subject_id":"91057","group":"Group2","condition":"3_Rep","full_date":"2026-01-24T22:50:06.965Z","date":"2026-01-24","time":"22:50:06"},{"rt":null,"stimulus":"<p style=\"font-size: 50px; margin: 0; text-align: center;\">+</p>","response":null,"trial_type":"html-keyboard-response","trial_index":100,"plugin_version":"2.1.0","time_elapsed":306991,"subject_id":"91057","group":"Group2","condition":"3_Rep","full_date":"2026-01-24T22:50:06.965Z","date":"2026-01-24","time":"22:50:06"},{"task":"memory_phase","broad_category":"S","image_png":"S_Dolomite_07.png","image_id":391,"category_name":"Dolomite","category":25,"distinct_rating":1.73,"distinct_type":"Bottom","rt":null,"stimulus":"Stimuli_Rocks480/S_Dolomite_07.png","response":null,"trial_type":"image-keyboard-response","trial_index":101,"plugin_version":"2.1.0","time_elapsed":309506,"subject_id":"91057","group":"Group2","condition":"3_Rep","full_date":"2026-01-24T22:50:06.965Z","date":"2026-01-24","time":"22:50:06"},{"rt":null,"stimulus":"<p style=\"font-size: 50px; margin: 0; text-align: center;\">+</p>","response":null,"trial_type":"html-keyboard-response","trial_index":102,"plugin_version":"2.1.0","time_elapsed":310508,"subject_id":"91057","group":"Group2","condition":"3_Rep","full_date":"2026-01-24T22:50:06.965Z","date":"2026-01-24","time":"22:50:06"},{"task":"memory_phase","broad_category":"I","image_png":"I_Andesite_04.png","image_id":4,"category_name":"Andesite","category":1,"distinct_rating":3.18,"distinct_type":"Bottom","rt":null,"stimulus":"Stimuli_Rocks480/I_Andesite_04.png","response":null,"trial_type":"image-keyboard-response","trial_index":103,"plugin_version":"2.1.0","time_elapsed":313024,"subject_id":"91057","group":"Group2","condition":"3_Rep","full_date":"2026-01-24T22:50:06.965Z","date":"2026-01-24","time":"22:50:06"},{"rt":null,"stimulus":"<p style=\"font-size: 50px; margin: 0; text-align: center;\">+</p>","response":null,"trial_type":"html-keyboard-response","trial_index":104,"plugin_version":"2.1.0","time_elapsed":314026,"subject_id":"91057","group":"Group2","condition":"3_Rep","full_date":"2026-01-24T22:50:06.965Z","date":"2026-01-24","time":"22:50:06"},{"task":"memory_phase","broad_category":"I","image_png":"I_Gabbro_12.png","image_id":60,"category_name":"Gabbro","category":4,"distinct_rating":2.6,"distinct_type":"Bottom","rt":null,"stimulus":"Stimuli_Rocks480/I_Gabbro_12.png","response":null,"trial_type":"image-keyboard-response","trial_index":105,"plugin_version":"2.1.0","time_elapsed":316544,"subject_id":"91057","group":"Group2","condition":"3_Rep","full_date":"2026-01-24T22:50:06.965Z","date":"2026-01-24","time":"22:50:06"},{"rt":491989,"stimulus":"<p style=\"max-width: 760px; margin: auto; font-size: 35px; line-height: 1.5;\">\n                You have completed 1 study phase. \n                Now, we'll show you all the images again 2 more times.\n                <br><br>Press SPACE to continue\n              </p>","response":" ","trial_type":"html-keyboard-response","trial_index":106,"plugin_version":"2.1.0","time_elapsed":808528,"subject_id":"91057","group":"Group2","condition":"3_Rep","full_date":"2026-01-24T22:50:06.965Z","date":"2026-01-24","time":"22:50:06"},{"rt":null,"stimulus":"<p style=\"font-size: 50px; margin: 0; text-align: center;\">+</p>","response":null,"trial_type":"html-keyboard-response","trial_index":107,"plugin_version":"2.1.0","time_elapsed":809531,"subject_id":"91057","group":"Group2","condition":"3_Rep","full_date":"2026-01-24T22:50:06.965Z","date":"2026-01-24","time":"22:50:06"},{"task":"memory_phase","broad_category":"I","image_png":"I_Basalt_08.png","image_id":24,"category_name":"Basalt","category":2,"distinct_rating":2.31,"distinct_type":"Bottom","rt":null,"stimulus":"Stimuli_Rocks480/I_Basalt_08.png","response":null,"trial_type":"image-keyboard-response","trial_index":108,"plugin_version":"2.1.0","time_elapsed":812050,"subject_id":"91057","group":"Group2","condition":"3_Rep","full_date":"2026-01-24T22:50:06.965Z","date":"2026-01-24","time":"22:50:06"},{"rt":null,"stimulus":"<p style=\"font-size: 50px; margin: 0; text-align: center;\">+</p>","response":null,"trial_type":"html-keyboard-response","trial_index":109,"plugin_version":"2.1.0","time_elapsed":813053,"subject_id":"91057","group":"Group2","condition":"3_Rep","full_date":"2026-01-24T22:50:06.965Z","date":"2026-01-24","time":"22:50:06"},{"task":"memory_phase","broad_category":"S","image_png":"S_Chert_13.png","image_id":365,"category_name":"Chert","category":23,"distinct_rating":6.57,"distinct_type":"Top","rt":null,"stimulus":"Stimuli_Rocks480/S_Chert_13.png","response":null,"trial_type":"image-keyboard-response","trial_index":110,"plugin_version":"2.1.0","time_elapsed":815556,"subject_id":"91057","group":"Group2","condition":"3_Rep","full_date":"2026-01-24T22:50:06.965Z","date":"2026-01-24","time":"22:50:06"},{"rt":null,"stimulus":"<p style=\"font-size: 50px; margin: 0; text-align: center;\">+</p>","response":null,"trial_type":"html-keyboard-response","trial_index":111,"plugin_version":"2.1.0","time_elapsed":816558,"subject_id":"91057","group":"Group2","condition":"3_Rep","full_date":"2026-01-24T22:50:06.965Z","date":"2026-01-24","time":"22:50:06"},{"task":"memory_phase","broad_category":"S","image_png":"S_Shale_03.png","image_id":467,"category_name":"Shale","category":30,"distinct_rating":1.95,"distinct_type":"Bottom","rt":null,"stimulus":"Stimuli_Rocks480/S_Shale_03.png","response":null,"trial_type":"image-keyboard-response","trial_index":112,"plugin_version":"2.1.0","time_elapsed":819075,"subject_id":"91057","group":"Group2","condition":"3_Rep","full_date":"2026-01-24T22:50:06.965Z","date":"2026-01-24","time":"22:50:06"},{"rt":null,"stimulus":"<p style=\"font-size: 50px; margin: 0; text-align: center;\">+</p>","response":null,"trial_type":"html-keyboard-response","trial_index":113,"plugin_version":"2.1.0","time_elapsed":820077,"subject_id":"91057","group":"Group2","condition":"3_Rep","full_date":"2026-01-24T22:50:06.965Z","date":"2026-01-24","time":"22:50:06"},{"task":"memory_phase","broad_category":"I","image_png":"I_Diorite_15.png","image_id":47,"category_name":"Diorite","category":3,"distinct_rating":3.05,"distinct_type":"Bottom","rt":null,"stimulus":"Stimuli_Rocks480/I_Diorite_15.png","response":null,"trial_type":"image-keyboard-response","trial_index":114,"plugin_version":"2.1.0","time_elapsed":822592,"subject_id":"91057","group":"Group2","condition":"3_Rep","full_date":"2026-01-24T22:50:06.965Z","date":"2026-01-24","time":"22:50:06"},{"rt":null,"stimulus":"<p style=\"font-size: 50px; margin: 0; text-align: center;\">+</p>","response":null,"trial_type":"html-keyboard-response","trial_index":115,"plugin_version":"2.1.0","time_elapsed":823594,"subject_id":"91057","group":"Group2","condition":"3_Rep","full_date":"2026-01-24T22:50:06.965Z","date":"2026-01-24","time":"22:50:06"},{"task":"memory_phase","broad_category":"I","image_png":"I_Peridotite_13.png","image_id":125,"category_name":"Peridotite","category":8,"distinct_rating":7.28,"distinct_type":"Top","rt":null,"stimulus":"Stimuli_Rocks480/I_Peridotite_13.png","response":null,"trial_type":"image-keyboard-response","trial_index":116,"plugin_version":"2.1.0","time_elapsed":826111,"subject_id":"91057","group":"Group2","condition":"3_Rep","full_date":"2026-01-24T22:50:06.965Z","date":"2026-01-24","time":"22:50:06"},{"rt":null,"stimulus":"<p style=\"font-size: 50px; margin: 0; text-align: center;\">+</p>","response":null,"trial_type":"html-keyboard-response","trial_index":117,"plugin_version":"2.1.0","time_elapsed":827113,"subject_id":"91057","group":"Group2","condition":"3_Rep","full_date":"2026-01-24T22:50:06.965Z","date":"2026-01-24","time":"22:50:06"},{"task":"memory_phase","broad_category":"S","image_png":"S_Sandstone_08.png","image_id":456,"category_name":"Sandstone","category":29,"distinct_rating":1.5,"distinct_type":"Bottom","rt":null,"stimulus":"Stimuli_Rocks480/S_Sandstone_08.png","response":null,"trial_type":"image-keyboard-response","trial_index":118,"plugin_version":"2.1.0","time_elapsed":829626,"subject_id":"91057","group":"Group2","condition":"3_Rep","full_date":"2026-01-24T22:50:06.965Z","date":"2026-01-24","time":"22:50:06"},{"rt":null,"stimulus":"<p style=\"font-size: 50px; margin: 0; text-align: center;\">+</p>","response":null,"trial_type":"html-keyboard-response","trial_index":119,"plugin_version":"2.1.0","time_elapsed":830628,"subject_id":"91057","group":"Group2","condition":"3_Rep","full_date":"2026-01-24T22:50:06.965Z","date":"2026-01-24","time":"22:50:06"},{"task":"memory_phase","broad_category":"I","image_png":"I_Andesite_04.png","image_id":4,"category_name":"Andesite","category":1,"distinct_rating":3.18,"distinct_type":"Bottom","rt":null,"stimulus":"Stimuli_Rocks480/I_Andesite_04.png","response":null,"trial_type":"image-keyboard-response","trial_index":120,"plugin_version":"2.1.0","time_elapsed":833131,"subject_id":"91057","group":"Group2","condition":"3_Rep","full_date":"2026-01-24T22:50:06.965Z","date":"2026-01-24","time":"22:50:06"},{"rt":null,"stimulus":"<p style=\"font-size: 50px; margin: 0; text-align: center;\">+</p>","response":null,"trial_type":"html-keyboard-response","trial_index":121,"plugin_version":"2.1.0","time_elapsed":834133,"subject_id":"91057","group":"Group2","condition":"3_Rep","full_date":"2026-01-24T22:50:06.965Z","date":"2026-01-24","time":"22:50:06"},{"task":"memory_phase","broad_category":"M","image_png":"M_Marble_02.png","image_id":226,"category_name":"Marble","category":15,"distinct_rating":3.2,"distinct_type":"Bottom","rt":null,"stimulus":"Stimuli_Rocks480/M_Marble_02.png","response":null,"trial_type":"image-keyboard-response","trial_index":122,"plugin_version":"2.1.0","time_elapsed":836648,"subject_id":"91057","group":"Group2","condition":"3_Rep","full_date":"2026-01-24T22:50:06.965Z","date":"2026-01-24","time":"22:50:06"},{"rt":null,"stimulus":"<p style=\"font-size: 50px; margin: 0; text-align: center;\">+</p>","response":null,"trial_type":"html-keyboard-response","trial_index":123,"plugin_version":"2.1.0","time_elapsed":837650,"subject_id":"91057","group":"Group2","condition":"3_Rep","full_date":"2026-01-24T22:50:06.965Z","date":"2026-01-24","time":"22:50:06"},{"task":"memory_phase","broad_category":"I","image_png":"I_Basalt_13.png","image_id":29,"category_name":"Basalt","category":2,"distinct_rating":2.68,"distinct_type":"Bottom","rt":null,"stimulus":"Stimuli_Rocks480/I_Basalt_13.png","response":null,"trial_type":"image-keyboard-response","trial_index":124,"plugin_version":"2.1.0","time_elapsed":840165,"subject_id":"91057","group":"Group2","condition":"3_Rep","full_date":"2026-01-24T22:50:06.965Z","date":"2026-01-24","time":"22:50:06"},{"rt":null,"stimulus":"<p style=\"font-size: 50px; margin: 0; text-align: center;\">+</p>","response":null,"trial_type":"html-keyboard-response","trial_index":125,"plugin_version":"2.1.0","time_elapsed":841167,"subject_id":"91057","group":"Group2","condition":"3_Rep","full_date":"2026-01-24T22:50:06.965Z","date":"2026-01-24","time":"22:50:06"},{"task":"memory_phase","broad_category":"M","image_png":"M_Marble_03.png","image_id":227,"category_name":"Marble","category":15,"distinct_rating":2.67,"distinct_type":"Bottom","rt":null,"stimulus":"Stimuli_Rocks480/M_Marble_03.png","response":null,"trial_type":"image-keyboard-response","trial_index":126,"plugin_version":"2.1.0","time_elapsed":843683,"subject_id":"91057","group":"Group2","condition":"3_Rep","full_date":"2026-01-24T22:50:06.965Z","date":"2026-01-24","time":"22:50:06"},{"rt":null,"stimulus":"<p style=\"font-size: 50px; margin: 0; text-align: center;\">+</p>","response":null,"trial_type":"html-keyboard-response","trial_index":127,"plugin_version":"2.1.0","time_elapsed":844685,"subject_id":"91057","group":"Group2","condition":"3_Rep","full_date":"2026-01-24T22:50:06.965Z","date":"2026-01-24","time":"22:50:06"},{"task":"memory_phase","broad_category":"I","image_png":"I_Rhyolite_08.png","image_id":152,"category_name":"Rhyolite","category":10,"distinct_rating":1.38,"distinct_type":"Bottom","rt":null,"stimulus":"Stimuli_Rocks480/I_Rhyolite_08.png","response":null,"trial_type":"image-keyboard-response","trial_index":128,"plugin_version":"2.1.0","time_elapsed":847188,"subject_id":"91057","group":"Group2","condition":"3_Rep","full_date":"2026-01-24T22:50:06.965Z","date":"2026-01-24","time":"22:50:06"},{"rt":null,"stimulus":"<p style=\"font-size: 50px; margin: 0; text-align: center;\">+</p>","response":null,"trial_type":"html-keyboard-response","trial_index":129,"plugin_version":"2.1.0","time_elapsed":848190,"subject_id":"91057","group":"Group2","condition":"3_Rep","full_date":"2026-01-24T22:50:06.965Z","date":"2026-01-24","time":"22:50:06"},{"task":"memory_phase","broad_category":"I","image_png":"I_Pegmatite_03.png","image_id":99,"category_name":"Pegmatite","category":7,"distinct_rating":7.24,"distinct_type":"Top","rt":null,"stimulus":"Stimuli_Rocks480/I_Pegmatite_03.png","response":null,"trial_type":"image-keyboard-response","trial_index":130,"plugin_version":"2.1.0","time_elapsed":850706,"subject_id":"91057","group":"Group2","condition":"3_Rep","full_date":"2026-01-24T22:50:06.965Z","date":"2026-01-24","time":"22:50:06"},{"rt":null,"stimulus":"<p style=\"font-size: 50px; margin: 0; text-align: center;\">+</p>","response":null,"trial_type":"html-keyboard-response","trial_index":131,"plugin_version":"2.1.0","time_elapsed":851708,"subject_id":"91057","group":"Group2","condition":"3_Rep","full_date":"2026-01-24T22:50:06.965Z","date":"2026-01-24","time":"22:50:06"},{"task":"memory_phase","broad_category":"I","image_png":"I_Pumice_14.png","image_id":142,"category_name":"Pumice","category":9,"distinct_rating":3.22,"distinct_type":"Bottom","rt":null,"stimulus":"Stimuli_Rocks480/I_Pumice_14.png","response":null,"trial_type":"image-keyboard-response","trial_index":132,"plugin_version":"2.1.0","time_elapsed":854223,"subject_id":"91057","group":"Group2","condition":"3_Rep","full_date":"2026-01-24T22:50:06.965Z","date":"2026-01-24","time":"22:50:06"},{"rt":null,"stimulus":"<p style=\"font-size: 50px; margin: 0; text-align: center;\">+</p>","response":null,"trial_type":"html-keyboard-response","trial_index":133,"plugin_version":"2.1.0","time_elapsed":855225,"subject_id":"91057","group":"Group2","condition":"3_Rep","full_date":"2026-01-24T22:50:06.965Z","date":"2026-01-24","time":"22:50:06"},{"task":"memory_phase","broad_category":"M","image_png":"M_Slate_14.png","image_id":318,"category_name":"Slate","category":20,"distinct_rating":2.58,"distinct_type":"Bottom","rt":null,"stimulus":"Stimuli_Rocks480/M_Slate_14.png","response":null,"trial_type":"image-keyboard-response","trial_index":134,"plugin_version":"2.1.0","time_elapsed":857738,"subject_id":"91057","group":"Group2","condition":"3_Rep","full_date":"2026-01-24T22:50:06.965Z","date":"2026-01-24","time":"22:50:06"},{"rt":null,"stimulus":"<p style=\"font-size: 50px; margin: 0; text-align: center;\">+</p>","response":null,"trial_type":"html-keyboard-response","trial_index":135,"plugin_version":"2.1.0","time_elapsed":858741,"subject_id":"91057","group":"Group2","condition":"3_Rep","full_date":"2026-01-24T22:50:06.965Z","date":"2026-01-24","time":"22:50:06"},{"task":"memory_phase","broad_category":"S","image_png":"S_Shale_02.png","image_id":466,"category_name":"Shale","category":30,"distinct_rating":2.9,"distinct_type":"Bottom","rt":null,"stimulus":"Stimuli_Rocks480/S_Shale_02.png","response":null,"trial_type":"image-keyboard-response","trial_index":136,"plugin_version":"2.1.0","time_elapsed":861255,"subject_id":"91057","group":"Group2","condition":"3_Rep","full_date":"2026-01-24T22:50:06.965Z","date":"2026-01-24","time":"22:50:06"},{"rt":null,"stimulus":"<p style=\"font-size: 50px; margin: 0; text-align: center;\">+</p>","response":null,"trial_type":"html-keyboard-response","trial_index":137,"plugin_version":"2.1.0","time_elapsed":862257,"subject_id":"91057","group":"Group2","condition":"3_Rep","full_date":"2026-01-24T22:50:06.965Z","date":"2026-01-24","time":"22:50:06"},{"task":"memory_phase","broad_category":"S","image_png":"S_Rock Salt_13.png","image_id":445,"category_name":"Rock Salt","category":28,"distinct_rating":7.58,"distinct_type":"Top","rt":null,"stimulus":"Stimuli_Rocks480/S_Rock Salt_13.png","response":null,"trial_type":"image-keyboard-response","trial_index":138,"plugin_version":"2.1.0","time_elapsed":864774,"subject_id":"91057","group":"Group2","condition":"3_Rep","full_date":"2026-01-24T22:50:06.965Z","date":"2026-01-24","time":"22:50:06"},{"rt":null,"stimulus":"<p style=\"font-size: 50px; margin: 0; text-align: center;\">+</p>","response":null,"trial_type":"html-keyboard-response","trial_index":139,"plugin_version":"2.1.0","time_elapsed":865776,"subject_id":"91057","group":"Group2","condition":"3_Rep","full_date":"2026-01-24T22:50:06.965Z","date":"2026-01-24","time":"22:50:06"},{"task":"memory_phase","broad_category":"M","image_png":"M_Quartzite_12.png","image_id":284,"category_name":"Quartzite","category":18,"distinct_rating":1.92,"distinct_type":"Bottom","rt":null,"stimulus":"Stimuli_Rocks480/M_Quartzite_12.png","response":null,"trial_type":"image-keyboard-response","trial_index":140,"plugin_version":"2.1.0","time_elapsed":868289,"subject_id":"91057","group":"Group2","condition":"3_Rep","full_date":"2026-01-24T22:50:06.965Z","date":"2026-01-24","time":"22:50:06"},{"rt":null,"stimulus":"<p style=\"font-size: 50px; margin: 0; text-align: center;\">+</p>","response":null,"trial_type":"html-keyboard-response","trial_index":141,"plugin_version":"2.1.0","time_elapsed":869291,"subject_id":"91057","group":"Group2","condition":"3_Rep","full_date":"2026-01-24T22:50:06.965Z","date":"2026-01-24","time":"22:50:06"},{"task":"memory_phase","broad_category":"I","image_png":"I_Andesite_03.png","image_id":3,"category_name":"Andesite","category":1,"distinct_rating":3.17,"distinct_type":"Bottom","rt":null,"stimulus":"Stimuli_Rocks480/I_Andesite_03.png","response":null,"trial_type":"image-keyboard-response","trial_index":142,"plugin_version":"2.1.0","time_elapsed":871804,"subject_id":"91057","group":"Group2","condition":"3_Rep","full_date":"2026-01-24T22:50:06.965Z","date":"2026-01-24","time":"22:50:06"},{"rt":null,"stimulus":"<p style=\"font-size: 50px; margin: 0; text-align: center;\">+</p>","response":null,"trial_type":"html-keyboard-response","trial_index":143,"plugin_version":"2.1.0","time_elapsed":872807,"subject_id":"91057","group":"Group2","condition":"3_Rep","full_date":"2026-01-24T22:50:06.965Z","date":"2026-01-24","time":"22:50:06"},{"task":"memory_phase","broad_category":"S","image_png":"S_Shale_07.png","image_id":471,"category_name":"Shale","category":30,"distinct_rating":2.73,"distinct_type":"Bottom","rt":null,"stimulus":"Stimuli_Rocks480/S_Shale_07.png","response":null,"trial_type":"image-keyboard-response","trial_index":144,"plugin_version":"2.1.0","time_elapsed":875309,"subject_id":"91057","group":"Group2","condition":"3_Rep","full_date":"2026-01-24T22:50:06.965Z","date":"2026-01-24","time":"22:50:06"},{"rt":null,"stimulus":"<p style=\"font-size: 50px; margin: 0; text-align: center;\">+</p>","response":null,"trial_type":"html-keyboard-response","trial_index":145,"plugin_version":"2.1.0","time_elapsed":876312,"subject_id":"91057","group":"Group2","condition":"3_Rep","full_date":"2026-01-24T22:50:06.965Z","date":"2026-01-24","time":"22:50:06"},{"task":"memory_phase","broad_category":"I","image_png":"I_Gabbro_12.png","image_id":60,"category_name":"Gabbro","category":4,"distinct_rating":2.6,"distinct_type":"Bottom","rt":null,"stimulus":"Stimuli_Rocks480/I_Gabbro_12.png","response":null,"trial_type":"image-keyboard-response","trial_index":146,"plugin_version":"2.1.0","time_elapsed":878815,"subject_id":"91057","group":"Group2","condition":"3_Rep","full_date":"2026-01-24T22:50:06.965Z","date":"2026-01-24","time":"22:50:06"},{"rt":null,"stimulus":"<p style=\"font-size: 50px; margin: 0; text-align: center;\">+</p>","response":null,"trial_type":"html-keyboard-response","trial_index":147,"plugin_version":"2.1.0","time_elapsed":879818,"subject_id":"91057","group":"Group2","condition":"3_Rep","full_date":"2026-01-24T22:50:06.965Z","date":"2026-01-24","time":"22:50:06"},{"task":"memory_phase","broad_category":"I","image_png":"I_Diorite_10.png","image_id":42,"category_name":"Diorite","category":3,"distinct_rating":2.84,"distinct_type":"Bottom","rt":null,"stimulus":"Stimuli_Rocks480/I_Diorite_10.png","response":null,"trial_type":"image-keyboard-response","trial_index":148,"plugin_version":"2.1.0","time_elapsed":882334,"subject_id":"91057","group":"Group2","condition":"3_Rep","full_date":"2026-01-24T22:50:06.965Z","date":"2026-01-24","time":"22:50:06"},{"rt":null,"stimulus":"<p style=\"font-size: 50px; margin: 0; text-align: center;\">+</p>","response":null,"trial_type":"html-keyboard-response","trial_index":149,"plugin_version":"2.1.0","time_elapsed":883336,"subject_id":"91057","group":"Group2","condition":"3_Rep","full_date":"2026-01-24T22:50:06.965Z","date":"2026-01-24","time":"22:50:06"},{"task":"memory_phase","broad_category":"S","image_png":"S_Sandstone_04.png","image_id":452,"category_name":"Sandstone","category":29,"distinct_rating":1.8,"distinct_type":"Bottom","rt":null,"stimulus":"Stimuli_Rocks480/S_Sandstone_04.png","response":null,"trial_type":"image-keyboard-response","trial_index":150,"plugin_version":"2.1.0","time_elapsed":885854,"subject_id":"91057","group":"Group2","condition":"3_Rep","full_date":"2026-01-24T22:50:06.965Z","date":"2026-01-24","time":"22:50:06"},{"rt":null,"stimulus":"<p style=\"font-size: 50px; margin: 0; text-align: center;\">+</p>","response":null,"trial_type":"html-keyboard-response","trial_index":151,"plugin_version":"2.1.0","time_elapsed":886856,"subject_id":"91057","group":"Group2","condition":"3_Rep","full_date":"2026-01-24T22:50:06.965Z","date":"2026-01-24","time":"22:50:06"},{"task":"memory_phase","broad_category":"M","image_png":"M_Gneiss_15.png","image_id":207,"category_name":"Gneiss","category":13,"distinct_rating":3.11,"distinct_type":"Bottom","rt":null,"stimulus":"Stimuli_Rocks480/M_Gneiss_15.png","response":null,"trial_type":"image-keyboard-response","trial_index":152,"plugin_version":"2.1.0","time_elapsed":889368,"subject_id":"91057","group":"Group2","condition":"3_Rep","full_date":"2026-01-24T22:50:06.965Z","date":"2026-01-24","time":"22:50:06"},{"rt":null,"stimulus":"<p style=\"font-size: 50px; margin: 0; text-align: center;\">+</p>","response":null,"trial_type":"html-keyboard-response","trial_index":153,"plugin_version":"2.1.0","time_elapsed":890370,"subject_id":"91057","group":"Group2","condition":"3_Rep","full_date":"2026-01-24T22:50:06.965Z","date":"2026-01-24","time":"22:50:06"},{"task":"memory_phase","broad_category":"I","image_png":"I_Andesite_09.png","image_id":9,"category_name":"Andesite","category":1,"distinct_rating":2.49,"distinct_type":"Bottom","rt":null,"stimulus":"Stimuli_Rocks480/I_Andesite_09.png","response":null,"trial_type":"image-keyboard-response","trial_index":154,"plugin_version":"2.1.0","time_elapsed":892884,"subject_id":"91057","group":"Group2","condition":"3_Rep","full_date":"2026-01-24T22:50:06.965Z","date":"2026-01-24","time":"22:50:06"},{"rt":null,"stimulus":"<p style=\"font-size: 50px; margin: 0; text-align: center;\">+</p>","response":null,"trial_type":"html-keyboard-response","trial_index":155,"plugin_version":"2.1.0","time_elapsed":893886,"subject_id":"91057","group":"Group2","condition":"3_Rep","full_date":"2026-01-24T22:50:06.965Z","date":"2026-01-24","time":"22:50:06"},{"task":"memory_phase","broad_category":"I","image_png":"I_Pegmatite_11.png","image_id":107,"category_name":"Pegmatite","category":7,"distinct_rating":7.11,"distinct_type":"Top","rt":null,"stimulus":"Stimuli_Rocks480/I_Pegmatite_11.png","response":null,"trial_type":"image-keyboard-response","trial_index":156,"plugin_version":"2.1.0","time_elapsed":896404,"subject_id":"91057","group":"Group2","condition":"3_Rep","full_date":"2026-01-24T22:50:06.965Z","date":"2026-01-24","time":"22:50:06"},{"rt":2111,"stimulus":"<p style=\"max-width: 760px; margin: auto; font-size: 35px; line-height: 1.5;\">\n                Press SPACE to continue study phase\n              </p>","response":" ","trial_type":"html-keyboard-response","trial_index":157,"plugin_version":"2.1.0","time_elapsed":898518,"subject_id":"91057","group":"Group2","condition":"3_Rep","full_date":"2026-01-24T22:50:06.965Z","date":"2026-01-24","time":"22:50:06"},{"rt":null,"stimulus":"<p style=\"font-size: 50px; margin: 0; text-align: center;\">+</p>","response":null,"trial_type":"html-keyboard-response","trial_index":158,"plugin_version":"2.1.0","time_elapsed":899520,"subject_id":"91057","group":"Group2","condition":"3_Rep","full_date":"2026-01-24T22:50:06.965Z","date":"2026-01-24","time":"22:50:06"},{"task":"memory_phase","broad_category":"I","image_png":"I_Pumice_13.png","image_id":141,"category_name":"Pumice","category":9,"distinct_rating":3.12,"distinct_type":"Bottom","rt":null,"stimulus":"Stimuli_Rocks480/I_Pumice_13.png","response":null,"trial_type":"image-keyboard-response","trial_index":159,"plugin_version":"2.1.0","time_elapsed":902037,"subject_id":"91057","group":"Group2","condition":"3_Rep","full_date":"2026-01-24T22:50:06.965Z","date":"2026-01-24","time":"22:50:06"},{"rt":null,"stimulus":"<p style=\"font-size: 50px; margin: 0; text-align: center;\">+</p>","response":null,"trial_type":"html-keyboard-response","trial_index":160,"plugin_version":"2.1.0","time_elapsed":903039,"subject_id":"91057","group":"Group2","condition":"3_Rep","full_date":"2026-01-24T22:50:06.965Z","date":"2026-01-24","time":"22:50:06"},{"task":"memory_phase","broad_category":"M","image_png":"M_Phyllite_13.png","image_id":269,"category_name":"Phyllite","category":17,"distinct_rating":2.8,"distinct_type":"Bottom","rt":null,"stimulus":"Stimuli_Rocks480/M_Phyllite_13.png","response":null,"trial_type":"image-keyboard-response","trial_index":161,"plugin_version":"2.1.0","time_elapsed":905554,"subject_id":"91057","group":"Group2","condition":"3_Rep","full_date":"2026-01-24T22:50:06.965Z","date":"2026-01-24","time":"22:50:06"},{"rt":null,"stimulus":"<p style=\"font-size: 50px; margin: 0; text-align: center;\">+</p>","response":null,"trial_type":"html-keyboard-response","trial_index":162,"plugin_version":"2.1.0","time_elapsed":906556,"subject_id":"91057","group":"Group2","condition":"3_Rep","full_date":"2026-01-24T22:50:06.965Z","date":"2026-01-24","time":"22:50:06"},{"task":"memory_phase","broad_category":"I","image_png":"I_Gabbro_14.png","image_id":62,"category_name":"Gabbro","category":4,"distinct_rating":2.95,"distinct_type":"Bottom","rt":null,"stimulus":"Stimuli_Rocks480/I_Gabbro_14.png","response":null,"trial_type":"image-keyboard-response","trial_index":163,"plugin_version":"2.1.0","time_elapsed":909074,"subject_id":"91057","group":"Group2","condition":"3_Rep","full_date":"2026-01-24T22:50:06.965Z","date":"2026-01-24","time":"22:50:06"},{"rt":null,"stimulus":"<p style=\"font-size: 50px; margin: 0; text-align: center;\">+</p>","response":null,"trial_type":"html-keyboard-response","trial_index":164,"plugin_version":"2.1.0","time_elapsed":910075,"subject_id":"91057","group":"Group2","condition":"3_Rep","full_date":"2026-01-24T22:50:06.965Z","date":"2026-01-24","time":"22:50:06"},{"task":"memory_phase","broad_category":"S","image_png":"S_Sandstone_11.png","image_id":459,"category_name":"Sandstone","category":29,"distinct_rating":1.82,"distinct_type":"Bottom","rt":null,"stimulus":"Stimuli_Rocks480/S_Sandstone_11.png","response":null,"trial_type":"image-keyboard-response","trial_index":165,"plugin_version":"2.1.0","time_elapsed":912593,"subject_id":"91057","group":"Group2","condition":"3_Rep","full_date":"2026-01-24T22:50:06.965Z","date":"2026-01-24","time":"22:50:06"},{"rt":null,"stimulus":"<p style=\"font-size: 50px; margin: 0; text-align: center;\">+</p>","response":null,"trial_type":"html-keyboard-response","trial_index":166,"plugin_version":"2.1.0","time_elapsed":913596,"subject_id":"91057","group":"Group2","condition":"3_Rep","full_date":"2026-01-24T22:50:06.965Z","date":"2026-01-24","time":"22:50:06"},{"task":"memory_phase","broad_category":"S","image_png":"S_Dolomite_07.png","image_id":391,"category_name":"Dolomite","category":25,"distinct_rating":1.73,"distinct_type":"Bottom","rt":null,"stimulus":"Stimuli_Rocks480/S_Dolomite_07.png","response":null,"trial_type":"image-keyboard-response","trial_index":167,"plugin_version":"2.1.0","time_elapsed":916110,"subject_id":"91057","group":"Group2","condition":"3_Rep","full_date":"2026-01-24T22:50:06.965Z","date":"2026-01-24","time":"22:50:06"},{"rt":null,"stimulus":"<p style=\"font-size: 50px; margin: 0; text-align: center;\">+</p>","response":null,"trial_type":"html-keyboard-response","trial_index":168,"plugin_version":"2.1.0","time_elapsed":917112,"subject_id":"91057","group":"Group2","condition":"3_Rep","full_date":"2026-01-24T22:50:06.965Z","date":"2026-01-24","time":"22:50:06"},{"task":"memory_phase","broad_category":"M","image_png":"M_Quartzite_07.png","image_id":279,"category_name":"Quartzite","category":18,"distinct_rating":1.97,"distinct_type":"Bottom","rt":null,"stimulus":"Stimuli_Rocks480/M_Quartzite_07.png","response":null,"trial_type":"image-keyboard-response","trial_index":169,"plugin_version":"2.1.0","time_elapsed":919629,"subject_id":"91057","group":"Group2","condition":"3_Rep","full_date":"2026-01-24T22:50:06.965Z","date":"2026-01-24","time":"22:50:06"},{"rt":null,"stimulus":"<p style=\"font-size: 50px; margin: 0; text-align: center;\">+</p>","response":null,"trial_type":"html-keyboard-response","trial_index":170,"plugin_version":"2.1.0","time_elapsed":920631,"subject_id":"91057","group":"Group2","condition":"3_Rep","full_date":"2026-01-24T22:50:06.965Z","date":"2026-01-24","time":"22:50:06"},{"task":"memory_phase","broad_category":"S","image_png":"S_Dolomite_16.png","image_id":400,"category_name":"Dolomite","category":25,"distinct_rating":1.71,"distinct_type":"Bottom","rt":null,"stimulus":"Stimuli_Rocks480/S_Dolomite_16.png","response":null,"trial_type":"image-keyboard-response","trial_index":171,"plugin_version":"2.1.0","time_elapsed":923145,"subject_id":"91057","group":"Group2","condition":"3_Rep","full_date":"2026-01-24T22:50:06.965Z","date":"2026-01-24","time":"22:50:06"},{"rt":null,"stimulus":"<p style=\"font-size: 50px; margin: 0; text-align: center;\">+</p>","response":null,"trial_type":"html-keyboard-response","trial_index":172,"plugin_version":"2.1.0","time_elapsed":924147,"subject_id":"91057","group":"Group2","condition":"3_Rep","full_date":"2026-01-24T22:50:06.965Z","date":"2026-01-24","time":"22:50:06"},{"task":"memory_phase","broad_category":"M","image_png":"M_Slate_04.png","image_id":308,"category_name":"Slate","category":20,"distinct_rating":2.2,"distinct_type":"Bottom","rt":null,"stimulus":"Stimuli_Rocks480/M_Slate_04.png","response":null,"trial_type":"image-keyboard-response","trial_index":173,"plugin_version":"2.1.0","time_elapsed":926661,"subject_id":"91057","group":"Group2","condition":"3_Rep","full_date":"2026-01-24T22:50:06.965Z","date":"2026-01-24","time":"22:50:06"},{"rt":null,"stimulus":"<p style=\"font-size: 50px; margin: 0; text-align: center;\">+</p>","response":null,"trial_type":"html-keyboard-response","trial_index":174,"plugin_version":"2.1.0","time_elapsed":927663,"subject_id":"91057","group":"Group2","condition":"3_Rep","full_date":"2026-01-24T22:50:06.965Z","date":"2026-01-24","time":"22:50:06"},{"task":"memory_phase","broad_category":"I","image_png":"I_Diorite_01.png","image_id":33,"category_name":"Diorite","category":3,"distinct_rating":2.97,"distinct_type":"Bottom","rt":null,"stimulus":"Stimuli_Rocks480/I_Diorite_01.png","response":null,"trial_type":"image-keyboard-response","trial_index":175,"plugin_version":"2.1.0","time_elapsed":930181,"subject_id":"91057","group":"Group2","condition":"3_Rep","full_date":"2026-01-24T22:50:06.965Z","date":"2026-01-24","time":"22:50:06"},{"rt":null,"stimulus":"<p style=\"font-size: 50px; margin: 0; text-align: center;\">+</p>","response":null,"trial_type":"html-keyboard-response","trial_index":176,"plugin_version":"2.1.0","time_elapsed":931183,"subject_id":"91057","group":"Group2","condition":"3_Rep","full_date":"2026-01-24T22:50:06.965Z","date":"2026-01-24","time":"22:50:06"},{"task":"memory_phase","broad_category":"M","image_png":"M_Gneiss_14.png","image_id":206,"category_name":"Gneiss","category":13,"distinct_rating":3.41,"distinct_type":"Bottom","rt":null,"stimulus":"Stimuli_Rocks480/M_Gneiss_14.png","response":null,"trial_type":"image-keyboard-response","trial_index":177,"plugin_version":"2.1.0","time_elapsed":933699,"subject_id":"91057","group":"Group2","condition":"3_Rep","full_date":"2026-01-24T22:50:06.965Z","date":"2026-01-24","time":"22:50:06"},{"rt":null,"stimulus":"<p style=\"font-size: 50px; margin: 0; text-align: center;\">+</p>","response":null,"trial_type":"html-keyboard-response","trial_index":178,"plugin_version":"2.1.0","time_elapsed":934701,"subject_id":"91057","group":"Group2","condition":"3_Rep","full_date":"2026-01-24T22:50:06.965Z","date":"2026-01-24","time":"22:50:06"},{"task":"memory_phase","broad_category":"M","image_png":"M_Gneiss_10.png","image_id":202,"category_name":"Gneiss","category":13,"distinct_rating":3.09,"distinct_type":"Bottom","rt":null,"stimulus":"Stimuli_Rocks480/M_Gneiss_10.png","response":null,"trial_type":"image-keyboard-response","trial_index":179,"plugin_version":"2.1.0","time_elapsed":937215,"subject_id":"91057","group":"Group2","condition":"3_Rep","full_date":"2026-01-24T22:50:06.965Z","date":"2026-01-24","time":"22:50:06"},{"rt":null,"stimulus":"<p style=\"font-size: 50px; margin: 0; text-align: center;\">+</p>","response":null,"trial_type":"html-keyboard-response","trial_index":180,"plugin_version":"2.1.0","time_elapsed":938217,"subject_id":"91057","group":"Group2","condition":"3_Rep","full_date":"2026-01-24T22:50:06.965Z","date":"2026-01-24","time":"22:50:06"},{"task":"memory_phase","broad_category":"I","image_png":"I_Basalt_10.png","image_id":26,"category_name":"Basalt","category":2,"distinct_rating":2.76,"distinct_type":"Bottom","rt":null,"stimulus":"Stimuli_Rocks480/I_Basalt_10.png","response":null,"trial_type":"image-keyboard-response","trial_index":181,"plugin_version":"2.1.0","time_elapsed":940733,"subject_id":"91057","group":"Group2","condition":"3_Rep","full_date":"2026-01-24T22:50:06.965Z","date":"2026-01-24","time":"22:50:06"},{"rt":null,"stimulus":"<p style=\"font-size: 50px; margin: 0; text-align: center;\">+</p>","response":null,"trial_type":"html-keyboard-response","trial_index":182,"plugin_version":"2.1.0","time_elapsed":941735,"subject_id":"91057","group":"Group2","condition":"3_Rep","full_date":"2026-01-24T22:50:06.965Z","date":"2026-01-24","time":"22:50:06"},{"task":"memory_phase","broad_category":"M","image_png":"M_Phyllite_02.png","image_id":258,"category_name":"Phyllite","category":17,"distinct_rating":2.89,"distinct_type":"Bottom","rt":null,"stimulus":"Stimuli_Rocks480/M_Phyllite_02.png","response":null,"trial_type":"image-keyboard-response","trial_index":183,"plugin_version":"2.1.0","time_elapsed":944251,"subject_id":"91057","group":"Group2","condition":"3_Rep","full_date":"2026-01-24T22:50:06.965Z","date":"2026-01-24","time":"22:50:06"},{"rt":null,"stimulus":"<p style=\"font-size: 50px; margin: 0; text-align: center;\">+</p>","response":null,"trial_type":"html-keyboard-response","trial_index":184,"plugin_version":"2.1.0","time_elapsed":945253,"subject_id":"91057","group":"Group2","condition":"3_Rep","full_date":"2026-01-24T22:50:06.965Z","date":"2026-01-24","time":"22:50:06"},{"task":"memory_phase","broad_category":"S","image_png":"S_Conglomerate_14.png","image_id":382,"category_name":"Conglomerate","category":24,"distinct_rating":6.86,"distinct_type":"Top","rt":null,"stimulus":"Stimuli_Rocks480/S_Conglomerate_14.png","response":null,"trial_type":"image-keyboard-response","trial_index":185,"plugin_version":"2.1.0","time_elapsed":947767,"subject_id":"91057","group":"Group2","condition":"3_Rep","full_date":"2026-01-24T22:50:06.965Z","date":"2026-01-24","time":"22:50:06"},{"rt":null,"stimulus":"<p style=\"font-size: 50px; margin: 0; text-align: center;\">+</p>","response":null,"trial_type":"html-keyboard-response","trial_index":186,"plugin_version":"2.1.0","time_elapsed":948768,"subject_id":"91057","group":"Group2","condition":"3_Rep","full_date":"2026-01-24T22:50:06.965Z","date":"2026-01-24","time":"22:50:06"},{"task":"memory_phase","broad_category":"I","image_png":"I_Pumice_01.png","image_id":129,"category_name":"Pumice","category":9,"distinct_rating":3.25,"distinct_type":"Bottom","rt":null,"stimulus":"Stimuli_Rocks480/I_Pumice_01.png","response":null,"trial_type":"image-keyboard-response","trial_index":187,"plugin_version":"2.1.0","time_elapsed":951284,"subject_id":"91057","group":"Group2","condition":"3_Rep","full_date":"2026-01-24T22:50:06.965Z","date":"2026-01-24","time":"22:50:06"},{"rt":null,"stimulus":"<p style=\"font-size: 50px; margin: 0; text-align: center;\">+</p>","response":null,"trial_type":"html-keyboard-response","trial_index":188,"plugin_version":"2.1.0","time_elapsed":952286,"subject_id":"91057","group":"Group2","condition":"3_Rep","full_date":"2026-01-24T22:50:06.965Z","date":"2026-01-24","time":"22:50:06"},{"task":"memory_phase","broad_category":"I","image_png":"I_Rhyolite_10.png","image_id":154,"category_name":"Rhyolite","category":10,"distinct_rating":2.88,"distinct_type":"Bottom","rt":null,"stimulus":"Stimuli_Rocks480/I_Rhyolite_10.png","response":null,"trial_type":"image-keyboard-response","trial_index":189,"plugin_version":"2.1.0","time_elapsed":954805,"subject_id":"91057","group":"Group2","condition":"3_Rep","full_date":"2026-01-24T22:50:06.965Z","date":"2026-01-24","time":"22:50:06"},{"rt":null,"stimulus":"<p style=\"font-size: 50px; margin: 0; text-align: center;\">+</p>","response":null,"trial_type":"html-keyboard-response","trial_index":190,"plugin_version":"2.1.0","time_elapsed":955808,"subject_id":"91057","group":"Group2","condition":"3_Rep","full_date":"2026-01-24T22:50:06.965Z","date":"2026-01-24","time":"22:50:06"},{"task":"memory_phase","broad_category":"I","image_png":"I_Gabbro_02.png","image_id":50,"category_name":"Gabbro","category":4,"distinct_rating":2.73,"distinct_type":"Bottom","rt":null,"stimulus":"Stimuli_Rocks480/I_Gabbro_02.png","response":null,"trial_type":"image-keyboard-response","trial_index":191,"plugin_version":"2.1.0","time_elapsed":958322,"subject_id":"91057","group":"Group2","condition":"3_Rep","full_date":"2026-01-24T22:50:06.965Z","date":"2026-01-24","time":"22:50:06"},{"rt":null,"stimulus":"<p style=\"font-size: 50px; margin: 0; text-align: center;\">+</p>","response":null,"trial_type":"html-keyboard-response","trial_index":192,"plugin_version":"2.1.0","time_elapsed":959325,"subject_id":"91057","group":"Group2","condition":"3_Rep","full_date":"2026-01-24T22:50:06.965Z","date":"2026-01-24","time":"22:50:06"},{"task":"memory_phase","broad_category":"M","image_png":"M_Slate_10.png","image_id":314,"category_name":"Slate","category":20,"distinct_rating":1.94,"distinct_type":"Bottom","rt":null,"stimulus":"Stimuli_Rocks480/M_Slate_10.png","response":null,"trial_type":"image-keyboard-response","trial_index":193,"plugin_version":"2.1.0","time_elapsed":961837,"subject_id":"91057","group":"Group2","condition":"3_Rep","full_date":"2026-01-24T22:50:06.965Z","date":"2026-01-24","time":"22:50:06"},{"rt":null,"stimulus":"<p style=\"font-size: 50px; margin: 0; text-align: center;\">+</p>","response":null,"trial_type":"html-keyboard-response","trial_index":194,"plugin_version":"2.1.0","time_elapsed":962840,"subject_id":"91057","group":"Group2","condition":"3_Rep","full_date":"2026-01-24T22:50:06.965Z","date":"2026-01-24","time":"22:50:06"},{"task":"memory_phase","broad_category":"S","image_png":"S_Dolomite_01.png","image_id":385,"category_name":"Dolomite","category":25,"distinct_rating":1.43,"distinct_type":"Bottom","rt":null,"stimulus":"Stimuli_Rocks480/S_Dolomite_01.png","response":null,"trial_type":"image-keyboard-response","trial_index":195,"plugin_version":"2.1.0","time_elapsed":965358,"subject_id":"91057","group":"Group2","condition":"3_Rep","full_date":"2026-01-24T22:50:06.965Z","date":"2026-01-24","time":"22:50:06"},{"rt":null,"stimulus":"<p style=\"font-size: 50px; margin: 0; text-align: center;\">+</p>","response":null,"trial_type":"html-keyboard-response","trial_index":196,"plugin_version":"2.1.0","time_elapsed":966360,"subject_id":"91057","group":"Group2","condition":"3_Rep","full_date":"2026-01-24T22:50:06.965Z","date":"2026-01-24","time":"22:50:06"},{"task":"memory_phase","broad_category":"S","image_png":"S_Rock Salt_15.png","image_id":447,"category_name":"Rock Salt","category":28,"distinct_rating":7.79,"distinct_type":"Top","rt":null,"stimulus":"Stimuli_Rocks480/S_Rock Salt_15.png","response":null,"trial_type":"image-keyboard-response","trial_index":197,"plugin_version":"2.1.0","time_elapsed":968877,"subject_id":"91057","group":"Group2","condition":"3_Rep","full_date":"2026-01-24T22:50:06.965Z","date":"2026-01-24","time":"22:50:06"},{"rt":null,"stimulus":"<p style=\"font-size: 50px; margin: 0; text-align: center;\">+</p>","response":null,"trial_type":"html-keyboard-response","trial_index":198,"plugin_version":"2.1.0","time_elapsed":969879,"subject_id":"91057","group":"Group2","condition":"3_Rep","full_date":"2026-01-24T22:50:06.965Z","date":"2026-01-24","time":"22:50:06"},{"task":"memory_phase","broad_category":"M","image_png":"M_Quartzite_15.png","image_id":287,"category_name":"Quartzite","category":18,"distinct_rating":2.19,"distinct_type":"Bottom","rt":null,"stimulus":"Stimuli_Rocks480/M_Quartzite_15.png","response":null,"trial_type":"image-keyboard-response","trial_index":199,"plugin_version":"2.1.0","time_elapsed":972397,"subject_id":"91057","group":"Group2","condition":"3_Rep","full_date":"2026-01-24T22:50:06.965Z","date":"2026-01-24","time":"22:50:06"},{"rt":null,"stimulus":"<p style=\"font-size: 50px; margin: 0; text-align: center;\">+</p>","response":null,"trial_type":"html-keyboard-response","trial_index":200,"plugin_version":"2.1.0","time_elapsed":973399,"subject_id":"91057","group":"Group2","condition":"3_Rep","full_date":"2026-01-24T22:50:06.965Z","date":"2026-01-24","time":"22:50:06"},{"task":"memory_phase","broad_category":"I","image_png":"I_Rhyolite_05.png","image_id":149,"category_name":"Rhyolite","category":10,"distinct_rating":3.02,"distinct_type":"Bottom","rt":null,"stimulus":"Stimuli_Rocks480/I_Rhyolite_05.png","response":null,"trial_type":"image-keyboard-response","trial_index":201,"plugin_version":"2.1.0","time_elapsed":975916,"subject_id":"91057","group":"Group2","condition":"3_Rep","full_date":"2026-01-24T22:50:06.965Z","date":"2026-01-24","time":"22:50:06"},{"rt":null,"stimulus":"<p style=\"font-size: 50px; margin: 0; text-align: center;\">+</p>","response":null,"trial_type":"html-keyboard-response","trial_index":202,"plugin_version":"2.1.0","time_elapsed":976918,"subject_id":"91057","group":"Group2","condition":"3_Rep","full_date":"2026-01-24T22:50:06.965Z","date":"2026-01-24","time":"22:50:06"},{"task":"memory_phase","broad_category":"M","image_png":"M_Phyllite_05.png","image_id":261,"category_name":"Phyllite","category":17,"distinct_rating":2.14,"distinct_type":"Bottom","rt":null,"stimulus":"Stimuli_Rocks480/M_Phyllite_05.png","response":null,"trial_type":"image-keyboard-response","trial_index":203,"plugin_version":"2.1.0","time_elapsed":979432,"subject_id":"91057","group":"Group2","condition":"3_Rep","full_date":"2026-01-24T22:50:06.965Z","date":"2026-01-24","time":"22:50:06"},{"rt":null,"stimulus":"<p style=\"font-size: 50px; margin: 0; text-align: center;\">+</p>","response":null,"trial_type":"html-keyboard-response","trial_index":204,"plugin_version":"2.1.0","time_elapsed":980434,"subject_id":"91057","group":"Group2","condition":"3_Rep","full_date":"2026-01-24T22:50:06.965Z","date":"2026-01-24","time":"22:50:06"},{"task":"memory_phase","broad_category":"I","image_png":"I_Obsidian_06.png","image_id":86,"category_name":"Obsidian","category":6,"distinct_rating":8.01,"distinct_type":"Top","rt":null,"stimulus":"Stimuli_Rocks480/I_Obsidian_06.png","response":null,"trial_type":"image-keyboard-response","trial_index":205,"plugin_version":"2.1.0","time_elapsed":982951,"subject_id":"91057","group":"Group2","condition":"3_Rep","full_date":"2026-01-24T22:50:06.965Z","date":"2026-01-24","time":"22:50:06"},{"rt":null,"stimulus":"<p style=\"font-size: 50px; margin: 0; text-align: center;\">+</p>","response":null,"trial_type":"html-keyboard-response","trial_index":206,"plugin_version":"2.1.0","time_elapsed":983953,"subject_id":"91057","group":"Group2","condition":"3_Rep","full_date":"2026-01-24T22:50:06.965Z","date":"2026-01-24","time":"22:50:06"},{"task":"memory_phase","broad_category":"M","image_png":"M_Marble_14.png","image_id":238,"category_name":"Marble","category":15,"distinct_rating":3.31,"distinct_type":"Bottom","rt":null,"stimulus":"Stimuli_Rocks480/M_Marble_14.png","response":null,"trial_type":"image-keyboard-response","trial_index":207,"plugin_version":"2.1.0","time_elapsed":986469,"subject_id":"91057","group":"Group2","condition":"3_Rep","full_date":"2026-01-24T22:50:06.965Z","date":"2026-01-24","time":"22:50:06"},{"rt":4547,"stimulus":"<p style=\"max-width: 760px; margin: auto; font-size: 35px; line-height: 1.5;\">\n                You have completed 2 study phases. \n                Now, we'll show you all the images again 1 more time.\n                <br><br>Press SPACE to continue\n              </p>","response":" ","trial_type":"html-keyboard-response","trial_index":208,"plugin_version":"2.1.0","time_elapsed":991017,"subject_id":"91057","group":"Group2","condition":"3_Rep","full_date":"2026-01-24T22:50:06.965Z","date":"2026-01-24","time":"22:50:06"},{"rt":null,"stimulus":"<p style=\"font-size: 50px; margin: 0; text-align: center;\">+</p>","response":null,"trial_type":"html-keyboard-response","trial_index":209,"plugin_version":"2.1.0","time_elapsed":992019,"subject_id":"91057","group":"Group2","condition":"3_Rep","full_date":"2026-01-24T22:50:06.965Z","date":"2026-01-24","time":"22:50:06"},{"task":"memory_phase","broad_category":"I","image_png":"I_Basalt_13.png","image_id":29,"category_name":"Basalt","category":2,"distinct_rating":2.68,"distinct_type":"Bottom","rt":null,"stimulus":"Stimuli_Rocks480/I_Basalt_13.png","response":null,"trial_type":"image-keyboard-response","trial_index":210,"plugin_version":"2.1.0","time_elapsed":994534,"subject_id":"91057","group":"Group2","condition":"3_Rep","full_date":"2026-01-24T22:50:06.965Z","date":"2026-01-24","time":"22:50:06"},{"rt":null,"stimulus":"<p style=\"font-size: 50px; margin: 0; text-align: center;\">+</p>","response":null,"trial_type":"html-keyboard-response","trial_index":211,"plugin_version":"2.1.0","time_elapsed":995537,"subject_id":"91057","group":"Group2","condition":"3_Rep","full_date":"2026-01-24T22:50:06.965Z","date":"2026-01-24","time":"22:50:06"},{"task":"memory_phase","broad_category":"I","image_png":"I_Diorite_15.png","image_id":47,"category_name":"Diorite","category":3,"distinct_rating":3.05,"distinct_type":"Bottom","rt":null,"stimulus":"Stimuli_Rocks480/I_Diorite_15.png","response":null,"trial_type":"image-keyboard-response","trial_index":212,"plugin_version":"2.1.0","time_elapsed":998057,"subject_id":"91057","group":"Group2","condition":"3_Rep","full_date":"2026-01-24T22:50:06.965Z","date":"2026-01-24","time":"22:50:06"},{"rt":null,"stimulus":"<p style=\"font-size: 50px; margin: 0; text-align: center;\">+</p>","response":null,"trial_type":"html-keyboard-response","trial_index":213,"plugin_version":"2.1.0","time_elapsed":999059,"subject_id":"91057","group":"Group2","condition":"3_Rep","full_date":"2026-01-24T22:50:06.965Z","date":"2026-01-24","time":"22:50:06"},{"task":"memory_phase","broad_category":"M","image_png":"M_Gneiss_15.png","image_id":207,"category_name":"Gneiss","category":13,"distinct_rating":3.11,"distinct_type":"Bottom","rt":null,"stimulus":"Stimuli_Rocks480/M_Gneiss_15.png","response":null,"trial_type":"image-keyboard-response","trial_index":214,"plugin_version":"2.1.0","time_elapsed":1001571,"subject_id":"91057","group":"Group2","condition":"3_Rep","full_date":"2026-01-24T22:50:06.965Z","date":"2026-01-24","time":"22:50:06"},{"rt":null,"stimulus":"<p style=\"font-size: 50px; margin: 0; text-align: center;\">+</p>","response":null,"trial_type":"html-keyboard-response","trial_index":215,"plugin_version":"2.1.0","time_elapsed":1002573,"subject_id":"91057","group":"Group2","condition":"3_Rep","full_date":"2026-01-24T22:50:06.965Z","date":"2026-01-24","time":"22:50:06"},{"task":"memory_phase","broad_category":"I","image_png":"I_Pegmatite_11.png","image_id":107,"category_name":"Pegmatite","category":7,"distinct_rating":7.11,"distinct_type":"Top","rt":null,"stimulus":"Stimuli_Rocks480/I_Pegmatite_11.png","response":null,"trial_type":"image-keyboard-response","trial_index":216,"plugin_version":"2.1.0","time_elapsed":1005091,"subject_id":"91057","group":"Group2","condition":"3_Rep","full_date":"2026-01-24T22:50:06.965Z","date":"2026-01-24","time":"22:50:06"},{"rt":null,"stimulus":"<p style=\"font-size: 50px; margin: 0; text-align: center;\">+</p>","response":null,"trial_type":"html-keyboard-response","trial_index":217,"plugin_version":"2.1.0","time_elapsed":1006093,"subject_id":"91057","group":"Group2","condition":"3_Rep","full_date":"2026-01-24T22:50:06.965Z","date":"2026-01-24","time":"22:50:06"},{"task":"memory_phase","broad_category":"M","image_png":"M_Phyllite_13.png","image_id":269,"category_name":"Phyllite","category":17,"distinct_rating":2.8,"distinct_type":"Bottom","rt":null,"stimulus":"Stimuli_Rocks480/M_Phyllite_13.png","response":null,"trial_type":"image-keyboard-response","trial_index":218,"plugin_version":"2.1.0","time_elapsed":1008608,"subject_id":"91057","group":"Group2","condition":"3_Rep","full_date":"2026-01-24T22:50:06.965Z","date":"2026-01-24","time":"22:50:06"},{"rt":null,"stimulus":"<p style=\"font-size: 50px; margin: 0; text-align: center;\">+</p>","response":null,"trial_type":"html-keyboard-response","trial_index":219,"plugin_version":"2.1.0","time_elapsed":1009610,"subject_id":"91057","group":"Group2","condition":"3_Rep","full_date":"2026-01-24T22:50:06.965Z","date":"2026-01-24","time":"22:50:06"},{"task":"memory_phase","broad_category":"I","image_png":"I_Gabbro_02.png","image_id":50,"category_name":"Gabbro","category":4,"distinct_rating":2.73,"distinct_type":"Bottom","rt":null,"stimulus":"Stimuli_Rocks480/I_Gabbro_02.png","response":null,"trial_type":"image-keyboard-response","trial_index":220,"plugin_version":"2.1.0","time_elapsed":1012113,"subject_id":"91057","group":"Group2","condition":"3_Rep","full_date":"2026-01-24T22:50:06.965Z","date":"2026-01-24","time":"22:50:06"},{"rt":null,"stimulus":"<p style=\"font-size: 50px; margin: 0; text-align: center;\">+</p>","response":null,"trial_type":"html-keyboard-response","trial_index":221,"plugin_version":"2.1.0","time_elapsed":1013115,"subject_id":"91057","group":"Group2","condition":"3_Rep","full_date":"2026-01-24T22:50:06.965Z","date":"2026-01-24","time":"22:50:06"},{"task":"memory_phase","broad_category":"I","image_png":"I_Pumice_14.png","image_id":142,"category_name":"Pumice","category":9,"distinct_rating":3.22,"distinct_type":"Bottom","rt":null,"stimulus":"Stimuli_Rocks480/I_Pumice_14.png","response":null,"trial_type":"image-keyboard-response","trial_index":222,"plugin_version":"2.1.0","time_elapsed":1015631,"subject_id":"91057","group":"Group2","condition":"3_Rep","full_date":"2026-01-24T22:50:06.965Z","date":"2026-01-24","time":"22:50:06"},{"rt":null,"stimulus":"<p style=\"font-size: 50px; margin: 0; text-align: center;\">+</p>","response":null,"trial_type":"html-keyboard-response","trial_index":223,"plugin_version":"2.1.0","time_elapsed":1016633,"subject_id":"91057","group":"Group2","condition":"3_Rep","full_date":"2026-01-24T22:50:06.965Z","date":"2026-01-24","time":"22:50:06"},{"task":"memory_phase","broad_category":"M","image_png":"M_Slate_10.png","image_id":314,"category_name":"Slate","category":20,"distinct_rating":1.94,"distinct_type":"Bottom","rt":null,"stimulus":"Stimuli_Rocks480/M_Slate_10.png","response":null,"trial_type":"image-keyboard-response","trial_index":224,"plugin_version":"2.1.0","time_elapsed":1019136,"subject_id":"91057","group":"Group2","condition":"3_Rep","full_date":"2026-01-24T22:50:06.965Z","date":"2026-01-24","time":"22:50:06"},{"rt":null,"stimulus":"<p style=\"font-size: 50px; margin: 0; text-align: center;\">+</p>","response":null,"trial_type":"html-keyboard-response","trial_index":225,"plugin_version":"2.1.0","time_elapsed":1020138,"subject_id":"91057","group":"Group2","condition":"3_Rep","full_date":"2026-01-24T22:50:06.965Z","date":"2026-01-24","time":"22:50:06"},{"task":"memory_phase","broad_category":"S","image_png":"S_Dolomite_16.png","image_id":400,"category_name":"Dolomite","category":25,"distinct_rating":1.71,"distinct_type":"Bottom","rt":null,"stimulus":"Stimuli_Rocks480/S_Dolomite_16.png","response":null,"trial_type":"image-keyboard-response","trial_index":226,"plugin_version":"2.1.0","time_elapsed":1022653,"subject_id":"91057","group":"Group2","condition":"3_Rep","full_date":"2026-01-24T22:50:06.965Z","date":"2026-01-24","time":"22:50:06"},{"rt":null,"stimulus":"<p style=\"font-size: 50px; margin: 0; text-align: center;\">+</p>","response":null,"trial_type":"html-keyboard-response","trial_index":227,"plugin_version":"2.1.0","time_elapsed":1023655,"subject_id":"91057","group":"Group2","condition":"3_Rep","full_date":"2026-01-24T22:50:06.965Z","date":"2026-01-24","time":"22:50:06"},{"task":"memory_phase","broad_category":"S","image_png":"S_Sandstone_11.png","image_id":459,"category_name":"Sandstone","category":29,"distinct_rating":1.82,"distinct_type":"Bottom","rt":null,"stimulus":"Stimuli_Rocks480/S_Sandstone_11.png","response":null,"trial_type":"image-keyboard-response","trial_index":228,"plugin_version":"2.1.0","time_elapsed":1026174,"subject_id":"91057","group":"Group2","condition":"3_Rep","full_date":"2026-01-24T22:50:06.965Z","date":"2026-01-24","time":"22:50:06"},{"rt":null,"stimulus":"<p style=\"font-size: 50px; margin: 0; text-align: center;\">+</p>","response":null,"trial_type":"html-keyboard-response","trial_index":229,"plugin_version":"2.1.0","time_elapsed":1027176,"subject_id":"91057","group":"Group2","condition":"3_Rep","full_date":"2026-01-24T22:50:06.965Z","date":"2026-01-24","time":"22:50:06"},{"task":"memory_phase","broad_category":"S","image_png":"S_Dolomite_01.png","image_id":385,"category_name":"Dolomite","category":25,"distinct_rating":1.43,"distinct_type":"Bottom","rt":null,"stimulus":"Stimuli_Rocks480/S_Dolomite_01.png","response":null,"trial_type":"image-keyboard-response","trial_index":230,"plugin_version":"2.1.0","time_elapsed":1029679,"subject_id":"91057","group":"Group2","condition":"3_Rep","full_date":"2026-01-24T22:50:06.965Z","date":"2026-01-24","time":"22:50:06"},{"rt":null,"stimulus":"<p style=\"font-size: 50px; margin: 0; text-align: center;\">+</p>","response":null,"trial_type":"html-keyboard-response","trial_index":231,"plugin_version":"2.1.0","time_elapsed":1030681,"subject_id":"91057","group":"Group2","condition":"3_Rep","full_date":"2026-01-24T22:50:06.965Z","date":"2026-01-24","time":"22:50:06"},{"task":"memory_phase","broad_category":"S","image_png":"S_Shale_02.png","image_id":466,"category_name":"Shale","category":30,"distinct_rating":2.9,"distinct_type":"Bottom","rt":null,"stimulus":"Stimuli_Rocks480/S_Shale_02.png","response":null,"trial_type":"image-keyboard-response","trial_index":232,"plugin_version":"2.1.0","time_elapsed":1033196,"subject_id":"91057","group":"Group2","condition":"3_Rep","full_date":"2026-01-24T22:50:06.965Z","date":"2026-01-24","time":"22:50:06"},{"rt":null,"stimulus":"<p style=\"font-size: 50px; margin: 0; text-align: center;\">+</p>","response":null,"trial_type":"html-keyboard-response","trial_index":233,"plugin_version":"2.1.0","time_elapsed":1034198,"subject_id":"91057","group":"Group2","condition":"3_Rep","full_date":"2026-01-24T22:50:06.965Z","date":"2026-01-24","time":"22:50:06"},{"task":"memory_phase","broad_category":"M","image_png":"M_Marble_02.png","image_id":226,"category_name":"Marble","category":15,"distinct_rating":3.2,"distinct_type":"Bottom","rt":null,"stimulus":"Stimuli_Rocks480/M_Marble_02.png","response":null,"trial_type":"image-keyboard-response","trial_index":234,"plugin_version":"2.1.0","time_elapsed":1036711,"subject_id":"91057","group":"Group2","condition":"3_Rep","full_date":"2026-01-24T22:50:06.965Z","date":"2026-01-24","time":"22:50:06"},{"rt":null,"stimulus":"<p style=\"font-size: 50px; margin: 0; text-align: center;\">+</p>","response":null,"trial_type":"html-keyboard-response","trial_index":235,"plugin_version":"2.1.0","time_elapsed":1037713,"subject_id":"91057","group":"Group2","condition":"3_Rep","full_date":"2026-01-24T22:50:06.965Z","date":"2026-01-24","time":"22:50:06"},{"task":"memory_phase","broad_category":"I","image_png":"I_Peridotite_13.png","image_id":125,"category_name":"Peridotite","category":8,"distinct_rating":7.28,"distinct_type":"Top"