[{"width":1456,"height":844,"webaudio":true,"browser":"edge-chromium","browser_version":"145.0.0","mobile":false,"os":"Windows 10","fullscreen":true,"vsync_rate":58.86,"webcam":true,"microphone":true,"trial_type":"browser-check","trial_index":0,"plugin_version":"2.1.0","time_elapsed":1033,"subject_id":"92018","group":"Group1","condition":"3_Rep","full_date":"2026-02-18T17:44:56.402Z","date":"2026-02-18","time":"17:44:56"},{"success":true,"timeout":false,"failed_images":[],"failed_audio":[],"failed_video":[],"trial_type":"preload","trial_index":1,"plugin_version":"2.1.0","time_elapsed":1535,"subject_id":"92018","group":"Group1","condition":"3_Rep","full_date":"2026-02-18T17:44:56.402Z","date":"2026-02-18","time":"17:44:56"},{"rt":31749,"url":"SONA_consent_memorability.html","trial_type":"external-html","trial_index":2,"plugin_version":"2.1.0","time_elapsed":33356,"subject_id":"92018","group":"Group1","condition":"3_Rep","full_date":"2026-02-18T17:44:56.402Z","date":"2026-02-18","time":"17:44:56"},{"success":true,"rt":3078,"trial_type":"fullscreen","trial_index":3,"plugin_version":"2.1.0","time_elapsed":37443,"subject_id":"92018","group":"Group1","condition":"3_Rep","full_date":"2026-02-18T17:44:56.402Z","date":"2026-02-18","time":"17:44:56"},{"rt":2066,"stimulus":"<div style=\"max-width: 760px; margin: auto; font-size: 20px; line-height: 1.5;\">\n      <h1 style=\"text-align:center; font-size: 30px;\">Instructions</h1>\n      <p>\n        Welcome to the study on <b>visual memory</b>. This experiment consists of <b>two phases</b>: \n        a <b>study phase</b> and a <b>test phase</b>.\n      </p>\n      <p>\n        In the study phase, you will see a series of rock images along with their category labels.\n        The images will appear one at a time.\n        <b>Your task</b> is to learn the categories to which the rock images belong \n        and to remember each image as accurately as possible.\n      </p> \n      <p>\n        Note that we will repeat the study phase <b>3 times</b>, \n             so you will have multiple opportunities to see and remember each image.\n      </p>\n      <p>\n        After the study phase, <b>your memory will be tested</b>. \n        Additional instructions for the test phase will be provided at that time.\n      </p>\n      <p>\n        If your computer has multiple <b>language settings</b> (e.g., English and another language),\n        please make sure it is set to English before starting.\n      </p>\n      <p>\n        You can track your progress using the <b>completion bar</b> at the top of the screen. \n        Please note that the bar will refresh when the test phase begins \n        to give you an accurate sense of your progress in both phases.\n      </p> \n      <p>\n        Press the button below when you are ready to begin.\n      </p>\n    </div>","response":0,"trial_type":"html-button-response","trial_index":4,"plugin_version":"2.1.0","time_elapsed":39511,"subject_id":"92018","group":"Group1","condition":"3_Rep","full_date":"2026-02-18T17:44:56.402Z","date":"2026-02-18","time":"17:44:56"},{"rt":null,"stimulus":"<p style=\"font-size: 50px; margin: 0; text-align: center;\">+</p>","response":null,"trial_type":"html-keyboard-response","trial_index":5,"plugin_version":"2.1.0","time_elapsed":40531,"subject_id":"92018","group":"Group1","condition":"3_Rep","full_date":"2026-02-18T17:44:56.402Z","date":"2026-02-18","time":"17:44:56"},{"task":"memory_phase","broad_category":"I","image_png":"I_Basalt_09.png","image_id":25,"category_name":"Basalt","category":2,"distinct_rating":1.89,"distinct_type":"Bottom","rt":null,"stimulus":"Stimuli_Rocks480/I_Basalt_09.png","response":null,"trial_type":"image-keyboard-response","trial_index":6,"plugin_version":"2.1.0","time_elapsed":43037,"subject_id":"92018","group":"Group1","condition":"3_Rep","full_date":"2026-02-18T17:44:56.402Z","date":"2026-02-18","time":"17:44:56"},{"rt":null,"stimulus":"<p style=\"font-size: 50px; margin: 0; text-align: center;\">+</p>","response":null,"trial_type":"html-keyboard-response","trial_index":7,"plugin_version":"2.1.0","time_elapsed":44049,"subject_id":"92018","group":"Group1","condition":"3_Rep","full_date":"2026-02-18T17:44:56.402Z","date":"2026-02-18","time":"17:44:56"},{"task":"memory_phase","broad_category":"M","image_png":"M_Gneiss_13.png","image_id":205,"category_name":"Gneiss","category":13,"distinct_rating":3.26,"distinct_type":"Bottom","rt":null,"stimulus":"Stimuli_Rocks480/M_Gneiss_13.png","response":null,"trial_type":"image-keyboard-response","trial_index":8,"plugin_version":"2.1.0","time_elapsed":46560,"subject_id":"92018","group":"Group1","condition":"3_Rep","full_date":"2026-02-18T17:44:56.402Z","date":"2026-02-18","time":"17:44:56"},{"rt":null,"stimulus":"<p style=\"font-size: 50px; margin: 0; text-align: center;\">+</p>","response":null,"trial_type":"html-keyboard-response","trial_index":9,"plugin_version":"2.1.0","time_elapsed":47563,"subject_id":"92018","group":"Group1","condition":"3_Rep","full_date":"2026-02-18T17:44:56.402Z","date":"2026-02-18","time":"17:44:56"},{"task":"memory_phase","broad_category":"I","image_png":"I_Gabbro_08.png","image_id":56,"category_name":"Gabbro","category":4,"distinct_rating":3.02,"distinct_type":"Bottom","rt":null,"stimulus":"Stimuli_Rocks480/I_Gabbro_08.png","response":null,"trial_type":"image-keyboard-response","trial_index":10,"plugin_version":"2.1.0","time_elapsed":50091,"subject_id":"92018","group":"Group1","condition":"3_Rep","full_date":"2026-02-18T17:44:56.402Z","date":"2026-02-18","time":"17:44:56"},{"rt":null,"stimulus":"<p style=\"font-size: 50px; margin: 0; text-align: center;\">+</p>","response":null,"trial_type":"html-keyboard-response","trial_index":11,"plugin_version":"2.1.0","time_elapsed":51095,"subject_id":"92018","group":"Group1","condition":"3_Rep","full_date":"2026-02-18T17:44:56.402Z","date":"2026-02-18","time":"17:44:56"},{"task":"memory_phase","broad_category":"S","image_png":"S_Conglomerate_05.png","image_id":373,"category_name":"Conglomerate","category":24,"distinct_rating":7.32,"distinct_type":"Top","rt":null,"stimulus":"Stimuli_Rocks480/S_Conglomerate_05.png","response":null,"trial_type":"image-keyboard-response","trial_index":12,"plugin_version":"2.1.0","time_elapsed":53609,"subject_id":"92018","group":"Group1","condition":"3_Rep","full_date":"2026-02-18T17:44:56.402Z","date":"2026-02-18","time":"17:44:56"},{"rt":null,"stimulus":"<p style=\"font-size: 50px; margin: 0; text-align: center;\">+</p>","response":null,"trial_type":"html-keyboard-response","trial_index":13,"plugin_version":"2.1.0","time_elapsed":54613,"subject_id":"92018","group":"Group1","condition":"3_Rep","full_date":"2026-02-18T17:44:56.402Z","date":"2026-02-18","time":"17:44:56"},{"task":"memory_phase","broad_category":"I","image_png":"I_Pegmatite_16.png","image_id":112,"category_name":"Pegmatite","category":7,"distinct_rating":7.03,"distinct_type":"Top","rt":null,"stimulus":"Stimuli_Rocks480/I_Pegmatite_16.png","response":null,"trial_type":"image-keyboard-response","trial_index":14,"plugin_version":"2.1.0","time_elapsed":57130,"subject_id":"92018","group":"Group1","condition":"3_Rep","full_date":"2026-02-18T17:44:56.402Z","date":"2026-02-18","time":"17:44:56"},{"rt":null,"stimulus":"<p style=\"font-size: 50px; margin: 0; text-align: center;\">+</p>","response":null,"trial_type":"html-keyboard-response","trial_index":15,"plugin_version":"2.1.0","time_elapsed":58142,"subject_id":"92018","group":"Group1","condition":"3_Rep","full_date":"2026-02-18T17:44:56.402Z","date":"2026-02-18","time":"17:44:56"},{"task":"memory_phase","broad_category":"S","image_png":"S_Rock Salt_01.png","image_id":433,"category_name":"Rock Salt","category":28,"distinct_rating":7.18,"distinct_type":"Top","rt":null,"stimulus":"Stimuli_Rocks480/S_Rock Salt_01.png","response":null,"trial_type":"image-keyboard-response","trial_index":16,"plugin_version":"2.1.0","time_elapsed":60651,"subject_id":"92018","group":"Group1","condition":"3_Rep","full_date":"2026-02-18T17:44:56.402Z","date":"2026-02-18","time":"17:44:56"},{"rt":null,"stimulus":"<p style=\"font-size: 50px; margin: 0; text-align: center;\">+</p>","response":null,"trial_type":"html-keyboard-response","trial_index":17,"plugin_version":"2.1.0","time_elapsed":61664,"subject_id":"92018","group":"Group1","condition":"3_Rep","full_date":"2026-02-18T17:44:56.402Z","date":"2026-02-18","time":"17:44:56"},{"task":"memory_phase","broad_category":"S","image_png":"S_Dolomite_12.png","image_id":396,"category_name":"Dolomite","category":25,"distinct_rating":1.85,"distinct_type":"Bottom","rt":null,"stimulus":"Stimuli_Rocks480/S_Dolomite_12.png","response":null,"trial_type":"image-keyboard-response","trial_index":18,"plugin_version":"2.1.0","time_elapsed":64175,"subject_id":"92018","group":"Group1","condition":"3_Rep","full_date":"2026-02-18T17:44:56.402Z","date":"2026-02-18","time":"17:44:56"},{"rt":null,"stimulus":"<p style=\"font-size: 50px; margin: 0; text-align: center;\">+</p>","response":null,"trial_type":"html-keyboard-response","trial_index":19,"plugin_version":"2.1.0","time_elapsed":65193,"subject_id":"92018","group":"Group1","condition":"3_Rep","full_date":"2026-02-18T17:44:56.402Z","date":"2026-02-18","time":"17:44:56"},{"task":"memory_phase","broad_category":"I","image_png":"I_Andesite_10.png","image_id":10,"category_name":"Andesite","category":1,"distinct_rating":3.15,"distinct_type":"Bottom","rt":null,"stimulus":"Stimuli_Rocks480/I_Andesite_10.png","response":null,"trial_type":"image-keyboard-response","trial_index":20,"plugin_version":"2.1.0","time_elapsed":67707,"subject_id":"92018","group":"Group1","condition":"3_Rep","full_date":"2026-02-18T17:44:56.402Z","date":"2026-02-18","time":"17:44:56"},{"rt":null,"stimulus":"<p style=\"font-size: 50px; margin: 0; text-align: center;\">+</p>","response":null,"trial_type":"html-keyboard-response","trial_index":21,"plugin_version":"2.1.0","time_elapsed":68722,"subject_id":"92018","group":"Group1","condition":"3_Rep","full_date":"2026-02-18T17:44:56.402Z","date":"2026-02-18","time":"17:44:56"},{"task":"memory_phase","broad_category":"I","image_png":"I_Rhyolite_16.png","image_id":160,"category_name":"Rhyolite","category":10,"distinct_rating":2.19,"distinct_type":"Bottom","rt":null,"stimulus":"Stimuli_Rocks480/I_Rhyolite_16.png","response":null,"trial_type":"image-keyboard-response","trial_index":22,"plugin_version":"2.1.0","time_elapsed":71234,"subject_id":"92018","group":"Group1","condition":"3_Rep","full_date":"2026-02-18T17:44:56.402Z","date":"2026-02-18","time":"17:44:56"},{"rt":null,"stimulus":"<p style=\"font-size: 50px; margin: 0; text-align: center;\">+</p>","response":null,"trial_type":"html-keyboard-response","trial_index":23,"plugin_version":"2.1.0","time_elapsed":72239,"subject_id":"92018","group":"Group1","condition":"3_Rep","full_date":"2026-02-18T17:44:56.402Z","date":"2026-02-18","time":"17:44:56"},{"task":"memory_phase","broad_category":"M","image_png":"M_Phyllite_03.png","image_id":259,"category_name":"Phyllite","category":17,"distinct_rating":2.5,"distinct_type":"Bottom","rt":null,"stimulus":"Stimuli_Rocks480/M_Phyllite_03.png","response":null,"trial_type":"image-keyboard-response","trial_index":24,"plugin_version":"2.1.0","time_elapsed":74743,"subject_id":"92018","group":"Group1","condition":"3_Rep","full_date":"2026-02-18T17:44:56.402Z","date":"2026-02-18","time":"17:44:56"},{"rt":null,"stimulus":"<p style=\"font-size: 50px; margin: 0; text-align: center;\">+</p>","response":null,"trial_type":"html-keyboard-response","trial_index":25,"plugin_version":"2.1.0","time_elapsed":75757,"subject_id":"92018","group":"Group1","condition":"3_Rep","full_date":"2026-02-18T17:44:56.402Z","date":"2026-02-18","time":"17:44:56"},{"task":"memory_phase","broad_category":"I","image_png":"I_Basalt_02.png","image_id":18,"category_name":"Basalt","category":2,"distinct_rating":1.84,"distinct_type":"Bottom","rt":null,"stimulus":"Stimuli_Rocks480/I_Basalt_02.png","response":null,"trial_type":"image-keyboard-response","trial_index":26,"plugin_version":"2.1.0","time_elapsed":78259,"subject_id":"92018","group":"Group1","condition":"3_Rep","full_date":"2026-02-18T17:44:56.402Z","date":"2026-02-18","time":"17:44:56"},{"rt":null,"stimulus":"<p style=\"font-size: 50px; margin: 0; text-align: center;\">+</p>","response":null,"trial_type":"html-keyboard-response","trial_index":27,"plugin_version":"2.1.0","time_elapsed":79274,"subject_id":"92018","group":"Group1","condition":"3_Rep","full_date":"2026-02-18T17:44:56.402Z","date":"2026-02-18","time":"17:44:56"},{"task":"memory_phase","broad_category":"I","image_png":"I_Diorite_03.png","image_id":35,"category_name":"Diorite","category":3,"distinct_rating":3.14,"distinct_type":"Bottom","rt":null,"stimulus":"Stimuli_Rocks480/I_Diorite_03.png","response":null,"trial_type":"image-keyboard-response","trial_index":28,"plugin_version":"2.1.0","time_elapsed":81779,"subject_id":"92018","group":"Group1","condition":"3_Rep","full_date":"2026-02-18T17:44:56.402Z","date":"2026-02-18","time":"17:44:56"},{"rt":null,"stimulus":"<p style=\"font-size: 50px; margin: 0; text-align: center;\">+</p>","response":null,"trial_type":"html-keyboard-response","trial_index":29,"plugin_version":"2.1.0","time_elapsed":82796,"subject_id":"92018","group":"Group1","condition":"3_Rep","full_date":"2026-02-18T17:44:56.402Z","date":"2026-02-18","time":"17:44:56"},{"task":"memory_phase","broad_category":"M","image_png":"M_Quartzite_08.png","image_id":280,"category_name":"Quartzite","category":18,"distinct_rating":2.15,"distinct_type":"Bottom","rt":null,"stimulus":"Stimuli_Rocks480/M_Quartzite_08.png","response":null,"trial_type":"image-keyboard-response","trial_index":30,"plugin_version":"2.1.0","time_elapsed":85306,"subject_id":"92018","group":"Group1","condition":"3_Rep","full_date":"2026-02-18T17:44:56.402Z","date":"2026-02-18","time":"17:44:56"},{"rt":null,"stimulus":"<p style=\"font-size: 50px; margin: 0; text-align: center;\">+</p>","response":null,"trial_type":"html-keyboard-response","trial_index":31,"plugin_version":"2.1.0","time_elapsed":86310,"subject_id":"92018","group":"Group1","condition":"3_Rep","full_date":"2026-02-18T17:44:56.402Z","date":"2026-02-18","time":"17:44:56"},{"task":"memory_phase","broad_category":"I","image_png":"I_Gabbro_16.png","image_id":64,"category_name":"Gabbro","category":4,"distinct_rating":2.52,"distinct_type":"Bottom","rt":null,"stimulus":"Stimuli_Rocks480/I_Gabbro_16.png","response":null,"trial_type":"image-keyboard-response","trial_index":32,"plugin_version":"2.1.0","time_elapsed":88827,"subject_id":"92018","group":"Group1","condition":"3_Rep","full_date":"2026-02-18T17:44:56.402Z","date":"2026-02-18","time":"17:44:56"},{"rt":null,"stimulus":"<p style=\"font-size: 50px; margin: 0; text-align: center;\">+</p>","response":null,"trial_type":"html-keyboard-response","trial_index":33,"plugin_version":"2.1.0","time_elapsed":89834,"subject_id":"92018","group":"Group1","condition":"3_Rep","full_date":"2026-02-18T17:44:56.402Z","date":"2026-02-18","time":"17:44:56"},{"task":"memory_phase","broad_category":"S","image_png":"S_Dolomite_14.png","image_id":398,"category_name":"Dolomite","category":25,"distinct_rating":1.43,"distinct_type":"Bottom","rt":null,"stimulus":"Stimuli_Rocks480/S_Dolomite_14.png","response":null,"trial_type":"image-keyboard-response","trial_index":34,"plugin_version":"2.1.0","time_elapsed":92347,"subject_id":"92018","group":"Group1","condition":"3_Rep","full_date":"2026-02-18T17:44:56.402Z","date":"2026-02-18","time":"17:44:56"},{"rt":null,"stimulus":"<p style=\"font-size: 50px; margin: 0; text-align: center;\">+</p>","response":null,"trial_type":"html-keyboard-response","trial_index":35,"plugin_version":"2.1.0","time_elapsed":93366,"subject_id":"92018","group":"Group1","condition":"3_Rep","full_date":"2026-02-18T17:44:56.402Z","date":"2026-02-18","time":"17:44:56"},{"task":"memory_phase","broad_category":"S","image_png":"S_Chert_10.png","image_id":362,"category_name":"Chert","category":23,"distinct_rating":7.17,"distinct_type":"Top","rt":null,"stimulus":"Stimuli_Rocks480/S_Chert_10.png","response":null,"trial_type":"image-keyboard-response","trial_index":36,"plugin_version":"2.1.0","time_elapsed":95875,"subject_id":"92018","group":"Group1","condition":"3_Rep","full_date":"2026-02-18T17:44:56.402Z","date":"2026-02-18","time":"17:44:56"},{"rt":null,"stimulus":"<p style=\"font-size: 50px; margin: 0; text-align: center;\">+</p>","response":null,"trial_type":"html-keyboard-response","trial_index":37,"plugin_version":"2.1.0","time_elapsed":96894,"subject_id":"92018","group":"Group1","condition":"3_Rep","full_date":"2026-02-18T17:44:56.402Z","date":"2026-02-18","time":"17:44:56"},{"task":"memory_phase","broad_category":"I","image_png":"I_Gabbro_11.png","image_id":59,"category_name":"Gabbro","category":4,"distinct_rating":1.99,"distinct_type":"Bottom","rt":null,"stimulus":"Stimuli_Rocks480/I_Gabbro_11.png","response":null,"trial_type":"image-keyboard-response","trial_index":38,"plugin_version":"2.1.0","time_elapsed":99412,"subject_id":"92018","group":"Group1","condition":"3_Rep","full_date":"2026-02-18T17:44:56.402Z","date":"2026-02-18","time":"17:44:56"},{"rt":null,"stimulus":"<p style=\"font-size: 50px; margin: 0; text-align: center;\">+</p>","response":null,"trial_type":"html-keyboard-response","trial_index":39,"plugin_version":"2.1.0","time_elapsed":100430,"subject_id":"92018","group":"Group1","condition":"3_Rep","full_date":"2026-02-18T17:44:56.402Z","date":"2026-02-18","time":"17:44:56"},{"task":"memory_phase","broad_category":"I","image_png":"I_Diorite_04.png","image_id":36,"category_name":"Diorite","category":3,"distinct_rating":2.98,"distinct_type":"Bottom","rt":null,"stimulus":"Stimuli_Rocks480/I_Diorite_04.png","response":null,"trial_type":"image-keyboard-response","trial_index":40,"plugin_version":"2.1.0","time_elapsed":102941,"subject_id":"92018","group":"Group1","condition":"3_Rep","full_date":"2026-02-18T17:44:56.402Z","date":"2026-02-18","time":"17:44:56"},{"rt":null,"stimulus":"<p style=\"font-size: 50px; margin: 0; text-align: center;\">+</p>","response":null,"trial_type":"html-keyboard-response","trial_index":41,"plugin_version":"2.1.0","time_elapsed":103958,"subject_id":"92018","group":"Group1","condition":"3_Rep","full_date":"2026-02-18T17:44:56.402Z","date":"2026-02-18","time":"17:44:56"},{"task":"memory_phase","broad_category":"M","image_png":"M_Gneiss_06.png","image_id":198,"category_name":"Gneiss","category":13,"distinct_rating":2.65,"distinct_type":"Bottom","rt":null,"stimulus":"Stimuli_Rocks480/M_Gneiss_06.png","response":null,"trial_type":"image-keyboard-response","trial_index":42,"plugin_version":"2.1.0","time_elapsed":106478,"subject_id":"92018","group":"Group1","condition":"3_Rep","full_date":"2026-02-18T17:44:56.402Z","date":"2026-02-18","time":"17:44:56"},{"rt":null,"stimulus":"<p style=\"font-size: 50px; margin: 0; text-align: center;\">+</p>","response":null,"trial_type":"html-keyboard-response","trial_index":43,"plugin_version":"2.1.0","time_elapsed":107489,"subject_id":"92018","group":"Group1","condition":"3_Rep","full_date":"2026-02-18T17:44:56.402Z","date":"2026-02-18","time":"17:44:56"},{"task":"memory_phase","broad_category":"M","image_png":"M_Marble_04.png","image_id":228,"category_name":"Marble","category":15,"distinct_rating":3.15,"distinct_type":"Bottom","rt":null,"stimulus":"Stimuli_Rocks480/M_Marble_04.png","response":null,"trial_type":"image-keyboard-response","trial_index":44,"plugin_version":"2.1.0","time_elapsed":109996,"subject_id":"92018","group":"Group1","condition":"3_Rep","full_date":"2026-02-18T17:44:56.402Z","date":"2026-02-18","time":"17:44:56"},{"rt":null,"stimulus":"<p style=\"font-size: 50px; margin: 0; text-align: center;\">+</p>","response":null,"trial_type":"html-keyboard-response","trial_index":45,"plugin_version":"2.1.0","time_elapsed":111013,"subject_id":"92018","group":"Group1","condition":"3_Rep","full_date":"2026-02-18T17:44:56.402Z","date":"2026-02-18","time":"17:44:56"},{"task":"memory_phase","broad_category":"S","image_png":"S_Dolomite_13.png","image_id":397,"category_name":"Dolomite","category":25,"distinct_rating":1.77,"distinct_type":"Bottom","rt":null,"stimulus":"Stimuli_Rocks480/S_Dolomite_13.png","response":null,"trial_type":"image-keyboard-response","trial_index":46,"plugin_version":"2.1.0","time_elapsed":113531,"subject_id":"92018","group":"Group1","condition":"3_Rep","full_date":"2026-02-18T17:44:56.402Z","date":"2026-02-18","time":"17:44:56"},{"rt":null,"stimulus":"<p style=\"font-size: 50px; margin: 0; text-align: center;\">+</p>","response":null,"trial_type":"html-keyboard-response","trial_index":47,"plugin_version":"2.1.0","time_elapsed":114545,"subject_id":"92018","group":"Group1","condition":"3_Rep","full_date":"2026-02-18T17:44:56.402Z","date":"2026-02-18","time":"17:44:56"},{"task":"memory_phase","broad_category":"M","image_png":"M_Quartzite_05.png","image_id":277,"category_name":"Quartzite","category":18,"distinct_rating":2.23,"distinct_type":"Bottom","rt":null,"stimulus":"Stimuli_Rocks480/M_Quartzite_05.png","response":null,"trial_type":"image-keyboard-response","trial_index":48,"plugin_version":"2.1.0","time_elapsed":117061,"subject_id":"92018","group":"Group1","condition":"3_Rep","full_date":"2026-02-18T17:44:56.402Z","date":"2026-02-18","time":"17:44:56"},{"rt":null,"stimulus":"<p style=\"font-size: 50px; margin: 0; text-align: center;\">+</p>","response":null,"trial_type":"html-keyboard-response","trial_index":49,"plugin_version":"2.1.0","time_elapsed":118076,"subject_id":"92018","group":"Group1","condition":"3_Rep","full_date":"2026-02-18T17:44:56.402Z","date":"2026-02-18","time":"17:44:56"},{"task":"memory_phase","broad_category":"M","image_png":"M_Slate_15.png","image_id":319,"category_name":"Slate","category":20,"distinct_rating":2.13,"distinct_type":"Bottom","rt":null,"stimulus":"Stimuli_Rocks480/M_Slate_15.png","response":null,"trial_type":"image-keyboard-response","trial_index":50,"plugin_version":"2.1.0","time_elapsed":120580,"subject_id":"92018","group":"Group1","condition":"3_Rep","full_date":"2026-02-18T17:44:56.402Z","date":"2026-02-18","time":"17:44:56"},{"rt":null,"stimulus":"<p style=\"font-size: 50px; margin: 0; text-align: center;\">+</p>","response":null,"trial_type":"html-keyboard-response","trial_index":51,"plugin_version":"2.1.0","time_elapsed":121591,"subject_id":"92018","group":"Group1","condition":"3_Rep","full_date":"2026-02-18T17:44:56.402Z","date":"2026-02-18","time":"17:44:56"},{"task":"memory_phase","broad_category":"I","image_png":"I_Pumice_12.png","image_id":140,"category_name":"Pumice","category":9,"distinct_rating":2.97,"distinct_type":"Bottom","rt":null,"stimulus":"Stimuli_Rocks480/I_Pumice_12.png","response":null,"trial_type":"image-keyboard-response","trial_index":52,"plugin_version":"2.1.0","time_elapsed":124119,"subject_id":"92018","group":"Group1","condition":"3_Rep","full_date":"2026-02-18T17:44:56.402Z","date":"2026-02-18","time":"17:44:56"},{"rt":null,"stimulus":"<p style=\"font-size: 50px; margin: 0; text-align: center;\">+</p>","response":null,"trial_type":"html-keyboard-response","trial_index":53,"plugin_version":"2.1.0","time_elapsed":125120,"subject_id":"92018","group":"Group1","condition":"3_Rep","full_date":"2026-02-18T17:44:56.402Z","date":"2026-02-18","time":"17:44:56"},{"task":"memory_phase","broad_category":"M","image_png":"M_Marble_16.png","image_id":240,"category_name":"Marble","category":15,"distinct_rating":2.57,"distinct_type":"Bottom","rt":null,"stimulus":"Stimuli_Rocks480/M_Marble_16.png","response":null,"trial_type":"image-keyboard-response","trial_index":54,"plugin_version":"2.1.0","time_elapsed":127628,"subject_id":"92018","group":"Group1","condition":"3_Rep","full_date":"2026-02-18T17:44:56.402Z","date":"2026-02-18","time":"17:44:56"},{"rt":326802,"stimulus":"<p style=\"max-width: 760px; margin: auto; font-size: 35px; line-height: 1.5;\">\n                Press SPACE to continue study phase\n              </p>","response":" ","trial_type":"html-keyboard-response","trial_index":55,"plugin_version":"2.1.0","time_elapsed":454434,"subject_id":"92018","group":"Group1","condition":"3_Rep","full_date":"2026-02-18T17:44:56.402Z","date":"2026-02-18","time":"17:44:56"},{"rt":null,"stimulus":"<p style=\"font-size: 50px; margin: 0; text-align: center;\">+</p>","response":null,"trial_type":"html-keyboard-response","trial_index":56,"plugin_version":"2.1.0","time_elapsed":455447,"subject_id":"92018","group":"Group1","condition":"3_Rep","full_date":"2026-02-18T17:44:56.402Z","date":"2026-02-18","time":"17:44:56"},{"task":"memory_phase","broad_category":"I","image_png":"I_Pumice_08.png","image_id":136,"category_name":"Pumice","category":9,"distinct_rating":3.1,"distinct_type":"Bottom","rt":null,"stimulus":"Stimuli_Rocks480/I_Pumice_08.png","response":null,"trial_type":"image-keyboard-response","trial_index":57,"plugin_version":"2.1.0","time_elapsed":457969,"subject_id":"92018","group":"Group1","condition":"3_Rep","full_date":"2026-02-18T17:44:56.402Z","date":"2026-02-18","time":"17:44:56"},{"rt":null,"stimulus":"<p style=\"font-size: 50px; margin: 0; text-align: center;\">+</p>","response":null,"trial_type":"html-keyboard-response","trial_index":58,"plugin_version":"2.1.0","time_elapsed":458973,"subject_id":"92018","group":"Group1","condition":"3_Rep","full_date":"2026-02-18T17:44:56.402Z","date":"2026-02-18","time":"17:44:56"},{"task":"memory_phase","broad_category":"M","image_png":"M_Quartzite_13.png","image_id":285,"category_name":"Quartzite","category":18,"distinct_rating":2.27,"distinct_type":"Bottom","rt":null,"stimulus":"Stimuli_Rocks480/M_Quartzite_13.png","response":null,"trial_type":"image-keyboard-response","trial_index":59,"plugin_version":"2.1.0","time_elapsed":461480,"subject_id":"92018","group":"Group1","condition":"3_Rep","full_date":"2026-02-18T17:44:56.402Z","date":"2026-02-18","time":"17:44:56"},{"rt":null,"stimulus":"<p style=\"font-size: 50px; margin: 0; text-align: center;\">+</p>","response":null,"trial_type":"html-keyboard-response","trial_index":60,"plugin_version":"2.1.0","time_elapsed":462494,"subject_id":"92018","group":"Group1","condition":"3_Rep","full_date":"2026-02-18T17:44:56.402Z","date":"2026-02-18","time":"17:44:56"},{"task":"memory_phase","broad_category":"S","image_png":"S_Shale_08.png","image_id":472,"category_name":"Shale","category":30,"distinct_rating":2.55,"distinct_type":"Bottom","rt":null,"stimulus":"Stimuli_Rocks480/S_Shale_08.png","response":null,"trial_type":"image-keyboard-response","trial_index":61,"plugin_version":"2.1.0","time_elapsed":465003,"subject_id":"92018","group":"Group1","condition":"3_Rep","full_date":"2026-02-18T17:44:56.402Z","date":"2026-02-18","time":"17:44:56"},{"rt":null,"stimulus":"<p style=\"font-size: 50px; margin: 0; text-align: center;\">+</p>","response":null,"trial_type":"html-keyboard-response","trial_index":62,"plugin_version":"2.1.0","time_elapsed":466014,"subject_id":"92018","group":"Group1","condition":"3_Rep","full_date":"2026-02-18T17:44:56.402Z","date":"2026-02-18","time":"17:44:56"},{"task":"memory_phase","broad_category":"I","image_png":"I_Diorite_05.png","image_id":37,"category_name":"Diorite","category":3,"distinct_rating":3.08,"distinct_type":"Bottom","rt":null,"stimulus":"Stimuli_Rocks480/I_Diorite_05.png","response":null,"trial_type":"image-keyboard-response","trial_index":63,"plugin_version":"2.1.0","time_elapsed":468533,"subject_id":"92018","group":"Group1","condition":"3_Rep","full_date":"2026-02-18T17:44:56.402Z","date":"2026-02-18","time":"17:44:56"},{"rt":null,"stimulus":"<p style=\"font-size: 50px; margin: 0; text-align: center;\">+</p>","response":null,"trial_type":"html-keyboard-response","trial_index":64,"plugin_version":"2.1.0","time_elapsed":469556,"subject_id":"92018","group":"Group1","condition":"3_Rep","full_date":"2026-02-18T17:44:56.402Z","date":"2026-02-18","time":"17:44:56"},{"task":"memory_phase","broad_category":"I","image_png":"I_Pegmatite_10.png","image_id":106,"category_name":"Pegmatite","category":7,"distinct_rating":7.66,"distinct_type":"Top","rt":null,"stimulus":"Stimuli_Rocks480/I_Pegmatite_10.png","response":null,"trial_type":"image-keyboard-response","trial_index":65,"plugin_version":"2.1.0","time_elapsed":472071,"subject_id":"92018","group":"Group1","condition":"3_Rep","full_date":"2026-02-18T17:44:56.402Z","date":"2026-02-18","time":"17:44:56"},{"rt":null,"stimulus":"<p style=\"font-size: 50px; margin: 0; text-align: center;\">+</p>","response":null,"trial_type":"html-keyboard-response","trial_index":66,"plugin_version":"2.1.0","time_elapsed":473084,"subject_id":"92018","group":"Group1","condition":"3_Rep","full_date":"2026-02-18T17:44:56.402Z","date":"2026-02-18","time":"17:44:56"},{"task":"memory_phase","broad_category":"I","image_png":"I_Rhyolite_14.png","image_id":158,"category_name":"Rhyolite","category":10,"distinct_rating":2.59,"distinct_type":"Bottom","rt":null,"stimulus":"Stimuli_Rocks480/I_Rhyolite_14.png","response":null,"trial_type":"image-keyboard-response","trial_index":67,"plugin_version":"2.1.0","time_elapsed":475589,"subject_id":"92018","group":"Group1","condition":"3_Rep","full_date":"2026-02-18T17:44:56.402Z","date":"2026-02-18","time":"17:44:56"},{"rt":null,"stimulus":"<p style=\"font-size: 50px; margin: 0; text-align: center;\">+</p>","response":null,"trial_type":"html-keyboard-response","trial_index":68,"plugin_version":"2.1.0","time_elapsed":476596,"subject_id":"92018","group":"Group1","condition":"3_Rep","full_date":"2026-02-18T17:44:56.402Z","date":"2026-02-18","time":"17:44:56"},{"task":"memory_phase","broad_category":"S","image_png":"S_Shale_01.png","image_id":465,"category_name":"Shale","category":30,"distinct_rating":2.7,"distinct_type":"Bottom","rt":null,"stimulus":"Stimuli_Rocks480/S_Shale_01.png","response":null,"trial_type":"image-keyboard-response","trial_index":69,"plugin_version":"2.1.0","time_elapsed":479105,"subject_id":"92018","group":"Group1","condition":"3_Rep","full_date":"2026-02-18T17:44:56.402Z","date":"2026-02-18","time":"17:44:56"},{"rt":null,"stimulus":"<p style=\"font-size: 50px; margin: 0; text-align: center;\">+</p>","response":null,"trial_type":"html-keyboard-response","trial_index":70,"plugin_version":"2.1.0","time_elapsed":480117,"subject_id":"92018","group":"Group1","condition":"3_Rep","full_date":"2026-02-18T17:44:56.402Z","date":"2026-02-18","time":"17:44:56"},{"task":"memory_phase","broad_category":"M","image_png":"M_Slate_03.png","image_id":307,"category_name":"Slate","category":20,"distinct_rating":1.87,"distinct_type":"Bottom","rt":null,"stimulus":"Stimuli_Rocks480/M_Slate_03.png","response":null,"trial_type":"image-keyboard-response","trial_index":71,"plugin_version":"2.1.0","time_elapsed":482635,"subject_id":"92018","group":"Group1","condition":"3_Rep","full_date":"2026-02-18T17:44:56.402Z","date":"2026-02-18","time":"17:44:56"},{"rt":null,"stimulus":"<p style=\"font-size: 50px; margin: 0; text-align: center;\">+</p>","response":null,"trial_type":"html-keyboard-response","trial_index":72,"plugin_version":"2.1.0","time_elapsed":483648,"subject_id":"92018","group":"Group1","condition":"3_Rep","full_date":"2026-02-18T17:44:56.402Z","date":"2026-02-18","time":"17:44:56"},{"task":"memory_phase","broad_category":"M","image_png":"M_Slate_11.png","image_id":315,"category_name":"Slate","category":20,"distinct_rating":2.75,"distinct_type":"Bottom","rt":null,"stimulus":"Stimuli_Rocks480/M_Slate_11.png","response":null,"trial_type":"image-keyboard-response","trial_index":73,"plugin_version":"2.1.0","time_elapsed":486167,"subject_id":"92018","group":"Group1","condition":"3_Rep","full_date":"2026-02-18T17:44:56.402Z","date":"2026-02-18","time":"17:44:56"},{"rt":null,"stimulus":"<p style=\"font-size: 50px; margin: 0; text-align: center;\">+</p>","response":null,"trial_type":"html-keyboard-response","trial_index":74,"plugin_version":"2.1.0","time_elapsed":487183,"subject_id":"92018","group":"Group1","condition":"3_Rep","full_date":"2026-02-18T17:44:56.402Z","date":"2026-02-18","time":"17:44:56"},{"task":"memory_phase","broad_category":"S","image_png":"S_Sandstone_03.png","image_id":451,"category_name":"Sandstone","category":29,"distinct_rating":1.86,"distinct_type":"Bottom","rt":null,"stimulus":"Stimuli_Rocks480/S_Sandstone_03.png","response":null,"trial_type":"image-keyboard-response","trial_index":75,"plugin_version":"2.1.0","time_elapsed":489697,"subject_id":"92018","group":"Group1","condition":"3_Rep","full_date":"2026-02-18T17:44:56.402Z","date":"2026-02-18","time":"17:44:56"},{"rt":null,"stimulus":"<p style=\"font-size: 50px; margin: 0; text-align: center;\">+</p>","response":null,"trial_type":"html-keyboard-response","trial_index":76,"plugin_version":"2.1.0","time_elapsed":490714,"subject_id":"92018","group":"Group1","condition":"3_Rep","full_date":"2026-02-18T17:44:56.402Z","date":"2026-02-18","time":"17:44:56"},{"task":"memory_phase","broad_category":"I","image_png":"I_Obsidian_05.png","image_id":85,"category_name":"Obsidian","category":6,"distinct_rating":7.32,"distinct_type":"Top","rt":null,"stimulus":"Stimuli_Rocks480/I_Obsidian_05.png","response":null,"trial_type":"image-keyboard-response","trial_index":77,"plugin_version":"2.1.0","time_elapsed":493236,"subject_id":"92018","group":"Group1","condition":"3_Rep","full_date":"2026-02-18T17:44:56.402Z","date":"2026-02-18","time":"17:44:56"},{"rt":null,"stimulus":"<p style=\"font-size: 50px; margin: 0; text-align: center;\">+</p>","response":null,"trial_type":"html-keyboard-response","trial_index":78,"plugin_version":"2.1.0","time_elapsed":494244,"subject_id":"92018","group":"Group1","condition":"3_Rep","full_date":"2026-02-18T17:44:56.402Z","date":"2026-02-18","time":"17:44:56"},{"task":"memory_phase","broad_category":"S","image_png":"S_Rock Gypsum_04.png","image_id":420,"category_name":"Rock Gypsum","category":27,"distinct_rating":7.61,"distinct_type":"Top","rt":null,"stimulus":"Stimuli_Rocks480/S_Rock Gypsum_04.png","response":null,"trial_type":"image-keyboard-response","trial_index":79,"plugin_version":"2.1.0","time_elapsed":496747,"subject_id":"92018","group":"Group1","condition":"3_Rep","full_date":"2026-02-18T17:44:56.402Z","date":"2026-02-18","time":"17:44:56"},{"rt":null,"stimulus":"<p style=\"font-size: 50px; margin: 0; text-align: center;\">+</p>","response":null,"trial_type":"html-keyboard-response","trial_index":80,"plugin_version":"2.1.0","time_elapsed":497766,"subject_id":"92018","group":"Group1","condition":"3_Rep","full_date":"2026-02-18T17:44:56.402Z","date":"2026-02-18","time":"17:44:56"},{"task":"memory_phase","broad_category":"M","image_png":"M_Phyllite_10.png","image_id":266,"category_name":"Phyllite","category":17,"distinct_rating":2.6,"distinct_type":"Bottom","rt":null,"stimulus":"Stimuli_Rocks480/M_Phyllite_10.png","response":null,"trial_type":"image-keyboard-response","trial_index":81,"plugin_version":"2.1.0","time_elapsed":500277,"subject_id":"92018","group":"Group1","condition":"3_Rep","full_date":"2026-02-18T17:44:56.402Z","date":"2026-02-18","time":"17:44:56"},{"rt":null,"stimulus":"<p style=\"font-size: 50px; margin: 0; text-align: center;\">+</p>","response":null,"trial_type":"html-keyboard-response","trial_index":82,"plugin_version":"2.1.0","time_elapsed":501282,"subject_id":"92018","group":"Group1","condition":"3_Rep","full_date":"2026-02-18T17:44:56.402Z","date":"2026-02-18","time":"17:44:56"},{"task":"memory_phase","broad_category":"S","image_png":"S_Sandstone_15.png","image_id":463,"category_name":"Sandstone","category":29,"distinct_rating":2,"distinct_type":"Bottom","rt":null,"stimulus":"Stimuli_Rocks480/S_Sandstone_15.png","response":null,"trial_type":"image-keyboard-response","trial_index":83,"plugin_version":"2.1.0","time_elapsed":503785,"subject_id":"92018","group":"Group1","condition":"3_Rep","full_date":"2026-02-18T17:44:56.402Z","date":"2026-02-18","time":"17:44:56"},{"rt":null,"stimulus":"<p style=\"font-size: 50px; margin: 0; text-align: center;\">+</p>","response":null,"trial_type":"html-keyboard-response","trial_index":84,"plugin_version":"2.1.0","time_elapsed":504805,"subject_id":"92018","group":"Group1","condition":"3_Rep","full_date":"2026-02-18T17:44:56.402Z","date":"2026-02-18","time":"17:44:56"},{"task":"memory_phase","broad_category":"M","image_png":"M_Phyllite_07.png","image_id":263,"category_name":"Phyllite","category":17,"distinct_rating":2.59,"distinct_type":"Bottom","rt":null,"stimulus":"Stimuli_Rocks480/M_Phyllite_07.png","response":null,"trial_type":"image-keyboard-response","trial_index":85,"plugin_version":"2.1.0","time_elapsed":507310,"subject_id":"92018","group":"Group1","condition":"3_Rep","full_date":"2026-02-18T17:44:56.402Z","date":"2026-02-18","time":"17:44:56"},{"rt":null,"stimulus":"<p style=\"font-size: 50px; margin: 0; text-align: center;\">+</p>","response":null,"trial_type":"html-keyboard-response","trial_index":86,"plugin_version":"2.1.0","time_elapsed":508322,"subject_id":"92018","group":"Group1","condition":"3_Rep","full_date":"2026-02-18T17:44:56.402Z","date":"2026-02-18","time":"17:44:56"},{"task":"memory_phase","broad_category":"I","image_png":"I_Basalt_01.png","image_id":17,"category_name":"Basalt","category":2,"distinct_rating":1.92,"distinct_type":"Bottom","rt":null,"stimulus":"Stimuli_Rocks480/I_Basalt_01.png","response":null,"trial_type":"image-keyboard-response","trial_index":87,"plugin_version":"2.1.0","time_elapsed":510832,"subject_id":"92018","group":"Group1","condition":"3_Rep","full_date":"2026-02-18T17:44:56.402Z","date":"2026-02-18","time":"17:44:56"},{"rt":null,"stimulus":"<p style=\"font-size: 50px; margin: 0; text-align: center;\">+</p>","response":null,"trial_type":"html-keyboard-response","trial_index":88,"plugin_version":"2.1.0","time_elapsed":511849,"subject_id":"92018","group":"Group1","condition":"3_Rep","full_date":"2026-02-18T17:44:56.402Z","date":"2026-02-18","time":"17:44:56"},{"task":"memory_phase","broad_category":"S","image_png":"S_Shale_12.png","image_id":476,"category_name":"Shale","category":30,"distinct_rating":2.48,"distinct_type":"Bottom","rt":null,"stimulus":"Stimuli_Rocks480/S_Shale_12.png","response":null,"trial_type":"image-keyboard-response","trial_index":89,"plugin_version":"2.1.0","time_elapsed":514365,"subject_id":"92018","group":"Group1","condition":"3_Rep","full_date":"2026-02-18T17:44:56.402Z","date":"2026-02-18","time":"17:44:56"},{"rt":null,"stimulus":"<p style=\"font-size: 50px; margin: 0; text-align: center;\">+</p>","response":null,"trial_type":"html-keyboard-response","trial_index":90,"plugin_version":"2.1.0","time_elapsed":515382,"subject_id":"92018","group":"Group1","condition":"3_Rep","full_date":"2026-02-18T17:44:56.402Z","date":"2026-02-18","time":"17:44:56"},{"task":"memory_phase","broad_category":"I","image_png":"I_Andesite_06.png","image_id":6,"category_name":"Andesite","category":1,"distinct_rating":3.17,"distinct_type":"Bottom","rt":null,"stimulus":"Stimuli_Rocks480/I_Andesite_06.png","response":null,"trial_type":"image-keyboard-response","trial_index":91,"plugin_version":"2.1.0","time_elapsed":517894,"subject_id":"92018","group":"Group1","condition":"3_Rep","full_date":"2026-02-18T17:44:56.402Z","date":"2026-02-18","time":"17:44:56"},{"rt":null,"stimulus":"<p style=\"font-size: 50px; margin: 0; text-align: center;\">+</p>","response":null,"trial_type":"html-keyboard-response","trial_index":92,"plugin_version":"2.1.0","time_elapsed":518911,"subject_id":"92018","group":"Group1","condition":"3_Rep","full_date":"2026-02-18T17:44:56.402Z","date":"2026-02-18","time":"17:44:56"},{"task":"memory_phase","broad_category":"S","image_png":"S_Sandstone_16.png","image_id":464,"category_name":"Sandstone","category":29,"distinct_rating":1.93,"distinct_type":"Bottom","rt":null,"stimulus":"Stimuli_Rocks480/S_Sandstone_16.png","response":null,"trial_type":"image-keyboard-response","trial_index":93,"plugin_version":"2.1.0","time_elapsed":521418,"subject_id":"92018","group":"Group1","condition":"3_Rep","full_date":"2026-02-18T17:44:56.402Z","date":"2026-02-18","time":"17:44:56"},{"rt":null,"stimulus":"<p style=\"font-size: 50px; margin: 0; text-align: center;\">+</p>","response":null,"trial_type":"html-keyboard-response","trial_index":94,"plugin_version":"2.1.0","time_elapsed":522429,"subject_id":"92018","group":"Group1","condition":"3_Rep","full_date":"2026-02-18T17:44:56.402Z","date":"2026-02-18","time":"17:44:56"},{"task":"memory_phase","broad_category":"I","image_png":"I_Rhyolite_11.png","image_id":155,"category_name":"Rhyolite","category":10,"distinct_rating":1.73,"distinct_type":"Bottom","rt":null,"stimulus":"Stimuli_Rocks480/I_Rhyolite_11.png","response":null,"trial_type":"image-keyboard-response","trial_index":95,"plugin_version":"2.1.0","time_elapsed":524950,"subject_id":"92018","group":"Group1","condition":"3_Rep","full_date":"2026-02-18T17:44:56.402Z","date":"2026-02-18","time":"17:44:56"},{"rt":null,"stimulus":"<p style=\"font-size: 50px; margin: 0; text-align: center;\">+</p>","response":null,"trial_type":"html-keyboard-response","trial_index":96,"plugin_version":"2.1.0","time_elapsed":525959,"subject_id":"92018","group":"Group1","condition":"3_Rep","full_date":"2026-02-18T17:44:56.402Z","date":"2026-02-18","time":"17:44:56"},{"task":"memory_phase","broad_category":"I","image_png":"I_Andesite_08.png","image_id":8,"category_name":"Andesite","category":1,"distinct_rating":1.95,"distinct_type":"Bottom","rt":null,"stimulus":"Stimuli_Rocks480/I_Andesite_08.png","response":null,"trial_type":"image-keyboard-response","trial_index":97,"plugin_version":"2.1.0","time_elapsed":528466,"subject_id":"92018","group":"Group1","condition":"3_Rep","full_date":"2026-02-18T17:44:56.402Z","date":"2026-02-18","time":"17:44:56"},{"rt":null,"stimulus":"<p style=\"font-size: 50px; margin: 0; text-align: center;\">+</p>","response":null,"trial_type":"html-keyboard-response","trial_index":98,"plugin_version":"2.1.0","time_elapsed":529469,"subject_id":"92018","group":"Group1","condition":"3_Rep","full_date":"2026-02-18T17:44:56.402Z","date":"2026-02-18","time":"17:44:56"},{"task":"memory_phase","broad_category":"S","image_png":"S_Breccia_11.png","image_id":347,"category_name":"Breccia","category":22,"distinct_rating":6.7,"distinct_type":"Top","rt":null,"stimulus":"Stimuli_Rocks480/S_Breccia_11.png","response":null,"trial_type":"image-keyboard-response","trial_index":99,"plugin_version":"2.1.0","time_elapsed":531978,"subject_id":"92018","group":"Group1","condition":"3_Rep","full_date":"2026-02-18T17:44:56.402Z","date":"2026-02-18","time":"17:44:56"},{"rt":null,"stimulus":"<p style=\"font-size: 50px; margin: 0; text-align: center;\">+</p>","response":null,"trial_type":"html-keyboard-response","trial_index":100,"plugin_version":"2.1.0","time_elapsed":532995,"subject_id":"92018","group":"Group1","condition":"3_Rep","full_date":"2026-02-18T17:44:56.402Z","date":"2026-02-18","time":"17:44:56"},{"task":"memory_phase","broad_category":"M","image_png":"M_Marble_06.png","image_id":230,"category_name":"Marble","category":15,"distinct_rating":3.4,"distinct_type":"Bottom","rt":null,"stimulus":"Stimuli_Rocks480/M_Marble_06.png","response":null,"trial_type":"image-keyboard-response","trial_index":101,"plugin_version":"2.1.0","time_elapsed":535507,"subject_id":"92018","group":"Group1","condition":"3_Rep","full_date":"2026-02-18T17:44:56.402Z","date":"2026-02-18","time":"17:44:56"},{"rt":null,"stimulus":"<p style=\"font-size: 50px; margin: 0; text-align: center;\">+</p>","response":null,"trial_type":"html-keyboard-response","trial_index":102,"plugin_version":"2.1.0","time_elapsed":536511,"subject_id":"92018","group":"Group1","condition":"3_Rep","full_date":"2026-02-18T17:44:56.402Z","date":"2026-02-18","time":"17:44:56"},{"task":"memory_phase","broad_category":"M","image_png":"M_Gneiss_05.png","image_id":197,"category_name":"Gneiss","category":13,"distinct_rating":2.97,"distinct_type":"Bottom","rt":null,"stimulus":"Stimuli_Rocks480/M_Gneiss_05.png","response":null,"trial_type":"image-keyboard-response","trial_index":103,"plugin_version":"2.1.0","time_elapsed":539016,"subject_id":"92018","group":"Group1","condition":"3_Rep","full_date":"2026-02-18T17:44:56.402Z","date":"2026-02-18","time":"17:44:56"},{"rt":null,"stimulus":"<p style=\"font-size: 50px; margin: 0; text-align: center;\">+</p>","response":null,"trial_type":"html-keyboard-response","trial_index":104,"plugin_version":"2.1.0","time_elapsed":540020,"subject_id":"92018","group":"Group1","condition":"3_Rep","full_date":"2026-02-18T17:44:56.402Z","date":"2026-02-18","time":"17:44:56"},{"task":"memory_phase","broad_category":"I","image_png":"I_Pumice_11.png","image_id":139,"category_name":"Pumice","category":9,"distinct_rating":1.74,"distinct_type":"Bottom","rt":null,"stimulus":"Stimuli_Rocks480/I_Pumice_11.png","response":null,"trial_type":"image-keyboard-response","trial_index":105,"plugin_version":"2.1.0","time_elapsed":542528,"subject_id":"92018","group":"Group1","condition":"3_Rep","full_date":"2026-02-18T17:44:56.402Z","date":"2026-02-18","time":"17:44:56"},{"rt":292468,"stimulus":"<p style=\"max-width: 760px; margin: auto; font-size: 35px; line-height: 1.5;\">\n                You have completed 1 study phase. \n                Now, we'll show you all the images again 2 more times.\n                <br><br>Press SPACE to continue\n              </p>","response":" ","trial_type":"html-keyboard-response","trial_index":106,"plugin_version":"2.1.0","time_elapsed":835000,"subject_id":"92018","group":"Group1","condition":"3_Rep","full_date":"2026-02-18T17:44:56.402Z","date":"2026-02-18","time":"17:44:56"},{"rt":null,"stimulus":"<p style=\"font-size: 50px; margin: 0; text-align: center;\">+</p>","response":null,"trial_type":"html-keyboard-response","trial_index":107,"plugin_version":"2.1.0","time_elapsed":836006,"subject_id":"92018","group":"Group1","condition":"3_Rep","full_date":"2026-02-18T17:44:56.402Z","date":"2026-02-18","time":"17:44:56"},{"task":"memory_phase","broad_category":"I","image_png":"I_Gabbro_08.png","image_id":56,"category_name":"Gabbro","category":4,"distinct_rating":3.02,"distinct_type":"Bottom","rt":null,"stimulus":"Stimuli_Rocks480/I_Gabbro_08.png","response":null,"trial_type":"image-keyboard-response","trial_index":108,"plugin_version":"2.1.0","time_elapsed":838523,"subject_id":"92018","group":"Group1","condition":"3_Rep","full_date":"2026-02-18T17:44:56.402Z","date":"2026-02-18","time":"17:44:56"},{"rt":null,"stimulus":"<p style=\"font-size: 50px; margin: 0; text-align: center;\">+</p>","response":null,"trial_type":"html-keyboard-response","trial_index":109,"plugin_version":"2.1.0","time_elapsed":839534,"subject_id":"92018","group":"Group1","condition":"3_Rep","full_date":"2026-02-18T17:44:56.402Z","date":"2026-02-18","time":"17:44:56"},{"task":"memory_phase","broad_category":"I","image_png":"I_Basalt_02.png","image_id":18,"category_name":"Basalt","category":2,"distinct_rating":1.84,"distinct_type":"Bottom","rt":null,"stimulus":"Stimuli_Rocks480/I_Basalt_02.png","response":null,"trial_type":"image-keyboard-response","trial_index":110,"plugin_version":"2.1.0","time_elapsed":842041,"subject_id":"92018","group":"Group1","condition":"3_Rep","full_date":"2026-02-18T17:44:56.402Z","date":"2026-02-18","time":"17:44:56"},{"rt":null,"stimulus":"<p style=\"font-size: 50px; margin: 0; text-align: center;\">+</p>","response":null,"trial_type":"html-keyboard-response","trial_index":111,"plugin_version":"2.1.0","time_elapsed":843046,"subject_id":"92018","group":"Group1","condition":"3_Rep","full_date":"2026-02-18T17:44:56.402Z","date":"2026-02-18","time":"17:44:56"},{"task":"memory_phase","broad_category":"S","image_png":"S_Breccia_11.png","image_id":347,"category_name":"Breccia","category":22,"distinct_rating":6.7,"distinct_type":"Top","rt":null,"stimulus":"Stimuli_Rocks480/S_Breccia_11.png","response":null,"trial_type":"image-keyboard-response","trial_index":112,"plugin_version":"2.1.0","time_elapsed":845557,"subject_id":"92018","group":"Group1","condition":"3_Rep","full_date":"2026-02-18T17:44:56.402Z","date":"2026-02-18","time":"17:44:56"},{"rt":null,"stimulus":"<p style=\"font-size: 50px; margin: 0; text-align: center;\">+</p>","response":null,"trial_type":"html-keyboard-response","trial_index":113,"plugin_version":"2.1.0","time_elapsed":846568,"subject_id":"92018","group":"Group1","condition":"3_Rep","full_date":"2026-02-18T17:44:56.402Z","date":"2026-02-18","time":"17:44:56"},{"task":"memory_phase","broad_category":"I","image_png":"I_Pumice_12.png","image_id":140,"category_name":"Pumice","category":9,"distinct_rating":2.97,"distinct_type":"Bottom","rt":null,"stimulus":"Stimuli_Rocks480/I_Pumice_12.png","response":null,"trial_type":"image-keyboard-response","trial_index":114,"plugin_version":"2.1.0","time_elapsed":849084,"subject_id":"92018","group":"Group1","condition":"3_Rep","full_date":"2026-02-18T17:44:56.402Z","date":"2026-02-18","time":"17:44:56"},{"rt":null,"stimulus":"<p style=\"font-size: 50px; margin: 0; text-align: center;\">+</p>","response":null,"trial_type":"html-keyboard-response","trial_index":115,"plugin_version":"2.1.0","time_elapsed":850102,"subject_id":"92018","group":"Group1","condition":"3_Rep","full_date":"2026-02-18T17:44:56.402Z","date":"2026-02-18","time":"17:44:56"},{"task":"memory_phase","broad_category":"I","image_png":"I_Pumice_11.png","image_id":139,"category_name":"Pumice","category":9,"distinct_rating":1.74,"distinct_type":"Bottom","rt":null,"stimulus":"Stimuli_Rocks480/I_Pumice_11.png","response":null,"trial_type":"image-keyboard-response","trial_index":116,"plugin_version":"2.1.0","time_elapsed":852627,"subject_id":"92018","group":"Group1","condition":"3_Rep","full_date":"2026-02-18T17:44:56.402Z","date":"2026-02-18","time":"17:44:56"},{"rt":null,"stimulus":"<p style=\"font-size: 50px; margin: 0; text-align: center;\">+</p>","response":null,"trial_type":"html-keyboard-response","trial_index":117,"plugin_version":"2.1.0","time_elapsed":853635,"subject_id":"92018","group":"Group1","condition":"3_Rep","full_date":"2026-02-18T17:44:56.402Z","date":"2026-02-18","time":"17:44:56"},{"task":"memory_phase","broad_category":"I","image_png":"I_Andesite_06.png","image_id":6,"category_name":"Andesite","category":1,"distinct_rating":3.17,"distinct_type":"Bottom","rt":null,"stimulus":"Stimuli_Rocks480/I_Andesite_06.png","response":null,"trial_type":"image-keyboard-response","trial_index":118,"plugin_version":"2.1.0","time_elapsed":856141,"subject_id":"92018","group":"Group1","condition":"3_Rep","full_date":"2026-02-18T17:44:56.402Z","date":"2026-02-18","time":"17:44:56"},{"rt":null,"stimulus":"<p style=\"font-size: 50px; margin: 0; text-align: center;\">+</p>","response":null,"trial_type":"html-keyboard-response","trial_index":119,"plugin_version":"2.1.0","time_elapsed":857151,"subject_id":"92018","group":"Group1","condition":"3_Rep","full_date":"2026-02-18T17:44:56.402Z","date":"2026-02-18","time":"17:44:56"},{"task":"memory_phase","broad_category":"M","image_png":"M_Gneiss_13.png","image_id":205,"category_name":"Gneiss","category":13,"distinct_rating":3.26,"distinct_type":"Bottom","rt":null,"stimulus":"Stimuli_Rocks480/M_Gneiss_13.png","response":null,"trial_type":"image-keyboard-response","trial_index":120,"plugin_version":"2.1.0","time_elapsed":859655,"subject_id":"92018","group":"Group1","condition":"3_Rep","full_date":"2026-02-18T17:44:56.402Z","date":"2026-02-18","time":"17:44:56"},{"rt":null,"stimulus":"<p style=\"font-size: 50px; margin: 0; text-align: center;\">+</p>","response":null,"trial_type":"html-keyboard-response","trial_index":121,"plugin_version":"2.1.0","time_elapsed":860668,"subject_id":"92018","group":"Group1","condition":"3_Rep","full_date":"2026-02-18T17:44:56.402Z","date":"2026-02-18","time":"17:44:56"},{"task":"memory_phase","broad_category":"S","image_png":"S_Sandstone_16.png","image_id":464,"category_name":"Sandstone","category":29,"distinct_rating":1.93,"distinct_type":"Bottom","rt":null,"stimulus":"Stimuli_Rocks480/S_Sandstone_16.png","response":null,"trial_type":"image-keyboard-response","trial_index":122,"plugin_version":"2.1.0","time_elapsed":863175,"subject_id":"92018","group":"Group1","condition":"3_Rep","full_date":"2026-02-18T17:44:56.402Z","date":"2026-02-18","time":"17:44:56"},{"rt":null,"stimulus":"<p style=\"font-size: 50px; margin: 0; text-align: center;\">+</p>","response":null,"trial_type":"html-keyboard-response","trial_index":123,"plugin_version":"2.1.0","time_elapsed":864193,"subject_id":"92018","group":"Group1","condition":"3_Rep","full_date":"2026-02-18T17:44:56.402Z","date":"2026-02-18","time":"17:44:56"},{"task":"memory_phase","broad_category":"S","image_png":"S_Rock Salt_01.png","image_id":433,"category_name":"Rock Salt","category":28,"distinct_rating":7.18,"distinct_type":"Top","rt":null,"stimulus":"Stimuli_Rocks480/S_Rock Salt_01.png","response":null,"trial_type":"image-keyboard-response","trial_index":124,"plugin_version":"2.1.0","time_elapsed":866705,"subject_id":"92018","group":"Group1","condition":"3_Rep","full_date":"2026-02-18T17:44:56.402Z","date":"2026-02-18","time":"17:44:56"},{"rt":null,"stimulus":"<p style=\"font-size: 50px; margin: 0; text-align: center;\">+</p>","response":null,"trial_type":"html-keyboard-response","trial_index":125,"plugin_version":"2.1.0","time_elapsed":867710,"subject_id":"92018","group":"Group1","condition":"3_Rep","full_date":"2026-02-18T17:44:56.402Z","date":"2026-02-18","time":"17:44:56"},{"task":"memory_phase","broad_category":"I","image_png":"I_Rhyolite_11.png","image_id":155,"category_name":"Rhyolite","category":10,"distinct_rating":1.73,"distinct_type":"Bottom","rt":null,"stimulus":"Stimuli_Rocks480/I_Rhyolite_11.png","response":null,"trial_type":"image-keyboard-response","trial_index":126,"plugin_version":"2.1.0","time_elapsed":870219,"subject_id":"92018","group":"Group1","condition":"3_Rep","full_date":"2026-02-18T17:44:56.402Z","date":"2026-02-18","time":"17:44:56"},{"rt":null,"stimulus":"<p style=\"font-size: 50px; margin: 0; text-align: center;\">+</p>","response":null,"trial_type":"html-keyboard-response","trial_index":127,"plugin_version":"2.1.0","time_elapsed":871233,"subject_id":"92018","group":"Group1","condition":"3_Rep","full_date":"2026-02-18T17:44:56.402Z","date":"2026-02-18","time":"17:44:56"},{"task":"memory_phase","broad_category":"M","image_png":"M_Quartzite_08.png","image_id":280,"category_name":"Quartzite","category":18,"distinct_rating":2.15,"distinct_type":"Bottom","rt":null,"stimulus":"Stimuli_Rocks480/M_Quartzite_08.png","response":null,"trial_type":"image-keyboard-response","trial_index":128,"plugin_version":"2.1.0","time_elapsed":873737,"subject_id":"92018","group":"Group1","condition":"3_Rep","full_date":"2026-02-18T17:44:56.402Z","date":"2026-02-18","time":"17:44:56"},{"rt":null,"stimulus":"<p style=\"font-size: 50px; margin: 0; text-align: center;\">+</p>","response":null,"trial_type":"html-keyboard-response","trial_index":129,"plugin_version":"2.1.0","time_elapsed":874759,"subject_id":"92018","group":"Group1","condition":"3_Rep","full_date":"2026-02-18T17:44:56.402Z","date":"2026-02-18","time":"17:44:56"},{"task":"memory_phase","broad_category":"M","image_png":"M_Gneiss_06.png","image_id":198,"category_name":"Gneiss","category":13,"distinct_rating":2.65,"distinct_type":"Bottom","rt":null,"stimulus":"Stimuli_Rocks480/M_Gneiss_06.png","response":null,"trial_type":"image-keyboard-response","trial_index":130,"plugin_version":"2.1.0","time_elapsed":877272,"subject_id":"92018","group":"Group1","condition":"3_Rep","full_date":"2026-02-18T17:44:56.402Z","date":"2026-02-18","time":"17:44:56"},{"rt":null,"stimulus":"<p style=\"font-size: 50px; margin: 0; text-align: center;\">+</p>","response":null,"trial_type":"html-keyboard-response","trial_index":131,"plugin_version":"2.1.0","time_elapsed":878284,"subject_id":"92018","group":"Group1","condition":"3_Rep","full_date":"2026-02-18T17:44:56.402Z","date":"2026-02-18","time":"17:44:56"},{"task":"memory_phase","broad_category":"M","image_png":"M_Phyllite_07.png","image_id":263,"category_name":"Phyllite","category":17,"distinct_rating":2.59,"distinct_type":"Bottom","rt":null,"stimulus":"Stimuli_Rocks480/M_Phyllite_07.png","response":null,"trial_type":"image-keyboard-response","trial_index":132,"plugin_version":"2.1.0","time_elapsed":880807,"subject_id":"92018","group":"Group1","condition":"3_Rep","full_date":"2026-02-18T17:44:56.402Z","date":"2026-02-18","time":"17:44:56"},{"rt":null,"stimulus":"<p style=\"font-size: 50px; margin: 0; text-align: center;\">+</p>","response":null,"trial_type":"html-keyboard-response","trial_index":133,"plugin_version":"2.1.0","time_elapsed":881817,"subject_id":"92018","group":"Group1","condition":"3_Rep","full_date":"2026-02-18T17:44:56.402Z","date":"2026-02-18","time":"17:44:56"},{"task":"memory_phase","broad_category":"M","image_png":"M_Phyllite_10.png","image_id":266,"category_name":"Phyllite","category":17,"distinct_rating":2.6,"distinct_type":"Bottom","rt":null,"stimulus":"Stimuli_Rocks480/M_Phyllite_10.png","response":null,"trial_type":"image-keyboard-response","trial_index":134,"plugin_version":"2.1.0","time_elapsed":884341,"subject_id":"92018","group":"Group1","condition":"3_Rep","full_date":"2026-02-18T17:44:56.402Z","date":"2026-02-18","time":"17:44:56"},{"rt":null,"stimulus":"<p style=\"font-size: 50px; margin: 0; text-align: center;\">+</p>","response":null,"trial_type":"html-keyboard-response","trial_index":135,"plugin_version":"2.1.0","time_elapsed":885353,"subject_id":"92018","group":"Group1","condition":"3_Rep","full_date":"2026-02-18T17:44:56.402Z","date":"2026-02-18","time":"17:44:56"},{"task":"memory_phase","broad_category":"S","image_png":"S_Dolomite_13.png","image_id":397,"category_name":"Dolomite","category":25,"distinct_rating":1.77,"distinct_type":"Bottom","rt":null,"stimulus":"Stimuli_Rocks480/S_Dolomite_13.png","response":null,"trial_type":"image-keyboard-response","trial_index":136,"plugin_version":"2.1.0","time_elapsed":887871,"subject_id":"92018","group":"Group1","condition":"3_Rep","full_date":"2026-02-18T17:44:56.402Z","date":"2026-02-18","time":"17:44:56"},{"rt":null,"stimulus":"<p style=\"font-size: 50px; margin: 0; text-align: center;\">+</p>","response":null,"trial_type":"html-keyboard-response","trial_index":137,"plugin_version":"2.1.0","time_elapsed":888884,"subject_id":"92018","group":"Group1","condition":"3_Rep","full_date":"2026-02-18T17:44:56.402Z","date":"2026-02-18","time":"17:44:56"},{"task":"memory_phase","broad_category":"M","image_png":"M_Gneiss_05.png","image_id":197,"category_name":"Gneiss","category":13,"distinct_rating":2.97,"distinct_type":"Bottom","rt":null,"stimulus":"Stimuli_Rocks480/M_Gneiss_05.png","response":null,"trial_type":"image-keyboard-response","trial_index":138,"plugin_version":"2.1.0","time_elapsed":891398,"subject_id":"92018","group":"Group1","condition":"3_Rep","full_date":"2026-02-18T17:44:56.402Z","date":"2026-02-18","time":"17:44:56"},{"rt":null,"stimulus":"<p style=\"font-size: 50px; margin: 0; text-align: center;\">+</p>","response":null,"trial_type":"html-keyboard-response","trial_index":139,"plugin_version":"2.1.0","time_elapsed":892408,"subject_id":"92018","group":"Group1","condition":"3_Rep","full_date":"2026-02-18T17:44:56.402Z","date":"2026-02-18","time":"17:44:56"},{"task":"memory_phase","broad_category":"S","image_png":"S_Conglomerate_05.png","image_id":373,"category_name":"Conglomerate","category":24,"distinct_rating":7.32,"distinct_type":"Top","rt":null,"stimulus":"Stimuli_Rocks480/S_Conglomerate_05.png","response":null,"trial_type":"image-keyboard-response","trial_index":140,"plugin_version":"2.1.0","time_elapsed":894917,"subject_id":"92018","group":"Group1","condition":"3_Rep","full_date":"2026-02-18T17:44:56.402Z","date":"2026-02-18","time":"17:44:56"},{"rt":null,"stimulus":"<p style=\"font-size: 50px; margin: 0; text-align: center;\">+</p>","response":null,"trial_type":"html-keyboard-response","trial_index":141,"plugin_version":"2.1.0","time_elapsed":895923,"subject_id":"92018","group":"Group1","condition":"3_Rep","full_date":"2026-02-18T17:44:56.402Z","date":"2026-02-18","time":"17:44:56"},{"task":"memory_phase","broad_category":"I","image_png":"I_Obsidian_05.png","image_id":85,"category_name":"Obsidian","category":6,"distinct_rating":7.32,"distinct_type":"Top","rt":null,"stimulus":"Stimuli_Rocks480/I_Obsidian_05.png","response":null,"trial_type":"image-keyboard-response","trial_index":142,"plugin_version":"2.1.0","time_elapsed":898429,"subject_id":"92018","group":"Group1","condition":"3_Rep","full_date":"2026-02-18T17:44:56.402Z","date":"2026-02-18","time":"17:44:56"},{"rt":null,"stimulus":"<p style=\"font-size: 50px; margin: 0; text-align: center;\">+</p>","response":null,"trial_type":"html-keyboard-response","trial_index":143,"plugin_version":"2.1.0","time_elapsed":899438,"subject_id":"92018","group":"Group1","condition":"3_Rep","full_date":"2026-02-18T17:44:56.402Z","date":"2026-02-18","time":"17:44:56"},{"task":"memory_phase","broad_category":"I","image_png":"I_Gabbro_11.png","image_id":59,"category_name":"Gabbro","category":4,"distinct_rating":1.99,"distinct_type":"Bottom","rt":null,"stimulus":"Stimuli_Rocks480/I_Gabbro_11.png","response":null,"trial_type":"image-keyboard-response","trial_index":144,"plugin_version":"2.1.0","time_elapsed":901943,"subject_id":"92018","group":"Group1","condition":"3_Rep","full_date":"2026-02-18T17:44:56.402Z","date":"2026-02-18","time":"17:44:56"},{"rt":null,"stimulus":"<p style=\"font-size: 50px; margin: 0; text-align: center;\">+</p>","response":null,"trial_type":"html-keyboard-response","trial_index":145,"plugin_version":"2.1.0","time_elapsed":902959,"subject_id":"92018","group":"Group1","condition":"3_Rep","full_date":"2026-02-18T17:44:56.402Z","date":"2026-02-18","time":"17:44:56"},{"task":"memory_phase","broad_category":"I","image_png":"I_Andesite_08.png","image_id":8,"category_name":"Andesite","category":1,"distinct_rating":1.95,"distinct_type":"Bottom","rt":null,"stimulus":"Stimuli_Rocks480/I_Andesite_08.png","response":null,"trial_type":"image-keyboard-response","trial_index":146,"plugin_version":"2.1.0","time_elapsed":905470,"subject_id":"92018","group":"Group1","condition":"3_Rep","full_date":"2026-02-18T17:44:56.402Z","date":"2026-02-18","time":"17:44:56"},{"rt":null,"stimulus":"<p style=\"font-size: 50px; margin: 0; text-align: center;\">+</p>","response":null,"trial_type":"html-keyboard-response","trial_index":147,"plugin_version":"2.1.0","time_elapsed":906484,"subject_id":"92018","group":"Group1","condition":"3_Rep","full_date":"2026-02-18T17:44:56.402Z","date":"2026-02-18","time":"17:44:56"},{"task":"memory_phase","broad_category":"S","image_png":"S_Sandstone_03.png","image_id":451,"category_name":"Sandstone","category":29,"distinct_rating":1.86,"distinct_type":"Bottom","rt":null,"stimulus":"Stimuli_Rocks480/S_Sandstone_03.png","response":null,"trial_type":"image-keyboard-response","trial_index":148,"plugin_version":"2.1.0","time_elapsed":908990,"subject_id":"92018","group":"Group1","condition":"3_Rep","full_date":"2026-02-18T17:44:56.402Z","date":"2026-02-18","time":"17:44:56"},{"rt":null,"stimulus":"<p style=\"font-size: 50px; margin: 0; text-align: center;\">+</p>","response":null,"trial_type":"html-keyboard-response","trial_index":149,"plugin_version":"2.1.0","time_elapsed":910006,"subject_id":"92018","group":"Group1","condition":"3_Rep","full_date":"2026-02-18T17:44:56.402Z","date":"2026-02-18","time":"17:44:56"},{"task":"memory_phase","broad_category":"M","image_png":"M_Marble_16.png","image_id":240,"category_name":"Marble","category":15,"distinct_rating":2.57,"distinct_type":"Bottom","rt":null,"stimulus":"Stimuli_Rocks480/M_Marble_16.png","response":null,"trial_type":"image-keyboard-response","trial_index":150,"plugin_version":"2.1.0","time_elapsed":912517,"subject_id":"92018","group":"Group1","condition":"3_Rep","full_date":"2026-02-18T17:44:56.402Z","date":"2026-02-18","time":"17:44:56"},{"rt":null,"stimulus":"<p style=\"font-size: 50px; margin: 0; text-align: center;\">+</p>","response":null,"trial_type":"html-keyboard-response","trial_index":151,"plugin_version":"2.1.0","time_elapsed":913525,"subject_id":"92018","group":"Group1","condition":"3_Rep","full_date":"2026-02-18T17:44:56.402Z","date":"2026-02-18","time":"17:44:56"},{"task":"memory_phase","broad_category":"I","image_png":"I_Andesite_10.png","image_id":10,"category_name":"Andesite","category":1,"distinct_rating":3.15,"distinct_type":"Bottom","rt":null,"stimulus":"Stimuli_Rocks480/I_Andesite_10.png","response":null,"trial_type":"image-keyboard-response","trial_index":152,"plugin_version":"2.1.0","time_elapsed":916030,"subject_id":"92018","group":"Group1","condition":"3_Rep","full_date":"2026-02-18T17:44:56.402Z","date":"2026-02-18","time":"17:44:56"},{"rt":null,"stimulus":"<p style=\"font-size: 50px; margin: 0; text-align: center;\">+</p>","response":null,"trial_type":"html-keyboard-response","trial_index":153,"plugin_version":"2.1.0","time_elapsed":917038,"subject_id":"92018","group":"Group1","condition":"3_Rep","full_date":"2026-02-18T17:44:56.402Z","date":"2026-02-18","time":"17:44:56"},{"task":"memory_phase","broad_category":"I","image_png":"I_Gabbro_16.png","image_id":64,"category_name":"Gabbro","category":4,"distinct_rating":2.52,"distinct_type":"Bottom","rt":null,"stimulus":"Stimuli_Rocks480/I_Gabbro_16.png","response":null,"trial_type":"image-keyboard-response","trial_index":154,"plugin_version":"2.1.0","time_elapsed":919557,"subject_id":"92018","group":"Group1","condition":"3_Rep","full_date":"2026-02-18T17:44:56.402Z","date":"2026-02-18","time":"17:44:56"},{"rt":null,"stimulus":"<p style=\"font-size: 50px; margin: 0; text-align: center;\">+</p>","response":null,"trial_type":"html-keyboard-response","trial_index":155,"plugin_version":"2.1.0","time_elapsed":920575,"subject_id":"92018","group":"Group1","condition":"3_Rep","full_date":"2026-02-18T17:44:56.402Z","date":"2026-02-18","time":"17:44:56"},{"task":"memory_phase","broad_category":"I","image_png":"I_Pegmatite_10.png","image_id":106,"category_name":"Pegmatite","category":7,"distinct_rating":7.66,"distinct_type":"Top","rt":null,"stimulus":"Stimuli_Rocks480/I_Pegmatite_10.png","response":null,"trial_type":"image-keyboard-response","trial_index":156,"plugin_version":"2.1.0","time_elapsed":923087,"subject_id":"92018","group":"Group1","condition":"3_Rep","full_date":"2026-02-18T17:44:56.402Z","date":"2026-02-18","time":"17:44:56"},{"rt":9612,"stimulus":"<p style=\"max-width: 760px; margin: auto; font-size: 35px; line-height: 1.5;\">\n                Press SPACE to continue study phase\n              </p>","response":" ","trial_type":"html-keyboard-response","trial_index":157,"plugin_version":"2.1.0","time_elapsed":932703,"subject_id":"92018","group":"Group1","condition":"3_Rep","full_date":"2026-02-18T17:44:56.402Z","date":"2026-02-18","time":"17:44:56"},{"rt":null,"stimulus":"<p style=\"font-size: 50px; margin: 0; text-align: center;\">+</p>","response":null,"trial_type":"html-keyboard-response","trial_index":158,"plugin_version":"2.1.0","time_elapsed":933720,"subject_id":"92018","group":"Group1","condition":"3_Rep","full_date":"2026-02-18T17:44:56.402Z","date":"2026-02-18","time":"17:44:56"},{"task":"memory_phase","broad_category":"S","image_png":"S_Dolomite_14.png","image_id":398,"category_name":"Dolomite","category":25,"distinct_rating":1.43,"distinct_type":"Bottom","rt":null,"stimulus":"Stimuli_Rocks480/S_Dolomite_14.png","response":null,"trial_type":"image-keyboard-response","trial_index":159,"plugin_version":"2.1.0","time_elapsed":936236,"subject_id":"92018","group":"Group1","condition":"3_Rep","full_date":"2026-02-18T17:44:56.402Z","date":"2026-02-18","time":"17:44:56"},{"rt":null,"stimulus":"<p style=\"font-size: 50px; margin: 0; text-align: center;\">+</p>","response":null,"trial_type":"html-keyboard-response","trial_index":160,"plugin_version":"2.1.0","time_elapsed":937248,"subject_id":"92018","group":"Group1","condition":"3_Rep","full_date":"2026-02-18T17:44:56.402Z","date":"2026-02-18","time":"17:44:56"},{"task":"memory_phase","broad_category":"I","image_png":"I_Diorite_03.png","image_id":35,"category_name":"Diorite","category":3,"distinct_rating":3.14,"distinct_type":"Bottom","rt":null,"stimulus":"Stimuli_Rocks480/I_Diorite_03.png","response":null,"trial_type":"image-keyboard-response","trial_index":161,"plugin_version":"2.1.0","time_elapsed":939752,"subject_id":"92018","group":"Group1","condition":"3_Rep","full_date":"2026-02-18T17:44:56.402Z","date":"2026-02-18","time":"17:44:56"},{"rt":null,"stimulus":"<p style=\"font-size: 50px; margin: 0; text-align: center;\">+</p>","response":null,"trial_type":"html-keyboard-response","trial_index":162,"plugin_version":"2.1.0","time_elapsed":940764,"subject_id":"92018","group":"Group1","condition":"3_Rep","full_date":"2026-02-18T17:44:56.402Z","date":"2026-02-18","time":"17:44:56"},{"task":"memory_phase","broad_category":"S","image_png":"S_Sandstone_15.png","image_id":463,"category_name":"Sandstone","category":29,"distinct_rating":2,"distinct_type":"Bottom","rt":null,"stimulus":"Stimuli_Rocks480/S_Sandstone_15.png","response":null,"trial_type":"image-keyboard-response","trial_index":163,"plugin_version":"2.1.0","time_elapsed":943279,"subject_id":"92018","group":"Group1","condition":"3_Rep","full_date":"2026-02-18T17:44:56.402Z","date":"2026-02-18","time":"17:44:56"},{"rt":null,"stimulus":"<p style=\"font-size: 50px; margin: 0; text-align: center;\">+</p>","response":null,"trial_type":"html-keyboard-response","trial_index":164,"plugin_version":"2.1.0","time_elapsed":944292,"subject_id":"92018","group":"Group1","condition":"3_Rep","full_date":"2026-02-18T17:44:56.402Z","date":"2026-02-18","time":"17:44:56"},{"task":"memory_phase","broad_category":"S","image_png":"S_Shale_08.png","image_id":472,"category_name":"Shale","category":30,"distinct_rating":2.55,"distinct_type":"Bottom","rt":null,"stimulus":"Stimuli_Rocks480/S_Shale_08.png","response":null,"trial_type":"image-keyboard-response","trial_index":165,"plugin_version":"2.1.0","time_elapsed":946801,"subject_id":"92018","group":"Group1","condition":"3_Rep","full_date":"2026-02-18T17:44:56.402Z","date":"2026-02-18","time":"17:44:56"},{"rt":null,"stimulus":"<p style=\"font-size: 50px; margin: 0; text-align: center;\">+</p>","response":null,"trial_type":"html-keyboard-response","trial_index":166,"plugin_version":"2.1.0","time_elapsed":947803,"subject_id":"92018","group":"Group1","condition":"3_Rep","full_date":"2026-02-18T17:44:56.402Z","date":"2026-02-18","time":"17:44:56"},{"task":"memory_phase","broad_category":"M","image_png":"M_Slate_11.png","image_id":315,"category_name":"Slate","category":20,"distinct_rating":2.75,"distinct_type":"Bottom","rt":null,"stimulus":"Stimuli_Rocks480/M_Slate_11.png","response":null,"trial_type":"image-keyboard-response","trial_index":167,"plugin_version":"2.1.0","time_elapsed":950311,"subject_id":"92018","group":"Group1","condition":"3_Rep","full_date":"2026-02-18T17:44:56.402Z","date":"2026-02-18","time":"17:44:56"},{"rt":null,"stimulus":"<p style=\"font-size: 50px; margin: 0; text-align: center;\">+</p>","response":null,"trial_type":"html-keyboard-response","trial_index":168,"plugin_version":"2.1.0","time_elapsed":951312,"subject_id":"92018","group":"Group1","condition":"3_Rep","full_date":"2026-02-18T17:44:56.402Z","date":"2026-02-18","time":"17:44:56"},{"task":"memory_phase","broad_category":"S","image_png":"S_Dolomite_12.png","image_id":396,"category_name":"Dolomite","category":25,"distinct_rating":1.85,"distinct_type":"Bottom","rt":null,"stimulus":"Stimuli_Rocks480/S_Dolomite_12.png","response":null,"trial_type":"image-keyboard-response","trial_index":169,"plugin_version":"2.1.0","time_elapsed":953814,"subject_id":"92018","group":"Group1","condition":"3_Rep","full_date":"2026-02-18T17:44:56.402Z","date":"2026-02-18","time":"17:44:56"},{"rt":null,"stimulus":"<p style=\"font-size: 50px; margin: 0; text-align: center;\">+</p>","response":null,"trial_type":"html-keyboard-response","trial_index":170,"plugin_version":"2.1.0","time_elapsed":954820,"subject_id":"92018","group":"Group1","condition":"3_Rep","full_date":"2026-02-18T17:44:56.402Z","date":"2026-02-18","time":"17:44:56"},{"task":"memory_phase","broad_category":"M","image_png":"M_Slate_15.png","image_id":319,"category_name":"Slate","category":20,"distinct_rating":2.13,"distinct_type":"Bottom","rt":null,"stimulus":"Stimuli_Rocks480/M_Slate_15.png","response":null,"trial_type":"image-keyboard-response","trial_index":171,"plugin_version":"2.1.0","time_elapsed":957332,"subject_id":"92018","group":"Group1","condition":"3_Rep","full_date":"2026-02-18T17:44:56.402Z","date":"2026-02-18","time":"17:44:56"},{"rt":null,"stimulus":"<p style=\"font-size: 50px; margin: 0; text-align: center;\">+</p>","response":null,"trial_type":"html-keyboard-response","trial_index":172,"plugin_version":"2.1.0","time_elapsed":958341,"subject_id":"92018","group":"Group1","condition":"3_Rep","full_date":"2026-02-18T17:44:56.402Z","date":"2026-02-18","time":"17:44:56"},{"task":"memory_phase","broad_category":"I","image_png":"I_Rhyolite_16.png","image_id":160,"category_name":"Rhyolite","category":10,"distinct_rating":2.19,"distinct_type":"Bottom","rt":null,"stimulus":"Stimuli_Rocks480/I_Rhyolite_16.png","response":null,"trial_type":"image-keyboard-response","trial_index":173,"plugin_version":"2.1.0","time_elapsed":960855,"subject_id":"92018","group":"Group1","condition":"3_Rep","full_date":"2026-02-18T17:44:56.402Z","date":"2026-02-18","time":"17:44:56"},{"rt":null,"stimulus":"<p style=\"font-size: 50px; margin: 0; text-align: center;\">+</p>","response":null,"trial_type":"html-keyboard-response","trial_index":174,"plugin_version":"2.1.0","time_elapsed":961868,"subject_id":"92018","group":"Group1","condition":"3_Rep","full_date":"2026-02-18T17:44:56.402Z","date":"2026-02-18","time":"17:44:56"},{"task":"memory_phase","broad_category":"I","image_png":"I_Pumice_08.png","image_id":136,"category_name":"Pumice","category":9,"distinct_rating":3.1,"distinct_type":"Bottom","rt":null,"stimulus":"Stimuli_Rocks480/I_Pumice_08.png","response":null,"trial_type":"image-keyboard-response","trial_index":175,"plugin_version":"2.1.0","time_elapsed":964381,"subject_id":"92018","group":"Group1","condition":"3_Rep","full_date":"2026-02-18T17:44:56.402Z","date":"2026-02-18","time":"17:44:56"},{"rt":null,"stimulus":"<p style=\"font-size: 50px; margin: 0; text-align: center;\">+</p>","response":null,"trial_type":"html-keyboard-response","trial_index":176,"plugin_version":"2.1.0","time_elapsed":965397,"subject_id":"92018","group":"Group1","condition":"3_Rep","full_date":"2026-02-18T17:44:56.402Z","date":"2026-02-18","time":"17:44:56"},{"task":"memory_phase","broad_category":"I","image_png":"I_Pegmatite_16.png","image_id":112,"category_name":"Pegmatite","category":7,"distinct_rating":7.03,"distinct_type":"Top","rt":null,"stimulus":"Stimuli_Rocks480/I_Pegmatite_16.png","response":null,"trial_type":"image-keyboard-response","trial_index":177,"plugin_version":"2.1.0","time_elapsed":967902,"subject_id":"92018","group":"Group1","condition":"3_Rep","full_date":"2026-02-18T17:44:56.402Z","date":"2026-02-18","time":"17:44:56"},{"rt":null,"stimulus":"<p style=\"font-size: 50px; margin: 0; text-align: center;\">+</p>","response":null,"trial_type":"html-keyboard-response","trial_index":178,"plugin_version":"2.1.0","time_elapsed":968916,"subject_id":"92018","group":"Group1","condition":"3_Rep","full_date":"2026-02-18T17:44:56.402Z","date":"2026-02-18","time":"17:44:56"},{"task":"memory_phase","broad_category":"I","image_png":"I_Basalt_09.png","image_id":25,"category_name":"Basalt","category":2,"distinct_rating":1.89,"distinct_type":"Bottom","rt":null,"stimulus":"Stimuli_Rocks480/I_Basalt_09.png","response":null,"trial_type":"image-keyboard-response","trial_index":179,"plugin_version":"2.1.0","time_elapsed":971430,"subject_id":"92018","group":"Group1","condition":"3_Rep","full_date":"2026-02-18T17:44:56.402Z","date":"2026-02-18","time":"17:44:56"},{"rt":null,"stimulus":"<p style=\"font-size: 50px; margin: 0; text-align: center;\">+</p>","response":null,"trial_type":"html-keyboard-response","trial_index":180,"plugin_version":"2.1.0","time_elapsed":972436,"subject_id":"92018","group":"Group1","condition":"3_Rep","full_date":"2026-02-18T17:44:56.402Z","date":"2026-02-18","time":"17:44:56"},{"task":"memory_phase","broad_category":"M","image_png":"M_Phyllite_03.png","image_id":259,"category_name":"Phyllite","category":17,"distinct_rating":2.5,"distinct_type":"Bottom","rt":null,"stimulus":"Stimuli_Rocks480/M_Phyllite_03.png","response":null,"trial_type":"image-keyboard-response","trial_index":181,"plugin_version":"2.1.0","time_elapsed":974944,"subject_id":"92018","group":"Group1","condition":"3_Rep","full_date":"2026-02-18T17:44:56.402Z","date":"2026-02-18","time":"17:44:56"},{"rt":null,"stimulus":"<p style=\"font-size: 50px; margin: 0; text-align: center;\">+</p>","response":null,"trial_type":"html-keyboard-response","trial_index":182,"plugin_version":"2.1.0","time_elapsed":975949,"subject_id":"92018","group":"Group1","condition":"3_Rep","full_date":"2026-02-18T17:44:56.402Z","date":"2026-02-18","time":"17:44:56"},{"task":"memory_phase","broad_category":"M","image_png":"M_Quartzite_13.png","image_id":285,"category_name":"Quartzite","category":18,"distinct_rating":2.27,"distinct_type":"Bottom","rt":null,"stimulus":"Stimuli_Rocks480/M_Quartzite_13.png","response":null,"trial_type":"image-keyboard-response","trial_index":183,"plugin_version":"2.1.0","time_elapsed":978462,"subject_id":"92018","group":"Group1","condition":"3_Rep","full_date":"2026-02-18T17:44:56.402Z","date":"2026-02-18","time":"17:44:56"},{"rt":null,"stimulus":"<p style=\"font-size: 50px; margin: 0; text-align: center;\">+</p>","response":null,"trial_type":"html-keyboard-response","trial_index":184,"plugin_version":"2.1.0","time_elapsed":979473,"subject_id":"92018","group":"Group1","condition":"3_Rep","full_date":"2026-02-18T17:44:56.402Z","date":"2026-02-18","time":"17:44:56"},{"task":"memory_phase","broad_category":"M","image_png":"M_Slate_03.png","image_id":307,"category_name":"Slate","category":20,"distinct_rating":1.87,"distinct_type":"Bottom","rt":null,"stimulus":"Stimuli_Rocks480/M_Slate_03.png","response":null,"trial_type":"image-keyboard-response","trial_index":185,"plugin_version":"2.1.0","time_elapsed":981983,"subject_id":"92018","group":"Group1","condition":"3_Rep","full_date":"2026-02-18T17:44:56.402Z","date":"2026-02-18","time":"17:44:56"},{"rt":null,"stimulus":"<p style=\"font-size: 50px; margin: 0; text-align: center;\">+</p>","response":null,"trial_type":"html-keyboard-response","trial_index":186,"plugin_version":"2.1.0","time_elapsed":982998,"subject_id":"92018","group":"Group1","condition":"3_Rep","full_date":"2026-02-18T17:44:56.402Z","date":"2026-02-18","time":"17:44:56"},{"task":"memory_phase","broad_category":"I","image_png":"I_Diorite_05.png","image_id":37,"category_name":"Diorite","category":3,"distinct_rating":3.08,"distinct_type":"Bottom","rt":null,"stimulus":"Stimuli_Rocks480/I_Diorite_05.png","response":null,"trial_type":"image-keyboard-response","trial_index":187,"plugin_version":"2.1.0","time_elapsed":985511,"subject_id":"92018","group":"Group1","condition":"3_Rep","full_date":"2026-02-18T17:44:56.402Z","date":"2026-02-18","time":"17:44:56"},{"rt":null,"stimulus":"<p style=\"font-size: 50px; margin: 0; text-align: center;\">+</p>","response":null,"trial_type":"html-keyboard-response","trial_index":188,"plugin_version":"2.1.0","time_elapsed":986521,"subject_id":"92018","group":"Group1","condition":"3_Rep","full_date":"2026-02-18T17:44:56.402Z","date":"2026-02-18","time":"17:44:56"},{"task":"memory_phase","broad_category":"M","image_png":"M_Marble_06.png","image_id":230,"category_name":"Marble","category":15,"distinct_rating":3.4,"distinct_type":"Bottom","rt":null,"stimulus":"Stimuli_Rocks480/M_Marble_06.png","response":null,"trial_type":"image-keyboard-response","trial_index":189,"plugin_version":"2.1.0","time_elapsed":989032,"subject_id":"92018","group":"Group1","condition":"3_Rep","full_date":"2026-02-18T17:44:56.402Z","date":"2026-02-18","time":"17:44:56"},{"rt":null,"stimulus":"<p style=\"font-size: 50px; margin: 0; text-align: center;\">+</p>","response":null,"trial_type":"html-keyboard-response","trial_index":190,"plugin_version":"2.1.0","time_elapsed":990047,"subject_id":"92018","group":"Group1","condition":"3_Rep","full_date":"2026-02-18T17:44:56.402Z","date":"2026-02-18","time":"17:44:56"},{"task":"memory_phase","broad_category":"S","image_png":"S_Chert_10.png","image_id":362,"category_name":"Chert","category":23,"distinct_rating":7.17,"distinct_type":"Top","rt":null,"stimulus":"Stimuli_Rocks480/S_Chert_10.png","response":null,"trial_type":"image-keyboard-response","trial_index":191,"plugin_version":"2.1.0","time_elapsed":992552,"subject_id":"92018","group":"Group1","condition":"3_Rep","full_date":"2026-02-18T17:44:56.402Z","date":"2026-02-18","time":"17:44:56"},{"rt":null,"stimulus":"<p style=\"font-size: 50px; margin: 0; text-align: center;\">+</p>","response":null,"trial_type":"html-keyboard-response","trial_index":192,"plugin_version":"2.1.0","time_elapsed":993568,"subject_id":"92018","group":"Group1","condition":"3_Rep","full_date":"2026-02-18T17:44:56.402Z","date":"2026-02-18","time":"17:44:56"},{"task":"memory_phase","broad_category":"I","image_png":"I_Basalt_01.png","image_id":17,"category_name":"Basalt","category":2,"distinct_rating":1.92,"distinct_type":"Bottom","rt":null,"stimulus":"Stimuli_Rocks480/I_Basalt_01.png","response":null,"trial_type":"image-keyboard-response","trial_index":193,"plugin_version":"2.1.0","time_elapsed":996082,"subject_id":"92018","group":"Group1","condition":"3_Rep","full_date":"2026-02-18T17:44:56.402Z","date":"2026-02-18","time":"17:44:56"},{"rt":null,"stimulus":"<p style=\"font-size: 50px; margin: 0; text-align: center;\">+</p>","response":null,"trial_type":"html-keyboard-response","trial_index":194,"plugin_version":"2.1.0","time_elapsed":997105,"subject_id":"92018","group":"Group1","condition":"3_Rep","full_date":"2026-02-18T17:44:56.402Z","date":"2026-02-18","time":"17:44:56"},{"task":"memory_phase","broad_category":"I","image_png":"I_Rhyolite_14.png","image_id":158,"category_name":"Rhyolite","category":10,"distinct_rating":2.59,"distinct_type":"Bottom","rt":null,"stimulus":"Stimuli_Rocks480/I_Rhyolite_14.png","response":null,"trial_type":"image-keyboard-response","trial_index":195,"plugin_version":"2.1.0","time_elapsed":999619,"subject_id":"92018","group":"Group1","condition":"3_Rep","full_date":"2026-02-18T17:44:56.402Z","date":"2026-02-18","time":"17:44:56"},{"rt":null,"stimulus":"<p style=\"font-size: 50px; margin: 0; text-align: center;\">+</p>","response":null,"trial_type":"html-keyboard-response","trial_index":196,"plugin_version":"2.1.0","time_elapsed":1000631,"subject_id":"92018","group":"Group1","condition":"3_Rep","full_date":"2026-02-18T17:44:56.402Z","date":"2026-02-18","time":"17:44:56"},{"task":"memory_phase","broad_category":"M","image_png":"M_Marble_04.png","image_id":228,"category_name":"Marble","category":15,"distinct_rating":3.15,"distinct_type":"Bottom","rt":null,"stimulus":"Stimuli_Rocks480/M_Marble_04.png","response":null,"trial_type":"image-keyboard-response","trial_index":197,"plugin_version":"2.1.0","time_elapsed":1003151,"subject_id":"92018","group":"Group1","condition":"3_Rep","full_date":"2026-02-18T17:44:56.402Z","date":"2026-02-18","time":"17:44:56"},{"rt":null,"stimulus":"<p style=\"font-size: 50px; margin: 0; text-align: center;\">+</p>","response":null,"trial_type":"html-keyboard-response","trial_index":198,"plugin_version":"2.1.0","time_elapsed":1004165,"subject_id":"92018","group":"Group1","condition":"3_Rep","full_date":"2026-02-18T17:44:56.402Z","date":"2026-02-18","time":"17:44:56"},{"task":"memory_phase","broad_category":"S","image_png":"S_Shale_01.png","image_id":465,"category_name":"Shale","category":30,"distinct_rating":2.7,"distinct_type":"Bottom","rt":null,"stimulus":"Stimuli_Rocks480/S_Shale_01.png","response":null,"trial_type":"image-keyboard-response","trial_index":199,"plugin_version":"2.1.0","time_elapsed":1006672,"subject_id":"92018","group":"Group1","condition":"3_Rep","full_date":"2026-02-18T17:44:56.402Z","date":"2026-02-18","time":"17:44:56"},{"rt":null,"stimulus":"<p style=\"font-size: 50px; margin: 0; text-align: center;\">+</p>","response":null,"trial_type":"html-keyboard-response","trial_index":200,"plugin_version":"2.1.0","time_elapsed":1007687,"subject_id":"92018","group":"Group1","condition":"3_Rep","full_date":"2026-02-18T17:44:56.402Z","date":"2026-02-18","time":"17:44:56"},{"task":"memory_phase","broad_category":"I","image_png":"I_Diorite_04.png","image_id":36,"category_name":"Diorite","category":3,"distinct_rating":2.98,"distinct_type":"Bottom","rt":null,"stimulus":"Stimuli_Rocks480/I_Diorite_04.png","response":null,"trial_type":"image-keyboard-response","trial_index":201,"plugin_version":"2.1.0","time_elapsed":1010196,"subject_id":"92018","group":"Group1","condition":"3_Rep","full_date":"2026-02-18T17:44:56.402Z","date":"2026-02-18","time":"17:44:56"},{"rt":null,"stimulus":"<p style=\"font-size: 50px; margin: 0; text-align: center;\">+</p>","response":null,"trial_type":"html-keyboard-response","trial_index":202,"plugin_version":"2.1.0","time_elapsed":1011205,"subject_id":"92018","group":"Group1","condition":"3_Rep","full_date":"2026-02-18T17:44:56.402Z","date":"2026-02-18","time":"17:44:56"},{"task":"memory_phase","broad_category":"S","image_png":"S_Rock Gypsum_04.png","image_id":420,"category_name":"Rock Gypsum","category":27,"distinct_rating":7.61,"distinct_type":"Top","rt":null,"stimulus":"Stimuli_Rocks480/S_Rock Gypsum_04.png","response":null,"trial_type":"image-keyboard-response","trial_index":203,"plugin_version":"2.1.0","time_elapsed":1013717,"subject_id":"92018","group":"Group1","condition":"3_Rep","full_date":"2026-02-18T17:44:56.402Z","date":"2026-02-18","time":"17:44:56"},{"rt":null,"stimulus":"<p style=\"font-size: 50px; margin: 0; text-align: center;\">+</p>","response":null,"trial_type":"html-keyboard-response","trial_index":204,"plugin_version":"2.1.0","time_elapsed":1014729,"subject_id":"92018","group":"Group1","condition":"3_Rep","full_date":"2026-02-18T17:44:56.402Z","date":"2026-02-18","time":"17:44:56"},{"task":"memory_phase","broad_category":"S","image_png":"S_Shale_12.png","image_id":476,"category_name":"Shale","category":30,"distinct_rating":2.48,"distinct_type":"Bottom","rt":null,"stimulus":"Stimuli_Rocks480/S_Shale_12.png","response":null,"trial_type":"image-keyboard-response","trial_index":205,"plugin_version":"2.1.0","time_elapsed":1017236,"subject_id":"92018","group":"Group1","condition":"3_Rep","full_date":"2026-02-18T17:44:56.402Z","date":"2026-02-18","time":"17:44:56"},{"rt":null,"stimulus":"<p style=\"font-size: 50px; margin: 0; text-align: center;\">+</p>","response":null,"trial_type":"html-keyboard-response","trial_index":206,"plugin_version":"2.1.0","time_elapsed":1018251,"subject_id":"92018","group":"Group1","condition":"3_Rep","full_date":"2026-02-18T17:44:56.402Z","date":"2026-02-18","time":"17:44:56"},{"task":"memory_phase","broad_category":"M","image_png":"M_Quartzite_05.png","image_id":277,"category_name":"Quartzite","category":18,"distinct_rating":2.23,"distinct_type":"Bottom","rt":null,"stimulus":"Stimuli_Rocks480/M_Quartzite_05.png","response":null,"trial_type":"image-keyboard-response","trial_index":207,"plugin_version":"2.1.0","time_elapsed":1020760,"subject_id":"92018","group":"Group1","condition":"3_Rep","full_date":"2026-02-18T17:44:56.402Z","date":"2026-02-18","time":"17:44:56"},{"rt":2295,"stimulus":"<p style=\"max-width: 760px; margin: auto; font-size: 35px; line-height: 1.5;\">\n                You have completed 2 study phases. \n                Now, we'll show you all the images again 1 more time.\n                <br><br>Press SPACE to continue\n              </p>","response":" ","trial_type":"html-keyboard-response","trial_index":208,"plugin_version":"2.1.0","time_elapsed":1023056,"subject_id":"92018","group":"Group1","condition":"3_Rep","full_date":"2026-02-18T17:44:56.402Z","date":"2026-02-18","time":"17:44:56"},{"rt":null,"stimulus":"<p style=\"font-size: 50px; margin: 0; text-align: center;\">+</p>","response":null,"trial_type":"html-keyboard-response","trial_index":209,"plugin_version":"2.1.0","time_elapsed":1024067,"subject_id":"92018","group":"Group1","condition":"3_Rep","full_date":"2026-02-18T17:44:56.402Z","date":"2026-02-18","time":"17:44:56"},{"task":"memory_phase","broad_category":"M","image_png":"M_Slate_15.png","image_id":319,"category_name":"Slate","category":20,"distinct_rating":2.13,"distinct_type":"Bottom","rt":null,"stimulus":"Stimuli_Rocks480/M_Slate_15.png","response":null,"trial_type":"image-keyboard-response","trial_index":210,"plugin_version":"2.1.0","time_elapsed":1026584,"subject_id":"92018","group":"Group1","condition":"3_Rep","full_date":"2026-02-18T17:44:56.402Z","date":"2026-02-18","time":"17:44:56"},{"rt":null,"stimulus":"<p style=\"font-size: 50px; margin: 0; text-align: center;\">+</p>","response":null,"trial_type":"html-keyboard-response","trial_index":211,"plugin_version":"2.1.0","time_elapsed":1027602,"subject_id":"92018","group":"Group1","condition":"3_Rep","full_date":"2026-02-18T17:44:56.402Z","date":"2026-02-18","time":"17:44:56"},{"task":"memory_phase","broad_category":"M","image_png":"M_Gneiss_13.png","image_id":205,"category_name":"Gneiss","category":13,"distinct_rating":3.26,"distinct_type":"Bottom","rt":null,"stimulus":"Stimuli_Rocks480/M_Gneiss_13.png","response":null,"trial_type":"image-keyboard-response","trial_index":212,"plugin_version":"2.1.0","time_elapsed":1030111,"subject_id":"92018","group":"Group1","condition":"3_Rep","full_date":"2026-02-18T17:44:56.402Z","date":"2026-02-18","time":"17:44:56"},{"rt":null,"stimulus":"<p style=\"font-size: 50px; margin: 0; text-align: center;\">+</p>","response":null,"trial_type":"html-keyboard-response","trial_index":213,"plugin_version":"2.1.0","time_elapsed":1031119,"subject_id":"92018","group":"Group1","condition":"3_Rep","full_date":"2026-02-18T17:44:56.402Z","date":"2026-02-18","time":"17:44:56"},{"task":"memory_phase","broad_category":"S","image_png":"S_Shale_08.png","image_id":472,"category_name":"Shale","category":30,"distinct_rating":2.55,"distinct_type":"Bottom","rt":null,"stimulus":"Stimuli_Rocks480/S_Shale_08.png","response":null,"trial_type":"image-keyboard-response","trial_index":214,"plugin_version":"2.1.0","time_elapsed":1033634,"subject_id":"92018","group":"Group1","condition":"3_Rep","full_date":"2026-02-18T17:44:56.402Z","date":"2026-02-18","time":"17:44:56"},{"rt":null,"stimulus":"<p style=\"font-size: 50px; margin: 0; text-align: center;\">+</p>","response":null,"trial_type":"html-keyboard-response","trial_index":215,"plugin_version":"2.1.0","time_elapsed":1034647,"subject_id":"92018","group":"Group1","condition":"3_Rep","full_date":"2026-02-18T17:44:56.402Z","date":"2026-02-18","time":"17:44:56"},{"task":"memory_phase","broad_category":"M","image_png":"M_Marble_04.png","image_id":228,"category_name":"Marble","category":15,"distinct_rating":3.15,"distinct_type":"Bottom","rt":null,"stimulus":"Stimuli_Rocks480/M_Marble_04.png","response":null,"trial_type":"image-keyboard-response","trial_index":216,"plugin_version":"2.1.0","time_elapsed":1037162,"subject_id":"92018","group":"Group1","condition":"3_Rep","full_date":"2026-02-18T17:44:56.402Z","date":"2026-02-18","time":"17:44:56"},{"rt":null,"stimulus":"<p style=\"font-size: 50px; margin: 0; text-align: center;\">+</p>","response":null,"trial_type":"html-keyboard-response","trial_index":217,"plugin_version":"2.1.0","time_elapsed":1038179,"subject_id":"92018","group":"Group1","condition":"3_Rep","full_date":"2026-02-18T17:44:56.402Z","date":"2026-02-18","time":"17:44:56"},{"task":"memory_phase","broad_category":"M","image_png":"M_Marble_06.png","image_id":230,"category_name":"Marble","category":15,"distinct_rating":3.4,"distinct_type":"Bottom","rt":null,"stimulus":"Stimuli_Rocks480/M_Marble_06.png","response":null,"trial_type":"image-keyboard-response","trial_index":218,"plugin_version":"2.1.0","time_elapsed":1040688,"subject_id":"92018","group":"Group1","condition":"3_Rep","full_date":"2026-02-18T17:44:56.402Z","date":"2026-02-18","time":"17:44:56"},{"rt":null,"stimulus":"<p style=\"font-size: 50px; margin: 0; text-align: center;\">+</p>","response":null,"trial_type":"html-keyboard-response","trial_index":219,"plugin_version":"2.1.0","time_elapsed":1041695,"subject_id":"92018","group":"Group1","condition":"3_Rep","full_date":"2026-02-18T17:44:56.402Z","date":"2026-02-18","time":"17:44:56"},{"task":"memory_phase","broad_category":"I","image_png":"I_Diorite_04.png","image_id":36,"category_name":"Diorite","category":3,"distinct_rating":2.98,"distinct_type":"Bottom","rt":null,"stimulus":"Stimuli_Rocks480/I_Diorite_04.png","response":null,"trial_type":"image-keyboard-response","trial_index":220,"plugin_version":"2.1.0","time_elapsed":1044200,"subject_id":"92018","group":"Group1","condition":"3_Rep","full_date":"2026-02-18T17:44:56.402Z","date":"2026-02-18","time":"17:44:56"},{"rt":null,"stimulus":"<p style=\"font-size: 50px; margin: 0; text-align: center;\">+</p>","response":null,"trial_type":"html-keyboard-response","trial_index":221,"plugin_version":"2.1.0","time_elapsed":1045219,"subject_id":"92018","group":"Group1","condition":"3_Rep","full_date":"2026-02-18T17:44:56.402Z","date":"2026-02-18","time":"17:44:56"},{"task":"memory_phase","broad_category":"M","image_png":"M_Gneiss_06.png","image_id":198,"category_name":"Gneiss","category":13,"distinct_rating":2.65,"distinct_type":"Bottom","rt":null,"stimulus":"Stimuli_Rocks480/M_Gneiss_06.png","response":null,"trial_type":"image-keyboard-response","trial_index":222,"plugin_version":"2.1.0","time_elapsed":1047733,"subject_id":"92018","group":"Group1","condition":"3_Rep","full_date":"2026-02-18T17:44:56.402Z","date":"2026-02-18","time":"17:44:56"},{"rt":null,"stimulus":"<p style=\"font-size: 50px; margin: 0; text-align: center;\">+</p>","response":null,"trial_type":"html-keyboard-response","trial_index":223,"plugin_version":"2.1.0","time_elapsed":1048747,"subject_id":"92018","group":"Group1","condition":"3_Rep","full_date":"2026-02-18T17:44:56.402Z","date":"2026-02-18","time":"17:44:56"},{"task":"memory_phase","broad_category":"I","image_png":"I_Pumice_08.png","image_id":136,"category_name":"Pumice","category":9,"distinct_rating":3.1,"distinct_type":"Bottom","rt":null,"stimulus":"Stimuli_Rocks480/I_Pumice_08.png","response":null,"trial_type":"image-keyboard-response","trial_index":224,"plugin_version":"2.1.0","time_elapsed":1051264,"subject_id":"92018","group":"Group1","condition":"3_Rep","full_date":"2026-02-18T17:44:56.402Z","date":"2026-02-18","time":"17:44:56"},{"rt":null,"stimulus":"<p style=\"font-size: 50px; margin: 0; text-align: center;\">+</p>","response":null,"trial_type":"html-keyboard-response","trial_index":225,"plugin_version":"2.1.0","time_elapsed":1052286,"subject_id":"92018","group":"Group1","condition":"3_Rep","full_date":"2026-02-18T17:44:56.402Z","date":"2026-02-18","time":"17:44:56"},{"task":"memory_phase","broad_category":"I","image_png":"I_Diorite_05.png","image_id":37,"category_name":"Diorite","category":3,"distinct_rating":3.08,"distinct_type":"Bottom","rt":null,"stimulus":"Stimuli_Rocks480/I_Diorite_05.png","response":null,"trial_type":"image-keyboard-response","trial_index":226,"plugin_version":"2.1.0","time_elapsed":1054796,"subject_id":"92018","group":"Group1","condition":"3_Rep","full_date":"2026-02-18T17:44:56.402Z","date":"2026-02-18","time":"17:44:56"},{"rt":null,"stimulus":"<p style=\"font-size: 50px; margin: 0; text-align: center;\">+</p>","response":null,"trial_type":"html-keyboard-response","trial_index":227,"plugin_version":"2.1.0","time_elapsed":1055812,"subject_id":"92018","group":"Group1","condition":"3_Rep","full_date":"2026-02-18T17:44:56.402Z","date":"2026-02-18","time":"17:44:56"},{"task":"memory_phase","broad_category":"S","image_png":"S_Shale_12.png","image_id":476,"category_name":"Shale","category":30,"distinct_rating":2.48,"distinct_type":"Bottom","rt":null,"stimulus":"Stimuli_Rocks480/S_Shale_12.png","response":null,"trial_type":"image-keyboard-response","trial_index":228,"plugin_version":"2.1.0","time_elapsed":1058329,"subject_id":"92018","group":"Group1","condition":"3_Rep","full_date":"2026-02-18T17:44:56.402Z","date":"2026-02-18","time":"17:44:56"},{"rt":null,"stimulus":"<p style=\"font-size: 50px; margin: 0; text-align: center;\">+</p>","response":null,"trial_type":"html-keyboard-response","trial_index":229,"plugin_version":"2.1.0","time_elapsed":1059343,"subject_id":"92018","group":"Group1","condition":"3_Rep","full_date":"2026-02-18T17:44:56.402Z","date":"2026-02-18","time":"17:44:56"},{"task":"memory_phase","broad_category":"S","image_png":"S_Conglomerate_05.png","image_id":373,"category_name":"Conglomerate","category":24,"distinct_rating":7.32,"distinct_type":"Top","rt":null,"stimulus":"Stimuli_Rocks480/S_Conglomerate_05.png","response":null,"trial_type":"image-keyboard-response","trial_index":230,"plugin_version":"2.1.0","time_elapsed":1061850,"subject_id":"92018","group":"Group1","condition":"3_Rep","full_date":"2026-02-18T17:44:56.402Z","date":"2026-02-18","time":"17:44:56"},{"rt":null,"stimulus":"<p style=\"font-size: 50px; margin: 0; text-align: center;\">+</p>","response":null,"trial_type":"html-keyboard-response","trial_index":231,"plugin_version":"2.1.0","time_elapsed":1062865,"subject_id":"92018","group":"Group1","condition":"3_Rep","full_date":"2026-02-18T17:44:56.402Z","date":"2026-02-18","time":"17:44:56"},{"task":"memory_phase","broad_category":"I","image_png":"I_Andesite_08.png","image_id":8,"category_name":"Andesite","category":1,"distinct_rating":1.95,"distinct_type":"Bottom","rt":null,"stimulus":"Stimuli_Rocks480/I_Andesite_08.png","response":null,"trial_type":"image-keyboard-response","trial_index":232,"plugin_version":"2.1.0","time_elapsed":1065369,"subject_id":"92018","group":"Group1","condition":"3_Rep","full_date":"2026-02-18T17:44:56.402Z","date":"2026-02-18","time":"17:44:56"},{"rt":null,"stimulus":"<p style=\"font-size: 50px; margin: 0; text-align: center;\">+</p>","response":null,"trial_type":"html-keyboard-response","trial_index":233,"plugin_version":"2.1.0","time_elapsed":1066381,"subject_id":"92018","group":"Group1","condition":"3_Rep","full_date":"2026-02-18T17:44:56.402Z","date":"2026-02-18","time":"17:44:56"},{"task":"memory_phase","broad_category":"I","image_png":"I_Andesite_06.png","image_id":6,"category_name":"Andesite","category":1,"distinct_rating":3.17,"distinct_type":"Bottom","rt":null,"stimulus":"Stimuli_Rocks480/I_Andesite_06.png","response":null,"trial_type":"image-keyboard-response","trial_index":234,"plugin_version":"2.1.0","time_elapsed":1068884,"subject_id":"92018","group":"Group1","condition":"3_Rep","full_date":"2026-02-18T17:44:56.402Z","date":"2026-02-18","time":"17:44:56"},{"rt":null,"stimulus":"<p style=\"font-size: 50px; margin: 0; text-align: center;\">+</p>","response":null,"trial_type":"html-keyboard-response","trial_index":235,"plugin_version":"2.1.0","time_elapsed":1069897,"subject_id":"92018","group":"Group1","condition":"3_Rep","full_date":"2026-02-18T17:44:56.402Z","date":"2026-02-18","time":"17:44:56"},{"task":"memory_phase","broad_category":"I","image_png":"I_Pegmatite_10.png","image_id":106,"category_name":"Pegmatite","category":7,"distinct_rating":7.66,"distinct_type":"Top","rt":null,"stimulu