[{"width":1280,"height":665,"webaudio":true,"browser":"chrome","browser_version":"144.0.0","mobile":false,"os":"Windows 10","fullscreen":true,"vsync_rate":60.91,"webcam":true,"microphone":true,"trial_type":"browser-check","trial_index":0,"plugin_version":"2.1.0","time_elapsed":1001,"subject_id":"91881","group":"Group1","condition":"1_Rep","full_date":"2026-02-01T16:51:53.663Z","date":"2026-02-01","time":"16:51:53"},{"success":true,"timeout":false,"failed_images":[],"failed_audio":[],"failed_video":[],"trial_type":"preload","trial_index":1,"plugin_version":"2.1.0","time_elapsed":3057,"subject_id":"91881","group":"Group1","condition":"1_Rep","full_date":"2026-02-01T16:51:53.663Z","date":"2026-02-01","time":"16:51:53"},{"rt":19608,"url":"SONA_consent_memorability.html","trial_type":"external-html","trial_index":2,"plugin_version":"2.1.0","time_elapsed":22756,"subject_id":"91881","group":"Group1","condition":"1_Rep","full_date":"2026-02-01T16:51:53.663Z","date":"2026-02-01","time":"16:51:53"},{"success":true,"rt":2690,"trial_type":"fullscreen","trial_index":3,"plugin_version":"2.1.0","time_elapsed":26476,"subject_id":"91881","group":"Group1","condition":"1_Rep","full_date":"2026-02-01T16:51:53.663Z","date":"2026-02-01","time":"16:51:53"},{"rt":37663,"stimulus":"<div style=\"max-width: 760px; margin: auto; font-size: 20px; line-height: 1.5;\">\n      <h1 style=\"text-align:center; font-size: 30px;\">Instructions</h1>\n      <p>\n        Welcome to the study on <b>visual memory</b>. This experiment consists of <b>two phases</b>: \n        a <b>study phase</b> and a <b>test phase</b>.\n      </p>\n      <p>\n        In the study phase, you will see a series of rock images along with their category labels.\n        The images will appear one at a time.\n        <b>Your task</b> is to learn the categories to which the rock images belong \n        and to remember each image as accurately as possible.\n      </p> \n      <p>\n        Note that you will see each image only <b>once</b> during the study phase. \n          So, please pay close attention and try to remember each image carefully.\n      </p>\n      <p>\n        After the study phase, <b>your memory will be tested</b>. \n        Additional instructions for the test phase will be provided at that time.\n      </p>\n      <p>\n        If your computer has multiple <b>language settings</b> (e.g., English and another language),\n        please make sure it is set to English before starting.\n      </p>\n      <p>\n        You can track your progress using the <b>completion bar</b> at the top of the screen. \n        Please note that the bar will refresh when the test phase begins \n        to give you an accurate sense of your progress in both phases.\n      </p> \n      <p>\n        Press the button below when you are ready to begin.\n      </p>\n    </div>","response":0,"trial_type":"html-button-response","trial_index":4,"plugin_version":"2.1.0","time_elapsed":64144,"subject_id":"91881","group":"Group1","condition":"1_Rep","full_date":"2026-02-01T16:51:53.663Z","date":"2026-02-01","time":"16:51:53"},{"rt":null,"stimulus":"<p style=\"font-size: 50px; margin: 0; text-align: center;\">+</p>","response":null,"trial_type":"html-keyboard-response","trial_index":5,"plugin_version":"2.1.0","time_elapsed":65154,"subject_id":"91881","group":"Group1","condition":"1_Rep","full_date":"2026-02-01T16:51:53.663Z","date":"2026-02-01","time":"16:51:53"},{"task":"memory_phase","broad_category":"I","image_png":"I_Rhyolite_14.png","image_id":158,"category_name":"Rhyolite","category":10,"distinct_rating":2.59,"distinct_type":"Bottom","rt":null,"stimulus":"Stimuli_Rocks480/I_Rhyolite_14.png","response":null,"trial_type":"image-keyboard-response","trial_index":6,"plugin_version":"2.1.0","time_elapsed":67684,"subject_id":"91881","group":"Group1","condition":"1_Rep","full_date":"2026-02-01T16:51:53.663Z","date":"2026-02-01","time":"16:51:53"},{"rt":null,"stimulus":"<p style=\"font-size: 50px; margin: 0; text-align: center;\">+</p>","response":null,"trial_type":"html-keyboard-response","trial_index":7,"plugin_version":"2.1.0","time_elapsed":68689,"subject_id":"91881","group":"Group1","condition":"1_Rep","full_date":"2026-02-01T16:51:53.663Z","date":"2026-02-01","time":"16:51:53"},{"task":"memory_phase","broad_category":"S","image_png":"S_Shale_08.png","image_id":472,"category_name":"Shale","category":30,"distinct_rating":2.55,"distinct_type":"Bottom","rt":null,"stimulus":"Stimuli_Rocks480/S_Shale_08.png","response":null,"trial_type":"image-keyboard-response","trial_index":8,"plugin_version":"2.1.0","time_elapsed":71209,"subject_id":"91881","group":"Group1","condition":"1_Rep","full_date":"2026-02-01T16:51:53.663Z","date":"2026-02-01","time":"16:51:53"},{"rt":null,"stimulus":"<p style=\"font-size: 50px; margin: 0; text-align: center;\">+</p>","response":null,"trial_type":"html-keyboard-response","trial_index":9,"plugin_version":"2.1.0","time_elapsed":72228,"subject_id":"91881","group":"Group1","condition":"1_Rep","full_date":"2026-02-01T16:51:53.663Z","date":"2026-02-01","time":"16:51:53"},{"task":"memory_phase","broad_category":"I","image_png":"I_Obsidian_05.png","image_id":85,"category_name":"Obsidian","category":6,"distinct_rating":7.32,"distinct_type":"Top","rt":null,"stimulus":"Stimuli_Rocks480/I_Obsidian_05.png","response":null,"trial_type":"image-keyboard-response","trial_index":10,"plugin_version":"2.1.0","time_elapsed":74746,"subject_id":"91881","group":"Group1","condition":"1_Rep","full_date":"2026-02-01T16:51:53.663Z","date":"2026-02-01","time":"16:51:53"},{"rt":null,"stimulus":"<p style=\"font-size: 50px; margin: 0; text-align: center;\">+</p>","response":null,"trial_type":"html-keyboard-response","trial_index":11,"plugin_version":"2.1.0","time_elapsed":75764,"subject_id":"91881","group":"Group1","condition":"1_Rep","full_date":"2026-02-01T16:51:53.663Z","date":"2026-02-01","time":"16:51:53"},{"task":"memory_phase","broad_category":"M","image_png":"M_Marble_06.png","image_id":230,"category_name":"Marble","category":15,"distinct_rating":3.4,"distinct_type":"Bottom","rt":null,"stimulus":"Stimuli_Rocks480/M_Marble_06.png","response":null,"trial_type":"image-keyboard-response","trial_index":12,"plugin_version":"2.1.0","time_elapsed":78282,"subject_id":"91881","group":"Group1","condition":"1_Rep","full_date":"2026-02-01T16:51:53.663Z","date":"2026-02-01","time":"16:51:53"},{"rt":null,"stimulus":"<p style=\"font-size: 50px; margin: 0; text-align: center;\">+</p>","response":null,"trial_type":"html-keyboard-response","trial_index":13,"plugin_version":"2.1.0","time_elapsed":79299,"subject_id":"91881","group":"Group1","condition":"1_Rep","full_date":"2026-02-01T16:51:53.663Z","date":"2026-02-01","time":"16:51:53"},{"task":"memory_phase","broad_category":"I","image_png":"I_Rhyolite_16.png","image_id":160,"category_name":"Rhyolite","category":10,"distinct_rating":2.19,"distinct_type":"Bottom","rt":null,"stimulus":"Stimuli_Rocks480/I_Rhyolite_16.png","response":null,"trial_type":"image-keyboard-response","trial_index":14,"plugin_version":"2.1.0","time_elapsed":81817,"subject_id":"91881","group":"Group1","condition":"1_Rep","full_date":"2026-02-01T16:51:53.663Z","date":"2026-02-01","time":"16:51:53"},{"rt":null,"stimulus":"<p style=\"font-size: 50px; margin: 0; text-align: center;\">+</p>","response":null,"trial_type":"html-keyboard-response","trial_index":15,"plugin_version":"2.1.0","time_elapsed":82834,"subject_id":"91881","group":"Group1","condition":"1_Rep","full_date":"2026-02-01T16:51:53.663Z","date":"2026-02-01","time":"16:51:53"},{"task":"memory_phase","broad_category":"S","image_png":"S_Breccia_11.png","image_id":347,"category_name":"Breccia","category":22,"distinct_rating":6.7,"distinct_type":"Top","rt":null,"stimulus":"Stimuli_Rocks480/S_Breccia_11.png","response":null,"trial_type":"image-keyboard-response","trial_index":16,"plugin_version":"2.1.0","time_elapsed":85352,"subject_id":"91881","group":"Group1","condition":"1_Rep","full_date":"2026-02-01T16:51:53.663Z","date":"2026-02-01","time":"16:51:53"},{"rt":null,"stimulus":"<p style=\"font-size: 50px; margin: 0; text-align: center;\">+</p>","response":null,"trial_type":"html-keyboard-response","trial_index":17,"plugin_version":"2.1.0","time_elapsed":86370,"subject_id":"91881","group":"Group1","condition":"1_Rep","full_date":"2026-02-01T16:51:53.663Z","date":"2026-02-01","time":"16:51:53"},{"task":"memory_phase","broad_category":"I","image_png":"I_Andesite_06.png","image_id":6,"category_name":"Andesite","category":1,"distinct_rating":3.17,"distinct_type":"Bottom","rt":null,"stimulus":"Stimuli_Rocks480/I_Andesite_06.png","response":null,"trial_type":"image-keyboard-response","trial_index":18,"plugin_version":"2.1.0","time_elapsed":88885,"subject_id":"91881","group":"Group1","condition":"1_Rep","full_date":"2026-02-01T16:51:53.663Z","date":"2026-02-01","time":"16:51:53"},{"rt":null,"stimulus":"<p style=\"font-size: 50px; margin: 0; text-align: center;\">+</p>","response":null,"trial_type":"html-keyboard-response","trial_index":19,"plugin_version":"2.1.0","time_elapsed":89904,"subject_id":"91881","group":"Group1","condition":"1_Rep","full_date":"2026-02-01T16:51:53.663Z","date":"2026-02-01","time":"16:51:53"},{"task":"memory_phase","broad_category":"I","image_png":"I_Basalt_01.png","image_id":17,"category_name":"Basalt","category":2,"distinct_rating":1.92,"distinct_type":"Bottom","rt":null,"stimulus":"Stimuli_Rocks480/I_Basalt_01.png","response":null,"trial_type":"image-keyboard-response","trial_index":20,"plugin_version":"2.1.0","time_elapsed":92421,"subject_id":"91881","group":"Group1","condition":"1_Rep","full_date":"2026-02-01T16:51:53.663Z","date":"2026-02-01","time":"16:51:53"},{"rt":null,"stimulus":"<p style=\"font-size: 50px; margin: 0; text-align: center;\">+</p>","response":null,"trial_type":"html-keyboard-response","trial_index":21,"plugin_version":"2.1.0","time_elapsed":93440,"subject_id":"91881","group":"Group1","condition":"1_Rep","full_date":"2026-02-01T16:51:53.663Z","date":"2026-02-01","time":"16:51:53"},{"task":"memory_phase","broad_category":"M","image_png":"M_Phyllite_03.png","image_id":259,"category_name":"Phyllite","category":17,"distinct_rating":2.5,"distinct_type":"Bottom","rt":null,"stimulus":"Stimuli_Rocks480/M_Phyllite_03.png","response":null,"trial_type":"image-keyboard-response","trial_index":22,"plugin_version":"2.1.0","time_elapsed":95959,"subject_id":"91881","group":"Group1","condition":"1_Rep","full_date":"2026-02-01T16:51:53.663Z","date":"2026-02-01","time":"16:51:53"},{"rt":null,"stimulus":"<p style=\"font-size: 50px; margin: 0; text-align: center;\">+</p>","response":null,"trial_type":"html-keyboard-response","trial_index":23,"plugin_version":"2.1.0","time_elapsed":96974,"subject_id":"91881","group":"Group1","condition":"1_Rep","full_date":"2026-02-01T16:51:53.663Z","date":"2026-02-01","time":"16:51:53"},{"task":"memory_phase","broad_category":"I","image_png":"I_Rhyolite_11.png","image_id":155,"category_name":"Rhyolite","category":10,"distinct_rating":1.73,"distinct_type":"Bottom","rt":null,"stimulus":"Stimuli_Rocks480/I_Rhyolite_11.png","response":null,"trial_type":"image-keyboard-response","trial_index":24,"plugin_version":"2.1.0","time_elapsed":99491,"subject_id":"91881","group":"Group1","condition":"1_Rep","full_date":"2026-02-01T16:51:53.663Z","date":"2026-02-01","time":"16:51:53"},{"rt":null,"stimulus":"<p style=\"font-size: 50px; margin: 0; text-align: center;\">+</p>","response":null,"trial_type":"html-keyboard-response","trial_index":25,"plugin_version":"2.1.0","time_elapsed":100512,"subject_id":"91881","group":"Group1","condition":"1_Rep","full_date":"2026-02-01T16:51:53.663Z","date":"2026-02-01","time":"16:51:53"},{"task":"memory_phase","broad_category":"M","image_png":"M_Slate_11.png","image_id":315,"category_name":"Slate","category":20,"distinct_rating":2.75,"distinct_type":"Bottom","rt":null,"stimulus":"Stimuli_Rocks480/M_Slate_11.png","response":null,"trial_type":"image-keyboard-response","trial_index":26,"plugin_version":"2.1.0","time_elapsed":103027,"subject_id":"91881","group":"Group1","condition":"1_Rep","full_date":"2026-02-01T16:51:53.663Z","date":"2026-02-01","time":"16:51:53"},{"rt":null,"stimulus":"<p style=\"font-size: 50px; margin: 0; text-align: center;\">+</p>","response":null,"trial_type":"html-keyboard-response","trial_index":27,"plugin_version":"2.1.0","time_elapsed":104046,"subject_id":"91881","group":"Group1","condition":"1_Rep","full_date":"2026-02-01T16:51:53.663Z","date":"2026-02-01","time":"16:51:53"},{"task":"memory_phase","broad_category":"I","image_png":"I_Pegmatite_16.png","image_id":112,"category_name":"Pegmatite","category":7,"distinct_rating":7.03,"distinct_type":"Top","rt":null,"stimulus":"Stimuli_Rocks480/I_Pegmatite_16.png","response":null,"trial_type":"image-keyboard-response","trial_index":28,"plugin_version":"2.1.0","time_elapsed":106563,"subject_id":"91881","group":"Group1","condition":"1_Rep","full_date":"2026-02-01T16:51:53.663Z","date":"2026-02-01","time":"16:51:53"},{"rt":null,"stimulus":"<p style=\"font-size: 50px; margin: 0; text-align: center;\">+</p>","response":null,"trial_type":"html-keyboard-response","trial_index":29,"plugin_version":"2.1.0","time_elapsed":107582,"subject_id":"91881","group":"Group1","condition":"1_Rep","full_date":"2026-02-01T16:51:53.663Z","date":"2026-02-01","time":"16:51:53"},{"task":"memory_phase","broad_category":"S","image_png":"S_Sandstone_03.png","image_id":451,"category_name":"Sandstone","category":29,"distinct_rating":1.86,"distinct_type":"Bottom","rt":null,"stimulus":"Stimuli_Rocks480/S_Sandstone_03.png","response":null,"trial_type":"image-keyboard-response","trial_index":30,"plugin_version":"2.1.0","time_elapsed":110097,"subject_id":"91881","group":"Group1","condition":"1_Rep","full_date":"2026-02-01T16:51:53.663Z","date":"2026-02-01","time":"16:51:53"},{"rt":null,"stimulus":"<p style=\"font-size: 50px; margin: 0; text-align: center;\">+</p>","response":null,"trial_type":"html-keyboard-response","trial_index":31,"plugin_version":"2.1.0","time_elapsed":111118,"subject_id":"91881","group":"Group1","condition":"1_Rep","full_date":"2026-02-01T16:51:53.663Z","date":"2026-02-01","time":"16:51:53"},{"task":"memory_phase","broad_category":"I","image_png":"I_Diorite_05.png","image_id":37,"category_name":"Diorite","category":3,"distinct_rating":3.08,"distinct_type":"Bottom","rt":null,"stimulus":"Stimuli_Rocks480/I_Diorite_05.png","response":null,"trial_type":"image-keyboard-response","trial_index":32,"plugin_version":"2.1.0","time_elapsed":113635,"subject_id":"91881","group":"Group1","condition":"1_Rep","full_date":"2026-02-01T16:51:53.663Z","date":"2026-02-01","time":"16:51:53"},{"rt":null,"stimulus":"<p style=\"font-size: 50px; margin: 0; text-align: center;\">+</p>","response":null,"trial_type":"html-keyboard-response","trial_index":33,"plugin_version":"2.1.0","time_elapsed":114650,"subject_id":"91881","group":"Group1","condition":"1_Rep","full_date":"2026-02-01T16:51:53.663Z","date":"2026-02-01","time":"16:51:53"},{"task":"memory_phase","broad_category":"S","image_png":"S_Shale_12.png","image_id":476,"category_name":"Shale","category":30,"distinct_rating":2.48,"distinct_type":"Bottom","rt":null,"stimulus":"Stimuli_Rocks480/S_Shale_12.png","response":null,"trial_type":"image-keyboard-response","trial_index":34,"plugin_version":"2.1.0","time_elapsed":117170,"subject_id":"91881","group":"Group1","condition":"1_Rep","full_date":"2026-02-01T16:51:53.663Z","date":"2026-02-01","time":"16:51:53"},{"rt":null,"stimulus":"<p style=\"font-size: 50px; margin: 0; text-align: center;\">+</p>","response":null,"trial_type":"html-keyboard-response","trial_index":35,"plugin_version":"2.1.0","time_elapsed":118187,"subject_id":"91881","group":"Group1","condition":"1_Rep","full_date":"2026-02-01T16:51:53.663Z","date":"2026-02-01","time":"16:51:53"},{"task":"memory_phase","broad_category":"S","image_png":"S_Chert_10.png","image_id":362,"category_name":"Chert","category":23,"distinct_rating":7.17,"distinct_type":"Top","rt":null,"stimulus":"Stimuli_Rocks480/S_Chert_10.png","response":null,"trial_type":"image-keyboard-response","trial_index":36,"plugin_version":"2.1.0","time_elapsed":120704,"subject_id":"91881","group":"Group1","condition":"1_Rep","full_date":"2026-02-01T16:51:53.663Z","date":"2026-02-01","time":"16:51:53"},{"rt":null,"stimulus":"<p style=\"font-size: 50px; margin: 0; text-align: center;\">+</p>","response":null,"trial_type":"html-keyboard-response","trial_index":37,"plugin_version":"2.1.0","time_elapsed":121722,"subject_id":"91881","group":"Group1","condition":"1_Rep","full_date":"2026-02-01T16:51:53.663Z","date":"2026-02-01","time":"16:51:53"},{"task":"memory_phase","broad_category":"I","image_png":"I_Andesite_10.png","image_id":10,"category_name":"Andesite","category":1,"distinct_rating":3.15,"distinct_type":"Bottom","rt":null,"stimulus":"Stimuli_Rocks480/I_Andesite_10.png","response":null,"trial_type":"image-keyboard-response","trial_index":38,"plugin_version":"2.1.0","time_elapsed":124227,"subject_id":"91881","group":"Group1","condition":"1_Rep","full_date":"2026-02-01T16:51:53.663Z","date":"2026-02-01","time":"16:51:53"},{"rt":null,"stimulus":"<p style=\"font-size: 50px; margin: 0; text-align: center;\">+</p>","response":null,"trial_type":"html-keyboard-response","trial_index":39,"plugin_version":"2.1.0","time_elapsed":125238,"subject_id":"91881","group":"Group1","condition":"1_Rep","full_date":"2026-02-01T16:51:53.663Z","date":"2026-02-01","time":"16:51:53"},{"task":"memory_phase","broad_category":"I","image_png":"I_Pumice_12.png","image_id":140,"category_name":"Pumice","category":9,"distinct_rating":2.97,"distinct_type":"Bottom","rt":null,"stimulus":"Stimuli_Rocks480/I_Pumice_12.png","response":null,"trial_type":"image-keyboard-response","trial_index":40,"plugin_version":"2.1.0","time_elapsed":127757,"subject_id":"91881","group":"Group1","condition":"1_Rep","full_date":"2026-02-01T16:51:53.663Z","date":"2026-02-01","time":"16:51:53"},{"rt":null,"stimulus":"<p style=\"font-size: 50px; margin: 0; text-align: center;\">+</p>","response":null,"trial_type":"html-keyboard-response","trial_index":41,"plugin_version":"2.1.0","time_elapsed":128774,"subject_id":"91881","group":"Group1","condition":"1_Rep","full_date":"2026-02-01T16:51:53.663Z","date":"2026-02-01","time":"16:51:53"},{"task":"memory_phase","broad_category":"M","image_png":"M_Slate_15.png","image_id":319,"category_name":"Slate","category":20,"distinct_rating":2.13,"distinct_type":"Bottom","rt":null,"stimulus":"Stimuli_Rocks480/M_Slate_15.png","response":null,"trial_type":"image-keyboard-response","trial_index":42,"plugin_version":"2.1.0","time_elapsed":131293,"subject_id":"91881","group":"Group1","condition":"1_Rep","full_date":"2026-02-01T16:51:53.663Z","date":"2026-02-01","time":"16:51:53"},{"rt":null,"stimulus":"<p style=\"font-size: 50px; margin: 0; text-align: center;\">+</p>","response":null,"trial_type":"html-keyboard-response","trial_index":43,"plugin_version":"2.1.0","time_elapsed":132313,"subject_id":"91881","group":"Group1","condition":"1_Rep","full_date":"2026-02-01T16:51:53.663Z","date":"2026-02-01","time":"16:51:53"},{"task":"memory_phase","broad_category":"S","image_png":"S_Shale_01.png","image_id":465,"category_name":"Shale","category":30,"distinct_rating":2.7,"distinct_type":"Bottom","rt":null,"stimulus":"Stimuli_Rocks480/S_Shale_01.png","response":null,"trial_type":"image-keyboard-response","trial_index":44,"plugin_version":"2.1.0","time_elapsed":134827,"subject_id":"91881","group":"Group1","condition":"1_Rep","full_date":"2026-02-01T16:51:53.663Z","date":"2026-02-01","time":"16:51:53"},{"rt":null,"stimulus":"<p style=\"font-size: 50px; margin: 0; text-align: center;\">+</p>","response":null,"trial_type":"html-keyboard-response","trial_index":45,"plugin_version":"2.1.0","time_elapsed":135847,"subject_id":"91881","group":"Group1","condition":"1_Rep","full_date":"2026-02-01T16:51:53.663Z","date":"2026-02-01","time":"16:51:53"},{"task":"memory_phase","broad_category":"S","image_png":"S_Dolomite_13.png","image_id":397,"category_name":"Dolomite","category":25,"distinct_rating":1.77,"distinct_type":"Bottom","rt":null,"stimulus":"Stimuli_Rocks480/S_Dolomite_13.png","response":null,"trial_type":"image-keyboard-response","trial_index":46,"plugin_version":"2.1.0","time_elapsed":138365,"subject_id":"91881","group":"Group1","condition":"1_Rep","full_date":"2026-02-01T16:51:53.663Z","date":"2026-02-01","time":"16:51:53"},{"rt":null,"stimulus":"<p style=\"font-size: 50px; margin: 0; text-align: center;\">+</p>","response":null,"trial_type":"html-keyboard-response","trial_index":47,"plugin_version":"2.1.0","time_elapsed":139374,"subject_id":"91881","group":"Group1","condition":"1_Rep","full_date":"2026-02-01T16:51:53.663Z","date":"2026-02-01","time":"16:51:53"},{"task":"memory_phase","broad_category":"I","image_png":"I_Pumice_11.png","image_id":139,"category_name":"Pumice","category":9,"distinct_rating":1.74,"distinct_type":"Bottom","rt":null,"stimulus":"Stimuli_Rocks480/I_Pumice_11.png","response":null,"trial_type":"image-keyboard-response","trial_index":48,"plugin_version":"2.1.0","time_elapsed":141883,"subject_id":"91881","group":"Group1","condition":"1_Rep","full_date":"2026-02-01T16:51:53.663Z","date":"2026-02-01","time":"16:51:53"},{"rt":null,"stimulus":"<p style=\"font-size: 50px; margin: 0; text-align: center;\">+</p>","response":null,"trial_type":"html-keyboard-response","trial_index":49,"plugin_version":"2.1.0","time_elapsed":142898,"subject_id":"91881","group":"Group1","condition":"1_Rep","full_date":"2026-02-01T16:51:53.663Z","date":"2026-02-01","time":"16:51:53"},{"task":"memory_phase","broad_category":"S","image_png":"S_Sandstone_16.png","image_id":464,"category_name":"Sandstone","category":29,"distinct_rating":1.93,"distinct_type":"Bottom","rt":null,"stimulus":"Stimuli_Rocks480/S_Sandstone_16.png","response":null,"trial_type":"image-keyboard-response","trial_index":50,"plugin_version":"2.1.0","time_elapsed":145417,"subject_id":"91881","group":"Group1","condition":"1_Rep","full_date":"2026-02-01T16:51:53.663Z","date":"2026-02-01","time":"16:51:53"},{"rt":null,"stimulus":"<p style=\"font-size: 50px; margin: 0; text-align: center;\">+</p>","response":null,"trial_type":"html-keyboard-response","trial_index":51,"plugin_version":"2.1.0","time_elapsed":146436,"subject_id":"91881","group":"Group1","condition":"1_Rep","full_date":"2026-02-01T16:51:53.663Z","date":"2026-02-01","time":"16:51:53"},{"task":"memory_phase","broad_category":"M","image_png":"M_Quartzite_13.png","image_id":285,"category_name":"Quartzite","category":18,"distinct_rating":2.27,"distinct_type":"Bottom","rt":null,"stimulus":"Stimuli_Rocks480/M_Quartzite_13.png","response":null,"trial_type":"image-keyboard-response","trial_index":52,"plugin_version":"2.1.0","time_elapsed":148952,"subject_id":"91881","group":"Group1","condition":"1_Rep","full_date":"2026-02-01T16:51:53.663Z","date":"2026-02-01","time":"16:51:53"},{"rt":null,"stimulus":"<p style=\"font-size: 50px; margin: 0; text-align: center;\">+</p>","response":null,"trial_type":"html-keyboard-response","trial_index":53,"plugin_version":"2.1.0","time_elapsed":149969,"subject_id":"91881","group":"Group1","condition":"1_Rep","full_date":"2026-02-01T16:51:53.663Z","date":"2026-02-01","time":"16:51:53"},{"task":"memory_phase","broad_category":"M","image_png":"M_Gneiss_13.png","image_id":205,"category_name":"Gneiss","category":13,"distinct_rating":3.26,"distinct_type":"Bottom","rt":null,"stimulus":"Stimuli_Rocks480/M_Gneiss_13.png","response":null,"trial_type":"image-keyboard-response","trial_index":54,"plugin_version":"2.1.0","time_elapsed":152488,"subject_id":"91881","group":"Group1","condition":"1_Rep","full_date":"2026-02-01T16:51:53.663Z","date":"2026-02-01","time":"16:51:53"},{"rt":2103,"stimulus":"<p style=\"max-width: 760px; margin: auto; font-size: 35px; line-height: 1.5;\">\n                Press SPACE to continue study phase\n              </p>","response":" ","trial_type":"html-keyboard-response","trial_index":55,"plugin_version":"2.1.0","time_elapsed":154595,"subject_id":"91881","group":"Group1","condition":"1_Rep","full_date":"2026-02-01T16:51:53.663Z","date":"2026-02-01","time":"16:51:53"},{"rt":null,"stimulus":"<p style=\"font-size: 50px; margin: 0; text-align: center;\">+</p>","response":null,"trial_type":"html-keyboard-response","trial_index":56,"plugin_version":"2.1.0","time_elapsed":155607,"subject_id":"91881","group":"Group1","condition":"1_Rep","full_date":"2026-02-01T16:51:53.663Z","date":"2026-02-01","time":"16:51:53"},{"task":"memory_phase","broad_category":"M","image_png":"M_Slate_03.png","image_id":307,"category_name":"Slate","category":20,"distinct_rating":1.87,"distinct_type":"Bottom","rt":null,"stimulus":"Stimuli_Rocks480/M_Slate_03.png","response":null,"trial_type":"image-keyboard-response","trial_index":57,"plugin_version":"2.1.0","time_elapsed":158126,"subject_id":"91881","group":"Group1","condition":"1_Rep","full_date":"2026-02-01T16:51:53.663Z","date":"2026-02-01","time":"16:51:53"},{"rt":null,"stimulus":"<p style=\"font-size: 50px; margin: 0; text-align: center;\">+</p>","response":null,"trial_type":"html-keyboard-response","trial_index":58,"plugin_version":"2.1.0","time_elapsed":159142,"subject_id":"91881","group":"Group1","condition":"1_Rep","full_date":"2026-02-01T16:51:53.663Z","date":"2026-02-01","time":"16:51:53"},{"task":"memory_phase","broad_category":"I","image_png":"I_Pegmatite_10.png","image_id":106,"category_name":"Pegmatite","category":7,"distinct_rating":7.66,"distinct_type":"Top","rt":null,"stimulus":"Stimuli_Rocks480/I_Pegmatite_10.png","response":null,"trial_type":"image-keyboard-response","trial_index":59,"plugin_version":"2.1.0","time_elapsed":161660,"subject_id":"91881","group":"Group1","condition":"1_Rep","full_date":"2026-02-01T16:51:53.663Z","date":"2026-02-01","time":"16:51:53"},{"rt":null,"stimulus":"<p style=\"font-size: 50px; margin: 0; text-align: center;\">+</p>","response":null,"trial_type":"html-keyboard-response","trial_index":60,"plugin_version":"2.1.0","time_elapsed":162679,"subject_id":"91881","group":"Group1","condition":"1_Rep","full_date":"2026-02-01T16:51:53.663Z","date":"2026-02-01","time":"16:51:53"},{"task":"memory_phase","broad_category":"M","image_png":"M_Quartzite_08.png","image_id":280,"category_name":"Quartzite","category":18,"distinct_rating":2.15,"distinct_type":"Bottom","rt":null,"stimulus":"Stimuli_Rocks480/M_Quartzite_08.png","response":null,"trial_type":"image-keyboard-response","trial_index":61,"plugin_version":"2.1.0","time_elapsed":165196,"subject_id":"91881","group":"Group1","condition":"1_Rep","full_date":"2026-02-01T16:51:53.663Z","date":"2026-02-01","time":"16:51:53"},{"rt":null,"stimulus":"<p style=\"font-size: 50px; margin: 0; text-align: center;\">+</p>","response":null,"trial_type":"html-keyboard-response","trial_index":62,"plugin_version":"2.1.0","time_elapsed":166213,"subject_id":"91881","group":"Group1","condition":"1_Rep","full_date":"2026-02-01T16:51:53.663Z","date":"2026-02-01","time":"16:51:53"},{"task":"memory_phase","broad_category":"I","image_png":"I_Andesite_08.png","image_id":8,"category_name":"Andesite","category":1,"distinct_rating":1.95,"distinct_type":"Bottom","rt":null,"stimulus":"Stimuli_Rocks480/I_Andesite_08.png","response":null,"trial_type":"image-keyboard-response","trial_index":63,"plugin_version":"2.1.0","time_elapsed":168731,"subject_id":"91881","group":"Group1","condition":"1_Rep","full_date":"2026-02-01T16:51:53.663Z","date":"2026-02-01","time":"16:51:53"},{"rt":null,"stimulus":"<p style=\"font-size: 50px; margin: 0; text-align: center;\">+</p>","response":null,"trial_type":"html-keyboard-response","trial_index":64,"plugin_version":"2.1.0","time_elapsed":169747,"subject_id":"91881","group":"Group1","condition":"1_Rep","full_date":"2026-02-01T16:51:53.663Z","date":"2026-02-01","time":"16:51:53"},{"task":"memory_phase","broad_category":"S","image_png":"S_Dolomite_12.png","image_id":396,"category_name":"Dolomite","category":25,"distinct_rating":1.85,"distinct_type":"Bottom","rt":null,"stimulus":"Stimuli_Rocks480/S_Dolomite_12.png","response":null,"trial_type":"image-keyboard-response","trial_index":65,"plugin_version":"2.1.0","time_elapsed":172261,"subject_id":"91881","group":"Group1","condition":"1_Rep","full_date":"2026-02-01T16:51:53.663Z","date":"2026-02-01","time":"16:51:53"},{"rt":null,"stimulus":"<p style=\"font-size: 50px; margin: 0; text-align: center;\">+</p>","response":null,"trial_type":"html-keyboard-response","trial_index":66,"plugin_version":"2.1.0","time_elapsed":173268,"subject_id":"91881","group":"Group1","condition":"1_Rep","full_date":"2026-02-01T16:51:53.663Z","date":"2026-02-01","time":"16:51:53"},{"task":"memory_phase","broad_category":"M","image_png":"M_Marble_04.png","image_id":228,"category_name":"Marble","category":15,"distinct_rating":3.15,"distinct_type":"Bottom","rt":null,"stimulus":"Stimuli_Rocks480/M_Marble_04.png","response":null,"trial_type":"image-keyboard-response","trial_index":67,"plugin_version":"2.1.0","time_elapsed":175784,"subject_id":"91881","group":"Group1","condition":"1_Rep","full_date":"2026-02-01T16:51:53.663Z","date":"2026-02-01","time":"16:51:53"},{"rt":null,"stimulus":"<p style=\"font-size: 50px; margin: 0; text-align: center;\">+</p>","response":null,"trial_type":"html-keyboard-response","trial_index":68,"plugin_version":"2.1.0","time_elapsed":176801,"subject_id":"91881","group":"Group1","condition":"1_Rep","full_date":"2026-02-01T16:51:53.663Z","date":"2026-02-01","time":"16:51:53"},{"task":"memory_phase","broad_category":"I","image_png":"I_Basalt_02.png","image_id":18,"category_name":"Basalt","category":2,"distinct_rating":1.84,"distinct_type":"Bottom","rt":null,"stimulus":"Stimuli_Rocks480/I_Basalt_02.png","response":null,"trial_type":"image-keyboard-response","trial_index":69,"plugin_version":"2.1.0","time_elapsed":179320,"subject_id":"91881","group":"Group1","condition":"1_Rep","full_date":"2026-02-01T16:51:53.663Z","date":"2026-02-01","time":"16:51:53"},{"rt":null,"stimulus":"<p style=\"font-size: 50px; margin: 0; text-align: center;\">+</p>","response":null,"trial_type":"html-keyboard-response","trial_index":70,"plugin_version":"2.1.0","time_elapsed":180337,"subject_id":"91881","group":"Group1","condition":"1_Rep","full_date":"2026-02-01T16:51:53.663Z","date":"2026-02-01","time":"16:51:53"},{"task":"memory_phase","broad_category":"M","image_png":"M_Phyllite_10.png","image_id":266,"category_name":"Phyllite","category":17,"distinct_rating":2.6,"distinct_type":"Bottom","rt":null,"stimulus":"Stimuli_Rocks480/M_Phyllite_10.png","response":null,"trial_type":"image-keyboard-response","trial_index":71,"plugin_version":"2.1.0","time_elapsed":182856,"subject_id":"91881","group":"Group1","condition":"1_Rep","full_date":"2026-02-01T16:51:53.663Z","date":"2026-02-01","time":"16:51:53"},{"rt":null,"stimulus":"<p style=\"font-size: 50px; margin: 0; text-align: center;\">+</p>","response":null,"trial_type":"html-keyboard-response","trial_index":72,"plugin_version":"2.1.0","time_elapsed":183875,"subject_id":"91881","group":"Group1","condition":"1_Rep","full_date":"2026-02-01T16:51:53.663Z","date":"2026-02-01","time":"16:51:53"},{"task":"memory_phase","broad_category":"I","image_png":"I_Pumice_08.png","image_id":136,"category_name":"Pumice","category":9,"distinct_rating":3.1,"distinct_type":"Bottom","rt":null,"stimulus":"Stimuli_Rocks480/I_Pumice_08.png","response":null,"trial_type":"image-keyboard-response","trial_index":73,"plugin_version":"2.1.0","time_elapsed":186392,"subject_id":"91881","group":"Group1","condition":"1_Rep","full_date":"2026-02-01T16:51:53.663Z","date":"2026-02-01","time":"16:51:53"},{"rt":null,"stimulus":"<p style=\"font-size: 50px; margin: 0; text-align: center;\">+</p>","response":null,"trial_type":"html-keyboard-response","trial_index":74,"plugin_version":"2.1.0","time_elapsed":187410,"subject_id":"91881","group":"Group1","condition":"1_Rep","full_date":"2026-02-01T16:51:53.663Z","date":"2026-02-01","time":"16:51:53"},{"task":"memory_phase","broad_category":"M","image_png":"M_Gneiss_06.png","image_id":198,"category_name":"Gneiss","category":13,"distinct_rating":2.65,"distinct_type":"Bottom","rt":null,"stimulus":"Stimuli_Rocks480/M_Gneiss_06.png","response":null,"trial_type":"image-keyboard-response","trial_index":75,"plugin_version":"2.1.0","time_elapsed":189927,"subject_id":"91881","group":"Group1","condition":"1_Rep","full_date":"2026-02-01T16:51:53.663Z","date":"2026-02-01","time":"16:51:53"},{"rt":null,"stimulus":"<p style=\"font-size: 50px; margin: 0; text-align: center;\">+</p>","response":null,"trial_type":"html-keyboard-response","trial_index":76,"plugin_version":"2.1.0","time_elapsed":190946,"subject_id":"91881","group":"Group1","condition":"1_Rep","full_date":"2026-02-01T16:51:53.663Z","date":"2026-02-01","time":"16:51:53"},{"task":"memory_phase","broad_category":"I","image_png":"I_Gabbro_11.png","image_id":59,"category_name":"Gabbro","category":4,"distinct_rating":1.99,"distinct_type":"Bottom","rt":null,"stimulus":"Stimuli_Rocks480/I_Gabbro_11.png","response":null,"trial_type":"image-keyboard-response","trial_index":77,"plugin_version":"2.1.0","time_elapsed":193463,"subject_id":"91881","group":"Group1","condition":"1_Rep","full_date":"2026-02-01T16:51:53.663Z","date":"2026-02-01","time":"16:51:53"},{"rt":null,"stimulus":"<p style=\"font-size: 50px; margin: 0; text-align: center;\">+</p>","response":null,"trial_type":"html-keyboard-response","trial_index":78,"plugin_version":"2.1.0","time_elapsed":194480,"subject_id":"91881","group":"Group1","condition":"1_Rep","full_date":"2026-02-01T16:51:53.663Z","date":"2026-02-01","time":"16:51:53"},{"task":"memory_phase","broad_category":"I","image_png":"I_Gabbro_16.png","image_id":64,"category_name":"Gabbro","category":4,"distinct_rating":2.52,"distinct_type":"Bottom","rt":null,"stimulus":"Stimuli_Rocks480/I_Gabbro_16.png","response":null,"trial_type":"image-keyboard-response","trial_index":79,"plugin_version":"2.1.0","time_elapsed":196998,"subject_id":"91881","group":"Group1","condition":"1_Rep","full_date":"2026-02-01T16:51:53.663Z","date":"2026-02-01","time":"16:51:53"},{"rt":null,"stimulus":"<p style=\"font-size: 50px; margin: 0; text-align: center;\">+</p>","response":null,"trial_type":"html-keyboard-response","trial_index":80,"plugin_version":"2.1.0","time_elapsed":198016,"subject_id":"91881","group":"Group1","condition":"1_Rep","full_date":"2026-02-01T16:51:53.663Z","date":"2026-02-01","time":"16:51:53"},{"task":"memory_phase","broad_category":"I","image_png":"I_Gabbro_08.png","image_id":56,"category_name":"Gabbro","category":4,"distinct_rating":3.02,"distinct_type":"Bottom","rt":null,"stimulus":"Stimuli_Rocks480/I_Gabbro_08.png","response":null,"trial_type":"image-keyboard-response","trial_index":81,"plugin_version":"2.1.0","time_elapsed":200534,"subject_id":"91881","group":"Group1","condition":"1_Rep","full_date":"2026-02-01T16:51:53.663Z","date":"2026-02-01","time":"16:51:53"},{"rt":null,"stimulus":"<p style=\"font-size: 50px; margin: 0; text-align: center;\">+</p>","response":null,"trial_type":"html-keyboard-response","trial_index":82,"plugin_version":"2.1.0","time_elapsed":201551,"subject_id":"91881","group":"Group1","condition":"1_Rep","full_date":"2026-02-01T16:51:53.663Z","date":"2026-02-01","time":"16:51:53"},{"task":"memory_phase","broad_category":"S","image_png":"S_Conglomerate_05.png","image_id":373,"category_name":"Conglomerate","category":24,"distinct_rating":7.32,"distinct_type":"Top","rt":null,"stimulus":"Stimuli_Rocks480/S_Conglomerate_05.png","response":null,"trial_type":"image-keyboard-response","trial_index":83,"plugin_version":"2.1.0","time_elapsed":204069,"subject_id":"91881","group":"Group1","condition":"1_Rep","full_date":"2026-02-01T16:51:53.663Z","date":"2026-02-01","time":"16:51:53"},{"rt":null,"stimulus":"<p style=\"font-size: 50px; margin: 0; text-align: center;\">+</p>","response":null,"trial_type":"html-keyboard-response","trial_index":84,"plugin_version":"2.1.0","time_elapsed":205086,"subject_id":"91881","group":"Group1","condition":"1_Rep","full_date":"2026-02-01T16:51:53.663Z","date":"2026-02-01","time":"16:51:53"},{"task":"memory_phase","broad_category":"S","image_png":"S_Sandstone_15.png","image_id":463,"category_name":"Sandstone","category":29,"distinct_rating":2,"distinct_type":"Bottom","rt":null,"stimulus":"Stimuli_Rocks480/S_Sandstone_15.png","response":null,"trial_type":"image-keyboard-response","trial_index":85,"plugin_version":"2.1.0","time_elapsed":207605,"subject_id":"91881","group":"Group1","condition":"1_Rep","full_date":"2026-02-01T16:51:53.663Z","date":"2026-02-01","time":"16:51:53"},{"rt":null,"stimulus":"<p style=\"font-size: 50px; margin: 0; text-align: center;\">+</p>","response":null,"trial_type":"html-keyboard-response","trial_index":86,"plugin_version":"2.1.0","time_elapsed":208622,"subject_id":"91881","group":"Group1","condition":"1_Rep","full_date":"2026-02-01T16:51:53.663Z","date":"2026-02-01","time":"16:51:53"},{"task":"memory_phase","broad_category":"I","image_png":"I_Basalt_09.png","image_id":25,"category_name":"Basalt","category":2,"distinct_rating":1.89,"distinct_type":"Bottom","rt":null,"stimulus":"Stimuli_Rocks480/I_Basalt_09.png","response":null,"trial_type":"image-keyboard-response","trial_index":87,"plugin_version":"2.1.0","time_elapsed":211141,"subject_id":"91881","group":"Group1","condition":"1_Rep","full_date":"2026-02-01T16:51:53.663Z","date":"2026-02-01","time":"16:51:53"},{"rt":null,"stimulus":"<p style=\"font-size: 50px; margin: 0; text-align: center;\">+</p>","response":null,"trial_type":"html-keyboard-response","trial_index":88,"plugin_version":"2.1.0","time_elapsed":212158,"subject_id":"91881","group":"Group1","condition":"1_Rep","full_date":"2026-02-01T16:51:53.663Z","date":"2026-02-01","time":"16:51:53"},{"task":"memory_phase","broad_category":"M","image_png":"M_Quartzite_05.png","image_id":277,"category_name":"Quartzite","category":18,"distinct_rating":2.23,"distinct_type":"Bottom","rt":null,"stimulus":"Stimuli_Rocks480/M_Quartzite_05.png","response":null,"trial_type":"image-keyboard-response","trial_index":89,"plugin_version":"2.1.0","time_elapsed":214676,"subject_id":"91881","group":"Group1","condition":"1_Rep","full_date":"2026-02-01T16:51:53.663Z","date":"2026-02-01","time":"16:51:53"},{"rt":null,"stimulus":"<p style=\"font-size: 50px; margin: 0; text-align: center;\">+</p>","response":null,"trial_type":"html-keyboard-response","trial_index":90,"plugin_version":"2.1.0","time_elapsed":215692,"subject_id":"91881","group":"Group1","condition":"1_Rep","full_date":"2026-02-01T16:51:53.663Z","date":"2026-02-01","time":"16:51:53"},{"task":"memory_phase","broad_category":"I","image_png":"I_Diorite_04.png","image_id":36,"category_name":"Diorite","category":3,"distinct_rating":2.98,"distinct_type":"Bottom","rt":null,"stimulus":"Stimuli_Rocks480/I_Diorite_04.png","response":null,"trial_type":"image-keyboard-response","trial_index":91,"plugin_version":"2.1.0","time_elapsed":218210,"subject_id":"91881","group":"Group1","condition":"1_Rep","full_date":"2026-02-01T16:51:53.663Z","date":"2026-02-01","time":"16:51:53"},{"rt":null,"stimulus":"<p style=\"font-size: 50px; margin: 0; text-align: center;\">+</p>","response":null,"trial_type":"html-keyboard-response","trial_index":92,"plugin_version":"2.1.0","time_elapsed":219230,"subject_id":"91881","group":"Group1","condition":"1_Rep","full_date":"2026-02-01T16:51:53.663Z","date":"2026-02-01","time":"16:51:53"},{"task":"memory_phase","broad_category":"S","image_png":"S_Rock Salt_01.png","image_id":433,"category_name":"Rock Salt","category":28,"distinct_rating":7.18,"distinct_type":"Top","rt":null,"stimulus":"Stimuli_Rocks480/S_Rock Salt_01.png","response":null,"trial_type":"image-keyboard-response","trial_index":93,"plugin_version":"2.1.0","time_elapsed":221745,"subject_id":"91881","group":"Group1","condition":"1_Rep","full_date":"2026-02-01T16:51:53.663Z","date":"2026-02-01","time":"16:51:53"},{"rt":null,"stimulus":"<p style=\"font-size: 50px; margin: 0; text-align: center;\">+</p>","response":null,"trial_type":"html-keyboard-response","trial_index":94,"plugin_version":"2.1.0","time_elapsed":222763,"subject_id":"91881","group":"Group1","condition":"1_Rep","full_date":"2026-02-01T16:51:53.663Z","date":"2026-02-01","time":"16:51:53"},{"task":"memory_phase","broad_category":"I","image_png":"I_Diorite_03.png","image_id":35,"category_name":"Diorite","category":3,"distinct_rating":3.14,"distinct_type":"Bottom","rt":null,"stimulus":"Stimuli_Rocks480/I_Diorite_03.png","response":null,"trial_type":"image-keyboard-response","trial_index":95,"plugin_version":"2.1.0","time_elapsed":225279,"subject_id":"91881","group":"Group1","condition":"1_Rep","full_date":"2026-02-01T16:51:53.663Z","date":"2026-02-01","time":"16:51:53"},{"rt":null,"stimulus":"<p style=\"font-size: 50px; margin: 0; text-align: center;\">+</p>","response":null,"trial_type":"html-keyboard-response","trial_index":96,"plugin_version":"2.1.0","time_elapsed":226299,"subject_id":"91881","group":"Group1","condition":"1_Rep","full_date":"2026-02-01T16:51:53.663Z","date":"2026-02-01","time":"16:51:53"},{"task":"memory_phase","broad_category":"M","image_png":"M_Phyllite_07.png","image_id":263,"category_name":"Phyllite","category":17,"distinct_rating":2.59,"distinct_type":"Bottom","rt":null,"stimulus":"Stimuli_Rocks480/M_Phyllite_07.png","response":null,"trial_type":"image-keyboard-response","trial_index":97,"plugin_version":"2.1.0","time_elapsed":228814,"subject_id":"91881","group":"Group1","condition":"1_Rep","full_date":"2026-02-01T16:51:53.663Z","date":"2026-02-01","time":"16:51:53"},{"rt":null,"stimulus":"<p style=\"font-size: 50px; margin: 0; text-align: center;\">+</p>","response":null,"trial_type":"html-keyboard-response","trial_index":98,"plugin_version":"2.1.0","time_elapsed":229817,"subject_id":"91881","group":"Group1","condition":"1_Rep","full_date":"2026-02-01T16:51:53.663Z","date":"2026-02-01","time":"16:51:53"},{"task":"memory_phase","broad_category":"S","image_png":"S_Dolomite_14.png","image_id":398,"category_name":"Dolomite","category":25,"distinct_rating":1.43,"distinct_type":"Bottom","rt":null,"stimulus":"Stimuli_Rocks480/S_Dolomite_14.png","response":null,"trial_type":"image-keyboard-response","trial_index":99,"plugin_version":"2.1.0","time_elapsed":232332,"subject_id":"91881","group":"Group1","condition":"1_Rep","full_date":"2026-02-01T16:51:53.663Z","date":"2026-02-01","time":"16:51:53"},{"rt":null,"stimulus":"<p style=\"font-size: 50px; margin: 0; text-align: center;\">+</p>","response":null,"trial_type":"html-keyboard-response","trial_index":100,"plugin_version":"2.1.0","time_elapsed":233336,"subject_id":"91881","group":"Group1","condition":"1_Rep","full_date":"2026-02-01T16:51:53.663Z","date":"2026-02-01","time":"16:51:53"},{"task":"memory_phase","broad_category":"M","image_png":"M_Marble_16.png","image_id":240,"category_name":"Marble","category":15,"distinct_rating":2.57,"distinct_type":"Bottom","rt":null,"stimulus":"Stimuli_Rocks480/M_Marble_16.png","response":null,"trial_type":"image-keyboard-response","trial_index":101,"plugin_version":"2.1.0","time_elapsed":235852,"subject_id":"91881","group":"Group1","condition":"1_Rep","full_date":"2026-02-01T16:51:53.663Z","date":"2026-02-01","time":"16:51:53"},{"rt":null,"stimulus":"<p style=\"font-size: 50px; margin: 0; text-align: center;\">+</p>","response":null,"trial_type":"html-keyboard-response","trial_index":102,"plugin_version":"2.1.0","time_elapsed":236861,"subject_id":"91881","group":"Group1","condition":"1_Rep","full_date":"2026-02-01T16:51:53.663Z","date":"2026-02-01","time":"16:51:53"},{"task":"memory_phase","broad_category":"S","image_png":"S_Rock Gypsum_04.png","image_id":420,"category_name":"Rock Gypsum","category":27,"distinct_rating":7.61,"distinct_type":"Top","rt":null,"stimulus":"Stimuli_Rocks480/S_Rock Gypsum_04.png","response":null,"trial_type":"image-keyboard-response","trial_index":103,"plugin_version":"2.1.0","time_elapsed":239370,"subject_id":"91881","group":"Group1","condition":"1_Rep","full_date":"2026-02-01T16:51:53.663Z","date":"2026-02-01","time":"16:51:53"},{"rt":null,"stimulus":"<p style=\"font-size: 50px; margin: 0; text-align: center;\">+</p>","response":null,"trial_type":"html-keyboard-response","trial_index":104,"plugin_version":"2.1.0","time_elapsed":240390,"subject_id":"91881","group":"Group1","condition":"1_Rep","full_date":"2026-02-01T16:51:53.663Z","date":"2026-02-01","time":"16:51:53"},{"task":"memory_phase","broad_category":"M","image_png":"M_Gneiss_05.png","image_id":197,"category_name":"Gneiss","category":13,"distinct_rating":2.97,"distinct_type":"Bottom","rt":null,"stimulus":"Stimuli_Rocks480/M_Gneiss_05.png","response":null,"trial_type":"image-keyboard-response","trial_index":105,"plugin_version":"2.1.0","time_elapsed":242906,"subject_id":"91881","group":"Group1","condition":"1_Rep","full_date":"2026-02-01T16:51:53.663Z","date":"2026-02-01","time":"16:51:53"},{"rt":9800,"stimulus":"<div style=\"max-width: 760px; margin: auto; font-size: 20px; line-height: 1.5;\">\n      <h1 style=\"text-align:center; font-size: 30px;\">Instructions for the Test Phase</h1>\n      <p>\n        The study phase is now complete.\n      </p>\n      <p>\n        In the test phase, you will again see a series of rock images. \n        Some will be ones you saw before - during the study phase, while others will be new.  \n        <b>Your task</b> is to decide whether you have seen each image before by pressing the corresponding key on your keyboard:<br><br>\n          <b>A</b> - NO (you did not see this image before)<br>\n          <b>L</b> - YES (you saw this image before)<br><br>\n        The test will proceed at your own pace. You will receive feedback after each response.  \n        Please try to respond <b>as accurately as possible</b>.\n      </p>\n      <p>\n        <b>Reminder:</b> If your computer has multiple language settings (e.g., English and another language),\n        please ensure it is set to English during the test phase.\n      </p>\n      <p>\n        You can track your progress using the <b>completion bar</b> at the top of the screen.  \n        Note that it has been refreshed to reflect your progress during this final phase.\n      </p>\n      <p>\n        Press the button below when you are ready to continue.\n      </p>\n    </div>","response":0,"trial_type":"html-button-response","trial_index":106,"plugin_version":"2.1.0","time_elapsed":252711,"subject_id":"91881","group":"Group1","condition":"1_Rep","full_date":"2026-02-01T16:51:53.663Z","date":"2026-02-01","time":"16:51:53"},{"correct_response":"l","task":"test_phase","broad_category":"I","image_png":"I_Gabbro_08.png","image_id":56,"category_name":"Gabbro","category":4,"distinct_rating":3.02,"distinct_type":"Bottom","item_type":"Target","rt":4432,"stimulus":"Stimuli_Rocks480/I_Gabbro_08.png","response":"l","trial_type":"image-keyboard-response","trial_index":107,"plugin_version":"2.1.0","time_elapsed":257147,"subject_id":"91881","group":"Group1","condition":"1_Rep","full_date":"2026-02-01T16:51:53.663Z","date":"2026-02-01","time":"16:51:53","cor_ans":true},{"trial_type":"html-keyboard-response","rt":null,"stimulus":"<p style=\"color: green; font-size: 50px; font-weight: bold;\">Correct</p>","response":null,"trial_index":108,"plugin_version":"2.1.0","time_elapsed":257660,"subject_id":"91881","group":"Group1","condition":"1_Rep","full_date":"2026-02-01T16:51:53.663Z","date":"2026-02-01","time":"16:51:53"},{"correct_response":"a","task":"test_phase","broad_category":"I","image_png":"I_Peridotite_13.png","image_id":125,"category_name":"Peridotite","category":8,"distinct_rating":7.28,"distinct_type":"Top","item_type":"Foil","rt":2185,"stimulus":"Stimuli_Rocks480/I_Peridotite_13.png","response":"a","trial_type":"image-keyboard-response","trial_index":109,"plugin_version":"2.1.0","time_elapsed":259849,"subject_id":"91881","group":"Group1","condition":"1_Rep","full_date":"2026-02-01T16:51:53.663Z","date":"2026-02-01","time":"16:51:53","cor_ans":true},{"trial_type":"html-keyboard-response","rt":null,"stimulus":"<p style=\"color: green; font-size: 50px; font-weight: bold;\">Correct</p>","response":null,"trial_index":110,"plugin_version":"2.1.0","time_elapsed":260358,"subject_id":"91881","group":"Group1","condition":"1_Rep","full_date":"2026-02-01T16:51:53.663Z","date":"2026-02-01","time":"16:51:53"},{"correct_response":"l","task":"test_phase","broad_category":"M","image_png":"M_Phyllite_03.png","image_id":259,"category_name":"Phyllite","category":17,"distinct_rating":2.5,"distinct_type":"Bottom","item_type":"Target","rt":2567,"stimulus":"Stimuli_Rocks480/M_Phyllite_03.png","response":"l","trial_type":"image-keyboard-response","trial_index":111,"plugin_version":"2.1.0","time_elapsed":262929,"subject_id":"91881","group":"Group1","condition":"1_Rep","full_date":"2026-02-01T16:51:53.663Z","date":"2026-02-01","time":"16:51:53","cor_ans":true},{"trial_type":"html-keyboard-response","rt":null,"stimulus":"<p style=\"color: green; font-size: 50px; font-weight: bold;\">Correct</p>","response":null,"trial_index":112,"plugin_version":"2.1.0","time_elapsed":263444,"subject_id":"91881","group":"Group1","condition":"1_Rep","full_date":"2026-02-01T16:51:53.663Z","date":"2026-02-01","time":"16:51:53"},{"correct_response":"a","task":"test_phase","broad_category":"S","image_png":"S_Sandstone_08.png","image_id":456,"category_name":"Sandstone","category":29,"distinct_rating":1.5,"distinct_type":"Bottom","item_type":"Foil","rt":1944,"stimulus":"Stimuli_Rocks480/S_Sandstone_08.png","response":"a","trial_type":"image-keyboard-response","trial_index":113,"plugin_version":"2.1.0","time_elapsed":265392,"subject_id":"91881","group":"Group1","condition":"1_Rep","full_date":"2026-02-01T16:51:53.663Z","date":"2026-02-01","time":"16:51:53","cor_ans":true},{"trial_type":"html-keyboard-response","rt":null,"stimulus":"<p style=\"color: green; font-size: 50px; font-weight: bold;\">Correct</p>","response":null,"trial_index":114,"plugin_version":"2.1.0","time_elapsed":265895,"subject_id":"91881","group":"Group1","condition":"1_Rep","full_date":"2026-02-01T16:51:53.663Z","date":"2026-02-01","time":"16:51:53"},{"correct_response":"a","task":"test_phase","broad_category":"I","image_png":"I_Basalt_08.png","image_id":24,"category_name":"Basalt","category":2,"distinct_rating":2.31,"distinct_type":"Bottom","item_type":"Foil","rt":1604,"stimulus":"Stimuli_Rocks480/I_Basalt_08.png","response":"a","trial_type":"image-keyboard-response","trial_index":115,"plugin_version":"2.1.0","time_elapsed":267503,"subject_id":"91881","group":"Group1","condition":"1_Rep","full_date":"2026-02-01T16:51:53.663Z","date":"2026-02-01","time":"16:51:53","cor_ans":true},{"trial_type":"html-keyboard-response","rt":null,"stimulus":"<p style=\"color: green; font-size: 50px; font-weight: bold;\">Correct</p>","response":null,"trial_index":116,"plugin_version":"2.1.0","time_elapsed":268012,"subject_id":"91881","group":"Group1","condition":"1_Rep","full_date":"2026-02-01T16:51:53.663Z","date":"2026-02-01","time":"16:51:53"},{"correct_response":"l","task":"test_phase","broad_category":"I","image_png":"I_Pumice_11.png","image_id":139,"category_name":"Pumice","category":9,"distinct_rating":1.74,"distinct_type":"Bottom","item_type":"Target","rt":1616,"stimulus":"Stimuli_Rocks480/I_Pumice_11.png","response":"l","trial_type":"image-keyboard-response","trial_index":117,"plugin_version":"2.1.0","time_elapsed":269631,"subject_id":"91881","group":"Group1","condition":"1_Rep","full_date":"2026-02-01T16:51:53.663Z","date":"2026-02-01","time":"16:51:53","cor_ans":true},{"trial_type":"html-keyboard-response","rt":null,"stimulus":"<p style=\"color: green; font-size: 50px; font-weight: bold;\">Correct</p>","response":null,"trial_index":118,"plugin_version":"2.1.0","time_elapsed":270148,"subject_id":"91881","group":"Group1","condition":"1_Rep","full_date":"2026-02-01T16:51:53.663Z","date":"2026-02-01","time":"16:51:53"},{"correct_response":"a","task":"test_phase","broad_category":"S","image_png":"S_Dolomite_01.png","image_id":385,"category_name":"Dolomite","category":25,"distinct_rating":1.43,"distinct_type":"Bottom","item_type":"Foil","rt":2091,"stimulus":"Stimuli_Rocks480/S_Dolomite_01.png","response":"a","trial_type":"image-keyboard-response","trial_index":119,"plugin_version":"2.1.0","time_elapsed":272243,"subject_id":"91881","group":"Group1","condition":"1_Rep","full_date":"2026-02-01T16:51:53.663Z","date":"2026-02-01","time":"16:51:53","cor_ans":true},{"trial_type":"html-keyboard-response","rt":null,"stimulus":"<p style=\"color: green; font-size: 50px; font-weight: bold;\">Correct</p>","response":null,"trial_index":120,"plugin_version":"2.1.0","time_elapsed":272749,"subject_id":"91881","group":"Group1","condition":"1_Rep","full_date":"2026-02-01T16:51:53.663Z","date":"2026-02-01","time":"16:51:53"},{"correct_response":"l","task":"test_phase","broad_category":"I","image_png":"I_Diorite_04.png","image_id":36,"category_name":"Diorite","category":3,"distinct_rating":2.98,"distinct_type":"Bottom","item_type":"Target","rt":1508,"stimulus":"Stimuli_Rocks480/I_Diorite_04.png","response":"l","trial_type":"image-keyboard-response","trial_index":121,"plugin_version":"2.1.0","time_elapsed":274260,"subject_id":"91881","group":"Group1","condition":"1_Rep","full_date":"2026-02-01T16:51:53.663Z","date":"2026-02-01","time":"16:51:53","cor_ans":true},{"trial_type":"html-keyboard-response","rt":null,"stimulus":"<p style=\"color: green; font-size: 50px; font-weight: bold;\">Correct</p>","response":null,"trial_index":122,"plugin_version":"2.1.0","time_elapsed":274766,"subject_id":"91881","group":"Group1","condition":"1_Rep","full_date":"2026-02-01T16:51:53.663Z","date":"2026-02-01","time":"16:51:53"},{"correct_response":"l","task":"test_phase","broad_category":"M","image_png":"M_Marble_06.png","image_id":230,"category_name":"Marble","category":15,"distinct_rating":3.4,"distinct_type":"Bottom","item_type":"Target","rt":2680,"stimulus":"Stimuli_Rocks480/M_Marble_06.png","response":"a","trial_type":"image-keyboard-response","trial_index":123,"plugin_version":"2.1.0","time_elapsed":277450,"subject_id":"91881","group":"Group1","condition":"1_Rep","full_date":"2026-02-01T16:51:53.663Z","date":"2026-02-01","time":"16:51:53","cor_ans":false},{"trial_type":"html-keyboard-response","rt":null,"stimulus":"<p style=\"color: red; font-size: 50px; font-weight: bold;\">Incorrect</p>","response":null,"trial_index":124,"plugin_version":"2.1.0","time_elapsed":277968,"subject_id":"91881","group":"Group1","condition":"1_Rep","full_date":"2026-02-01T16:51:53.663Z","date":"2026-02-01","time":"16:51:53"},{"correct_response":"a","task":"test_phase","broad_category":"S","image_png":"S_Dolomite_07.png","image_id":391,"category_name":"Dolomite","category":25,"distinct_rating":1.73,"distinct_type":"Bottom","item_type":"Foil","rt":2594,"stimulus":"Stimuli_Rocks480/S_Dolomite_07.png","response":"l","trial_type":"image-keyboard-response","trial_index":125,"plugin_version":"2.1.0","time_elapsed":280567,"subject_id":"91881","group":"Group1","condition":"1_Rep","full_date":"2026-02-01T16:51:53.663Z","date":"2026-02-01","time":"16:51:53","cor_ans":false},{"trial_type":"html-keyboard-response","rt":null,"stimulus":"<p style=\"color: red; font-size: 50px; font-weight: bold;\">Incorrect</p>","response":null,"trial_index":126,"plugin_version":"2.1.0","time_elapsed":281070,"subject_id":"91881","group":"Group1","condition":"1_Rep","full_date":"2026-02-01T16:51:53.663Z","date":"2026-02-01","time":"16:51:53"},{"correct_response":"l","task":"test_phase","broad_category":"S","image_png":"S_Shale_08.png","image_id":472,"category_name":"Shale","category":30,"distinct_rating":2.55,"distinct_type":"Bottom","item_type":"Target","rt":1692,"stimulus":"Stimuli_Rocks480/S_Shale_08.png","response":"l","trial_type":"image-keyboard-response","trial_index":127,"plugin_version":"2.1.0","time_elapsed":282766,"subject_id":"91881","group":"Group1","condition":"1_Rep","full_date":"2026-02-01T16:51:53.663Z","date":"2026-02-01","time":"16:51:53","cor_ans":true},{"trial_type":"html-keyboard-response","rt":null,"stimulus":"<p style=\"color: green; font-size: 50px; font-weight: bold;\">Correct</p>","response":null,"trial_index":128,"plugin_version":"2.1.0","time_elapsed":283283,"subject_id":"91881","group":"Group1","condition":"1_Rep","full_date":"2026-02-01T16:51:53.663Z","date":"2026-02-01","time":"16:51:53"},{"correct_response":"a","task":"test_phase","broad_category":"S","image_png":"S_Rock Salt_15.png","image_id":447,"category_name":"Rock Salt","category":28,"distinct_rating":7.79,"distinct_type":"Top","item_type":"Foil","rt":1444,"stimulus":"Stimuli_Rocks480/S_Rock Salt_15.png","response":"a","trial_type":"image-keyboard-response","trial_index":129,"plugin_version":"2.1.0","time_elapsed":284732,"subject_id":"91881","group":"Group1","condition":"1_Rep","full_date":"2026-02-01T16:51:53.663Z","date":"2026-02-01","time":"16:51:53","cor_ans":true},{"trial_type":"html-keyboard-response","rt":null,"stimulus":"<p style=\"color: green; font-size: 50px; font-weight: bold;\">Correct</p>","response":null,"trial_index":130,"plugin_version":"2.1.0","time_elapsed":285239,"subject_id":"91881","group":"Group1","condition":"1_Rep","full_date":"2026-02-01T16:51:53.663Z","date":"2026-02-01","time":"16:51:53"},{"correct_response":"a","task":"test_phase","broad_category":"I","image_png":"I_Andesite_03.png","image_id":3,"category_name":"Andesite","category":1,"distinct_rating":3.17,"distinct_type":"Bottom","item_type":"Foil","rt":2298,"stimulus":"Stimuli_Rocks480/I_Andesite_03.png","response":"a","trial_type":"image-keyboard-response","trial_index":131,"plugin_version":"2.1.0","time_elapsed":287540,"subject_id":"91881","group":"Group1","condition":"1_Rep","full_date":"2026-02-01T16:51:53.663Z","date":"2026-02-01","time":"16:51:53","cor_ans":true},{"trial_type":"html-keyboard-response","rt":null,"stimulus":"<p style=\"color: green; font-size: 50px; font-weight: bold;\">Correct</p>","response":null,"trial_index":132,"plugin_version":"2.1.0","time_elapsed":288058,"subject_id":"91881","group":"Group1","condition":"1_Rep","full_date":"2026-02-01T16:51:53.663Z","date":"2026-02-01","time":"16:51:53"},{"correct_response":"a","task":"test_phase","broad_category":"I","image_png":"I_Pumice_13.png","image_id":141,"category_name":"Pumice","category":9,"distinct_rating":3.12,"distinct_type":"Bottom","item_type":"Foil","rt":1746,"stimulus":"Stimuli_Rocks480/I_Pumice_13.png","response":"a","trial_type":"image-keyboard-response","trial_index":133,"plugin_version":"2.1.0","time_elapsed":289808,"subject_id":"91881","group":"Group1","condition":"1_Rep","full_date":"2026-02-01T16:51:53.663Z","date":"2026-02-01","time":"16:51:53","cor_ans":true},{"trial_type":"html-keyboard-response","rt":null,"stimulus":"<p style=\"color: green; font-size: 50px; font-weight: bold;\">Correct</p>","response":null,"trial_index":134,"plugin_version":"2.1.0","time_elapsed":290325,"subject_id":"91881","group":"Group1","condition":"1_Rep","full_date":"2026-02-01T16:51:53.663Z","date":"2026-02-01","time":"16:51:53"},{"correct_response":"l","task":"test_phase","broad_category":"I","image_png":"I_Basalt_01.png","image_id":17,"category_name":"Basalt","category":2,"distinct_rating":1.92,"distinct_type":"Bottom","item_type":"Target","rt":1472,"stimulus":"Stimuli_Rocks480/I_Basalt_01.png","response":"l","trial_type":"image-keyboard-response","trial_index":135,"plugin_version":"2.1.0","time_elapsed":291801,"subject_id":"91881","group":"Group1","condition":"1_Rep","full_date":"2026-02-01T16:51:53.663Z","date":"2026-02-01","time":"16:51:53","cor_ans":true},{"trial_type":"html-keyboard-response","rt":null,"stimulus":"<p style=\"color: green; font-size: 50px; font-weight: bold;\">Correct</p>","response":null,"trial_index":136,"plugin_version":"2.1.0","time_elapsed":292316,"subject_id":"91881","group":"Group1","condition":"1_Rep","full_date":"2026-02-01T16:51:53.663Z","date":"2026-02-01","time":"16:51:53"},{"correct_response":"l","task":"test_phase","broad_category":"S","image_png":"S_Shale_01.png","image_id":465,"category_name":"Shale","category":30,"distinct_rating":2.7,"distinct_type":"Bottom","item_type":"Target","rt":1213,"stimulus":"Stimuli_Rocks480/S_Shale_01.png","response":"l","trial_type":"image-keyboard-response","trial_index":137,"plugin_version":"2.1.0","time_elapsed":293533,"subject_id":"91881","group":"Group1","condition":"1_Rep","full_date":"2026-02-01T16:51:53.663Z","date":"2026-02-01","time":"16:51:53","cor_ans":true},{"trial_type":"html-keyboard-response","rt":null,"stimulus":"<p style=\"color: green; font-size: 50px; font-weight: bold;\">Correct</p>","response":null,"trial_index":138,"plugin_version":"2.1.0","time_elapsed":294043,"subject_id":"91881","group":"Group1","condition":"1_Rep","full_date":"2026-02-01T16:51:53.663Z","date":"2026-02-01","time":"16:51:53"},{"correct_response":"a","task":"test_phase","broad_category":"M","image_png":"M_Marble_02.png","image_id":226,"category_name":"Marble","category":15,"distinct_rating":3.2,"distinct_type":"Bottom","item_type":"Foil","rt":1522,"stimulus":"Stimuli_Rocks480/M_Marble_02.png","response":"l","trial_type":"image-keyboard-response","trial_index":139,"plugin_version":"2.1.0","time_elapsed":295569,"subject_id":"91881","group":"Group1","condition":"1_Rep","full_date":"2026-02-01T16:51:53.663Z","date":"2026-02-01","time":"16:51:53","cor_ans":false},{"trial_type":"html-keyboard-response","rt":null,"stimulus":"<p style=\"color: red; font-size: 50px; font-weight: bold;\">Incorrect</p>","response":null,"trial_index":140,"plugin_version":"2.1.0","time_elapsed":296078,"subject_id":"91881","group":"Group1","condition":"1_Rep","full_date":"2026-02-01T16:51:53.663Z","date":"2026-02-01","time":"16:51:53"},{"correct_response":"l","task":"test_phase","broad_category":"M","image_png":"M_Quartzite_08.png","image_id":280,"category_name":"Quartzite","category":18,"distinct_rating":2.15,"distinct_type":"Bottom","item_type":"Target","rt":1149,"stimulus":"Stimuli_Rocks480/M_Quartzite_08.png","response":"l","trial_type":"image-keyboard-response","trial_index":141,"plugin_version":"2.1.0","time_elapsed":297231,"subject_id":"91881","group":"Group1","condition":"1_Rep","full_date":"2026-02-01T16:51:53.663Z","date":"2026-02-01","time":"16:51:53","cor_ans":true},{"trial_type":"html-keyboard-response","rt":null,"stimulus":"<p style=\"color: green; font-size: 50px; font-weight: bold;\">Correct</p>","response":null,"trial_index":142,"plugin_version":"2.1.0","time_elapsed":297746,"subject_id":"91881","group":"Group1","condition":"1_Rep","full_date":"2026-02-01T16:51:53.663Z","date":"2026-02-01","time":"16:51:53"},{"correct_response":"a","task":"test_phase","broad_category":"M","image_png":"M_Phyllite_02.png","image_id":258,"category_name":"Phyllite","category":17,"distinct_rating":2.89,"distinct_type":"Bottom","item_type":"Foil","rt":2410,"stimulus":"Stimuli_Rocks480/M_Phyllite_02.png","response":"a","trial_type":"image-keyboard-response","trial_index":143,"plugin_version":"2.1.0","time_elapsed":300159,"subject_id":"91881","group":"Group1","condition":"1_Rep","full_date":"2026-02-01T16:51:53.663Z","date":"2026-02-01","time":"16:51:53","cor_ans":true},{"trial_type":"html-keyboard-response","rt":null,"stimulus":"<p style=\"color: green; font-size: 50px; font-weight: bold;\">Correct</p>","response":null,"trial_index":144,"plugin_version":"2.1.0","time_elapsed":300662,"subject_id":"91881","group":"Group1","condition":"1_Rep","full_date":"2026-02-01T16:51:53.663Z","date":"2026-02-01","time":"16:51:53"},{"correct_response":"a","task":"test_phase","broad_category":"S","image_png":"S_Shale_07.png","image_id":471,"category_name":"Shale","category":30,"distinct_rating":2.73,"distinct_type":"Bottom","item_type":"Foil","rt":3407,"stimulus":"Stimuli_Rocks480/S_Shale_07.png","response":"a","trial_type":"image-keyboard-response","trial_index":145,"plugin_version":"2.1.0","time_elapsed":304072,"subject_id":"91881","group":"Group1","condition":"1_Rep","full_date":"2026-02-01T16:51:53.663Z","date":"2026-02-01","time":"16:51:53","cor_ans":true},{"trial_type":"html-keyboard-response","rt":null,"stimulus":"<p style=\"color: green; font-size: 50px; font-weight: bold;\">Correct</p>","response":null,"trial_index":146,"plugin_version":"2.1.0","time_elapsed":304584,"subject_id":"91881","group":"Group1","condition":"1_Rep","full_date":"2026-02-01T16:51:53.663Z","date":"2026-02-01","time":"16:51:53"},{"correct_response":"a","task":"test_phase","broad_category":"M","image_png":"M_Quartzite_07.png","image_id":279,"category_name":"Quartzite","category":18,"distinct_rating":1.97,"distinct_type":"Bottom","item_type":"Foil","rt":3820,"stimulus":"Stimuli_Rocks480/M_Quartzite_07.png","response":"a","trial_type":"image-keyboard-response","trial_index":147,"plugin_version":"2.1.0","time_elapsed":308408,"subject_id":"91881","group":"Group1","condition":"1_Rep","full_date":"2026-02-01T16:51:53.663Z","date":"2026-02-01","time":"16:51:53","cor_ans":true},{"trial_type":"html-keyboard-response","rt":null,"stimulus":"<p style=\"color: green; font-size: 50px; font-weight: bold;\">Correct</p>","response":null,"trial_index":148,"plugin_version":"2.1.0","time_elapsed":308918,"subject_id":"91881","group":"Group1","condition":"1_Rep","full_date":"2026-02-01T16:51:53.663Z","date":"2026-02-01","time":"16:51:53"},{"correct_response":"a","task":"test_phase","broad_category":"S","image_png":"S_Shale_02.png","image_id":466,"category_name":"Shale","category":30,"distinct_rating":2.9,"distinct_type":"Bottom","item_type":"Foil","rt":1515,"stimulus":"Stimuli_Rocks480/S_Shale_02.png","response":"a","trial_type":"image-keyboard-response","trial_index":149,"plugin_version":"2.1.0","time_elapsed":310436,"subject_id":"91881","group":"Group1","condition":"1_Rep","full_date":"2026-02-01T16:51:53.663Z","date":"2026-02-01","time":"16:51:53","cor_ans":true},{"trial_type":"html-keyboard-response","rt":null,"stimulus":"<p style=\"color: green; font-size: 50px; font-weight: bold;\">Correct</p>","response":null,"trial_index":150,"plugin_version":"2.1.0","time_elapsed":310953,"subject_id":"91881","group":"Group1","condition":"1_Rep","full_date":"2026-02-01T16:51:53.663Z","date":"2026-02-01","time":"16:51:53"},{"correct_response":"l","task":"test_phase","broad_category":"M","image_png":"M_Quartzite_13.png","image_id":285,"category_name":"Quartzite","category":18,"distinct_rating":2.27,"distinct_type":"Bottom","item_type":"Target","rt":1318,"stimulus":"Stimuli_Rocks480/M_Quartzite_13.png","response":"l","trial_type":"image-keyboard-response","trial_index":151,"plugin_version":"2.1.0","time_elapsed":312274,"subject_id":"91881","group":"Group1","condition":"1_Rep","full_date":"2026-02-01T16:51:53.663Z","date":"2026-02-01","time":"16:51:53","cor_ans":true},{"trial_type":"html-keyboard-response","rt":null,"stimulus":"<p style=\"color: green; font-size: 50px; font-weight: bold;\">Correct</p>","response":null,"trial_index":152,"plugin_version":"2.1.0","time_elapsed":312787,"subject_id":"91881","group":"Group1","condition":"1_Rep","full_date":"2026-02-01T16:51:53.663Z","date":"2026-02-01","time":"16:51:53"},{"correct_response":"l","task":"test_phase","broad_category":"I","image_png":"I_Pegmatite_10.png","image_id":106,"category_name":"Pegmatite","category":7,"distinct_rating":7.66,"distinct_type":"Top","item_type":"Target","rt":1319,"stimulus":"Stimuli_Rocks480/I_Pegmatite_10.png","response":"l","trial_type":"image-keyboard-response","trial_index":153,"plugin_version":"2.1.0","time_elapsed":314110,"subject_id":"91881","group":"Group1","condition":"1_Rep","full_date":"2026-02-01T16:51:53.663Z","date":"2026-02-01","time":"16:51:53","cor_ans":true},{"trial_type":"html-keyboard-response","rt":null,"stimulus":"<p style=\"color: green; font-size: 50px; font-weight: bold;\">Correct</p>","response":null,"trial_index":154,"plugin_version":"2.1.0","time_elapsed":314622,"subject_id":"91881","group":"Group1","condition":"1_Rep","full_date":"2026-02-01T16:51:53.663Z","date":"2026-02-01","time":"16:51:53"},{"correct_response":"a","task":"test_phase","broad_category":"I","image_png":"I_Diorite_15.png","image_id":47,"category_name":"Diorite","category":3,"distinct_rating":3.05,"distinct_type":"Bottom","item_type":"Foil","rt":4255,"stimulus":"Stimuli_Rocks480/I_Diorite_15.png","response":"a","trial_type":"image-keyboard-response","trial_index":155,"plugin_version":"2.1.0","time_elapsed":318881,"subject_id":"91881","group":"Group1","condition":"1_Rep","full_date":"2026-02-01T16:51:53.663Z","date":"2026-02-01","time":"16:51:53","cor_ans":true},{"trial_type":"html-keyboard-response","rt":null,"stimulus":"<p style=\"color: green; font-size: 50px; font-weight: bold;\">Correct</p>","response":null,"trial_index":156,"plugin_version":"2.1.0","time_elapsed":319391,"subject_id":"91881","group":"Group1","condition":"1_Rep","full_date":"2026-02-01T16:51:53.663Z","date":"2026-02-01","time":"16:51:53"},{"correct_response":"l","task":"test_phase","broad_category":"S","image_png":"S_Shale_12.png","image_id":476,"category_name":"Shale","category":30,"distinct_rating":2.48,"distinct_type":"Bottom","item_type":"Target","rt":1264,"stimulus":"Stimuli_Rocks480/S_Shale_12.png","response":"l","trial_type":"image-keyboard-response","trial_index":157,"plugin_version":"2.1.0","time_elapsed":320659,"subject_id":"91881","group":"Group1","condition":"1_Rep","full_date":"2026-02-01T16:51:53.663Z","date":"2026-02-01","time":"16:51:53","cor_ans":true},{"trial_type":"html-keyboard-response","rt":null,"stimulus":"<p style=\"color: green; font-size: 50px; font-weight: bold;\">Correct</p>","response":null,"trial_index":158,"plugin_version":"2.1.0","time_elapsed":321167,"subject_id":"91881","group":"Group1","condition":"1_Rep","full_date":"2026-02-01T16:51:53.663Z","date":"2026-02-01","time":"16:51:53"},{"correct_response":"a","task":"test_phase","broad_category":"S","image_png":"S_Sandstone_04.png","image_id":452,"category_name":"Sandstone","category":29,"distinct_rating":1.8,"distinct_type":"Bottom","item_type":"Foil","rt":1356,"stimulus":"Stimuli_Rocks480/S_Sandstone_04.png","response":"l","trial_type":"image-keyboard-response","trial_index":159,"plugin_version":"2.1.0","time_elapsed":322525,"subject_id":"91881","group":"Group1","condition":"1_Rep","full_date":"2026-02-01T16:51:53.663Z","date":"2026-02-01","time":"16:51:53","cor_ans":false},{"trial_type":"html-keyboard-response","rt":null,"stimulus":"<p style=\"color: red; font-size: 50px; font-weight: bold;\">Incorrect</p>","response":null,"trial_index":160,"plugin_version":"2.1.0","time_elapsed":323044,"subject_id":"91881","group":"Group1","condition":"1_Rep","full_date":"2026-02-01T16:51:53.663Z","date":"2026-02-01","time":"16:51:53"},{"correct_response":"l","task":"test_phase","broad_category":"I","image_png":"I_Obsidian_05.png","image_id":85,"category_name":"Obsidian","category":6,"distinct_rating":7.32,"distinct_type":"Top","item_type":"Target","rt":1373,"stimulus":"Stimuli_Rocks480/I_Obsidian_05.png","response":"l","trial_type":"image-keyboard-response","trial_index":161,"plugin_version":"2.1.0","time_elapsed":324420,"subject_id":"91881","group":"Group1","condition":"1_Rep","full_date":"2026-02-01T16:51:53.663Z","date":"2026-02-01","time":"16:51:53","cor_ans":true},{"trial_type":"html-keyboard-response","rt":null,"stimulus":"<p style=\"color: green; font-size: 50px; font-weight: bold;\">Correct</p>","response":null,"trial_index":162,"plugin_version":"2.1.0","time_elapsed":324926,"subject_id":"91881","group":"Group1","condition":"1_Rep","full_date":"2026-02-01T16:51:53.663Z","date":"2026-02-01","time":"16:51:53"},{"correct_response":"l","task":"test_phase","broad_category":"S","image_png":"S_Rock Gypsum_04.png","image_id":420,"category_name":"Rock Gypsum","category":27,"distinct_rating":7.61,"distinct_type":"Top","item_type":"Target","rt":1128,"stimulus":"Stimuli_Rocks480/S_Rock Gypsum_04.png","response":"l","trial_type":"image-keyboard-response","trial_index":163,"plugin_version":"2.1.0","time_elapsed":326057,"subject_id":"91881","group":"Group1","condition":"1_Rep","full_date":"2026-02-01T16:51:53.663Z","date":"2026-02-01","time":"16:51:53","cor_ans":true},{"trial_type":"html-keyboard-response","rt":null,"stimulus":"<p style=\"color: green; font-size: 50px; font-weight: bold;\">Correct</p>","response":null,"trial_index":164,"plugin_version":"2.1.0","time_elapsed":326562,"subject_id":"91881","group":"Group1","condition":"1_Rep","full_date":"2026-02-01T16:51:53.663Z","date":"2026-02-01","time":"16:51:53"},{"correct_response":"a","task":"test_phase","broad_category":"M","image_png":"M_Gneiss_14.png","image_id":206,"category_name":"Gneiss","category":13,"distinct_rating":3.41,"distinct_type":"Bottom","item_type":"Foil","rt":1701,"stimulus":"Stimuli_Rocks480/M_Gneiss_14.png","response":"a","trial_type":"image-keyboard-response","trial_index":165,"plugin_version":"2.1.0","time_elapsed":328266,"subject_id":"91881","group":"Group1","condition":"1_Rep","full_date":"2026-02-01T16:51:53.663Z","date":"2026-02-01","time":"16:51:53","cor_ans":true},{"trial_type":"html-keyboard-response","rt":null,"stimulus":"<p style=\"color: green; font-size: 50px; font-weight: bold;\">Correct</p>","response":null,"trial_index":166,"plugin_version":"2.1.0","time_elapsed":328778,"subject_id":"91881","group":"Group1","condition":"1_Rep","full_date":"2026-02-01T16:51:53.663Z","date":"2026-02-01","time":"16:51:53"},{"correct_response":"l","task":"test_phase","broad_category":"I","image_png":"I_Rhyolite_11.png","image_id":155,"category_name":"Rhyolite","category":10,"distinct_rating":1.73,"distinct_type":"Bottom","item_type":"Target","rt":1923,"stimulus":"Stimuli_Rocks480/I_Rhyolite_11.png","response":"l","trial_type":"image-keyboard-response","trial_index":167,"plugin_version":"2.1.0","time_elapsed":330704,"subject_id":"91881","group":"Group1","condition":"1_Rep","full_date":"2026-02-01T16:51:53.663Z","date":"2026-02-01","time":"16:51:53","cor_ans":true},{"trial_type":"html-keyboard-response","rt":null,"stimulus":"<p style=\"color: green; font-size: 50px; font-weight: bold;\">Correct</p>","response":null,"trial_index":168,"plugin_version":"2.1.0","time_elapsed":331214,"subject_id":"91881","group":"Group1","condition":"1_Rep","full_date":"2026-02-01T16:51:53.663Z","date":"2026-02-01","time":"16:51:53"},{"correct_response":"l","task":"test_phase","broad_category":"I","image_png":"I_Rhyolite_16.png","image_id":160,"category_name":"Rhyolite","category":10,"distinct_rating":2.19,"distinct_type":"Bottom","item_type":"Target","rt":1451,"stimulus":"Stimuli_Rocks480/I_Rhyolite_16.png","response":"l","trial_type":"image-keyboard-response","trial_index":169,"plugin_version":"2.1.0","time_elapsed":332669,"subject_id":"91881","group":"Group1","condition":"1_Rep","full_date":"2026-02-01T16:51:53.663Z","date":"2026-02-01","time":"16:51:53","cor_ans":true},{"trial_type":"html-keyboard-response","rt":null,"stimulus":"<p style=\"color: green; font-size: 50px; font-weight: bold;\">Correct</p>","response":null,"trial_index":170,"plugin_version":"2.1.0","time_elapsed":333181,"subject_id":"91881","group":"Group1","condition":"1_Rep","full_date":"2026-02-01T16:51:53.663Z","date":"2026-02-01","time":"16:51:53"},{"correct_response":"l","task":"test_phase","broad_category":"S","image_png":"S_Breccia_11.png","image_id":347,"category_name":"Breccia","category":22,"distinct_rating":6.7,"distinct_type":"Top","item_type":"Target","rt":1014,"stimulus":"Stimuli_Rocks480/S_Breccia_11.png","response":"l","trial_type":"image-keyboard-response","trial_index":171,"plugin_version":"2.1.0","time_elapsed":334198,"subject_id":"91881","group":"Group1","condition":"1_Rep","full_date":"2026-02-01T16:51:53.663Z","date":"2026-02-01","time":"16:51:53","cor_ans":true},{"trial_type":"html-keyboard-response","rt":null,"stimulus":"<p style=\"color: green; font-size: 50px; font-weight: bold;\">Correct</p>","response":null,"trial_index":172,"plugin_version":"2.1.0","time_elapsed":334716,"subject_id":"91881","group":"Group1","condition":"1_Rep","full_date":"2026-02-01T16:51:53.663Z","date":"2026-02-01","time":"16:51:53"},{"correct_response":"l","task":"test_phase","broad_category":"I","image_png":"I_Pegmatite_16.png","image_id":112,"category_name":"Pegmatite","category":7,"distinct_rating":7.03,"distinct_type":"Top","item_type":"Target","rt":869,"stimulus":"Stimuli_Rocks480/I_Pegmatite_16.png","response":"l","trial_type":"image-keyboard-response","trial_index":173,"plugin_version":"2.1.0","time_elapsed":335589,"subject_id":"91881","group":"Group1","condition":"1_Rep","full_date":"2026-02-01T16:51:53.663Z","date":"2026-02-01","time":"16:51:53","cor_ans":true},{"trial_type":"html-keyboard-response","rt":null,"stimulus":"<p style=\"color: green; font-size: 50px; font-weight: bold;\">Correct</p>","response":null,"trial_index":174,"plugin_version":"2.1.0","time_elapsed":336102,"subject_id":"91881","group":"Group1","condition":"1_Rep","full_date":"2026-02-01T16:51:53.663Z","date":"2026-02-01","time":"16:51:53"},{"correct_response":"l","task":"test_phase","broad_category":"I","image_png":"I_Gabbro_11.png","image_id":59,"category_name":"Gabbro","category":4,"distinct_rating":1.99,"distinct_type":"Bottom","item_type":"Target","rt":988,"stimulus":"Stimuli_Rocks480/I_Gabbro_11.png","response":"l","trial_type":"image-keyboard-response","trial_index":175,"plugin_version":"2.1.0","time_elapsed":337093,"subject_id":"91881","group":"Group1","condition":"1_Rep","full_date":"2026-02-01T16:51:53.663Z","date":"2026-02-01","time":"16:51:53","cor_ans":true},{"trial_type":"html-keyboard-response","rt":null,"stimulus":"<p style=\"color: green; font-size: 50px; font-weight: bold;\">Correct</p>","response":null,"trial_index":176,"plugin_version":"2.1.0","time_elapsed":337601,"subject_id":"91881","group":"Group1","condition":"1_Rep","full_date":"2026-02-01T16:51:53.663Z","date":"2026-02-01","time":"16:51:53"},{"correct_response":"l","task":"test_phase","broad_category":"M","image_png":"M_Gneiss_05.png","image_id":197,"category_name":"Gneiss","category":13,"distinct_rating":2.97,"distinct_type":"Bottom","item_type":"Target","rt":1086,"stimulus":"Stimuli_Rocks480/M_Gneiss_05.png","response":"l","trial_type":"image-keyboard-response","trial_index":177,"plugin_version":"2.1.0","time_elapsed":338690,"subject_id":"91881","group":"Group1","condition":"1_Rep","full_date":"2026-02-01T16:51:53.663Z","date":"2026-02-01","time":"16:51:53","cor_ans":true},{"trial_type":"html-keyboard-response","rt":null,"stimulus":"<p style=\"color: green; font-size: 50px; font-weight: bold;\">Correct</p>","response":null,"trial_index":178,"plugin_version":"2.1.0","time_elapsed":339201,"subject_id":"91881","group":"Group1","condition":"1_Rep","full_date":"2026-02-01T16:51:53.663Z","date":"2026-02-01","time":"16:51:53"},{"correct_response":"l","task":"test_phase","broad_category":"M","image_png":"M_Marble_04.png","image_id":228,"category_name":"Marble","category":15,"distinct_rating":3.15,"distinct_type":"Bottom","item_type":"Target","rt":1437,"stimulus":"Stimuli_Rocks480/M_Marble_04.png","response":"l","trial_type":"image-keyboard-response","trial_index":179,"plugin_version":"2.1.0","time_elapsed":340643,"subject_id":"91881","group":"Group1","condition":"1_Rep","full_date":"2026-02-01T16:51:53.663Z","date":"2026-02-01","time":"16:51:53","cor_ans":true},{"trial_type":"html-keyboard-response","rt":null,"stimulus":"<p style=\"color: green; font-size: 50px; font-weight: bold;\">Correct</p>","response":null,"trial_index":180,"plugin_version":"2.1.0","time_elapsed":341155,"subject_id":"91881","group":"Group1","condition":"1_Rep","full_date":"2026-02-01T16:51:53.663Z","date":"2026-02-01","time":"16:51:53"},{"correct_response":"a","task":"test_phase","broad_category":"I","image_png":"I_Gabbro_14.png","image_id":62,"category_name":"Gabbro","category":4,"distinct_rating":2.95,"distinct_type":"Bottom","item_type":"Foil","rt":3909,"stimulus":"Stimuli_Rocks480/I_Gabbro_14.png","response":"a","trial_type":"image-keyboard-response","trial_index":181,"plugin_version":"2.1.0","time_elapsed":345068,"subject_id":"91881","group":"Group1","condition":"1_Rep","full_date":"2026-02-01T16:51:53.663Z","date":"2026-02-01","time":"16:51:53","cor_ans":true},{"trial_type":"html-keyboard-response","rt":null,"stimulus":"<p style=\"color: green; font-size: 50px; font-weight: bold;\">Correct</p>","response":null,"trial_index":182,"plugin_version":"2.1.0","time_elapsed":345571,"subject_id":"91881","group":"Group1","condition":"1_Rep","full_date":"2026-02-01T16:51:53.663Z","date":"2026-02-01","time":"16:51:53"},{"correct_response":"a","task":"test_phase","broad_category":"S","image_png":"S_Chert_13.png","image_id":365,"category_name":"Chert","category":23,"distinct_rating":6.57,"distinct_type":"Top","item_type":"Foil","rt":1088,"stimulus":"Stimuli_Rocks480/S_Chert_13.png","response":"a","trial_type":"image-keyboard-response","trial_index":183,"plugin_version":"2.1.0","time_elapsed":346663,"subject_id":"91881","group":"Group1","condition":"1_Rep","full_date":"2026-02-01T16:51:53.663Z","date":"2026-02-01","time":"16:51:53","cor_ans":true},{"trial_type":"html-keyboard-response","rt":null,"stimulus":"<p style=\"color: green; font-size: 50px; font-weight: bold;\">Correct</p>","response":null,"trial_index":184,"plugin_version":"2.1.0","time_elapsed":347174,"subject_id":"91881","group":"Group1","condition":"1_Rep","full_date":"2026-02-01T16:51:53.663Z","date":"2026-02-01","time":"16:51:53"},{"correct_response":"a","task":"test_phase","broad_category":"M","image_png":"M_Slate_10.png","image_id":314,"category_name":"Slate","category":20,"distinct_rating":1.94,"distinct_type":"Bottom","item_type":"Foil","rt":1355,"stimulus":"Stimuli_Rocks480/M_Slate_10.png","response":"l","trial_type":"image-keyboard-response","trial_index":185,"plugin_version":"2.1.0","time_elapsed":348533,"subject_id":"91881","group":"Group1","condition":"1_Rep","full_date":"2026-02-01T16:51:53.663Z","date":"2026-02-01","time":"16:51:53","cor_ans":false},{"trial_type":"html-keyboard-response","rt":null,"stimulus":"<p style=\"color: red; font-size: 50px; font-weight: bold;\">Incorrect</p>","response":null,"trial_index":186,"plugin_version":"2.1.0","time_elapsed":349041,"subject_id":"91881","group":"Group1","condition":"1_Rep","full_date":"2026-02-01T16:51:53.663Z","date":"2026-02-01","time":"16:51:53"},{"correct_response":"a","task":"test_phase","broad_category":"I","image_png":"I_Pegmatite_11.png","image_id":107,"category_name":"Pegmatite","category":7,"distinct_rating":7.11,"distinct_type":"Top","item_type":"Foil","rt":1440,"stimulus":"Stimuli_Rocks480/I_Pegmatite_11.png","response":"a","trial_type":"image-keyboard-response","trial_index":187,"plugin_version":"2.1.0","time_elapsed":350484,"subject_id":"91881","group":"Group1","condition":"1_Rep","full_date":"2026-02-01T16:51:53.663Z","date":"2026-02-01","time":"16:51:53","cor_ans":true},{"trial_type":"html-keyboard-response","rt":null,"stimulus":"<p style=\"color: green; font-size: 50px; font-weight: bold;\">Correct</p>","response":null,"trial_index":188,"plugin_version":"2.1.0","time_elapsed":350993,"subject_id":"91881","group":"Group1","condition":"1_Rep","full_date":"2026-02-01T16:51:53.663Z","date":"2026-02-01","time":"16:51:53"},{"correct_response":"a","task":"test_phase","broad_category":"I","image_png":"I_Diorite_01.png","image_id":33,"category_name":"Diorite","category":3,"distinct_rating":2.97,"distinct_type":"Bottom","item_type":"Foil","rt":1331,"stimulus":"Stimuli_Rocks480/I_Diorite_01.png","response":"l","trial_type":"image-keyboard-response","trial_index":189,"plugin_version":"2.1.0","time_elapsed":352328,"subject_id":"91881","group":"Group1","condition":"1_Rep","full_date":"2026-02-01T16:51:53.663Z","date":"2026-02-01","time":"16:51:53","cor_ans":false},{"trial_type":"html-keyboard-response","rt":null,"stimulus":"<p style=\"color: red; font-size: 50px; font-weight: bold;\">Incorrect</p>","response":null,"trial_index":190,"plugin_version":"2.1.0","time_elapsed":352841,"subject_id":"91881","group":"Group1","condition":"1_Rep","full_date":"2026-02-01T16:51:53.663Z","date":"2026-02-01","time":"16:51:53"},{"correct_response":"a","task":"test_phase","broad_category":"I","image_png":"I_Obsidian_06.png","image_id":86,"category_name":"Obsidian","category":6,"distinct_rating":8.01,"distinct_type":"Top","item_type":"Foil","rt":1835,"stimulus":"Stimuli_Rocks480/I_Obsidian_06.png","response":"a","trial_type":"image-keyboard-response","trial_index":191,"plugin_version":"2.1.0","time_elapsed":354679,"subject_id":"91881","group":"Group1","condition":"1_Rep","full_date":"2026-02-01T16:51:53.663Z","date":"2026-02-01","time":"16:51:53","cor_ans":true},{"trial_type":"html-keyboard-response","rt":null,"stimulus":"<p style=\"color: green; font-size: 50px; font-weight: bold;\">Correct</p>","response":null,"trial_index":192,"plugin_version":"2.1.0","time_elapsed":355196,"subject_id":"91881","group":"Group1","condition":"1_Rep","full_date":"2026-02-01T16:51:53.663Z","date":"2026-02-01","time":"16:51:53"},{"correct_response":"l","task":"test_phase","broad_category":"I","image_png":"I_Diorite_03.png","image_id":35,"category_name":"Diorite","category":3,"distinct_rating":3.14,"distinct_type":"Bottom","item_type":"Target","rt":1120,"stimulus":"Stimuli_Rocks480/I_Diorite_03.png","response":"l","trial_type":"image-keyboard-response","trial_index":193,"plugin_version":"2.1.0","time_elapsed":356319,"subject_id":"91881","group":"Group1","condition":"1_Rep","full_date":"2026-02-01T16:51:53.663Z","date":"2026-02-01","time":"16:51:53","cor_ans":true},{"trial_type":"html-keyboard-response","rt":null,"stimulus":"<p style=\"color: green; font-size: 50px; font-weight: bold;\">Correct</p>","response":null,"trial_index":194,"plugin_version":"2.1.0","time_elapsed":356824,"subject_id":"91881","group":"Group1","condition":"1_Rep","full_date":"2026-02-01T16:51:53.663Z","date":"2026-02-01","time":"16:51:53"},{"correct_response":"l","task":"test_phase","broad_category":"M","image_png":"M_Marble_16.png","image_id":240,"category_name":"Marble","category":15,"distinct_rating":2.57,"distinct_type":"Bottom","item_type":"Target","rt":1698,"stimulus":"Stimuli_Rocks480/M_Marble_16.png","response":"l","trial_type":"image-keyboard-response","trial_index":195,"plugin_version":"2.1.0","time_elapsed":358529,"subject_id":"91881","group":"Group1","condition":"1_Rep","full_date":"2026-02-01T16:51:53.663Z","date":"2026-02-01","time":"16:51:53","cor_ans":true},{"trial_type":"html-keyboard-response","rt":null,"stimulus":"<p style=\"color: green; font-size: 50px; font-weight: bold;\">Correct</p>","response":null,"trial_index":196,"plugin_version":"2.1.0","time_elapsed":359045,"subject_id":"91881","group":"Group1","condition":"1_Rep","full_date":"2026-02-01T16:51:53.663Z","date":"2026-02-01","time":"16:51:53"},{"correct_response":"a","task":"test_phase","broad_category":"I","image_png":"I_Diorite_10.png","image_id":42,"category_name":"Diorite","category":3,"distinct_rating":2.84,"distinct_type":"Bottom","item_type":"Foil","rt":1291,"stimulus":"Stimuli_Rocks480/I_Diorite_10.png","response":"l","trial_type":"image-keyboard-response","trial_index":197,"plugin_version":"2.1.0","time_elapsed":360341,"subject_id":"91881","group":"Group1","condition":"1_Rep","full_date":"2026-02-01T16:51:53.663Z","date":"2026-02-01","time":"16:51:53","cor_ans":false},{"trial_type":"html-keyboard-response","rt":null,"stimulus":"<p style=\"color: red; font-size: 50px; font-weight: bold;\">Incorrect</p>","response":null,"trial_index":198,"plugin_version":"2.1.0","time_elapsed":360850,"subject_id":"91881","group":"Group1","condition":"1_Rep","full_date":"2026-02-01T16:51:53.663Z","date":"2026-02-01","time":"16:51:53"},{"correct_response":"a","task":"test_phase","broad_category":"I","image_png":"I_Pegmatite_03.png","image_id":99,"category_name":"Pegmatite","category":7,"distinct_rating":7.24,"distinct_type":"Top","item_type":"Foil","rt":1631,"stimulus":"Stimuli_Rocks480/I_Pegmatite_03.png","response":"a","trial_type":"image-keyboard-response","trial_index":199,"plugin_version":"2.1.0","time_elapsed":362484,"subject_id":"91881","group":"Group1","condition":"1_Rep","full_date":"2026-02-01T16:51:53.663Z","date":"2026-02-01","time":"16:51:53","cor_ans":true},{"trial_type":"html-keyboard-response","rt":null,"stimulus":"<p style=\"color: green; font-size: 50px; font-weight: bold;\">Correct</p>","response":null,"trial_index":200,"plugin_version":"2.1.0","time_elapsed":362998,"subject_id":"91881","group":"Group1","condition":"1_Rep","full_date":"2026-02-01T16:51:53.663Z","date":"2026-02-01","time":"16:51:53"},{"correct_response":"a","task":"test_phase","broad_category":"I","image_png":"I_Rhyolite_10.png","image_id":154,"category_name":"Rhyolite","category":10,"distinct_rating":2.88,"distinct_type":"Bottom","item_type":"Foil","rt":3892,"stimulus":"Stimuli_Rocks480/I_Rhyolite_10.png","response":"l","trial_type":"image-keyboard-response","trial_index":201,"plugin_version":"2.1.0","time_elapsed":366894,"subject_id":"91881","group":"Group1","condition":"1_Rep","full_date":"2026-02-01T16:51:53.663Z","date":"2026-02-01","time":"16:51:53","cor_ans":false},{"trial_type":"html-keyboard-response","rt":null,"stimulus":"<p style=\"color: red; font-size: 50px; font-weight: bold;\">Incorrect</p>","response":null,"trial_index":202,"plugin_version":"2.1.0","time_elapsed":367401,"subject_id":"91881","group":"Group1","condition":"1_Rep","full_date":"2026-02-01T16:51:53.663Z","date":"2026-02-01","time":"16:51:53"},{"correct_response":"a","task":"test_phase","broad_category":"M","image_png":"M_Quartzite_12.png","image_id":284,"category_name":"Quartzite","category":18,"distinct_rating":1.92,"distinct_type":"Bottom","item_type":"Foil","rt":1814,"stimulus":"Stimuli_Rocks480/M_Quartzite_12.png","response":"a","trial_type":"image-keyboard-response","trial_index":203,"plugin_version":"2.1.0","time_elapsed":369219,"subject_id":"91881","group":"Group1","condition":"1_Rep","full_date":"2026-02-01T16:51:53.663Z","date":"2026-02-01","time":"16:51:53","cor_ans":true},{"trial_type":"html-keyboard-response","rt":null,"stimulus":"<p style=\"color: green; font-size: 50px; font-weight: bold;\">Correct</p>","response":null,"trial_index":204,"plugin_version":"2.1.0","time_elapsed":369736,"subject_id":"91881","group":"Group1","condition":"1_Rep","full_date":"2026-02-01T16:51:53.663Z","date":"2026-02-01","time":"16:51:53"},{"correct_response":"l","task":"test_phase","broad_category":"I","image_png":"I_Pumice_08.png","image_id":136,"category_name":"Pumice","category":9,"distinct_rating":3.1,"distinct_type":"Bottom","item_type":"Target","rt":1040,"stimulus":"Stimuli_Rocks480/I_Pumice_08.png","response":"l","trial_type":"image-keyboard-response","trial_index":205,"plugin_version":"2.1.0","time_elapsed":370779,"subject_id":"91881","group":"Group1","condition":"1_Rep","full_date":"2026-02-01T16:51:53.663Z","date":"2026-02-01","time":"16:51:53","cor_ans":true},{"trial_type":"html-keyboard-response","rt":null,"stimulus":"<p style=\"color: green; font-size: 50px; font-weight: bold;\">Correct</p>","response":null,"trial_index":206,"plugin_version":"2.1.0","time_elapsed":371288,"subject_id":"91881","group":"Group1","condition":"1_Rep","full_date":"2026-02-01T16:51:53.663Z","date":"2026-02-01","time":"16:51:53"},{"correct_response":"a","task":"test_phase","broad_category":"M","image_png":"M_Slate_04.png","image_id":308,"category_name":"Slate","category":20,"distinct_rating":2.2,"distinct_type":"Bottom","item_type":"Foil","rt":993,"stimulus":"Stimuli_Rocks480/M_Slate_04.png","response":"l","trial_type":"image-keyboard-response","trial_index":207,"plugin_version":"2.1.0","time_elapsed":372287,"subject_id":"91881","group":"Group1","condition":"1_Rep","full_date":"2026-02-01T16:51:53.663Z","date":"2026-02-01","time":"16:51:53","cor_ans":false},{"trial_type":"html-keyboard-response","rt":null,"stimulus":"<p style=\"color: red; font-size: 50px; font-weight: bold;\">Incorrect</p>","response":null,"trial_index":208,"plugin_version":"2.1.0","time_elapsed":372804,"subject_id":"91881","group":"Group1","condition":"1_Rep","full_date":"2026-02-01T16:51:53.663Z","date":"2026-02-01","time":"16:51:53"},{"correct_response":"a","task":"test_phase","broad_category":"S","image_png":"S_Conglomerate_14.png","image_id":382,"category_name":"Conglomerate","category":24,"distinct_rating":6.86,"distinct_type":"Top","item_type":"Foil","rt":1055,"stimulus":"Stimuli_Rocks480/S_Conglomerate_14.png","response":"a","trial_type":"image-keyboard-response","trial_index":209,"plugin_version":"2.1.0","time_elapsed":373862,"subject_id":"91881","group":"Group1","condition":"1_Rep","full_date":"2026-02-01T16:51:53.663Z","date":"2026-02-01","time":"16:51:53","cor_ans":true},{"trial_type":"html-keyboard-response","rt":null,"stimulus":"<p style=\"color: green; font-size: 50px; font-weight: bold;\">Correct</p>","response":null,"trial_index":210,"plugin_version":"2.1.0","time_elapsed":374370,"subject_id":"91881","group":"Group1","condition":"1_Rep","full_date":"2026-02-01T16:51:53.663Z","date":"2026-02-01","time":"16:51:53"},{"correct_response":"l","task":"test_phase","broad_category":"M","image_png":"M_Slate_15.png","image_id":319,"category_name":"Slate","category":20,"distinct_rating":2.13,"distinct_type":"Bottom","item_type":"Target","rt":1540,"stimulus":"Stimuli_Rocks480/M_Slate_15.png","response":"a","trial_type":"image-keyboard-response","trial_index":211,"plugin_version":"2.1.0","time_elapsed":375914,"subject_id":"91881","group":"Group1","condition":"1_Rep","full_date":"2026-02-01T16:51:53.663Z","date":"2026-02-01","time":"16:51:53","cor_ans":false},{"trial_type":"html-keyboard-response","rt":null,"stimulus":"<p style=\"color: red; font-size: 50px; font-weight: bold;\">Incorrect</p>","response":null,"trial_index":212,"plugin_version":"2.1.0","time_elapsed":376423,"subject_id":"91881","group":"Group1","condition":"1_Rep","full_date":"2026-02-01T16:51:53.663Z","date":"2026-02-01","time":"16:51:53"},{"correct_response":"l","task":"test_phase","broad_category":"I","image_png":"I_Andesite_06.png","image_id":6,"category_name":"Andesite","category":1,"distinct_rating":3.17,"distinct_type":"Bottom","item_type":"Target","rt":3255,"stimulus":"Stimuli_Rocks480/I_Andesite_06.png","response":"l","trial_type":"image-keyboard-response","trial_index":213,"plugin_version":"2.1.0","time_elapsed":379681,"subject_id":"91881","group":"Group1","condition":"1_Rep","full_date":"2026-02-01T16:51:53.663Z","date":"2026-02-01","time":"16:51:53","cor_ans":true},{"trial_type":"html-keyboard-response","rt":null,"stimulus":"<p style=\"color: green; font-size: 50px; font-weight: bold;\">Correct</p>","response":null,"trial_index":214,"plugin_version":"2.1.0","time_elapsed":380192,"subject_id":"91881","group":"Group1","condition":"1_Rep","full_date":"2026-02-01T16:51:53.663Z","date":"2026-02-01","time":"16:51:53"},{"correct_response":"l","task":"test_phase","broad_category":"S","image_png":"S_Chert_10.png","image_id":362,"category_name":"Chert","category":23,"distinct_rating":7.17,"distinct_type":"Top","item_type":"Target","rt":1045,"stimulus":"Stimuli_Rocks480/S_Chert_10.png","response":"l","trial_type":"image-keyboard-response","trial_index":215,"plugin_version":"2.1.0","time_elapsed":381241,"subject_id":"91881","group":"Group1","condition":"1_Rep","full_date":"2026-02-01T16:51:53.663Z","date":"2026-02-01","time":"16:51:53","cor_ans":true},{"trial_type":"html-keyboard-response","rt":null,"stimulus":"<p style=\"color: green; font-size: 50px; font-weight: bold;\">Correct</p>","response":null,"trial_index":216,"plugin_version":"2.1.0","time_elapsed":381745,"subject_id":"91881","group":"Group1","condition":"1_Rep","full_date":"2026-02-01T16:51:53.663Z","date":"2026-02-01","time":"16:51:53"},{"correct_response":"a","task":"test_phase","broad_category":"M","image_png":"M_Marble_03.png","image_id":227,"category_name":"Marble","category":15,"distinct_rating":2.67,"distinct_type":"Bottom","item_type":"Foil","rt":2592,"stimulus":"Stimuli_Rocks480/M_Marble_03.png","response":"l","trial_type":"image-keyboard-response","trial_index":217,"plugin_version":"2.1.0","time_elapsed":384341,"subject_id":"91881","group":"Group1","condition":"1_Rep","full_date":"2026-02-01T16:51:53.663Z","date":"2026-02-01","time":"16:51:53","cor_ans":false},{"trial_type":"html-keyboard-response","rt":null,"stimulus":"<p style=\"color: red; font-size: 50px; font-weight: bold;\">Incorrect</p>","response":null,"trial_index":218,"plugin_version":"2.1.0","time_elapsed":384845,"subject_id":"91881","group":"Group1","condition":"1_Rep","full_date":"2026-02-01T16:51:53.663Z","date":"2026-02-01","time":"16:51:53"},{"correct_response":"l","task":"test_phase","broad_category":"M","image_png":"M_Gneiss_06.png","image_id":198,"category_name":"Gneiss","category":13,"distinct_rating":2.65,"distinct_type":"Bottom","item_type":"Target","rt":1036,"stimulus":"Stimuli_Rocks480/M_Gneiss_06.png","response":"l","trial_type":"image-keyboard-response","trial_index":219,"plugin_version":"2.1.0","time_elapsed":385884,"subject_id":"91881","group":"Group1","condition":"1_Rep","full_date":"2026-02-01T16:51:53.663Z","date":"2026-02-01","time":"16:51:53","cor_ans":true},{"trial_type":"html-keyboard-response","rt":null,"stimulus":"<p style=\"color: green; font-size: 50px; font-weight: bold;\">Correct</p>","response":null,"trial_index":220,"plugin_version":"2.1.0","time_elapsed":386393,"subject_id":"91881","group":"Group1","condition":"1_Rep","full_date":"2026-02-01T16:51:53.663Z","date":"2026-02-01","time":"16:51:53"},{"correct_response":"l","task":"test_phase","broad_category":"S","image_png":"S_Dolomite_14.png","image_id":398,"category_name":"Dolomite","category":25,"distinct_rating":1.43,"distinct_type":"Bottom","item_type":"Target","rt":2900,"stimulus":"Stimuli_Rocks480/S_Dolomite_14.png","response":"a","trial_type":"image-keyboard-response","trial_index":221,"plugin_version":"2.1.0","time_elapsed":389298,"subject_id":"91881","group":"Group1","condition":"1_Rep","full_date":"2026-02-01T16:51:53.663Z","date":"2026-02-01","time":"16:51:53","cor_ans":false},{"trial_type":"html-keyboard-response","rt":null,"stimulus":"<p style=\"color: red; font-size: 50px; font-weight: bold;\">Incorrect</p>","response":null,"trial_index":222,"plugin_version":"2.1.0","time_elapsed":389812,"subject_id":"91881","group":"Group1","condition":"1_Rep","full_date":"2026-02-01T16:51:53.663Z","date":"2026-02-01","time":"16:51:53"},{"correct_response":"l","task":"test_phase","broad_category":"S","image_png":"S_Rock Salt_01.png","image_id":433,"category_name":"Rock Salt","category":28,"distinct_rating":7.18,"distinct_type":"Top","item_type":"Target","rt":1772,"stimulus":"Stimuli_Rocks480/S_Rock Salt_01.png","response":"l","trial_type":"image-keyboard-response","trial_index":223,"plugin_version":"2.1.0","time_elapsed":391587,"subject_id":"91881","group":"Group1","condition":"1_Rep","full_date":"2026-02-01T16:51:53.663Z","date":"2026-02-01","time":"16:51:53","cor_ans":true},{"trial_type":"html-keyboard-response","rt":null,"stimulus":"<p style=\"color: green; font-size: 50px; font-weight: bold;\">Correct</p>","response":null,"trial_index":224,"plugin_version":"2.1.0","time_elapsed":392097,"subject_id":"91881","group":"Group1","condition":"1_Rep","full_date":"2026-02-01T16:51:53.663Z","date":"2026-02-01","time":"16:51:53"},{"correct_response":"l","task":"test_phase","broad_category":"I"