[{"width":1512,"height":861,"webaudio":true,"browser":"chrome","browser_version":"143.0.0","mobile":false,"os":"Mac OS","fullscreen":true,"vsync_rate":120.51,"webcam":true,"microphone":true,"trial_type":"browser-check","trial_index":0,"plugin_version":"2.1.0","time_elapsed":513,"subject_id":"92517","group":"Group1","condition":"1_Rep","full_date":"2026-02-09T21:19:34.080Z","date":"2026-02-09","time":"21:19:34"},{"success":true,"timeout":false,"failed_images":[],"failed_audio":[],"failed_video":[],"trial_type":"preload","trial_index":1,"plugin_version":"2.1.0","time_elapsed":2136,"subject_id":"92517","group":"Group1","condition":"1_Rep","full_date":"2026-02-09T21:19:34.080Z","date":"2026-02-09","time":"21:19:34"},{"rt":5130,"url":"SONA_consent_memorability.html","trial_type":"external-html","trial_index":2,"plugin_version":"2.1.0","time_elapsed":7317,"subject_id":"92517","group":"Group1","condition":"1_Rep","full_date":"2026-02-09T21:19:34.080Z","date":"2026-02-09","time":"21:19:34"},{"success":true,"rt":1648,"trial_type":"fullscreen","trial_index":3,"plugin_version":"2.1.0","time_elapsed":9969,"subject_id":"92517","group":"Group1","condition":"1_Rep","full_date":"2026-02-09T21:19:34.080Z","date":"2026-02-09","time":"21:19:34"},{"rt":4553,"stimulus":"<div style=\"max-width: 760px; margin: auto; font-size: 20px; line-height: 1.5;\">\n      <h1 style=\"text-align:center; font-size: 30px;\">Instructions</h1>\n      <p>\n        Welcome to the study on <b>visual memory</b>. This experiment consists of <b>two phases</b>: \n        a <b>study phase</b> and a <b>test phase</b>.\n      </p>\n      <p>\n        In the study phase, you will see a series of rock images along with their category labels.\n        The images will appear one at a time.\n        <b>Your task</b> is to learn the categories to which the rock images belong \n        and to remember each image as accurately as possible.\n      </p> \n      <p>\n        Note that you will see each image only <b>once</b> during the study phase. \n          So, please pay close attention and try to remember each image carefully.\n      </p>\n      <p>\n        After the study phase, <b>your memory will be tested</b>. \n        Additional instructions for the test phase will be provided at that time.\n      </p>\n      <p>\n        If your computer has multiple <b>language settings</b> (e.g., English and another language),\n        please make sure it is set to English before starting.\n      </p>\n      <p>\n        You can track your progress using the <b>completion bar</b> at the top of the screen. \n        Please note that the bar will refresh when the test phase begins \n        to give you an accurate sense of your progress in both phases.\n      </p> \n      <p>\n        Press the button below when you are ready to begin.\n      </p>\n    </div>","response":0,"trial_type":"html-button-response","trial_index":4,"plugin_version":"2.1.0","time_elapsed":14525,"subject_id":"92517","group":"Group1","condition":"1_Rep","full_date":"2026-02-09T21:19:34.080Z","date":"2026-02-09","time":"21:19:34"},{"rt":null,"stimulus":"<p style=\"font-size: 50px; margin: 0; text-align: center;\">+</p>","response":null,"trial_type":"html-keyboard-response","trial_index":5,"plugin_version":"2.1.0","time_elapsed":15528,"subject_id":"92517","group":"Group1","condition":"1_Rep","full_date":"2026-02-09T21:19:34.080Z","date":"2026-02-09","time":"21:19:34"},{"task":"memory_phase","broad_category":"S","image_png":"S_Dolomite_13.png","image_id":397,"category_name":"Dolomite","category":25,"distinct_rating":1.77,"distinct_type":"Bottom","rt":null,"stimulus":"Stimuli_Rocks480/S_Dolomite_13.png","response":null,"trial_type":"image-keyboard-response","trial_index":6,"plugin_version":"2.1.0","time_elapsed":18034,"subject_id":"92517","group":"Group1","condition":"1_Rep","full_date":"2026-02-09T21:19:34.080Z","date":"2026-02-09","time":"21:19:34"},{"rt":null,"stimulus":"<p style=\"font-size: 50px; margin: 0; text-align: center;\">+</p>","response":null,"trial_type":"html-keyboard-response","trial_index":7,"plugin_version":"2.1.0","time_elapsed":19037,"subject_id":"92517","group":"Group1","condition":"1_Rep","full_date":"2026-02-09T21:19:34.080Z","date":"2026-02-09","time":"21:19:34"},{"task":"memory_phase","broad_category":"S","image_png":"S_Shale_01.png","image_id":465,"category_name":"Shale","category":30,"distinct_rating":2.7,"distinct_type":"Bottom","rt":null,"stimulus":"Stimuli_Rocks480/S_Shale_01.png","response":null,"trial_type":"image-keyboard-response","trial_index":8,"plugin_version":"2.1.0","time_elapsed":21541,"subject_id":"92517","group":"Group1","condition":"1_Rep","full_date":"2026-02-09T21:19:34.080Z","date":"2026-02-09","time":"21:19:34"},{"rt":null,"stimulus":"<p style=\"font-size: 50px; margin: 0; text-align: center;\">+</p>","response":null,"trial_type":"html-keyboard-response","trial_index":9,"plugin_version":"2.1.0","time_elapsed":22543,"subject_id":"92517","group":"Group1","condition":"1_Rep","full_date":"2026-02-09T21:19:34.080Z","date":"2026-02-09","time":"21:19:34"},{"task":"memory_phase","broad_category":"M","image_png":"M_Marble_16.png","image_id":240,"category_name":"Marble","category":15,"distinct_rating":2.57,"distinct_type":"Bottom","rt":null,"stimulus":"Stimuli_Rocks480/M_Marble_16.png","response":null,"trial_type":"image-keyboard-response","trial_index":10,"plugin_version":"2.1.0","time_elapsed":25046,"subject_id":"92517","group":"Group1","condition":"1_Rep","full_date":"2026-02-09T21:19:34.080Z","date":"2026-02-09","time":"21:19:34"},{"rt":null,"stimulus":"<p style=\"font-size: 50px; margin: 0; text-align: center;\">+</p>","response":null,"trial_type":"html-keyboard-response","trial_index":11,"plugin_version":"2.1.0","time_elapsed":26047,"subject_id":"92517","group":"Group1","condition":"1_Rep","full_date":"2026-02-09T21:19:34.080Z","date":"2026-02-09","time":"21:19:34"},{"task":"memory_phase","broad_category":"M","image_png":"M_Gneiss_05.png","image_id":197,"category_name":"Gneiss","category":13,"distinct_rating":2.97,"distinct_type":"Bottom","rt":null,"stimulus":"Stimuli_Rocks480/M_Gneiss_05.png","response":null,"trial_type":"image-keyboard-response","trial_index":12,"plugin_version":"2.1.0","time_elapsed":28551,"subject_id":"92517","group":"Group1","condition":"1_Rep","full_date":"2026-02-09T21:19:34.080Z","date":"2026-02-09","time":"21:19:34"},{"rt":null,"stimulus":"<p style=\"font-size: 50px; margin: 0; text-align: center;\">+</p>","response":null,"trial_type":"html-keyboard-response","trial_index":13,"plugin_version":"2.1.0","time_elapsed":29554,"subject_id":"92517","group":"Group1","condition":"1_Rep","full_date":"2026-02-09T21:19:34.080Z","date":"2026-02-09","time":"21:19:34"},{"task":"memory_phase","broad_category":"S","image_png":"S_Sandstone_15.png","image_id":463,"category_name":"Sandstone","category":29,"distinct_rating":2,"distinct_type":"Bottom","rt":null,"stimulus":"Stimuli_Rocks480/S_Sandstone_15.png","response":null,"trial_type":"image-keyboard-response","trial_index":14,"plugin_version":"2.1.0","time_elapsed":32058,"subject_id":"92517","group":"Group1","condition":"1_Rep","full_date":"2026-02-09T21:19:34.080Z","date":"2026-02-09","time":"21:19:34"},{"rt":null,"stimulus":"<p style=\"font-size: 50px; margin: 0; text-align: center;\">+</p>","response":null,"trial_type":"html-keyboard-response","trial_index":15,"plugin_version":"2.1.0","time_elapsed":33060,"subject_id":"92517","group":"Group1","condition":"1_Rep","full_date":"2026-02-09T21:19:34.080Z","date":"2026-02-09","time":"21:19:34"},{"task":"memory_phase","broad_category":"M","image_png":"M_Slate_03.png","image_id":307,"category_name":"Slate","category":20,"distinct_rating":1.87,"distinct_type":"Bottom","rt":null,"stimulus":"Stimuli_Rocks480/M_Slate_03.png","response":null,"trial_type":"image-keyboard-response","trial_index":16,"plugin_version":"2.1.0","time_elapsed":35564,"subject_id":"92517","group":"Group1","condition":"1_Rep","full_date":"2026-02-09T21:19:34.080Z","date":"2026-02-09","time":"21:19:34"},{"rt":null,"stimulus":"<p style=\"font-size: 50px; margin: 0; text-align: center;\">+</p>","response":null,"trial_type":"html-keyboard-response","trial_index":17,"plugin_version":"2.1.0","time_elapsed":36566,"subject_id":"92517","group":"Group1","condition":"1_Rep","full_date":"2026-02-09T21:19:34.080Z","date":"2026-02-09","time":"21:19:34"},{"task":"memory_phase","broad_category":"M","image_png":"M_Quartzite_08.png","image_id":280,"category_name":"Quartzite","category":18,"distinct_rating":2.15,"distinct_type":"Bottom","rt":null,"stimulus":"Stimuli_Rocks480/M_Quartzite_08.png","response":null,"trial_type":"image-keyboard-response","trial_index":18,"plugin_version":"2.1.0","time_elapsed":39070,"subject_id":"92517","group":"Group1","condition":"1_Rep","full_date":"2026-02-09T21:19:34.080Z","date":"2026-02-09","time":"21:19:34"},{"rt":null,"stimulus":"<p style=\"font-size: 50px; margin: 0; text-align: center;\">+</p>","response":null,"trial_type":"html-keyboard-response","trial_index":19,"plugin_version":"2.1.0","time_elapsed":40072,"subject_id":"92517","group":"Group1","condition":"1_Rep","full_date":"2026-02-09T21:19:34.080Z","date":"2026-02-09","time":"21:19:34"},{"task":"memory_phase","broad_category":"I","image_png":"I_Pumice_08.png","image_id":136,"category_name":"Pumice","category":9,"distinct_rating":3.1,"distinct_type":"Bottom","rt":null,"stimulus":"Stimuli_Rocks480/I_Pumice_08.png","response":null,"trial_type":"image-keyboard-response","trial_index":20,"plugin_version":"2.1.0","time_elapsed":42576,"subject_id":"92517","group":"Group1","condition":"1_Rep","full_date":"2026-02-09T21:19:34.080Z","date":"2026-02-09","time":"21:19:34"},{"rt":null,"stimulus":"<p style=\"font-size: 50px; margin: 0; text-align: center;\">+</p>","response":null,"trial_type":"html-keyboard-response","trial_index":21,"plugin_version":"2.1.0","time_elapsed":43579,"subject_id":"92517","group":"Group1","condition":"1_Rep","full_date":"2026-02-09T21:19:34.080Z","date":"2026-02-09","time":"21:19:34"},{"task":"memory_phase","broad_category":"S","image_png":"S_Sandstone_03.png","image_id":451,"category_name":"Sandstone","category":29,"distinct_rating":1.86,"distinct_type":"Bottom","rt":null,"stimulus":"Stimuli_Rocks480/S_Sandstone_03.png","response":null,"trial_type":"image-keyboard-response","trial_index":22,"plugin_version":"2.1.0","time_elapsed":46082,"subject_id":"92517","group":"Group1","condition":"1_Rep","full_date":"2026-02-09T21:19:34.080Z","date":"2026-02-09","time":"21:19:34"},{"rt":null,"stimulus":"<p style=\"font-size: 50px; margin: 0; text-align: center;\">+</p>","response":null,"trial_type":"html-keyboard-response","trial_index":23,"plugin_version":"2.1.0","time_elapsed":47085,"subject_id":"92517","group":"Group1","condition":"1_Rep","full_date":"2026-02-09T21:19:34.080Z","date":"2026-02-09","time":"21:19:34"},{"task":"memory_phase","broad_category":"I","image_png":"I_Basalt_02.png","image_id":18,"category_name":"Basalt","category":2,"distinct_rating":1.84,"distinct_type":"Bottom","rt":null,"stimulus":"Stimuli_Rocks480/I_Basalt_02.png","response":null,"trial_type":"image-keyboard-response","trial_index":24,"plugin_version":"2.1.0","time_elapsed":49589,"subject_id":"92517","group":"Group1","condition":"1_Rep","full_date":"2026-02-09T21:19:34.080Z","date":"2026-02-09","time":"21:19:34"},{"rt":null,"stimulus":"<p style=\"font-size: 50px; margin: 0; text-align: center;\">+</p>","response":null,"trial_type":"html-keyboard-response","trial_index":25,"plugin_version":"2.1.0","time_elapsed":50591,"subject_id":"92517","group":"Group1","condition":"1_Rep","full_date":"2026-02-09T21:19:34.080Z","date":"2026-02-09","time":"21:19:34"},{"task":"memory_phase","broad_category":"I","image_png":"I_Rhyolite_14.png","image_id":158,"category_name":"Rhyolite","category":10,"distinct_rating":2.59,"distinct_type":"Bottom","rt":null,"stimulus":"Stimuli_Rocks480/I_Rhyolite_14.png","response":null,"trial_type":"image-keyboard-response","trial_index":26,"plugin_version":"2.1.0","time_elapsed":53095,"subject_id":"92517","group":"Group1","condition":"1_Rep","full_date":"2026-02-09T21:19:34.080Z","date":"2026-02-09","time":"21:19:34"},{"rt":null,"stimulus":"<p style=\"font-size: 50px; margin: 0; text-align: center;\">+</p>","response":null,"trial_type":"html-keyboard-response","trial_index":27,"plugin_version":"2.1.0","time_elapsed":54097,"subject_id":"92517","group":"Group1","condition":"1_Rep","full_date":"2026-02-09T21:19:34.080Z","date":"2026-02-09","time":"21:19:34"},{"task":"memory_phase","broad_category":"I","image_png":"I_Gabbro_11.png","image_id":59,"category_name":"Gabbro","category":4,"distinct_rating":1.99,"distinct_type":"Bottom","rt":null,"stimulus":"Stimuli_Rocks480/I_Gabbro_11.png","response":null,"trial_type":"image-keyboard-response","trial_index":28,"plugin_version":"2.1.0","time_elapsed":56600,"subject_id":"92517","group":"Group1","condition":"1_Rep","full_date":"2026-02-09T21:19:34.080Z","date":"2026-02-09","time":"21:19:34"},{"rt":null,"stimulus":"<p style=\"font-size: 50px; margin: 0; text-align: center;\">+</p>","response":null,"trial_type":"html-keyboard-response","trial_index":29,"plugin_version":"2.1.0","time_elapsed":57603,"subject_id":"92517","group":"Group1","condition":"1_Rep","full_date":"2026-02-09T21:19:34.080Z","date":"2026-02-09","time":"21:19:34"},{"task":"memory_phase","broad_category":"I","image_png":"I_Andesite_10.png","image_id":10,"category_name":"Andesite","category":1,"distinct_rating":3.15,"distinct_type":"Bottom","rt":null,"stimulus":"Stimuli_Rocks480/I_Andesite_10.png","response":null,"trial_type":"image-keyboard-response","trial_index":30,"plugin_version":"2.1.0","time_elapsed":60106,"subject_id":"92517","group":"Group1","condition":"1_Rep","full_date":"2026-02-09T21:19:34.080Z","date":"2026-02-09","time":"21:19:34"},{"rt":null,"stimulus":"<p style=\"font-size: 50px; margin: 0; text-align: center;\">+</p>","response":null,"trial_type":"html-keyboard-response","trial_index":31,"plugin_version":"2.1.0","time_elapsed":61109,"subject_id":"92517","group":"Group1","condition":"1_Rep","full_date":"2026-02-09T21:19:34.080Z","date":"2026-02-09","time":"21:19:34"},{"task":"memory_phase","broad_category":"M","image_png":"M_Phyllite_07.png","image_id":263,"category_name":"Phyllite","category":17,"distinct_rating":2.59,"distinct_type":"Bottom","rt":null,"stimulus":"Stimuli_Rocks480/M_Phyllite_07.png","response":null,"trial_type":"image-keyboard-response","trial_index":32,"plugin_version":"2.1.0","time_elapsed":63613,"subject_id":"92517","group":"Group1","condition":"1_Rep","full_date":"2026-02-09T21:19:34.080Z","date":"2026-02-09","time":"21:19:34"},{"rt":null,"stimulus":"<p style=\"font-size: 50px; margin: 0; text-align: center;\">+</p>","response":null,"trial_type":"html-keyboard-response","trial_index":33,"plugin_version":"2.1.0","time_elapsed":64616,"subject_id":"92517","group":"Group1","condition":"1_Rep","full_date":"2026-02-09T21:19:34.080Z","date":"2026-02-09","time":"21:19:34"},{"task":"memory_phase","broad_category":"I","image_png":"I_Pegmatite_10.png","image_id":106,"category_name":"Pegmatite","category":7,"distinct_rating":7.66,"distinct_type":"Top","rt":null,"stimulus":"Stimuli_Rocks480/I_Pegmatite_10.png","response":null,"trial_type":"image-keyboard-response","trial_index":34,"plugin_version":"2.1.0","time_elapsed":67119,"subject_id":"92517","group":"Group1","condition":"1_Rep","full_date":"2026-02-09T21:19:34.080Z","date":"2026-02-09","time":"21:19:34"},{"rt":null,"stimulus":"<p style=\"font-size: 50px; margin: 0; text-align: center;\">+</p>","response":null,"trial_type":"html-keyboard-response","trial_index":35,"plugin_version":"2.1.0","time_elapsed":68121,"subject_id":"92517","group":"Group1","condition":"1_Rep","full_date":"2026-02-09T21:19:34.080Z","date":"2026-02-09","time":"21:19:34"},{"task":"memory_phase","broad_category":"I","image_png":"I_Rhyolite_11.png","image_id":155,"category_name":"Rhyolite","category":10,"distinct_rating":1.73,"distinct_type":"Bottom","rt":null,"stimulus":"Stimuli_Rocks480/I_Rhyolite_11.png","response":null,"trial_type":"image-keyboard-response","trial_index":36,"plugin_version":"2.1.0","time_elapsed":70625,"subject_id":"92517","group":"Group1","condition":"1_Rep","full_date":"2026-02-09T21:19:34.080Z","date":"2026-02-09","time":"21:19:34"},{"rt":null,"stimulus":"<p style=\"font-size: 50px; margin: 0; text-align: center;\">+</p>","response":null,"trial_type":"html-keyboard-response","trial_index":37,"plugin_version":"2.1.0","time_elapsed":71628,"subject_id":"92517","group":"Group1","condition":"1_Rep","full_date":"2026-02-09T21:19:34.080Z","date":"2026-02-09","time":"21:19:34"},{"task":"memory_phase","broad_category":"S","image_png":"S_Chert_10.png","image_id":362,"category_name":"Chert","category":23,"distinct_rating":7.17,"distinct_type":"Top","rt":null,"stimulus":"Stimuli_Rocks480/S_Chert_10.png","response":null,"trial_type":"image-keyboard-response","trial_index":38,"plugin_version":"2.1.0","time_elapsed":74131,"subject_id":"92517","group":"Group1","condition":"1_Rep","full_date":"2026-02-09T21:19:34.080Z","date":"2026-02-09","time":"21:19:34"},{"rt":null,"stimulus":"<p style=\"font-size: 50px; margin: 0; text-align: center;\">+</p>","response":null,"trial_type":"html-keyboard-response","trial_index":39,"plugin_version":"2.1.0","time_elapsed":75134,"subject_id":"92517","group":"Group1","condition":"1_Rep","full_date":"2026-02-09T21:19:34.080Z","date":"2026-02-09","time":"21:19:34"},{"task":"memory_phase","broad_category":"M","image_png":"M_Marble_06.png","image_id":230,"category_name":"Marble","category":15,"distinct_rating":3.4,"distinct_type":"Bottom","rt":null,"stimulus":"Stimuli_Rocks480/M_Marble_06.png","response":null,"trial_type":"image-keyboard-response","trial_index":40,"plugin_version":"2.1.0","time_elapsed":77637,"subject_id":"92517","group":"Group1","condition":"1_Rep","full_date":"2026-02-09T21:19:34.080Z","date":"2026-02-09","time":"21:19:34"},{"rt":null,"stimulus":"<p style=\"font-size: 50px; margin: 0; text-align: center;\">+</p>","response":null,"trial_type":"html-keyboard-response","trial_index":41,"plugin_version":"2.1.0","time_elapsed":78639,"subject_id":"92517","group":"Group1","condition":"1_Rep","full_date":"2026-02-09T21:19:34.080Z","date":"2026-02-09","time":"21:19:34"},{"task":"memory_phase","broad_category":"I","image_png":"I_Andesite_06.png","image_id":6,"category_name":"Andesite","category":1,"distinct_rating":3.17,"distinct_type":"Bottom","rt":null,"stimulus":"Stimuli_Rocks480/I_Andesite_06.png","response":null,"trial_type":"image-keyboard-response","trial_index":42,"plugin_version":"2.1.0","time_elapsed":81143,"subject_id":"92517","group":"Group1","condition":"1_Rep","full_date":"2026-02-09T21:19:34.080Z","date":"2026-02-09","time":"21:19:34"},{"rt":null,"stimulus":"<p style=\"font-size: 50px; margin: 0; text-align: center;\">+</p>","response":null,"trial_type":"html-keyboard-response","trial_index":43,"plugin_version":"2.1.0","time_elapsed":82145,"subject_id":"92517","group":"Group1","condition":"1_Rep","full_date":"2026-02-09T21:19:34.080Z","date":"2026-02-09","time":"21:19:34"},{"task":"memory_phase","broad_category":"S","image_png":"S_Rock Salt_01.png","image_id":433,"category_name":"Rock Salt","category":28,"distinct_rating":7.18,"distinct_type":"Top","rt":null,"stimulus":"Stimuli_Rocks480/S_Rock Salt_01.png","response":null,"trial_type":"image-keyboard-response","trial_index":44,"plugin_version":"2.1.0","time_elapsed":84648,"subject_id":"92517","group":"Group1","condition":"1_Rep","full_date":"2026-02-09T21:19:34.080Z","date":"2026-02-09","time":"21:19:34"},{"rt":null,"stimulus":"<p style=\"font-size: 50px; margin: 0; text-align: center;\">+</p>","response":null,"trial_type":"html-keyboard-response","trial_index":45,"plugin_version":"2.1.0","time_elapsed":85650,"subject_id":"92517","group":"Group1","condition":"1_Rep","full_date":"2026-02-09T21:19:34.080Z","date":"2026-02-09","time":"21:19:34"},{"task":"memory_phase","broad_category":"M","image_png":"M_Gneiss_06.png","image_id":198,"category_name":"Gneiss","category":13,"distinct_rating":2.65,"distinct_type":"Bottom","rt":null,"stimulus":"Stimuli_Rocks480/M_Gneiss_06.png","response":null,"trial_type":"image-keyboard-response","trial_index":46,"plugin_version":"2.1.0","time_elapsed":88154,"subject_id":"92517","group":"Group1","condition":"1_Rep","full_date":"2026-02-09T21:19:34.080Z","date":"2026-02-09","time":"21:19:34"},{"rt":null,"stimulus":"<p style=\"font-size: 50px; margin: 0; text-align: center;\">+</p>","response":null,"trial_type":"html-keyboard-response","trial_index":47,"plugin_version":"2.1.0","time_elapsed":89156,"subject_id":"92517","group":"Group1","condition":"1_Rep","full_date":"2026-02-09T21:19:34.080Z","date":"2026-02-09","time":"21:19:34"},{"task":"memory_phase","broad_category":"I","image_png":"I_Rhyolite_16.png","image_id":160,"category_name":"Rhyolite","category":10,"distinct_rating":2.19,"distinct_type":"Bottom","rt":null,"stimulus":"Stimuli_Rocks480/I_Rhyolite_16.png","response":null,"trial_type":"image-keyboard-response","trial_index":48,"plugin_version":"2.1.0","time_elapsed":91659,"subject_id":"92517","group":"Group1","condition":"1_Rep","full_date":"2026-02-09T21:19:34.080Z","date":"2026-02-09","time":"21:19:34"},{"rt":null,"stimulus":"<p style=\"font-size: 50px; margin: 0; text-align: center;\">+</p>","response":null,"trial_type":"html-keyboard-response","trial_index":49,"plugin_version":"2.1.0","time_elapsed":92661,"subject_id":"92517","group":"Group1","condition":"1_Rep","full_date":"2026-02-09T21:19:34.080Z","date":"2026-02-09","time":"21:19:34"},{"task":"memory_phase","broad_category":"I","image_png":"I_Basalt_09.png","image_id":25,"category_name":"Basalt","category":2,"distinct_rating":1.89,"distinct_type":"Bottom","rt":null,"stimulus":"Stimuli_Rocks480/I_Basalt_09.png","response":null,"trial_type":"image-keyboard-response","trial_index":50,"plugin_version":"2.1.0","time_elapsed":95165,"subject_id":"92517","group":"Group1","condition":"1_Rep","full_date":"2026-02-09T21:19:34.080Z","date":"2026-02-09","time":"21:19:34"},{"rt":null,"stimulus":"<p style=\"font-size: 50px; margin: 0; text-align: center;\">+</p>","response":null,"trial_type":"html-keyboard-response","trial_index":51,"plugin_version":"2.1.0","time_elapsed":96167,"subject_id":"92517","group":"Group1","condition":"1_Rep","full_date":"2026-02-09T21:19:34.080Z","date":"2026-02-09","time":"21:19:34"},{"task":"memory_phase","broad_category":"I","image_png":"I_Gabbro_08.png","image_id":56,"category_name":"Gabbro","category":4,"distinct_rating":3.02,"distinct_type":"Bottom","rt":null,"stimulus":"Stimuli_Rocks480/I_Gabbro_08.png","response":null,"trial_type":"image-keyboard-response","trial_index":52,"plugin_version":"2.1.0","time_elapsed":98671,"subject_id":"92517","group":"Group1","condition":"1_Rep","full_date":"2026-02-09T21:19:34.080Z","date":"2026-02-09","time":"21:19:34"},{"rt":null,"stimulus":"<p style=\"font-size: 50px; margin: 0; text-align: center;\">+</p>","response":null,"trial_type":"html-keyboard-response","trial_index":53,"plugin_version":"2.1.0","time_elapsed":99673,"subject_id":"92517","group":"Group1","condition":"1_Rep","full_date":"2026-02-09T21:19:34.080Z","date":"2026-02-09","time":"21:19:34"},{"task":"memory_phase","broad_category":"S","image_png":"S_Dolomite_14.png","image_id":398,"category_name":"Dolomite","category":25,"distinct_rating":1.43,"distinct_type":"Bottom","rt":null,"stimulus":"Stimuli_Rocks480/S_Dolomite_14.png","response":null,"trial_type":"image-keyboard-response","trial_index":54,"plugin_version":"2.1.0","time_elapsed":102178,"subject_id":"92517","group":"Group1","condition":"1_Rep","full_date":"2026-02-09T21:19:34.080Z","date":"2026-02-09","time":"21:19:34"},{"rt":1742,"stimulus":"<p style=\"max-width: 760px; margin: auto; font-size: 35px; line-height: 1.5;\">\n                Press SPACE to continue study phase\n              </p>","response":" ","trial_type":"html-keyboard-response","trial_index":55,"plugin_version":"2.1.0","time_elapsed":103921,"subject_id":"92517","group":"Group1","condition":"1_Rep","full_date":"2026-02-09T21:19:34.080Z","date":"2026-02-09","time":"21:19:34"},{"rt":null,"stimulus":"<p style=\"font-size: 50px; margin: 0; text-align: center;\">+</p>","response":null,"trial_type":"html-keyboard-response","trial_index":56,"plugin_version":"2.1.0","time_elapsed":104924,"subject_id":"92517","group":"Group1","condition":"1_Rep","full_date":"2026-02-09T21:19:34.080Z","date":"2026-02-09","time":"21:19:34"},{"task":"memory_phase","broad_category":"I","image_png":"I_Andesite_08.png","image_id":8,"category_name":"Andesite","category":1,"distinct_rating":1.95,"distinct_type":"Bottom","rt":null,"stimulus":"Stimuli_Rocks480/I_Andesite_08.png","response":null,"trial_type":"image-keyboard-response","trial_index":57,"plugin_version":"2.1.0","time_elapsed":107428,"subject_id":"92517","group":"Group1","condition":"1_Rep","full_date":"2026-02-09T21:19:34.080Z","date":"2026-02-09","time":"21:19:34"},{"rt":null,"stimulus":"<p style=\"font-size: 50px; margin: 0; text-align: center;\">+</p>","response":null,"trial_type":"html-keyboard-response","trial_index":58,"plugin_version":"2.1.0","time_elapsed":108430,"subject_id":"92517","group":"Group1","condition":"1_Rep","full_date":"2026-02-09T21:19:34.080Z","date":"2026-02-09","time":"21:19:34"},{"task":"memory_phase","broad_category":"S","image_png":"S_Breccia_11.png","image_id":347,"category_name":"Breccia","category":22,"distinct_rating":6.7,"distinct_type":"Top","rt":null,"stimulus":"Stimuli_Rocks480/S_Breccia_11.png","response":null,"trial_type":"image-keyboard-response","trial_index":59,"plugin_version":"2.1.0","time_elapsed":110934,"subject_id":"92517","group":"Group1","condition":"1_Rep","full_date":"2026-02-09T21:19:34.080Z","date":"2026-02-09","time":"21:19:34"},{"rt":null,"stimulus":"<p style=\"font-size: 50px; margin: 0; text-align: center;\">+</p>","response":null,"trial_type":"html-keyboard-response","trial_index":60,"plugin_version":"2.1.0","time_elapsed":111937,"subject_id":"92517","group":"Group1","condition":"1_Rep","full_date":"2026-02-09T21:19:34.080Z","date":"2026-02-09","time":"21:19:34"},{"task":"memory_phase","broad_category":"S","image_png":"S_Shale_08.png","image_id":472,"category_name":"Shale","category":30,"distinct_rating":2.55,"distinct_type":"Bottom","rt":null,"stimulus":"Stimuli_Rocks480/S_Shale_08.png","response":null,"trial_type":"image-keyboard-response","trial_index":61,"plugin_version":"2.1.0","time_elapsed":114440,"subject_id":"92517","group":"Group1","condition":"1_Rep","full_date":"2026-02-09T21:19:34.080Z","date":"2026-02-09","time":"21:19:34"},{"rt":null,"stimulus":"<p style=\"font-size: 50px; margin: 0; text-align: center;\">+</p>","response":null,"trial_type":"html-keyboard-response","trial_index":62,"plugin_version":"2.1.0","time_elapsed":115442,"subject_id":"92517","group":"Group1","condition":"1_Rep","full_date":"2026-02-09T21:19:34.080Z","date":"2026-02-09","time":"21:19:34"},{"task":"memory_phase","broad_category":"M","image_png":"M_Quartzite_13.png","image_id":285,"category_name":"Quartzite","category":18,"distinct_rating":2.27,"distinct_type":"Bottom","rt":null,"stimulus":"Stimuli_Rocks480/M_Quartzite_13.png","response":null,"trial_type":"image-keyboard-response","trial_index":63,"plugin_version":"2.1.0","time_elapsed":117945,"subject_id":"92517","group":"Group1","condition":"1_Rep","full_date":"2026-02-09T21:19:34.080Z","date":"2026-02-09","time":"21:19:34"},{"rt":null,"stimulus":"<p style=\"font-size: 50px; margin: 0; text-align: center;\">+</p>","response":null,"trial_type":"html-keyboard-response","trial_index":64,"plugin_version":"2.1.0","time_elapsed":118947,"subject_id":"92517","group":"Group1","condition":"1_Rep","full_date":"2026-02-09T21:19:34.080Z","date":"2026-02-09","time":"21:19:34"},{"task":"memory_phase","broad_category":"I","image_png":"I_Obsidian_05.png","image_id":85,"category_name":"Obsidian","category":6,"distinct_rating":7.32,"distinct_type":"Top","rt":null,"stimulus":"Stimuli_Rocks480/I_Obsidian_05.png","response":null,"trial_type":"image-keyboard-response","trial_index":65,"plugin_version":"2.1.0","time_elapsed":121451,"subject_id":"92517","group":"Group1","condition":"1_Rep","full_date":"2026-02-09T21:19:34.080Z","date":"2026-02-09","time":"21:19:34"},{"rt":null,"stimulus":"<p style=\"font-size: 50px; margin: 0; text-align: center;\">+</p>","response":null,"trial_type":"html-keyboard-response","trial_index":66,"plugin_version":"2.1.0","time_elapsed":122452,"subject_id":"92517","group":"Group1","condition":"1_Rep","full_date":"2026-02-09T21:19:34.080Z","date":"2026-02-09","time":"21:19:34"},{"task":"memory_phase","broad_category":"S","image_png":"S_Rock Gypsum_04.png","image_id":420,"category_name":"Rock Gypsum","category":27,"distinct_rating":7.61,"distinct_type":"Top","rt":null,"stimulus":"Stimuli_Rocks480/S_Rock Gypsum_04.png","response":null,"trial_type":"image-keyboard-response","trial_index":67,"plugin_version":"2.1.0","time_elapsed":124956,"subject_id":"92517","group":"Group1","condition":"1_Rep","full_date":"2026-02-09T21:19:34.080Z","date":"2026-02-09","time":"21:19:34"},{"rt":null,"stimulus":"<p style=\"font-size: 50px; margin: 0; text-align: center;\">+</p>","response":null,"trial_type":"html-keyboard-response","trial_index":68,"plugin_version":"2.1.0","time_elapsed":125958,"subject_id":"92517","group":"Group1","condition":"1_Rep","full_date":"2026-02-09T21:19:34.080Z","date":"2026-02-09","time":"21:19:34"},{"task":"memory_phase","broad_category":"I","image_png":"I_Diorite_05.png","image_id":37,"category_name":"Diorite","category":3,"distinct_rating":3.08,"distinct_type":"Bottom","rt":null,"stimulus":"Stimuli_Rocks480/I_Diorite_05.png","response":null,"trial_type":"image-keyboard-response","trial_index":69,"plugin_version":"2.1.0","time_elapsed":128462,"subject_id":"92517","group":"Group1","condition":"1_Rep","full_date":"2026-02-09T21:19:34.080Z","date":"2026-02-09","time":"21:19:34"},{"rt":null,"stimulus":"<p style=\"font-size: 50px; margin: 0; text-align: center;\">+</p>","response":null,"trial_type":"html-keyboard-response","trial_index":70,"plugin_version":"2.1.0","time_elapsed":129465,"subject_id":"92517","group":"Group1","condition":"1_Rep","full_date":"2026-02-09T21:19:34.080Z","date":"2026-02-09","time":"21:19:34"},{"task":"memory_phase","broad_category":"S","image_png":"S_Conglomerate_05.png","image_id":373,"category_name":"Conglomerate","category":24,"distinct_rating":7.32,"distinct_type":"Top","rt":null,"stimulus":"Stimuli_Rocks480/S_Conglomerate_05.png","response":null,"trial_type":"image-keyboard-response","trial_index":71,"plugin_version":"2.1.0","time_elapsed":131967,"subject_id":"92517","group":"Group1","condition":"1_Rep","full_date":"2026-02-09T21:19:34.080Z","date":"2026-02-09","time":"21:19:34"},{"rt":null,"stimulus":"<p style=\"font-size: 50px; margin: 0; text-align: center;\">+</p>","response":null,"trial_type":"html-keyboard-response","trial_index":72,"plugin_version":"2.1.0","time_elapsed":132970,"subject_id":"92517","group":"Group1","condition":"1_Rep","full_date":"2026-02-09T21:19:34.080Z","date":"2026-02-09","time":"21:19:34"},{"task":"memory_phase","broad_category":"S","image_png":"S_Dolomite_12.png","image_id":396,"category_name":"Dolomite","category":25,"distinct_rating":1.85,"distinct_type":"Bottom","rt":null,"stimulus":"Stimuli_Rocks480/S_Dolomite_12.png","response":null,"trial_type":"image-keyboard-response","trial_index":73,"plugin_version":"2.1.0","time_elapsed":135473,"subject_id":"92517","group":"Group1","condition":"1_Rep","full_date":"2026-02-09T21:19:34.080Z","date":"2026-02-09","time":"21:19:34"},{"rt":null,"stimulus":"<p style=\"font-size: 50px; margin: 0; text-align: center;\">+</p>","response":null,"trial_type":"html-keyboard-response","trial_index":74,"plugin_version":"2.1.0","time_elapsed":136476,"subject_id":"92517","group":"Group1","condition":"1_Rep","full_date":"2026-02-09T21:19:34.080Z","date":"2026-02-09","time":"21:19:34"},{"task":"memory_phase","broad_category":"M","image_png":"M_Slate_11.png","image_id":315,"category_name":"Slate","category":20,"distinct_rating":2.75,"distinct_type":"Bottom","rt":null,"stimulus":"Stimuli_Rocks480/M_Slate_11.png","response":null,"trial_type":"image-keyboard-response","trial_index":75,"plugin_version":"2.1.0","time_elapsed":138979,"subject_id":"92517","group":"Group1","condition":"1_Rep","full_date":"2026-02-09T21:19:34.080Z","date":"2026-02-09","time":"21:19:34"},{"rt":null,"stimulus":"<p style=\"font-size: 50px; margin: 0; text-align: center;\">+</p>","response":null,"trial_type":"html-keyboard-response","trial_index":76,"plugin_version":"2.1.0","time_elapsed":139981,"subject_id":"92517","group":"Group1","condition":"1_Rep","full_date":"2026-02-09T21:19:34.080Z","date":"2026-02-09","time":"21:19:34"},{"task":"memory_phase","broad_category":"I","image_png":"I_Basalt_01.png","image_id":17,"category_name":"Basalt","category":2,"distinct_rating":1.92,"distinct_type":"Bottom","rt":null,"stimulus":"Stimuli_Rocks480/I_Basalt_01.png","response":null,"trial_type":"image-keyboard-response","trial_index":77,"plugin_version":"2.1.0","time_elapsed":142484,"subject_id":"92517","group":"Group1","condition":"1_Rep","full_date":"2026-02-09T21:19:34.080Z","date":"2026-02-09","time":"21:19:34"},{"rt":null,"stimulus":"<p style=\"font-size: 50px; margin: 0; text-align: center;\">+</p>","response":null,"trial_type":"html-keyboard-response","trial_index":78,"plugin_version":"2.1.0","time_elapsed":143487,"subject_id":"92517","group":"Group1","condition":"1_Rep","full_date":"2026-02-09T21:19:34.080Z","date":"2026-02-09","time":"21:19:34"},{"task":"memory_phase","broad_category":"I","image_png":"I_Pumice_12.png","image_id":140,"category_name":"Pumice","category":9,"distinct_rating":2.97,"distinct_type":"Bottom","rt":null,"stimulus":"Stimuli_Rocks480/I_Pumice_12.png","response":null,"trial_type":"image-keyboard-response","trial_index":79,"plugin_version":"2.1.0","time_elapsed":145990,"subject_id":"92517","group":"Group1","condition":"1_Rep","full_date":"2026-02-09T21:19:34.080Z","date":"2026-02-09","time":"21:19:34"},{"rt":null,"stimulus":"<p style=\"font-size: 50px; margin: 0; text-align: center;\">+</p>","response":null,"trial_type":"html-keyboard-response","trial_index":80,"plugin_version":"2.1.0","time_elapsed":146992,"subject_id":"92517","group":"Group1","condition":"1_Rep","full_date":"2026-02-09T21:19:34.080Z","date":"2026-02-09","time":"21:19:34"},{"task":"memory_phase","broad_category":"M","image_png":"M_Gneiss_13.png","image_id":205,"category_name":"Gneiss","category":13,"distinct_rating":3.26,"distinct_type":"Bottom","rt":null,"stimulus":"Stimuli_Rocks480/M_Gneiss_13.png","response":null,"trial_type":"image-keyboard-response","trial_index":81,"plugin_version":"2.1.0","time_elapsed":149495,"subject_id":"92517","group":"Group1","condition":"1_Rep","full_date":"2026-02-09T21:19:34.080Z","date":"2026-02-09","time":"21:19:34"},{"rt":null,"stimulus":"<p style=\"font-size: 50px; margin: 0; text-align: center;\">+</p>","response":null,"trial_type":"html-keyboard-response","trial_index":82,"plugin_version":"2.1.0","time_elapsed":150498,"subject_id":"92517","group":"Group1","condition":"1_Rep","full_date":"2026-02-09T21:19:34.080Z","date":"2026-02-09","time":"21:19:34"},{"task":"memory_phase","broad_category":"S","image_png":"S_Sandstone_16.png","image_id":464,"category_name":"Sandstone","category":29,"distinct_rating":1.93,"distinct_type":"Bottom","rt":null,"stimulus":"Stimuli_Rocks480/S_Sandstone_16.png","response":null,"trial_type":"image-keyboard-response","trial_index":83,"plugin_version":"2.1.0","time_elapsed":153001,"subject_id":"92517","group":"Group1","condition":"1_Rep","full_date":"2026-02-09T21:19:34.080Z","date":"2026-02-09","time":"21:19:34"},{"rt":null,"stimulus":"<p style=\"font-size: 50px; margin: 0; text-align: center;\">+</p>","response":null,"trial_type":"html-keyboard-response","trial_index":84,"plugin_version":"2.1.0","time_elapsed":154003,"subject_id":"92517","group":"Group1","condition":"1_Rep","full_date":"2026-02-09T21:19:34.080Z","date":"2026-02-09","time":"21:19:34"},{"task":"memory_phase","broad_category":"M","image_png":"M_Phyllite_10.png","image_id":266,"category_name":"Phyllite","category":17,"distinct_rating":2.6,"distinct_type":"Bottom","rt":null,"stimulus":"Stimuli_Rocks480/M_Phyllite_10.png","response":null,"trial_type":"image-keyboard-response","trial_index":85,"plugin_version":"2.1.0","time_elapsed":156507,"subject_id":"92517","group":"Group1","condition":"1_Rep","full_date":"2026-02-09T21:19:34.080Z","date":"2026-02-09","time":"21:19:34"},{"rt":null,"stimulus":"<p style=\"font-size: 50px; margin: 0; text-align: center;\">+</p>","response":null,"trial_type":"html-keyboard-response","trial_index":86,"plugin_version":"2.1.0","time_elapsed":157509,"subject_id":"92517","group":"Group1","condition":"1_Rep","full_date":"2026-02-09T21:19:34.080Z","date":"2026-02-09","time":"21:19:34"},{"task":"memory_phase","broad_category":"I","image_png":"I_Pumice_11.png","image_id":139,"category_name":"Pumice","category":9,"distinct_rating":1.74,"distinct_type":"Bottom","rt":null,"stimulus":"Stimuli_Rocks480/I_Pumice_11.png","response":null,"trial_type":"image-keyboard-response","trial_index":87,"plugin_version":"2.1.0","time_elapsed":160012,"subject_id":"92517","group":"Group1","condition":"1_Rep","full_date":"2026-02-09T21:19:34.080Z","date":"2026-02-09","time":"21:19:34"},{"rt":null,"stimulus":"<p style=\"font-size: 50px; margin: 0; text-align: center;\">+</p>","response":null,"trial_type":"html-keyboard-response","trial_index":88,"plugin_version":"2.1.0","time_elapsed":161015,"subject_id":"92517","group":"Group1","condition":"1_Rep","full_date":"2026-02-09T21:19:34.080Z","date":"2026-02-09","time":"21:19:34"},{"task":"memory_phase","broad_category":"I","image_png":"I_Diorite_04.png","image_id":36,"category_name":"Diorite","category":3,"distinct_rating":2.98,"distinct_type":"Bottom","rt":null,"stimulus":"Stimuli_Rocks480/I_Diorite_04.png","response":null,"trial_type":"image-keyboard-response","trial_index":89,"plugin_version":"2.1.0","time_elapsed":163519,"subject_id":"92517","group":"Group1","condition":"1_Rep","full_date":"2026-02-09T21:19:34.080Z","date":"2026-02-09","time":"21:19:34"},{"rt":null,"stimulus":"<p style=\"font-size: 50px; margin: 0; text-align: center;\">+</p>","response":null,"trial_type":"html-keyboard-response","trial_index":90,"plugin_version":"2.1.0","time_elapsed":164521,"subject_id":"92517","group":"Group1","condition":"1_Rep","full_date":"2026-02-09T21:19:34.080Z","date":"2026-02-09","time":"21:19:34"},{"task":"memory_phase","broad_category":"M","image_png":"M_Quartzite_05.png","image_id":277,"category_name":"Quartzite","category":18,"distinct_rating":2.23,"distinct_type":"Bottom","rt":null,"stimulus":"Stimuli_Rocks480/M_Quartzite_05.png","response":null,"trial_type":"image-keyboard-response","trial_index":91,"plugin_version":"2.1.0","time_elapsed":167025,"subject_id":"92517","group":"Group1","condition":"1_Rep","full_date":"2026-02-09T21:19:34.080Z","date":"2026-02-09","time":"21:19:34"},{"rt":null,"stimulus":"<p style=\"font-size: 50px; margin: 0; text-align: center;\">+</p>","response":null,"trial_type":"html-keyboard-response","trial_index":92,"plugin_version":"2.1.0","time_elapsed":168027,"subject_id":"92517","group":"Group1","condition":"1_Rep","full_date":"2026-02-09T21:19:34.080Z","date":"2026-02-09","time":"21:19:34"},{"task":"memory_phase","broad_category":"M","image_png":"M_Phyllite_03.png","image_id":259,"category_name":"Phyllite","category":17,"distinct_rating":2.5,"distinct_type":"Bottom","rt":null,"stimulus":"Stimuli_Rocks480/M_Phyllite_03.png","response":null,"trial_type":"image-keyboard-response","trial_index":93,"plugin_version":"2.1.0","time_elapsed":170530,"subject_id":"92517","group":"Group1","condition":"1_Rep","full_date":"2026-02-09T21:19:34.080Z","date":"2026-02-09","time":"21:19:34"},{"rt":null,"stimulus":"<p style=\"font-size: 50px; margin: 0; text-align: center;\">+</p>","response":null,"trial_type":"html-keyboard-response","trial_index":94,"plugin_version":"2.1.0","time_elapsed":171532,"subject_id":"92517","group":"Group1","condition":"1_Rep","full_date":"2026-02-09T21:19:34.080Z","date":"2026-02-09","time":"21:19:34"},{"task":"memory_phase","broad_category":"M","image_png":"M_Slate_15.png","image_id":319,"category_name":"Slate","category":20,"distinct_rating":2.13,"distinct_type":"Bottom","rt":null,"stimulus":"Stimuli_Rocks480/M_Slate_15.png","response":null,"trial_type":"image-keyboard-response","trial_index":95,"plugin_version":"2.1.0","time_elapsed":174035,"subject_id":"92517","group":"Group1","condition":"1_Rep","full_date":"2026-02-09T21:19:34.080Z","date":"2026-02-09","time":"21:19:34"},{"rt":null,"stimulus":"<p style=\"font-size: 50px; margin: 0; text-align: center;\">+</p>","response":null,"trial_type":"html-keyboard-response","trial_index":96,"plugin_version":"2.1.0","time_elapsed":175038,"subject_id":"92517","group":"Group1","condition":"1_Rep","full_date":"2026-02-09T21:19:34.080Z","date":"2026-02-09","time":"21:19:34"},{"task":"memory_phase","broad_category":"I","image_png":"I_Diorite_03.png","image_id":35,"category_name":"Diorite","category":3,"distinct_rating":3.14,"distinct_type":"Bottom","rt":null,"stimulus":"Stimuli_Rocks480/I_Diorite_03.png","response":null,"trial_type":"image-keyboard-response","trial_index":97,"plugin_version":"2.1.0","time_elapsed":177541,"subject_id":"92517","group":"Group1","condition":"1_Rep","full_date":"2026-02-09T21:19:34.080Z","date":"2026-02-09","time":"21:19:34"},{"rt":null,"stimulus":"<p style=\"font-size: 50px; margin: 0; text-align: center;\">+</p>","response":null,"trial_type":"html-keyboard-response","trial_index":98,"plugin_version":"2.1.0","time_elapsed":178544,"subject_id":"92517","group":"Group1","condition":"1_Rep","full_date":"2026-02-09T21:19:34.080Z","date":"2026-02-09","time":"21:19:34"},{"task":"memory_phase","broad_category":"I","image_png":"I_Pegmatite_16.png","image_id":112,"category_name":"Pegmatite","category":7,"distinct_rating":7.03,"distinct_type":"Top","rt":null,"stimulus":"Stimuli_Rocks480/I_Pegmatite_16.png","response":null,"trial_type":"image-keyboard-response","trial_index":99,"plugin_version":"2.1.0","time_elapsed":181047,"subject_id":"92517","group":"Group1","condition":"1_Rep","full_date":"2026-02-09T21:19:34.080Z","date":"2026-02-09","time":"21:19:34"},{"rt":null,"stimulus":"<p style=\"font-size: 50px; margin: 0; text-align: center;\">+</p>","response":null,"trial_type":"html-keyboard-response","trial_index":100,"plugin_version":"2.1.0","time_elapsed":182049,"subject_id":"92517","group":"Group1","condition":"1_Rep","full_date":"2026-02-09T21:19:34.080Z","date":"2026-02-09","time":"21:19:34"},{"task":"memory_phase","broad_category":"S","image_png":"S_Shale_12.png","image_id":476,"category_name":"Shale","category":30,"distinct_rating":2.48,"distinct_type":"Bottom","rt":null,"stimulus":"Stimuli_Rocks480/S_Shale_12.png","response":null,"trial_type":"image-keyboard-response","trial_index":101,"plugin_version":"2.1.0","time_elapsed":184550,"subject_id":"92517","group":"Group1","condition":"1_Rep","full_date":"2026-02-09T21:19:34.080Z","date":"2026-02-09","time":"21:19:34"},{"rt":null,"stimulus":"<p style=\"font-size: 50px; margin: 0; text-align: center;\">+</p>","response":null,"trial_type":"html-keyboard-response","trial_index":102,"plugin_version":"2.1.0","time_elapsed":185553,"subject_id":"92517","group":"Group1","condition":"1_Rep","full_date":"2026-02-09T21:19:34.080Z","date":"2026-02-09","time":"21:19:34"},{"task":"memory_phase","broad_category":"M","image_png":"M_Marble_04.png","image_id":228,"category_name":"Marble","category":15,"distinct_rating":3.15,"distinct_type":"Bottom","rt":null,"stimulus":"Stimuli_Rocks480/M_Marble_04.png","response":null,"trial_type":"image-keyboard-response","trial_index":103,"plugin_version":"2.1.0","time_elapsed":188056,"subject_id":"92517","group":"Group1","condition":"1_Rep","full_date":"2026-02-09T21:19:34.080Z","date":"2026-02-09","time":"21:19:34"},{"rt":null,"stimulus":"<p style=\"font-size: 50px; margin: 0; text-align: center;\">+</p>","response":null,"trial_type":"html-keyboard-response","trial_index":104,"plugin_version":"2.1.0","time_elapsed":189058,"subject_id":"92517","group":"Group1","condition":"1_Rep","full_date":"2026-02-09T21:19:34.080Z","date":"2026-02-09","time":"21:19:34"},{"task":"memory_phase","broad_category":"I","image_png":"I_Gabbro_16.png","image_id":64,"category_name":"Gabbro","category":4,"distinct_rating":2.52,"distinct_type":"Bottom","rt":null,"stimulus":"Stimuli_Rocks480/I_Gabbro_16.png","response":null,"trial_type":"image-keyboard-response","trial_index":105,"plugin_version":"2.1.0","time_elapsed":191562,"subject_id":"92517","group":"Group1","condition":"1_Rep","full_date":"2026-02-09T21:19:34.080Z","date":"2026-02-09","time":"21:19:34"},{"rt":12054,"stimulus":"<div style=\"max-width: 760px; margin: auto; font-size: 20px; line-height: 1.5;\">\n      <h1 style=\"text-align:center; font-size: 30px;\">Instructions for the Test Phase</h1>\n      <p>\n        The study phase is now complete.\n      </p>\n      <p>\n        In the test phase, you will again see a series of rock images. \n        Some will be ones you saw before - during the study phase, while others will be new.  \n        <b>Your task</b> is to decide whether you have seen each image before by pressing the corresponding key on your keyboard:<br><br>\n          <b>A</b> - NO (you did not see this image before)<br>\n          <b>L</b> - YES (you saw this image before)<br><br>\n        The test will proceed at your own pace. You will receive feedback after each response.  \n        Please try to respond <b>as accurately as possible</b>.\n      </p>\n      <p>\n        <b>Reminder:</b> If your computer has multiple language settings (e.g., English and another language),\n        please ensure it is set to English during the test phase.\n      </p>\n      <p>\n        You can track your progress using the <b>completion bar</b> at the top of the screen.  \n        Note that it has been refreshed to reflect your progress during this final phase.\n      </p>\n      <p>\n        Press the button below when you are ready to continue.\n      </p>\n    </div>","response":0,"trial_type":"html-button-response","trial_index":106,"plugin_version":"2.1.0","time_elapsed":203619,"subject_id":"92517","group":"Group1","condition":"1_Rep","full_date":"2026-02-09T21:19:34.080Z","date":"2026-02-09","time":"21:19:34"},{"correct_response":"l","task":"test_phase","broad_category":"S","image_png":"S_Breccia_11.png","image_id":347,"category_name":"Breccia","category":22,"distinct_rating":6.7,"distinct_type":"Top","item_type":"Target","rt":4284,"stimulus":"Stimuli_Rocks480/S_Breccia_11.png","response":"a","trial_type":"image-keyboard-response","trial_index":107,"plugin_version":"2.1.0","time_elapsed":207906,"subject_id":"92517","group":"Group1","condition":"1_Rep","full_date":"2026-02-09T21:19:34.080Z","date":"2026-02-09","time":"21:19:34","cor_ans":false},{"trial_type":"html-keyboard-response","rt":null,"stimulus":"<p style=\"color: red; font-size: 50px; font-weight: bold;\">Incorrect</p>","response":null,"trial_index":108,"plugin_version":"2.1.0","time_elapsed":208408,"subject_id":"92517","group":"Group1","condition":"1_Rep","full_date":"2026-02-09T21:19:34.080Z","date":"2026-02-09","time":"21:19:34"},{"correct_response":"a","task":"test_phase","broad_category":"S","image_png":"S_Chert_13.png","image_id":365,"category_name":"Chert","category":23,"distinct_rating":6.57,"distinct_type":"Top","item_type":"Foil","rt":4215,"stimulus":"Stimuli_Rocks480/S_Chert_13.png","response":"a","trial_type":"image-keyboard-response","trial_index":109,"plugin_version":"2.1.0","time_elapsed":212625,"subject_id":"92517","group":"Group1","condition":"1_Rep","full_date":"2026-02-09T21:19:34.080Z","date":"2026-02-09","time":"21:19:34","cor_ans":true},{"trial_type":"html-keyboard-response","rt":null,"stimulus":"<p style=\"color: green; font-size: 50px; font-weight: bold;\">Correct</p>","response":null,"trial_index":110,"plugin_version":"2.1.0","time_elapsed":213126,"subject_id":"92517","group":"Group1","condition":"1_Rep","full_date":"2026-02-09T21:19:34.080Z","date":"2026-02-09","time":"21:19:34"},{"correct_response":"l","task":"test_phase","broad_category":"S","image_png":"S_Shale_08.png","image_id":472,"category_name":"Shale","category":30,"distinct_rating":2.55,"distinct_type":"Bottom","item_type":"Target","rt":4808,"stimulus":"Stimuli_Rocks480/S_Shale_08.png","response":"l","trial_type":"image-keyboard-response","trial_index":111,"plugin_version":"2.1.0","time_elapsed":217937,"subject_id":"92517","group":"Group1","condition":"1_Rep","full_date":"2026-02-09T21:19:34.080Z","date":"2026-02-09","time":"21:19:34","cor_ans":true},{"trial_type":"html-keyboard-response","rt":null,"stimulus":"<p style=\"color: green; font-size: 50px; font-weight: bold;\">Correct</p>","response":null,"trial_index":112,"plugin_version":"2.1.0","time_elapsed":218438,"subject_id":"92517","group":"Group1","condition":"1_Rep","full_date":"2026-02-09T21:19:34.080Z","date":"2026-02-09","time":"21:19:34"},{"correct_response":"l","task":"test_phase","broad_category":"S","image_png":"S_Shale_12.png","image_id":476,"category_name":"Shale","category":30,"distinct_rating":2.48,"distinct_type":"Bottom","item_type":"Target","rt":1114,"stimulus":"Stimuli_Rocks480/S_Shale_12.png","response":"l","trial_type":"image-keyboard-response","trial_index":113,"plugin_version":"2.1.0","time_elapsed":219554,"subject_id":"92517","group":"Group1","condition":"1_Rep","full_date":"2026-02-09T21:19:34.080Z","date":"2026-02-09","time":"21:19:34","cor_ans":true},{"trial_type":"html-keyboard-response","rt":null,"stimulus":"<p style=\"color: green; font-size: 50px; font-weight: bold;\">Correct</p>","response":null,"trial_index":114,"plugin_version":"2.1.0","time_elapsed":220056,"subject_id":"92517","group":"Group1","condition":"1_Rep","full_date":"2026-02-09T21:19:34.080Z","date":"2026-02-09","time":"21:19:34"},{"correct_response":"a","task":"test_phase","broad_category":"I","image_png":"I_Pumice_14.png","image_id":142,"category_name":"Pumice","category":9,"distinct_rating":3.22,"distinct_type":"Bottom","item_type":"Foil","rt":1895,"stimulus":"Stimuli_Rocks480/I_Pumice_14.png","response":"a","trial_type":"image-keyboard-response","trial_index":115,"plugin_version":"2.1.0","time_elapsed":221952,"subject_id":"92517","group":"Group1","condition":"1_Rep","full_date":"2026-02-09T21:19:34.080Z","date":"2026-02-09","time":"21:19:34","cor_ans":true},{"trial_type":"html-keyboard-response","rt":null,"stimulus":"<p style=\"color: green; font-size: 50px; font-weight: bold;\">Correct</p>","response":null,"trial_index":116,"plugin_version":"2.1.0","time_elapsed":222453,"subject_id":"92517","group":"Group1","condition":"1_Rep","full_date":"2026-02-09T21:19:34.080Z","date":"2026-02-09","time":"21:19:34"},{"correct_response":"l","task":"test_phase","broad_category":"I","image_png":"I_Andesite_06.png","image_id":6,"category_name":"Andesite","category":1,"distinct_rating":3.17,"distinct_type":"Bottom","item_type":"Target","rt":2315,"stimulus":"Stimuli_Rocks480/I_Andesite_06.png","response":"a","trial_type":"image-keyboard-response","trial_index":117,"plugin_version":"2.1.0","time_elapsed":224770,"subject_id":"92517","group":"Group1","condition":"1_Rep","full_date":"2026-02-09T21:19:34.080Z","date":"2026-02-09","time":"21:19:34","cor_ans":false},{"trial_type":"html-keyboard-response","rt":null,"stimulus":"<p style=\"color: red; font-size: 50px; font-weight: bold;\">Incorrect</p>","response":null,"trial_index":118,"plugin_version":"2.1.0","time_elapsed":225272,"subject_id":"92517","group":"Group1","condition":"1_Rep","full_date":"2026-02-09T21:19:34.080Z","date":"2026-02-09","time":"21:19:34"},{"correct_response":"a","task":"test_phase","broad_category":"I","image_png":"I_Rhyolite_08.png","image_id":152,"category_name":"Rhyolite","category":10,"distinct_rating":1.38,"distinct_type":"Bottom","item_type":"Foil","rt":2005,"stimulus":"Stimuli_Rocks480/I_Rhyolite_08.png","response":"a","trial_type":"image-keyboard-response","trial_index":119,"plugin_version":"2.1.0","time_elapsed":227279,"subject_id":"92517","group":"Group1","condition":"1_Rep","full_date":"2026-02-09T21:19:34.080Z","date":"2026-02-09","time":"21:19:34","cor_ans":true},{"trial_type":"html-keyboard-response","rt":null,"stimulus":"<p style=\"color: green; font-size: 50px; font-weight: bold;\">Correct</p>","response":null,"trial_index":120,"plugin_version":"2.1.0","time_elapsed":227781,"subject_id":"92517","group":"Group1","condition":"1_Rep","full_date":"2026-02-09T21:19:34.080Z","date":"2026-02-09","time":"21:19:34"},{"correct_response":"a","task":"test_phase","broad_category":"S","image_png":"S_Sandstone_08.png","image_id":456,"category_name":"Sandstone","category":29,"distinct_rating":1.5,"distinct_type":"Bottom","item_type":"Foil","rt":1361,"stimulus":"Stimuli_Rocks480/S_Sandstone_08.png","response":"a","trial_type":"image-keyboard-response","trial_index":121,"plugin_version":"2.1.0","time_elapsed":229143,"subject_id":"92517","group":"Group1","condition":"1_Rep","full_date":"2026-02-09T21:19:34.080Z","date":"2026-02-09","time":"21:19:34","cor_ans":true},{"trial_type":"html-keyboard-response","rt":null,"stimulus":"<p style=\"color: green; font-size: 50px; font-weight: bold;\">Correct</p>","response":null,"trial_index":122,"plugin_version":"2.1.0","time_elapsed":229645,"subject_id":"92517","group":"Group1","condition":"1_Rep","full_date":"2026-02-09T21:19:34.080Z","date":"2026-02-09","time":"21:19:34"},{"correct_response":"l","task":"test_phase","broad_category":"I","image_png":"I_Obsidian_05.png","image_id":85,"category_name":"Obsidian","category":6,"distinct_rating":7.32,"distinct_type":"Top","item_type":"Target","rt":1214,"stimulus":"Stimuli_Rocks480/I_Obsidian_05.png","response":"l","trial_type":"image-keyboard-response","trial_index":123,"plugin_version":"2.1.0","time_elapsed":230861,"subject_id":"92517","group":"Group1","condition":"1_Rep","full_date":"2026-02-09T21:19:34.080Z","date":"2026-02-09","time":"21:19:34","cor_ans":true},{"trial_type":"html-keyboard-response","rt":null,"stimulus":"<p style=\"color: green; font-size: 50px; font-weight: bold;\">Correct</p>","response":null,"trial_index":124,"plugin_version":"2.1.0","time_elapsed":231363,"subject_id":"92517","group":"Group1","condition":"1_Rep","full_date":"2026-02-09T21:19:34.080Z","date":"2026-02-09","time":"21:19:34"},{"correct_response":"l","task":"test_phase","broad_category":"M","image_png":"M_Gneiss_13.png","image_id":205,"category_name":"Gneiss","category":13,"distinct_rating":3.26,"distinct_type":"Bottom","item_type":"Target","rt":3775,"stimulus":"Stimuli_Rocks480/M_Gneiss_13.png","response":"a","trial_type":"image-keyboard-response","trial_index":125,"plugin_version":"2.1.0","time_elapsed":235140,"subject_id":"92517","group":"Group1","condition":"1_Rep","full_date":"2026-02-09T21:19:34.080Z","date":"2026-02-09","time":"21:19:34","cor_ans":false},{"trial_type":"html-keyboard-response","rt":null,"stimulus":"<p style=\"color: red; font-size: 50px; font-weight: bold;\">Incorrect</p>","response":null,"trial_index":126,"plugin_version":"2.1.0","time_elapsed":235641,"subject_id":"92517","group":"Group1","condition":"1_Rep","full_date":"2026-02-09T21:19:34.080Z","date":"2026-02-09","time":"21:19:34"},{"correct_response":"l","task":"test_phase","broad_category":"I","image_png":"I_Pumice_08.png","image_id":136,"category_name":"Pumice","category":9,"distinct_rating":3.1,"distinct_type":"Bottom","item_type":"Target","rt":1435,"stimulus":"Stimuli_Rocks480/I_Pumice_08.png","response":"a","trial_type":"image-keyboard-response","trial_index":127,"plugin_version":"2.1.0","time_elapsed":237078,"subject_id":"92517","group":"Group1","condition":"1_Rep","full_date":"2026-02-09T21:19:34.080Z","date":"2026-02-09","time":"21:19:34","cor_ans":false},{"trial_type":"html-keyboard-response","rt":null,"stimulus":"<p style=\"color: red; font-size: 50px; font-weight: bold;\">Incorrect</p>","response":null,"trial_index":128,"plugin_version":"2.1.0","time_elapsed":237579,"subject_id":"92517","group":"Group1","condition":"1_Rep","full_date":"2026-02-09T21:19:34.080Z","date":"2026-02-09","time":"21:19:34"},{"correct_response":"l","task":"test_phase","broad_category":"M","image_png":"M_Quartzite_08.png","image_id":280,"category_name":"Quartzite","category":18,"distinct_rating":2.15,"distinct_type":"Bottom","item_type":"Target","rt":2219,"stimulus":"Stimuli_Rocks480/M_Quartzite_08.png","response":"l","trial_type":"image-keyboard-response","trial_index":129,"plugin_version":"2.1.0","time_elapsed":239800,"subject_id":"92517","group":"Group1","condition":"1_Rep","full_date":"2026-02-09T21:19:34.080Z","date":"2026-02-09","time":"21:19:34","cor_ans":true},{"trial_type":"html-keyboard-response","rt":null,"stimulus":"<p style=\"color: green; font-size: 50px; font-weight: bold;\">Correct</p>","response":null,"trial_index":130,"plugin_version":"2.1.0","time_elapsed":240302,"subject_id":"92517","group":"Group1","condition":"1_Rep","full_date":"2026-02-09T21:19:34.080Z","date":"2026-02-09","time":"21:19:34"},{"correct_response":"l","task":"test_phase","broad_category":"M","image_png":"M_Phyllite_07.png","image_id":263,"category_name":"Phyllite","category":17,"distinct_rating":2.59,"distinct_type":"Bottom","item_type":"Target","rt":2122,"stimulus":"Stimuli_Rocks480/M_Phyllite_07.png","response":"a","trial_type":"image-keyboard-response","trial_index":131,"plugin_version":"2.1.0","time_elapsed":242426,"subject_id":"92517","group":"Group1","condition":"1_Rep","full_date":"2026-02-09T21:19:34.080Z","date":"2026-02-09","time":"21:19:34","cor_ans":false},{"trial_type":"html-keyboard-response","rt":null,"stimulus":"<p style=\"color: red; font-size: 50px; font-weight: bold;\">Incorrect</p>","response":null,"trial_index":132,"plugin_version":"2.1.0","time_elapsed":242927,"subject_id":"92517","group":"Group1","condition":"1_Rep","full_date":"2026-02-09T21:19:34.080Z","date":"2026-02-09","time":"21:19:34"},{"correct_response":"a","task":"test_phase","broad_category":"I","image_png":"I_Gabbro_12.png","image_id":60,"category_name":"Gabbro","category":4,"distinct_rating":2.6,"distinct_type":"Bottom","item_type":"Foil","rt":1234,"stimulus":"Stimuli_Rocks480/I_Gabbro_12.png","response":"a","trial_type":"image-keyboard-response","trial_index":133,"plugin_version":"2.1.0","time_elapsed":244163,"subject_id":"92517","group":"Group1","condition":"1_Rep","full_date":"2026-02-09T21:19:34.080Z","date":"2026-02-09","time":"21:19:34","cor_ans":true},{"trial_type":"html-keyboard-response","rt":null,"stimulus":"<p style=\"color: green; font-size: 50px; font-weight: bold;\">Correct</p>","response":null,"trial_index":134,"plugin_version":"2.1.0","time_elapsed":244664,"subject_id":"92517","group":"Group1","condition":"1_Rep","full_date":"2026-02-09T21:19:34.080Z","date":"2026-02-09","time":"21:19:34"},{"correct_response":"a","task":"test_phase","broad_category":"S","image_png":"S_Shale_03.png","image_id":467,"category_name":"Shale","category":30,"distinct_rating":1.95,"distinct_type":"Bottom","item_type":"Foil","rt":1649,"stimulus":"Stimuli_Rocks480/S_Shale_03.png","response":"a","trial_type":"image-keyboard-response","trial_index":135,"plugin_version":"2.1.0","time_elapsed":246315,"subject_id":"92517","group":"Group1","condition":"1_Rep","full_date":"2026-02-09T21:19:34.080Z","date":"2026-02-09","time":"21:19:34","cor_ans":true},{"trial_type":"html-keyboard-response","rt":null,"stimulus":"<p style=\"color: green; font-size: 50px; font-weight: bold;\">Correct</p>","response":null,"trial_index":136,"plugin_version":"2.1.0","time_elapsed":246817,"subject_id":"92517","group":"Group1","condition":"1_Rep","full_date":"2026-02-09T21:19:34.080Z","date":"2026-02-09","time":"21:19:34"},{"correct_response":"l","task":"test_phase","broad_category":"M","image_png":"M_Gneiss_06.png","image_id":198,"category_name":"Gneiss","category":13,"distinct_rating":2.65,"distinct_type":"Bottom","item_type":"Target","rt":1571,"stimulus":"Stimuli_Rocks480/M_Gneiss_06.png","response":"l","trial_type":"image-keyboard-response","trial_index":137,"plugin_version":"2.1.0","time_elapsed":248390,"subject_id":"92517","group":"Group1","condition":"1_Rep","full_date":"2026-02-09T21:19:34.080Z","date":"2026-02-09","time":"21:19:34","cor_ans":true},{"trial_type":"html-keyboard-response","rt":null,"stimulus":"<p style=\"color: green; font-size: 50px; font-weight: bold;\">Correct</p>","response":null,"trial_index":138,"plugin_version":"2.1.0","time_elapsed":248891,"subject_id":"92517","group":"Group1","condition":"1_Rep","full_date":"2026-02-09T21:19:34.080Z","date":"2026-02-09","time":"21:19:34"},{"correct_response":"a","task":"test_phase","broad_category":"M","image_png":"M_Marble_03.png","image_id":227,"category_name":"Marble","category":15,"distinct_rating":2.67,"distinct_type":"Bottom","item_type":"Foil","rt":1234,"stimulus":"Stimuli_Rocks480/M_Marble_03.png","response":"a","trial_type":"image-keyboard-response","trial_index":139,"plugin_version":"2.1.0","time_elapsed":250128,"subject_id":"92517","group":"Group1","condition":"1_Rep","full_date":"2026-02-09T21:19:34.080Z","date":"2026-02-09","time":"21:19:34","cor_ans":true},{"trial_type":"html-keyboard-response","rt":null,"stimulus":"<p style=\"color: green; font-size: 50px; font-weight: bold;\">Correct</p>","response":null,"trial_index":140,"plugin_version":"2.1.0","time_elapsed":250629,"subject_id":"92517","group":"Group1","condition":"1_Rep","full_date":"2026-02-09T21:19:34.080Z","date":"2026-02-09","time":"21:19:34"},{"correct_response":"l","task":"test_phase","broad_category":"S","image_png":"S_Conglomerate_05.png","image_id":373,"category_name":"Conglomerate","category":24,"distinct_rating":7.32,"distinct_type":"Top","item_type":"Target","rt":1932,"stimulus":"Stimuli_Rocks480/S_Conglomerate_05.png","response":"l","trial_type":"image-keyboard-response","trial_index":141,"plugin_version":"2.1.0","time_elapsed":252563,"subject_id":"92517","group":"Group1","condition":"1_Rep","full_date":"2026-02-09T21:19:34.080Z","date":"2026-02-09","time":"21:19:34","cor_ans":true},{"trial_type":"html-keyboard-response","rt":null,"stimulus":"<p style=\"color: green; font-size: 50px; font-weight: bold;\">Correct</p>","response":null,"trial_index":142,"plugin_version":"2.1.0","time_elapsed":253065,"subject_id":"92517","group":"Group1","condition":"1_Rep","full_date":"2026-02-09T21:19:34.080Z","date":"2026-02-09","time":"21:19:34"},{"correct_response":"l","task":"test_phase","broad_category":"I","image_png":"I_Rhyolite_14.png","image_id":158,"category_name":"Rhyolite","category":10,"distinct_rating":2.59,"distinct_type":"Bottom","item_type":"Target","rt":1323,"stimulus":"Stimuli_Rocks480/I_Rhyolite_14.png","response":"a","trial_type":"image-keyboard-response","trial_index":143,"plugin_version":"2.1.0","time_elapsed":254390,"subject_id":"92517","group":"Group1","condition":"1_Rep","full_date":"2026-02-09T21:19:34.080Z","date":"2026-02-09","time":"21:19:34","cor_ans":false},{"trial_type":"html-keyboard-response","rt":null,"stimulus":"<p style=\"color: red; font-size: 50px; font-weight: bold;\">Incorrect</p>","response":null,"trial_index":144,"plugin_version":"2.1.0","time_elapsed":254891,"subject_id":"92517","group":"Group1","condition":"1_Rep","full_date":"2026-02-09T21:19:34.080Z","date":"2026-02-09","time":"21:19:34"},{"correct_response":"a","task":"test_phase","broad_category":"I","image_png":"I_Basalt_08.png","image_id":24,"category_name":"Basalt","category":2,"distinct_rating":2.31,"distinct_type":"Bottom","item_type":"Foil","rt":1364,"stimulus":"Stimuli_Rocks480/I_Basalt_08.png","response":"a","trial_type":"image-keyboard-response","trial_index":145,"plugin_version":"2.1.0","time_elapsed":256257,"subject_id":"92517","group":"Group1","condition":"1_Rep","full_date":"2026-02-09T21:19:34.080Z","date":"2026-02-09","time":"21:19:34","cor_ans":true},{"trial_type":"html-keyboard-response","rt":null,"stimulus":"<p style=\"color: green; font-size: 50px; font-weight: bold;\">Correct</p>","response":null,"trial_index":146,"plugin_version":"2.1.0","time_elapsed":256758,"subject_id":"92517","group":"Group1","condition":"1_Rep","full_date":"2026-02-09T21:19:34.080Z","date":"2026-02-09","time":"21:19:34"},{"correct_response":"l","task":"test_phase","broad_category":"S","image_png":"S_Shale_01.png","image_id":465,"category_name":"Shale","category":30,"distinct_rating":2.7,"distinct_type":"Bottom","item_type":"Target","rt":1188,"stimulus":"Stimuli_Rocks480/S_Shale_01.png","response":"l","trial_type":"image-keyboard-response","trial_index":147,"plugin_version":"2.1.0","time_elapsed":257948,"subject_id":"92517","group":"Group1","condition":"1_Rep","full_date":"2026-02-09T21:19:34.080Z","date":"2026-02-09","time":"21:19:34","cor_ans":true},{"trial_type":"html-keyboard-response","rt":null,"stimulus":"<p style=\"color: green; font-size: 50px; font-weight: bold;\">Correct</p>","response":null,"trial_index":148,"plugin_version":"2.1.0","time_elapsed":258449,"subject_id":"92517","group":"Group1","condition":"1_Rep","full_date":"2026-02-09T21:19:34.080Z","date":"2026-02-09","time":"21:19:34"},{"correct_response":"l","task":"test_phase","broad_category":"M","image_png":"M_Quartzite_05.png","image_id":277,"category_name":"Quartzite","category":18,"distinct_rating":2.23,"distinct_type":"Bottom","item_type":"Target","rt":891,"stimulus":"Stimuli_Rocks480/M_Quartzite_05.png","response":"l","trial_type":"image-keyboard-response","trial_index":149,"plugin_version":"2.1.0","time_elapsed":259341,"subject_id":"92517","group":"Group1","condition":"1_Rep","full_date":"2026-02-09T21:19:34.080Z","date":"2026-02-09","time":"21:19:34","cor_ans":true},{"trial_type":"html-keyboard-response","rt":null,"stimulus":"<p style=\"color: green; font-size: 50px; font-weight: bold;\">Correct</p>","response":null,"trial_index":150,"plugin_version":"2.1.0","time_elapsed":259843,"subject_id":"92517","group":"Group1","condition":"1_Rep","full_date":"2026-02-09T21:19:34.080Z","date":"2026-02-09","time":"21:19:34"},{"correct_response":"l","task":"test_phase","broad_category":"M","image_png":"M_Slate_03.png","image_id":307,"category_name":"Slate","category":20,"distinct_rating":1.87,"distinct_type":"Bottom","item_type":"Target","rt":904,"stimulus":"Stimuli_Rocks480/M_Slate_03.png","response":"l","trial_type":"image-keyboard-response","trial_index":151,"plugin_version":"2.1.0","time_elapsed":260749,"subject_id":"92517","group":"Group1","condition":"1_Rep","full_date":"2026-02-09T21:19:34.080Z","date":"2026-02-09","time":"21:19:34","cor_ans":true},{"trial_type":"html-keyboard-response","rt":null,"stimulus":"<p style=\"color: green; font-size: 50px; font-weight: bold;\">Correct</p>","response":null,"trial_index":152,"plugin_version":"2.1.0","time_elapsed":261249,"subject_id":"92517","group":"Group1","condition":"1_Rep","full_date":"2026-02-09T21:19:34.080Z","date":"2026-02-09","time":"21:19:34"},{"correct_response":"a","task":"test_phase","broad_category":"M","image_png":"M_Marble_02.png","image_id":226,"category_name":"Marble","category":15,"distinct_rating":3.2,"distinct_type":"Bottom","item_type":"Foil","rt":1044,"stimulus":"Stimuli_Rocks480/M_Marble_02.png","response":"l","trial_type":"image-keyboard-response","trial_index":153,"plugin_version":"2.1.0","time_elapsed":262295,"subject_id":"92517","group":"Group1","condition":"1_Rep","full_date":"2026-02-09T21:19:34.080Z","date":"2026-02-09","time":"21:19:34","cor_ans":false},{"trial_type":"html-keyboard-response","rt":null,"stimulus":"<p style=\"color: red; font-size: 50px; font-weight: bold;\">Incorrect</p>","response":null,"trial_index":154,"plugin_version":"2.1.0","time_elapsed":262797,"subject_id":"92517","group":"Group1","condition":"1_Rep","full_date":"2026-02-09T21:19:34.080Z","date":"2026-02-09","time":"21:19:34"},{"correct_response":"a","task":"test_phase","broad_category":"M","image_png":"M_Phyllite_05.png","image_id":261,"category_name":"Phyllite","category":17,"distinct_rating":2.14,"distinct_type":"Bottom","item_type":"Foil","rt":1663,"stimulus":"Stimuli_Rocks480/M_Phyllite_05.png","response":"l","trial_type":"image-keyboard-response","trial_index":155,"plugin_version":"2.1.0","time_elapsed":264462,"subject_id":"92517","group":"Group1","condition":"1_Rep","full_date":"2026-02-09T21:19:34.080Z","date":"2026-02-09","time":"21:19:34","cor_ans":false},{"trial_type":"html-keyboard-response","rt":null,"stimulus":"<p style=\"color: red; font-size: 50px; font-weight: bold;\">Incorrect</p>","response":null,"trial_index":156,"plugin_version":"2.1.0","time_elapsed":264963,"subject_id":"92517","group":"Group1","condition":"1_Rep","full_date":"2026-02-09T21:19:34.080Z","date":"2026-02-09","time":"21:19:34"},{"correct_response":"l","task":"test_phase","broad_category":"I","image_png":"I_Gabbro_08.png","image_id":56,"category_name":"Gabbro","category":4,"distinct_rating":3.02,"distinct_type":"Bottom","item_type":"Target","rt":2041,"stimulus":"Stimuli_Rocks480/I_Gabbro_08.png","response":"l","trial_type":"image-keyboard-response","trial_index":157,"plugin_version":"2.1.0","time_elapsed":267006,"subject_id":"92517","group":"Group1","condition":"1_Rep","full_date":"2026-02-09T21:19:34.080Z","date":"2026-02-09","time":"21:19:34","cor_ans":true},{"trial_type":"html-keyboard-response","rt":null,"stimulus":"<p style=\"color: green; font-size: 50px; font-weight: bold;\">Correct</p>","response":null,"trial_index":158,"plugin_version":"2.1.0","time_elapsed":267508,"subject_id":"92517","group":"Group1","condition":"1_Rep","full_date":"2026-02-09T21:19:34.080Z","date":"2026-02-09","time":"21:19:34"},{"correct_response":"a","task":"test_phase","broad_category":"I","image_png":"I_Diorite_01.png","image_id":33,"category_name":"Diorite","category":3,"distinct_rating":2.97,"distinct_type":"Bottom","item_type":"Foil","rt":864,"stimulus":"Stimuli_Rocks480/I_Diorite_01.png","response":"a","trial_type":"image-keyboard-response","trial_index":159,"plugin_version":"2.1.0","time_elapsed":268374,"subject_id":"92517","group":"Group1","condition":"1_Rep","full_date":"2026-02-09T21:19:34.080Z","date":"2026-02-09","time":"21:19:34","cor_ans":true},{"trial_type":"html-keyboard-response","rt":null,"stimulus":"<p style=\"color: green; font-size: 50px; font-weight: bold;\">Correct</p>","response":null,"trial_index":160,"plugin_version":"2.1.0","time_elapsed":268875,"subject_id":"92517","group":"Group1","condition":"1_Rep","full_date":"2026-02-09T21:19:34.080Z","date":"2026-02-09","time":"21:19:34"},{"correct_response":"a","task":"test_phase","broad_category":"M","image_png":"M_Gneiss_15.png","image_id":207,"category_name":"Gneiss","category":13,"distinct_rating":3.11,"distinct_type":"Bottom","item_type":"Foil","rt":1540,"stimulus":"Stimuli_Rocks480/M_Gneiss_15.png","response":"a","trial_type":"image-keyboard-response","trial_index":161,"plugin_version":"2.1.0","time_elapsed":270417,"subject_id":"92517","group":"Group1","condition":"1_Rep","full_date":"2026-02-09T21:19:34.080Z","date":"2026-02-09","time":"21:19:34","cor_ans":true},{"trial_type":"html-keyboard-response","rt":null,"stimulus":"<p style=\"color: green; font-size: 50px; font-weight: bold;\">Correct</p>","response":null,"trial_index":162,"plugin_version":"2.1.0","time_elapsed":270919,"subject_id":"92517","group":"Group1","condition":"1_Rep","full_date":"2026-02-09T21:19:34.080Z","date":"2026-02-09","time":"21:19:34"},{"correct_response":"a","task":"test_phase","broad_category":"S","image_png":"S_Shale_02.png","image_id":466,"category_name":"Shale","category":30,"distinct_rating":2.9,"distinct_type":"Bottom","item_type":"Foil","rt":1064,"stimulus":"Stimuli_Rocks480/S_Shale_02.png","response":"a","trial_type":"image-keyboard-response","trial_index":163,"plugin_version":"2.1.0","time_elapsed":271984,"subject_id":"92517","group":"Group1","condition":"1_Rep","full_date":"2026-02-09T21:19:34.080Z","date":"2026-02-09","time":"21:19:34","cor_ans":true},{"trial_type":"html-keyboard-response","rt":null,"stimulus":"<p style=\"color: green; font-size: 50px; font-weight: bold;\">Correct</p>","response":null,"trial_index":164,"plugin_version":"2.1.0","time_elapsed":272486,"subject_id":"92517","group":"Group1","condition":"1_Rep","full_date":"2026-02-09T21:19:34.080Z","date":"2026-02-09","time":"21:19:34"},{"correct_response":"l","task":"test_phase","broad_category":"I","image_png":"I_Pegmatite_16.png","image_id":112,"category_name":"Pegmatite","category":7,"distinct_rating":7.03,"distinct_type":"Top","item_type":"Target","rt":1533,"stimulus":"Stimuli_Rocks480/I_Pegmatite_16.png","response":"l","trial_type":"image-keyboard-response","trial_index":165,"plugin_version":"2.1.0","time_elapsed":274020,"subject_id":"92517","group":"Group1","condition":"1_Rep","full_date":"2026-02-09T21:19:34.080Z","date":"2026-02-09","time":"21:19:34","cor_ans":true},{"trial_type":"html-keyboard-response","rt":null,"stimulus":"<p style=\"color: green; font-size: 50px; font-weight: bold;\">Correct</p>","response":null,"trial_index":166,"plugin_version":"2.1.0","time_elapsed":274521,"subject_id":"92517","group":"Group1","condition":"1_Rep","full_date":"2026-02-09T21:19:34.080Z","date":"2026-02-09","time":"21:19:34"},{"correct_response":"a","task":"test_phase","broad_category":"I","image_png":"I_Basalt_10.png","image_id":26,"category_name":"Basalt","category":2,"distinct_rating":2.76,"distinct_type":"Bottom","item_type":"Foil","rt":742,"stimulus":"Stimuli_Rocks480/I_Basalt_10.png","response":"l","trial_type":"image-keyboard-response","trial_index":167,"plugin_version":"2.1.0","time_elapsed":275265,"subject_id":"92517","group":"Group1","condition":"1_Rep","full_date":"2026-02-09T21:19:34.080Z","date":"2026-02-09","time":"21:19:34","cor_ans":false},{"trial_type":"html-keyboard-response","rt":null,"stimulus":"<p style=\"color: red; font-size: 50px; font-weight: bold;\">Incorrect</p>","response":null,"trial_index":168,"plugin_version":"2.1.0","time_elapsed":275766,"subject_id":"92517","group":"Group1","condition":"1_Rep","full_date":"2026-02-09T21:19:34.080Z","date":"2026-02-09","time":"21:19:34"},{"correct_response":"a","task":"test_phase","broad_category":"I","image_png":"I_Rhyolite_05.png","image_id":149,"category_name":"Rhyolite","category":10,"distinct_rating":3.02,"distinct_type":"Bottom","item_type":"Foil","rt":1161,"stimulus":"Stimuli_Rocks480/I_Rhyolite_05.png","response":"l","trial_type":"image-keyboard-response","trial_index":169,"plugin_version":"2.1.0","time_elapsed":276929,"subject_id":"92517","group":"Group1","condition":"1_Rep","full_date":"2026-02-09T21:19:34.080Z","date":"2026-02-09","time":"21:19:34","cor_ans":false},{"trial_type":"html-keyboard-response","rt":null,"stimulus":"<p style=\"color: red; font-size: 50px; font-weight: bold;\">Incorrect</p>","response":null,"trial_index":170,"plugin_version":"2.1.0","time_elapsed":277431,"subject_id":"92517","group":"Group1","condition":"1_Rep","full_date":"2026-02-09T21:19:34.080Z","date":"2026-02-09","time":"21:19:34"},{"correct_response":"l","task":"test_phase","broad_category":"S","image_png":"S_Rock Salt_01.png","image_id":433,"category_name":"Rock Salt","category":28,"distinct_rating":7.18,"distinct_type":"Top","item_type":"Target","rt":1182,"stimulus":"Stimuli_Rocks480/S_Rock Salt_01.png","response":"l","trial_type":"image-keyboard-response","trial_index":171,"plugin_version":"2.1.0","time_elapsed":278615,"subject_id":"92517","group":"Group1","condition":"1_Rep","full_date":"2026-02-09T21:19:34.080Z","date":"2026-02-09","time":"21:19:34","cor_ans":true},{"trial_type":"html-keyboard-response","rt":null,"stimulus":"<p style=\"color: green; font-size: 50px; font-weight: bold;\">Correct</p>","response":null,"trial_index":172,"plugin_version":"2.1.0","time_elapsed":279117,"subject_id":"92517","group":"Group1","condition":"1_Rep","full_date":"2026-02-09T21:19:34.080Z","date":"2026-02-09","time":"21:19:34"},{"correct_response":"l","task":"test_phase","broad_category":"S","image_png":"S_Rock Gypsum_04.png","image_id":420,"category_name":"Rock Gypsum","category":27,"distinct_rating":7.61,"distinct_type":"Top","item_type":"Target","rt":1123,"stimulus":"Stimuli_Rocks480/S_Rock Gypsum_04.png","response":"l","trial_type":"image-keyboard-response","trial_index":173,"plugin_version":"2.1.0","time_elapsed":280242,"subject_id":"92517","group":"Group1","condition":"1_Rep","full_date":"2026-02-09T21:19:34.080Z","date":"2026-02-09","time":"21:19:34","cor_ans":true},{"trial_type":"html-keyboard-response","rt":null,"stimulus":"<p style=\"color: green; font-size: 50px; font-weight: bold;\">Correct</p>","response":null,"trial_index":174,"plugin_version":"2.1.0","time_elapsed":280744,"subject_id":"92517","group":"Group1","condition":"1_Rep","full_date":"2026-02-09T21:19:34.080Z","date":"2026-02-09","time":"21:19:34"},{"correct_response":"l","task":"test_phase","broad_category":"M","image_png":"M_Phyllite_10.png","image_id":266,"category_name":"Phyllite","category":17,"distinct_rating":2.6,"distinct_type":"Bottom","item_type":"Target","rt":1075,"stimulus":"Stimuli_Rocks480/M_Phyllite_10.png","response":"a","trial_type":"image-keyboard-response","trial_index":175,"plugin_version":"2.1.0","time_elapsed":281821,"subject_id":"92517","group":"Group1","condition":"1_Rep","full_date":"2026-02-09T21:19:34.080Z","date":"2026-02-09","time":"21:19:34","cor_ans":false},{"trial_type":"html-keyboard-response","rt":null,"stimulus":"<p style=\"color: red; font-size: 50px; font-weight: bold;\">Incorrect</p>","response":null,"trial_index":176,"plugin_version":"2.1.0","time_elapsed":282322,"subject_id":"92517","group":"Group1","condition":"1_Rep","full_date":"2026-02-09T21:19:34.080Z","date":"2026-02-09","time":"21:19:34"},{"correct_response":"a","task":"test_phase","broad_category":"I","image_png":"I_Pumice_13.png","image_id":141,"category_name":"Pumice","category":9,"distinct_rating":3.12,"distinct_type":"Bottom","item_type":"Foil","rt":943,"stimulus":"Stimuli_Rocks480/I_Pumice_13.png","response":"a","trial_type":"image-keyboard-response","trial_index":177,"plugin_version":"2.1.0","time_elapsed":283267,"subject_id":"92517","group":"Group1","condition":"1_Rep","full_date":"2026-02-09T21:19:34.080Z","date":"2026-02-09","time":"21:19:34","cor_ans":true},{"trial_type":"html-keyboard-response","rt":null,"stimulus":"<p style=\"color: green; font-size: 50px; font-weight: bold;\">Correct</p>","response":null,"trial_index":178,"plugin_version":"2.1.0","time_elapsed":283768,"subject_id":"92517","group":"Group1","condition":"1_Rep","full_date":"2026-02-09T21:19:34.080Z","date":"2026-02-09","time":"21:19:34"},{"correct_response":"l","task":"test_phase","broad_category":"I","image_png":"I_Rhyolite_11.png","image_id":155,"category_name":"Rhyolite","category":10,"distinct_rating":1.73,"distinct_type":"Bottom","item_type":"Target","rt":1255,"stimulus":"Stimuli_Rocks480/I_Rhyolite_11.png","response":"a","trial_type":"image-keyboard-response","trial_index":179,"plugin_version":"2.1.0","time_elapsed":285025,"subject_id":"92517","group":"Group1","condition":"1_Rep","full_date":"2026-02-09T21:19:34.080Z","date":"2026-02-09","time":"21:19:34","cor_ans":false},{"trial_type":"html-keyboard-response","rt":null,"stimulus":"<p style=\"color: red; font-size: 50px; font-weight: bold;\">Incorrect</p>","response":null,"trial_index":180,"plugin_version":"2.1.0","time_elapsed":285526,"subject_id":"92517","group":"Group1","condition":"1_Rep","full_date":"2026-02-09T21:19:34.080Z","date":"2026-02-09","time":"21:19:34"},{"correct_response":"a","task":"test_phase","broad_category":"I","image_png":"I_Gabbro_14.png","image_id":62,"category_name":"Gabbro","category":4,"distinct_rating":2.95,"distinct_type":"Bottom","item_type":"Foil","rt":1328,"stimulus":"Stimuli_Rocks480/I_Gabbro_14.png","response":"l","trial_type":"image-keyboard-response","trial_index":181,"plugin_version":"2.1.0","time_elapsed":286856,"subject_id":"92517","group":"Group1","condition":"1_Rep","full_date":"2026-02-09T21:19:34.080Z","date":"2026-02-09","time":"21:19:34","cor_ans":false},{"trial_type":"html-keyboard-response","rt":null,"stimulus":"<p style=\"color: red; font-size: 50px; font-weight: bold;\">Incorrect</p>","response":null,"trial_index":182,"plugin_version":"2.1.0","time_elapsed":287358,"subject_id":"92517","group":"Group1","condition":"1_Rep","full_date":"2026-02-09T21:19:34.080Z","date":"2026-02-09","time":"21:19:34"},{"correct_response":"l","task":"test_phase","broad_category":"I","image_png":"I_Andesite_10.png","image_id":10,"category_name":"Andesite","category":1,"distinct_rating":3.15,"distinct_type":"Bottom","item_type":"Target","rt":455,"stimulus":"Stimuli_Rocks480/I_Andesite_10.png","response":"l","trial_type":"image-keyboard-response","trial_index":183,"plugin_version":"2.1.0","time_elapsed":287815,"subject_id":"92517","group":"Group1","condition":"1_Rep","full_date":"2026-02-09T21:19:34.080Z","date":"2026-02-09","time":"21:19:34","cor_ans":true},{"trial_type":"html-keyboard-response","rt":null,"stimulus":"<p style=\"color: green; font-size: 50px; font-weight: bold;\">Correct</p>","response":null,"trial_index":184,"plugin_version":"2.1.0","time_elapsed":288316,"subject_id":"92517","group":"Group1","condition":"1_Rep","full_date":"2026-02-09T21:19:34.080Z","date":"2026-02-09","time":"21:19:34"},{"correct_response":"l","task":"test_phase","broad_category":"S","image_png":"S_Dolomite_12.png","image_id":396,"category_name":"Dolomite","category":25,"distinct_rating":1.85,"distinct_type":"Bottom","item_type":"Target","rt":820,"stimulus":"Stimuli_Rocks480/S_Dolomite_12.png","response":"l","trial_type":"image-keyboard-response","trial_index":185,"plugin_version":"2.1.0","time_elapsed":289138,"subject_id":"92517","group":"Group1","condition":"1_Rep","full_date":"2026-02-09T21:19:34.080Z","date":"2026-02-09","time":"21:19:34","cor_ans":true},{"trial_type":"html-keyboard-response","rt":null,"stimulus":"<p style=\"color: green; font-size: 50px; font-weight: bold;\">Correct</p>","response":null,"trial_index":186,"plugin_version":"2.1.0","time_elapsed":289639,"subject_id":"92517","group":"Group1","condition":"1_Rep","full_date":"2026-02-09T21:19:34.080Z","date":"2026-02-09","time":"21:19:34"},{"correct_response":"a","task":"test_phase","broad_category":"S","image_png":"S_Dolomite_01.png","image_id":385,"category_name":"Dolomite","category":25,"distinct_rating":1.43,"distinct_type":"Bottom","item_type":"Foil","rt":733,"stimulus":"Stimuli_Rocks480/S_Dolomite_01.png","response":"l","trial_type":"image-keyboard-response","trial_index":187,"plugin_version":"2.1.0","time_elapsed":290375,"subject_id":"92517","group":"Group1","condition":"1_Rep","full_date":"2026-02-09T21:19:34.080Z","date":"2026-02-09","time":"21:19:34","cor_ans":false},{"trial_type":"html-keyboard-response","rt":null,"stimulus":"<p style=\"color: red; font-size: 50px; font-weight: bold;\">Incorrect</p>","response":null,"trial_index":188,"plugin_version":"2.1.0","time_elapsed":290876,"subject_id":"92517","group":"Group1","condition":"1_Rep","full_date":"2026-02-09T21:19:34.080Z","date":"2026-02-09","time":"21:19:34"},{"correct_response":"l","task":"test_phase","broad_category":"M","image_png":"M_Quartzite_13.png","image_id":285,"category_name":"Quartzite","category":18,"distinct_rating":2.27,"distinct_type":"Bottom","item_type":"Target","rt":1281,"stimulus":"Stimuli_Rocks480/M_Quartzite_13.png","response":"l","trial_type":"image-keyboard-response","trial_index":189,"plugin_version":"2.1.0","time_elapsed":292158,"subject_id":"92517","group":"Group1","condition":"1_Rep","full_date":"2026-02-09T21:19:34.080Z","date":"2026-02-09","time":"21:19:34","cor_ans":true},{"trial_type":"html-keyboard-response","rt":null,"stimulus":"<p style=\"color: green; font-size: 50px; font-weight: bold;\">Correct</p>","response":null,"trial_index":190,"plugin_version":"2.1.0","time_elapsed":292660,"subject_id":"92517","group":"Group1","condition":"1_Rep","full_date":"2026-02-09T21:19:34.080Z","date":"2026-02-09","time":"21:19:34"},{"correct_response":"a","task":"test_phase","broad_category":"S","image_png":"S_Sandstone_04.png","image_id":452,"category_name":"Sandstone","category":29,"distinct_rating":1.8,"distinct_type":"Bottom","item_type":"Foil","rt":5232,"stimulus":"Stimuli_Rocks480/S_Sandstone_04.png","response":"a","trial_type":"image-keyboard-response","trial_index":191,"plugin_version":"2.1.0","time_elapsed":297894,"subject_id":"92517","group":"Group1","condition":"1_Rep","full_date":"2026-02-09T21:19:34.080Z","date":"2026-02-09","time":"21:19:34","cor_ans":true},{"trial_type":"html-keyboard-response","rt":null,"stimulus":"<p style=\"color: green; font-size: 50px; font-weight: bold;\">Correct</p>","response":null,"trial_index":192,"plugin_version":"2.1.0","time_elapsed":298395,"subject_id":"92517","group":"Group1","condition":"1_Rep","full_date":"2026-02-09T21:19:34.080Z","date":"2026-02-09","time":"21:19:34"},{"correct_response":"l","task":"test_phase","broad_category":"I","image_png":"I_Pumice_11.png","image_id":139,"category_name":"Pumice","category":9,"distinct_rating":1.74,"distinct_type":"Bottom","item_type":"Target","rt":1184,"stimulus":"Stimuli_Rocks480/I_Pumice_11.png","response":"l","trial_type":"image-keyboard-response","trial_index":193,"plugin_version":"2.1.0","time_elapsed":299581,"subject_id":"92517","group":"Group1","condition":"1_Rep","full_date":"2026-02-09T21:19:34.080Z","date":"2026-02-09","time":"21:19:34","cor_ans":true},{"trial_type":"html-keyboard-response","rt":null,"stimulus":"<p style=\"color: green; font-size: 50px; font-weight: bold;\">Correct</p>","response":null,"trial_index":194,"plugin_version":"2.1.0","time_elapsed":300083,"subject_id":"92517","group":"Group1","condition":"1_Rep","full_date":"2026-02-09T21:19:34.080Z","date":"2026-02-09","time":"21:19:34"},{"correct_response":"l","task":"test_phase","broad_category":"S","image_png":"S_Dolomite_14.png","image_id":398,"category_name":"Dolomite","category":25,"distinct_rating":1.43,"distinct_type":"Bottom","item_type":"Target","rt":1121,"stimulus":"Stimuli_Rocks480/S_Dolomite_14.png","response":"a","trial_type":"image-keyboard-response","trial_index":195,"plugin_version":"2.1.0","time_elapsed":301206,"subject_id":"92517","group":"Group1","condition":"1_Rep","full_date":"2026-02-09T21:19:34.080Z","date":"2026-02-09","time":"21:19:34","cor_ans":false},{"trial_type":"html-keyboard-response","rt":null,"stimulus":"<p style=\"color: red; font-size: 50px; font-weight: bold;\">Incorrect</p>","response":null,"trial_index":196,"plugin_version":"2.1.0","time_elapsed":301707,"subject_id":"92517","group":"Group1","condition":"1_Rep","full_date":"2026-02-09T21:19:34.080Z","date":"2026-02-09","time":"21:19:34"},{"correct_response":"a","task":"test_phase","broad_category":"M","image_png":"M_Phyllite_13.png","image_id":269,"category_name":"Phyllite","category":17,"distinct_rating":2.8,"distinct_type":"Bottom","item_type":"Foil","rt":1481,"stimulus":"Stimuli_Rocks480/M_Phyllite_13.png","response":"l","trial_type":"image-keyboard-response","trial_index":197,"plugin_version":"2.1.0","time_elapsed":303189,"subject_id":"92517","group":"Group1","condition":"1_Rep","full_date":"2026-02-09T21:19:34.080Z","date":"2026-02-09","time":"21:19:34","cor_ans":false},{"trial_type":"html-keyboard-response","rt":null,"stimulus":"<p style=\"color: red; font-size: 50px; font-weight: bold;\">Incorrect</p>","response":null,"trial_index":198,"plugin_version":"2.1.0","time_elapsed":303690,"subject_id":"92517","group":"Group1","condition":"1_Rep","full_date":"2026-02-09T21:19:34.080Z","date":"2026-02-09","time":"21:19:34"},{"correct_response":"l","task":"test_phase","broad_category":"I","image_png":"I_Diorite_05.png","image_id":37,"category_name":"Diorite","category":3,"distinct_rating":3.08,"distinct_type":"Bottom","item_type":"Target","rt":1222,"stimulus":"Stimuli_Rocks480/I_Diorite_05.png","response":"a","trial_type":"image-keyboard-response","trial_index":199,"plugin_version":"2.1.0","time_elapsed":304914,"subject_id":"92517","group":"Group1","condition":"1_Rep","full_date":"2026-02-09T21:19:34.080Z","date":"2026-02-09","time":"21:19:34","cor_ans":false},{"trial_type":"html-keyboard-response","rt":null,"stimulus":"<p style=\"color: red; font-size: 50px; font-weight: bold;\">Incorrect</p>","response":null,"trial_index":200,"plugin_version":"2.1.0","time_elapsed":305415,"subject_id":"92517","group":"Group1","condition":"1_Rep","full_date":"2026-02-09T21:19:34.080Z","date":"2026-02-09","time":"21:19:34"},{"correct_response":"a","task":"test_phase","broad_category":"M","image_png":"M_Quartzite_07.png","image_id":279,"category_name":"Quartzite","category":18,"distinct_rating":1.97,"distinct_type":"Bottom","item_type":"Foil","rt":1030,"stimulus":"Stimuli_Rocks480/M_Quartzite_07.png","response":"l","trial_type":"image-keyboard-response","trial_index":201,"plugin_version":"2.1.0","time_elapsed":306447,"subject_id":"92517","group":"Group1","condition":"1_Rep","full_date":"2026-02-09T21:19:34.080Z","date":"2026-02-09","time":"21:19:34","cor_ans":false},{"trial_type":"html-keyboard-response","rt":null,"stimulus":"<p style=\"color: red; font-size: 50px; font-weight: bold;\">Incorrect</p>","response":null,"trial_index":202,"plugin_version":"2.1.0","time_elapsed":306948,"subject_id":"92517","group":"Group1","condition":"1_Rep","full_date":"2026-02-09T21:19:34.080Z","date":"2026-02-09","time":"21:19:34"},{"correct_response":"l","task":"test_phase","broad_category":"I","image_png":"I_Rhyolite_16.png","image_id":160,"category_name":"Rhyolite","category":10,"distinct_rating":2.19,"distinct_type":"Bottom","item_type":"Target","rt":1343,"stimulus":"Stimuli_Rocks480/I_Rhyolite_16.png","response":"l","trial_type":"image-keyboard-response","trial_index":203,"plugin_version":"2.1.0","time_elapsed":308294,"subject_id":"92517","group":"Group1","condition":"1_Rep","full_date":"2026-02-09T21:19:34.080Z","date":"2026-02-09","time":"21:19:34","cor_ans":true},{"trial_type":"html-keyboard-response","rt":null,"stimulus":"<p style=\"color: green; font-size: 50px; font-weight: bold;\">Correct</p>","response":null,"trial_index":204,"plugin_version":"2.1.0","time_elapsed":308796,"subject_id":"92517","group":"Group1","condition":"1_Rep","full_date":"2026-02-09T21:19:34.080Z","date":"2026-02-09","time":"21:19:34"},{"correct_response":"l","task":"test_phase","broad_category":"M","image_png":"M_Gneiss_05.png","image_id":197,"category_name":"Gneiss","category":13,"distinct_rating":2.97,"distinct_type":"Bottom","item_type":"Target","rt":626,"stimulus":"Stimuli_Rocks480/M_Gneiss_05.png","response":"l","trial_type":"image-keyboard-response","trial_index":205,"plugin_version":"2.1.0","time_elapsed":309424,"subject_id":"92517","group":"Group1","condition":"1_Rep","full_date":"2026-02-09T21:19:34.080Z","date":"2026-02-09","time":"21:19:34","cor_ans":true},{"trial_type":"html-keyboard-response","rt":null,"stimulus":"<p style=\"color: green; font-size: 50px; font-weight: bold;\">Correct</p>","response":null,"trial_index":206,"plugin_version":"2.1.0","time_elapsed":309925,"subject_id":"92517","group":"Group1","condition":"1_Rep","full_date":"2026-02-09T21:19:34.080Z","date":"2026-02-09","time":"21:19:34"},{"correct_response":"a","task":"test_phase","broad_category":"I","image_png":"I_Basalt_13.png","image_id":29,"category_name":"Basalt","category":2,"distinct_rating":2.68,"distinct_type":"Bottom","item_type":"Foil","rt":727,"stimulus":"Stimuli_Rocks480/I_Basalt_13.png","response":"l","trial_type":"image-keyboard-response","trial_index":207,"plugin_version":"2.1.0","time_elapsed":310654,"subject_id":"92517","group":"Group1","condition":"1_Rep","full_date":"2026-02-09T21:19:34.080Z","date":"2026-02-09","time":"21:19:34","cor_ans":false},{"trial_type":"html-keyboard-response","rt":null,"stimulus":"<p style=\"color: red; font-size: 50px; font-weight: bold;\">Incorrect</p>","response":null,"trial_index":208,"plugin_version":"2.1.0","time_elapsed":311155,"subject_id":"92517","group":"Group1","condition":"1_Rep","full_date":"2026-02-09T21:19:34.080Z","date":"2026-02-09","time":"21:19:34"},{"correct_response":"l","task":"test_phase","broad_category":"I","image_png":"I_Pumice_12.png","image_id":140,"category_name":"Pumice","category":9,"distinct_rating":2.97,"distinct_type":"Bottom","item_type":"Target","rt":1509,"stimulus":"Stimuli_Rocks480/I_Pumice_12.png","response":"a","trial_type":"image-keyboard-response","trial_index":209,"plugin_version":"2.1.0","time_elapsed":312666,"subject_id":"92517","group":"Group1","condition":"1_Rep","full_date":"2026-02-09T21:19:34.080Z","date":"2026-02-09","time":"21:19:34","cor_ans":false},{"trial_type":"html-keyboard-response","rt":null,"stimulus":"<p style=\"color: red; font-size: 50px; font-weight: bold;\">Incorrect</p>","response":null,"trial_index":210,"plugin_version":"2.1.0","time_elapsed":313167,"subject_id":"92517","group":"Group1","condition":"1_Rep","full_date":"2026-02-09T21:19:34.080Z","date":"2026-02-09","time":"21:19:34"},{"correct_response":"l","task":"test_phase","broad_category":"M","image_png":"M_Phyllite_03.png","image_id":259,"category_name":"Phyllite","category":17,"distinct_rating":2.5,"distinct_type":"Bottom","item_type":"Target","rt":1424,"stimulus":"Stimuli_Rocks480/M_Phyllite_03.png","response":"a","trial_type":"image-keyboard-response","trial_index":211,"plugin_version":"2.1.0","time_elapsed":314593,"subject_id":"92517","group":"Group1","condition":"1_Rep","full_date":"2026-02-09T21:19:34.080Z","date":"2026-02-09","time":"21:19:34","cor_ans":false},{"trial_type":"html-keyboard-response","rt":null,"stimulus":"<p style=\"color: red; font-size: 50px; font-weight: bold;\">Incorrect</p>","response":null,"trial_index":212,"plugin_version":"2.1.0","time_elapsed":315095,"subject_id":"92517","group":"Group1","condition":"1_Rep","full_date":"2026-02-09T21:19:34.080Z","date":"2026-02-09","time":"21:19:34"},{"correct_response":"a","task":"test_phase","broad_category":"S","image_png":"S_Rock Salt_15.png","image_id":447,"category_name":"Rock Salt","category":28,"distinct_rating":7.79,"distinct_type":"Top","item_type":"Foil","rt":1050,"stimulus":"Stimuli_Rocks480/S_Rock Salt_15.png","response":"l","trial_type":"image-keyboard-response","trial_index":213,"plugin_version":"2.1.0","time_elapsed":316148,"subject_id":"92517","group":"Group1","condition":"1_Rep","full_date":"2026-02-09T21:19:34.080Z","date":"2026-02-09","time":"21:19:34","cor_ans":false},{"trial_type":"html-keyboard-response","rt":null,"stimulus":"<p style=\"color: red; font-size: 50px; font-weight: bold;\">Incorrect</p>","response":null,"trial_index":214,"plugin_version":"2.1.0","time_elapsed":316649,"subject_id":"92517","group":"Group1","condition":"1_Rep","full_date":"2026-02-09T21:19:34.080Z","date":"2026-02-09","time":"21:19:34"},{"correct_response":"l","task":"test_phase","broad_category":"I","image_png":"I_Gabbro_11.png","image_id":59,"category_name":"Gabbro","category":4,"distinct_rating":1.99,"distinct_type":"Bottom","item_type":"Target","rt":1134,"stimulus":"Stimuli_Rocks480/I_Gabbro_11.png","response":"a","trial_type":"image-keyboard-response","trial_index":215,"plugin_version":"2.1.0","time_elapsed":317785,"subject_id":"92517","group":"Group1","condition":"1_Rep","full_date":"2026-02-09T21:19:34.080Z","date":"2026-02-09","time":"21:19:34","cor_ans":false},{"trial_type":"html-keyboard-response","rt":null,"stimulus":"<p style=\"color: red; font-size: 50px; font-weight: bold;\">Incorrect</p>","response":null,"trial_index":216,"plugin_version":"2.1.0","time_elapsed":318287,"subject_id":"92517","group":"Group1","condition":"1_Rep","full_date":"2026-02-09T21:19:34.080Z","date":"2026-02-09","time":"21:19:34"},{"correct_response":"l","task":"test_phase","broad_category":"S","image_png":"S_Sandstone_03.png","image_id":451,"category_name":"Sandstone","category":29,"distinct_rating":1.86,"distinct_type":"Bottom","item_type":"Target","rt":1186,"stimulus":"Stimuli_Rocks480/S_Sandstone_03.png","response":"l","trial_type":"image-keyboard-response","trial_index":217,"plugin_version":"2.1.0","time_elapsed":319475,"subject_id":"92517","group":"Group1","condition":"1_Rep","full_date":"2026-02-09T21:19:34.080Z","date":"2026-02-09","time":"21:19:34","cor_ans":true},{"trial_type":"html-keyboard-response","rt":null,"stimulus":"<p style=\"color: green; font-size: 50px; font-weight: bold;\">Correct</p>","response":null,"trial_index":218,"plugin_version":"2.1.0","time_elapsed":319976,"subject_id":"92517","group":"Group1","condition":"1_Rep","full_date":"2026-02-09T21:19:34.080Z","date":"2026-02-09","time":"21:19:34"},{"correct_response":"a","task":"test_phase","broad_category":"M","image_png":"M_Slate_10.png","image_id":314,"category_name":"Slate","category":20,"distinct_rating":1.94,"distinct_type":"Bottom","item_type":"Foil","rt":992,"stimulus":"Stimuli_Rocks480/M_Slate_10.png","response":"l","trial_type":"image-keyboard-response","trial_index":219,"plugin_version":"2.1.0","time_elapsed":320969,"subject_id":"92517","group":"Group1","condition":"1_Rep","full_date":"2026-02-09T21:19:34.080Z","date":"2026-02-09","time":"21:19:34","cor_ans":false},{"trial_type":"html-keyboard-response","rt":null,"stimulus":"<p style=\"color: red; font-size: 50px; font-weight: bold;\">Incorrect</p>","response":null,"trial_index":220,"plugin_version":"2.1.0","time_elapsed":321470,"subject_id":"92517","group":"Group1","condition":"1_Rep","full_date":"2026-02-09T21:19:34.080Z","date":"2026-02-09","time":"21:19:34"},{"correct_response":"a","task":"test_phase","broad_category":"I","image_png":"I_Rhyolite_10.png","image_id":154,"category_name":"Rhyolite","category":10,"distinct_rating":2.88,"distinct_type":"Bottom","item_type":"Foil","rt":939,"stimulus":"Stimuli_Rocks480/I_Rhyolite_10.png","response":"a","trial_type":"image-keyboard-response","trial_index":221,"plugin_version":"2.1.0","time_elapsed":322411,"subject_id":"92517","group":"Group1","condition":"1_Rep","full_date":"2026-02-09T21:19:34.080Z","date":"2026-02-09","time":"21:19:34","cor_ans":true},{"trial_type":"html-keyboard-response","rt":null,"stimulus":"<p style=\"color: green; font-size: 50px; font-weight: bold;\">Correct</p>","response":null,"trial_index":222,"plugin_version":"2.1.0","time_elapsed":322913,"subject_id":"92517","group":"Group1","condition":"1_Rep","full_date":"2026-02-09T21:19:34.080Z","date":"2026-02-09","time":"21:19:34"},{"correct_response":"l","task":"test_phase","broad_category":"I","image_png":"I_Diorite_04.png","image_id":36,"category_name":"Diorite","category":3,"distinct_rating":2.98,"distinct_type":"Bottom","item_type":"Target","rt":918,"stimulus":"Stimuli_Rocks480/I_Diorite_04.png","response":"a","trial_type":"image-keyboard-response","trial_index":223,"plugin_version":"2.1.0","time_elapsed":323833,"subject_id":"92517","group":"Group1","condition":"1_Rep","full_date":"2026-02-09T21:19:34.080Z","date":"2026-02-09","time":"21:19:34","cor_ans":false},{"trial_type":"html-keyboard-response","rt":null,"stimulus":"<p style=\"color: red; font-size: 50px; font-weight: bold;\">Incorrect</p>","response":null,"trial_index":224,"plugin_version":"2.1.0","time_elapsed":324336,"subject_id":"92517","group":"Group1","condition":"1_Rep","full_date":"2026-02-09T21:19:34.080Z","date":"2026-02-09","time":"21:19:34"},{"correct_response":"a","task":"test_phase","broad_category":"M","