[{"width":1710,"height":887,"webaudio":true,"browser":"chrome","browser_version":"143.0.0","mobile":false,"os":"Mac OS","fullscreen":true,"vsync_rate":60.01,"webcam":true,"microphone":true,"trial_type":"browser-check","trial_index":0,"plugin_version":"2.1.0","time_elapsed":1017,"subject_id":"93095","group":"Group1","condition":"1_Rep","full_date":"2026-01-27T00:56:08.031Z","date":"2026-01-27","time":"00:56:08"},{"success":true,"timeout":false,"failed_images":[],"failed_audio":[],"failed_video":[],"trial_type":"preload","trial_index":1,"plugin_version":"2.1.0","time_elapsed":111776,"subject_id":"93095","group":"Group1","condition":"1_Rep","full_date":"2026-01-27T00:56:08.031Z","date":"2026-01-27","time":"00:56:08"},{"rt":33025,"url":"SONA_consent_memorability.html","trial_type":"external-html","trial_index":2,"plugin_version":"2.1.0","time_elapsed":145068,"subject_id":"93095","group":"Group1","condition":"1_Rep","full_date":"2026-01-27T00:56:08.031Z","date":"2026-01-27","time":"00:56:08"},{"success":true,"rt":2913,"trial_type":"fullscreen","trial_index":3,"plugin_version":"2.1.0","time_elapsed":148984,"subject_id":"93095","group":"Group1","condition":"1_Rep","full_date":"2026-01-27T00:56:08.031Z","date":"2026-01-27","time":"00:56:08"},{"rt":16043,"stimulus":"<div style=\"max-width: 760px; margin: auto; font-size: 20px; line-height: 1.5;\">\n      <h1 style=\"text-align:center; font-size: 30px;\">Instructions</h1>\n      <p>\n        Welcome to the study on <b>visual memory</b>. This experiment consists of <b>two phases</b>: \n        a <b>study phase</b> and a <b>test phase</b>.\n      </p>\n      <p>\n        In the study phase, you will see a series of rock images along with their category labels.\n        The images will appear one at a time.\n        <b>Your task</b> is to learn the categories to which the rock images belong \n        and to remember each image as accurately as possible.\n      </p> \n      <p>\n        Note that you will see each image only <b>once</b> during the study phase. \n          So, please pay close attention and try to remember each image carefully.\n      </p>\n      <p>\n        After the study phase, <b>your memory will be tested</b>. \n        Additional instructions for the test phase will be provided at that time.\n      </p>\n      <p>\n        If your computer has multiple <b>language settings</b> (e.g., English and another language),\n        please make sure it is set to English before starting.\n      </p>\n      <p>\n        You can track your progress using the <b>completion bar</b> at the top of the screen. \n        Please note that the bar will refresh when the test phase begins \n        to give you an accurate sense of your progress in both phases.\n      </p> \n      <p>\n        Press the button below when you are ready to begin.\n      </p>\n    </div>","response":0,"trial_type":"html-button-response","trial_index":4,"plugin_version":"2.1.0","time_elapsed":165031,"subject_id":"93095","group":"Group1","condition":"1_Rep","full_date":"2026-01-27T00:56:08.031Z","date":"2026-01-27","time":"00:56:08"},{"rt":null,"stimulus":"<p style=\"font-size: 50px; margin: 0; text-align: center;\">+</p>","response":null,"trial_type":"html-keyboard-response","trial_index":5,"plugin_version":"2.1.0","time_elapsed":166034,"subject_id":"93095","group":"Group1","condition":"1_Rep","full_date":"2026-01-27T00:56:08.031Z","date":"2026-01-27","time":"00:56:08"},{"task":"memory_phase","broad_category":"I","image_png":"I_Pumice_12.png","image_id":140,"category_name":"Pumice","category":9,"distinct_rating":2.97,"distinct_type":"Bottom","rt":null,"stimulus":"Stimuli_Rocks480/I_Pumice_12.png","response":null,"trial_type":"image-keyboard-response","trial_index":6,"plugin_version":"2.1.0","time_elapsed":168538,"subject_id":"93095","group":"Group1","condition":"1_Rep","full_date":"2026-01-27T00:56:08.031Z","date":"2026-01-27","time":"00:56:08"},{"rt":null,"stimulus":"<p style=\"font-size: 50px; margin: 0; text-align: center;\">+</p>","response":null,"trial_type":"html-keyboard-response","trial_index":7,"plugin_version":"2.1.0","time_elapsed":169541,"subject_id":"93095","group":"Group1","condition":"1_Rep","full_date":"2026-01-27T00:56:08.031Z","date":"2026-01-27","time":"00:56:08"},{"task":"memory_phase","broad_category":"I","image_png":"I_Rhyolite_16.png","image_id":160,"category_name":"Rhyolite","category":10,"distinct_rating":2.19,"distinct_type":"Bottom","rt":null,"stimulus":"Stimuli_Rocks480/I_Rhyolite_16.png","response":null,"trial_type":"image-keyboard-response","trial_index":8,"plugin_version":"2.1.0","time_elapsed":172046,"subject_id":"93095","group":"Group1","condition":"1_Rep","full_date":"2026-01-27T00:56:08.031Z","date":"2026-01-27","time":"00:56:08"},{"rt":null,"stimulus":"<p style=\"font-size: 50px; margin: 0; text-align: center;\">+</p>","response":null,"trial_type":"html-keyboard-response","trial_index":9,"plugin_version":"2.1.0","time_elapsed":173049,"subject_id":"93095","group":"Group1","condition":"1_Rep","full_date":"2026-01-27T00:56:08.031Z","date":"2026-01-27","time":"00:56:08"},{"task":"memory_phase","broad_category":"I","image_png":"I_Gabbro_11.png","image_id":59,"category_name":"Gabbro","category":4,"distinct_rating":1.99,"distinct_type":"Bottom","rt":null,"stimulus":"Stimuli_Rocks480/I_Gabbro_11.png","response":null,"trial_type":"image-keyboard-response","trial_index":10,"plugin_version":"2.1.0","time_elapsed":175554,"subject_id":"93095","group":"Group1","condition":"1_Rep","full_date":"2026-01-27T00:56:08.031Z","date":"2026-01-27","time":"00:56:08"},{"rt":null,"stimulus":"<p style=\"font-size: 50px; margin: 0; text-align: center;\">+</p>","response":null,"trial_type":"html-keyboard-response","trial_index":11,"plugin_version":"2.1.0","time_elapsed":176556,"subject_id":"93095","group":"Group1","condition":"1_Rep","full_date":"2026-01-27T00:56:08.031Z","date":"2026-01-27","time":"00:56:08"},{"task":"memory_phase","broad_category":"I","image_png":"I_Diorite_05.png","image_id":37,"category_name":"Diorite","category":3,"distinct_rating":3.08,"distinct_type":"Bottom","rt":null,"stimulus":"Stimuli_Rocks480/I_Diorite_05.png","response":null,"trial_type":"image-keyboard-response","trial_index":12,"plugin_version":"2.1.0","time_elapsed":179061,"subject_id":"93095","group":"Group1","condition":"1_Rep","full_date":"2026-01-27T00:56:08.031Z","date":"2026-01-27","time":"00:56:08"},{"rt":null,"stimulus":"<p style=\"font-size: 50px; margin: 0; text-align: center;\">+</p>","response":null,"trial_type":"html-keyboard-response","trial_index":13,"plugin_version":"2.1.0","time_elapsed":180064,"subject_id":"93095","group":"Group1","condition":"1_Rep","full_date":"2026-01-27T00:56:08.031Z","date":"2026-01-27","time":"00:56:08"},{"task":"memory_phase","broad_category":"I","image_png":"I_Gabbro_16.png","image_id":64,"category_name":"Gabbro","category":4,"distinct_rating":2.52,"distinct_type":"Bottom","rt":null,"stimulus":"Stimuli_Rocks480/I_Gabbro_16.png","response":null,"trial_type":"image-keyboard-response","trial_index":14,"plugin_version":"2.1.0","time_elapsed":182568,"subject_id":"93095","group":"Group1","condition":"1_Rep","full_date":"2026-01-27T00:56:08.031Z","date":"2026-01-27","time":"00:56:08"},{"rt":null,"stimulus":"<p style=\"font-size: 50px; margin: 0; text-align: center;\">+</p>","response":null,"trial_type":"html-keyboard-response","trial_index":15,"plugin_version":"2.1.0","time_elapsed":183571,"subject_id":"93095","group":"Group1","condition":"1_Rep","full_date":"2026-01-27T00:56:08.031Z","date":"2026-01-27","time":"00:56:08"},{"task":"memory_phase","broad_category":"I","image_png":"I_Basalt_02.png","image_id":18,"category_name":"Basalt","category":2,"distinct_rating":1.84,"distinct_type":"Bottom","rt":null,"stimulus":"Stimuli_Rocks480/I_Basalt_02.png","response":null,"trial_type":"image-keyboard-response","trial_index":16,"plugin_version":"2.1.0","time_elapsed":186076,"subject_id":"93095","group":"Group1","condition":"1_Rep","full_date":"2026-01-27T00:56:08.031Z","date":"2026-01-27","time":"00:56:08"},{"rt":null,"stimulus":"<p style=\"font-size: 50px; margin: 0; text-align: center;\">+</p>","response":null,"trial_type":"html-keyboard-response","trial_index":17,"plugin_version":"2.1.0","time_elapsed":187079,"subject_id":"93095","group":"Group1","condition":"1_Rep","full_date":"2026-01-27T00:56:08.031Z","date":"2026-01-27","time":"00:56:08"},{"task":"memory_phase","broad_category":"S","image_png":"S_Dolomite_14.png","image_id":398,"category_name":"Dolomite","category":25,"distinct_rating":1.43,"distinct_type":"Bottom","rt":null,"stimulus":"Stimuli_Rocks480/S_Dolomite_14.png","response":null,"trial_type":"image-keyboard-response","trial_index":18,"plugin_version":"2.1.0","time_elapsed":189582,"subject_id":"93095","group":"Group1","condition":"1_Rep","full_date":"2026-01-27T00:56:08.031Z","date":"2026-01-27","time":"00:56:08"},{"rt":null,"stimulus":"<p style=\"font-size: 50px; margin: 0; text-align: center;\">+</p>","response":null,"trial_type":"html-keyboard-response","trial_index":19,"plugin_version":"2.1.0","time_elapsed":190585,"subject_id":"93095","group":"Group1","condition":"1_Rep","full_date":"2026-01-27T00:56:08.031Z","date":"2026-01-27","time":"00:56:08"},{"task":"memory_phase","broad_category":"I","image_png":"I_Diorite_04.png","image_id":36,"category_name":"Diorite","category":3,"distinct_rating":2.98,"distinct_type":"Bottom","rt":null,"stimulus":"Stimuli_Rocks480/I_Diorite_04.png","response":null,"trial_type":"image-keyboard-response","trial_index":20,"plugin_version":"2.1.0","time_elapsed":193090,"subject_id":"93095","group":"Group1","condition":"1_Rep","full_date":"2026-01-27T00:56:08.031Z","date":"2026-01-27","time":"00:56:08"},{"rt":null,"stimulus":"<p style=\"font-size: 50px; margin: 0; text-align: center;\">+</p>","response":null,"trial_type":"html-keyboard-response","trial_index":21,"plugin_version":"2.1.0","time_elapsed":194093,"subject_id":"93095","group":"Group1","condition":"1_Rep","full_date":"2026-01-27T00:56:08.031Z","date":"2026-01-27","time":"00:56:08"},{"task":"memory_phase","broad_category":"S","image_png":"S_Shale_01.png","image_id":465,"category_name":"Shale","category":30,"distinct_rating":2.7,"distinct_type":"Bottom","rt":null,"stimulus":"Stimuli_Rocks480/S_Shale_01.png","response":null,"trial_type":"image-keyboard-response","trial_index":22,"plugin_version":"2.1.0","time_elapsed":196597,"subject_id":"93095","group":"Group1","condition":"1_Rep","full_date":"2026-01-27T00:56:08.031Z","date":"2026-01-27","time":"00:56:08"},{"rt":null,"stimulus":"<p style=\"font-size: 50px; margin: 0; text-align: center;\">+</p>","response":null,"trial_type":"html-keyboard-response","trial_index":23,"plugin_version":"2.1.0","time_elapsed":197600,"subject_id":"93095","group":"Group1","condition":"1_Rep","full_date":"2026-01-27T00:56:08.031Z","date":"2026-01-27","time":"00:56:08"},{"task":"memory_phase","broad_category":"I","image_png":"I_Rhyolite_14.png","image_id":158,"category_name":"Rhyolite","category":10,"distinct_rating":2.59,"distinct_type":"Bottom","rt":null,"stimulus":"Stimuli_Rocks480/I_Rhyolite_14.png","response":null,"trial_type":"image-keyboard-response","trial_index":24,"plugin_version":"2.1.0","time_elapsed":200104,"subject_id":"93095","group":"Group1","condition":"1_Rep","full_date":"2026-01-27T00:56:08.031Z","date":"2026-01-27","time":"00:56:08"},{"rt":null,"stimulus":"<p style=\"font-size: 50px; margin: 0; text-align: center;\">+</p>","response":null,"trial_type":"html-keyboard-response","trial_index":25,"plugin_version":"2.1.0","time_elapsed":201107,"subject_id":"93095","group":"Group1","condition":"1_Rep","full_date":"2026-01-27T00:56:08.031Z","date":"2026-01-27","time":"00:56:08"},{"task":"memory_phase","broad_category":"I","image_png":"I_Basalt_01.png","image_id":17,"category_name":"Basalt","category":2,"distinct_rating":1.92,"distinct_type":"Bottom","rt":null,"stimulus":"Stimuli_Rocks480/I_Basalt_01.png","response":null,"trial_type":"image-keyboard-response","trial_index":26,"plugin_version":"2.1.0","time_elapsed":203611,"subject_id":"93095","group":"Group1","condition":"1_Rep","full_date":"2026-01-27T00:56:08.031Z","date":"2026-01-27","time":"00:56:08"},{"rt":null,"stimulus":"<p style=\"font-size: 50px; margin: 0; text-align: center;\">+</p>","response":null,"trial_type":"html-keyboard-response","trial_index":27,"plugin_version":"2.1.0","time_elapsed":204614,"subject_id":"93095","group":"Group1","condition":"1_Rep","full_date":"2026-01-27T00:56:08.031Z","date":"2026-01-27","time":"00:56:08"},{"task":"memory_phase","broad_category":"M","image_png":"M_Quartzite_08.png","image_id":280,"category_name":"Quartzite","category":18,"distinct_rating":2.15,"distinct_type":"Bottom","rt":null,"stimulus":"Stimuli_Rocks480/M_Quartzite_08.png","response":null,"trial_type":"image-keyboard-response","trial_index":28,"plugin_version":"2.1.0","time_elapsed":207123,"subject_id":"93095","group":"Group1","condition":"1_Rep","full_date":"2026-01-27T00:56:08.031Z","date":"2026-01-27","time":"00:56:08"},{"rt":null,"stimulus":"<p style=\"font-size: 50px; margin: 0; text-align: center;\">+</p>","response":null,"trial_type":"html-keyboard-response","trial_index":29,"plugin_version":"2.1.0","time_elapsed":208126,"subject_id":"93095","group":"Group1","condition":"1_Rep","full_date":"2026-01-27T00:56:08.031Z","date":"2026-01-27","time":"00:56:08"},{"task":"memory_phase","broad_category":"M","image_png":"M_Slate_03.png","image_id":307,"category_name":"Slate","category":20,"distinct_rating":1.87,"distinct_type":"Bottom","rt":null,"stimulus":"Stimuli_Rocks480/M_Slate_03.png","response":null,"trial_type":"image-keyboard-response","trial_index":30,"plugin_version":"2.1.0","time_elapsed":210630,"subject_id":"93095","group":"Group1","condition":"1_Rep","full_date":"2026-01-27T00:56:08.031Z","date":"2026-01-27","time":"00:56:08"},{"rt":null,"stimulus":"<p style=\"font-size: 50px; margin: 0; text-align: center;\">+</p>","response":null,"trial_type":"html-keyboard-response","trial_index":31,"plugin_version":"2.1.0","time_elapsed":211633,"subject_id":"93095","group":"Group1","condition":"1_Rep","full_date":"2026-01-27T00:56:08.031Z","date":"2026-01-27","time":"00:56:08"},{"task":"memory_phase","broad_category":"S","image_png":"S_Rock Gypsum_04.png","image_id":420,"category_name":"Rock Gypsum","category":27,"distinct_rating":7.61,"distinct_type":"Top","rt":null,"stimulus":"Stimuli_Rocks480/S_Rock Gypsum_04.png","response":null,"trial_type":"image-keyboard-response","trial_index":32,"plugin_version":"2.1.0","time_elapsed":214137,"subject_id":"93095","group":"Group1","condition":"1_Rep","full_date":"2026-01-27T00:56:08.031Z","date":"2026-01-27","time":"00:56:08"},{"rt":null,"stimulus":"<p style=\"font-size: 50px; margin: 0; text-align: center;\">+</p>","response":null,"trial_type":"html-keyboard-response","trial_index":33,"plugin_version":"2.1.0","time_elapsed":215140,"subject_id":"93095","group":"Group1","condition":"1_Rep","full_date":"2026-01-27T00:56:08.031Z","date":"2026-01-27","time":"00:56:08"},{"task":"memory_phase","broad_category":"I","image_png":"I_Diorite_03.png","image_id":35,"category_name":"Diorite","category":3,"distinct_rating":3.14,"distinct_type":"Bottom","rt":null,"stimulus":"Stimuli_Rocks480/I_Diorite_03.png","response":null,"trial_type":"image-keyboard-response","trial_index":34,"plugin_version":"2.1.0","time_elapsed":217643,"subject_id":"93095","group":"Group1","condition":"1_Rep","full_date":"2026-01-27T00:56:08.031Z","date":"2026-01-27","time":"00:56:08"},{"rt":null,"stimulus":"<p style=\"font-size: 50px; margin: 0; text-align: center;\">+</p>","response":null,"trial_type":"html-keyboard-response","trial_index":35,"plugin_version":"2.1.0","time_elapsed":218646,"subject_id":"93095","group":"Group1","condition":"1_Rep","full_date":"2026-01-27T00:56:08.031Z","date":"2026-01-27","time":"00:56:08"},{"task":"memory_phase","broad_category":"S","image_png":"S_Shale_12.png","image_id":476,"category_name":"Shale","category":30,"distinct_rating":2.48,"distinct_type":"Bottom","rt":null,"stimulus":"Stimuli_Rocks480/S_Shale_12.png","response":null,"trial_type":"image-keyboard-response","trial_index":36,"plugin_version":"2.1.0","time_elapsed":221150,"subject_id":"93095","group":"Group1","condition":"1_Rep","full_date":"2026-01-27T00:56:08.031Z","date":"2026-01-27","time":"00:56:08"},{"rt":null,"stimulus":"<p style=\"font-size: 50px; margin: 0; text-align: center;\">+</p>","response":null,"trial_type":"html-keyboard-response","trial_index":37,"plugin_version":"2.1.0","time_elapsed":222152,"subject_id":"93095","group":"Group1","condition":"1_Rep","full_date":"2026-01-27T00:56:08.031Z","date":"2026-01-27","time":"00:56:08"},{"task":"memory_phase","broad_category":"M","image_png":"M_Marble_16.png","image_id":240,"category_name":"Marble","category":15,"distinct_rating":2.57,"distinct_type":"Bottom","rt":null,"stimulus":"Stimuli_Rocks480/M_Marble_16.png","response":null,"trial_type":"image-keyboard-response","trial_index":38,"plugin_version":"2.1.0","time_elapsed":224655,"subject_id":"93095","group":"Group1","condition":"1_Rep","full_date":"2026-01-27T00:56:08.031Z","date":"2026-01-27","time":"00:56:08"},{"rt":null,"stimulus":"<p style=\"font-size: 50px; margin: 0; text-align: center;\">+</p>","response":null,"trial_type":"html-keyboard-response","trial_index":39,"plugin_version":"2.1.0","time_elapsed":225658,"subject_id":"93095","group":"Group1","condition":"1_Rep","full_date":"2026-01-27T00:56:08.031Z","date":"2026-01-27","time":"00:56:08"},{"task":"memory_phase","broad_category":"M","image_png":"M_Phyllite_10.png","image_id":266,"category_name":"Phyllite","category":17,"distinct_rating":2.6,"distinct_type":"Bottom","rt":null,"stimulus":"Stimuli_Rocks480/M_Phyllite_10.png","response":null,"trial_type":"image-keyboard-response","trial_index":40,"plugin_version":"2.1.0","time_elapsed":228162,"subject_id":"93095","group":"Group1","condition":"1_Rep","full_date":"2026-01-27T00:56:08.031Z","date":"2026-01-27","time":"00:56:08"},{"rt":null,"stimulus":"<p style=\"font-size: 50px; margin: 0; text-align: center;\">+</p>","response":null,"trial_type":"html-keyboard-response","trial_index":41,"plugin_version":"2.1.0","time_elapsed":229165,"subject_id":"93095","group":"Group1","condition":"1_Rep","full_date":"2026-01-27T00:56:08.031Z","date":"2026-01-27","time":"00:56:08"},{"task":"memory_phase","broad_category":"I","image_png":"I_Andesite_06.png","image_id":6,"category_name":"Andesite","category":1,"distinct_rating":3.17,"distinct_type":"Bottom","rt":null,"stimulus":"Stimuli_Rocks480/I_Andesite_06.png","response":null,"trial_type":"image-keyboard-response","trial_index":42,"plugin_version":"2.1.0","time_elapsed":231669,"subject_id":"93095","group":"Group1","condition":"1_Rep","full_date":"2026-01-27T00:56:08.031Z","date":"2026-01-27","time":"00:56:08"},{"rt":null,"stimulus":"<p style=\"font-size: 50px; margin: 0; text-align: center;\">+</p>","response":null,"trial_type":"html-keyboard-response","trial_index":43,"plugin_version":"2.1.0","time_elapsed":232671,"subject_id":"93095","group":"Group1","condition":"1_Rep","full_date":"2026-01-27T00:56:08.031Z","date":"2026-01-27","time":"00:56:08"},{"task":"memory_phase","broad_category":"M","image_png":"M_Gneiss_05.png","image_id":197,"category_name":"Gneiss","category":13,"distinct_rating":2.97,"distinct_type":"Bottom","rt":null,"stimulus":"Stimuli_Rocks480/M_Gneiss_05.png","response":null,"trial_type":"image-keyboard-response","trial_index":44,"plugin_version":"2.1.0","time_elapsed":235175,"subject_id":"93095","group":"Group1","condition":"1_Rep","full_date":"2026-01-27T00:56:08.031Z","date":"2026-01-27","time":"00:56:08"},{"rt":null,"stimulus":"<p style=\"font-size: 50px; margin: 0; text-align: center;\">+</p>","response":null,"trial_type":"html-keyboard-response","trial_index":45,"plugin_version":"2.1.0","time_elapsed":236178,"subject_id":"93095","group":"Group1","condition":"1_Rep","full_date":"2026-01-27T00:56:08.031Z","date":"2026-01-27","time":"00:56:08"},{"task":"memory_phase","broad_category":"I","image_png":"I_Pegmatite_10.png","image_id":106,"category_name":"Pegmatite","category":7,"distinct_rating":7.66,"distinct_type":"Top","rt":null,"stimulus":"Stimuli_Rocks480/I_Pegmatite_10.png","response":null,"trial_type":"image-keyboard-response","trial_index":46,"plugin_version":"2.1.0","time_elapsed":238682,"subject_id":"93095","group":"Group1","condition":"1_Rep","full_date":"2026-01-27T00:56:08.031Z","date":"2026-01-27","time":"00:56:08"},{"rt":null,"stimulus":"<p style=\"font-size: 50px; margin: 0; text-align: center;\">+</p>","response":null,"trial_type":"html-keyboard-response","trial_index":47,"plugin_version":"2.1.0","time_elapsed":239684,"subject_id":"93095","group":"Group1","condition":"1_Rep","full_date":"2026-01-27T00:56:08.031Z","date":"2026-01-27","time":"00:56:08"},{"task":"memory_phase","broad_category":"I","image_png":"I_Rhyolite_11.png","image_id":155,"category_name":"Rhyolite","category":10,"distinct_rating":1.73,"distinct_type":"Bottom","rt":null,"stimulus":"Stimuli_Rocks480/I_Rhyolite_11.png","response":null,"trial_type":"image-keyboard-response","trial_index":48,"plugin_version":"2.1.0","time_elapsed":242188,"subject_id":"93095","group":"Group1","condition":"1_Rep","full_date":"2026-01-27T00:56:08.031Z","date":"2026-01-27","time":"00:56:08"},{"rt":null,"stimulus":"<p style=\"font-size: 50px; margin: 0; text-align: center;\">+</p>","response":null,"trial_type":"html-keyboard-response","trial_index":49,"plugin_version":"2.1.0","time_elapsed":243191,"subject_id":"93095","group":"Group1","condition":"1_Rep","full_date":"2026-01-27T00:56:08.031Z","date":"2026-01-27","time":"00:56:08"},{"task":"memory_phase","broad_category":"S","image_png":"S_Shale_08.png","image_id":472,"category_name":"Shale","category":30,"distinct_rating":2.55,"distinct_type":"Bottom","rt":null,"stimulus":"Stimuli_Rocks480/S_Shale_08.png","response":null,"trial_type":"image-keyboard-response","trial_index":50,"plugin_version":"2.1.0","time_elapsed":245695,"subject_id":"93095","group":"Group1","condition":"1_Rep","full_date":"2026-01-27T00:56:08.031Z","date":"2026-01-27","time":"00:56:08"},{"rt":null,"stimulus":"<p style=\"font-size: 50px; margin: 0; text-align: center;\">+</p>","response":null,"trial_type":"html-keyboard-response","trial_index":51,"plugin_version":"2.1.0","time_elapsed":246697,"subject_id":"93095","group":"Group1","condition":"1_Rep","full_date":"2026-01-27T00:56:08.031Z","date":"2026-01-27","time":"00:56:08"},{"task":"memory_phase","broad_category":"S","image_png":"S_Conglomerate_05.png","image_id":373,"category_name":"Conglomerate","category":24,"distinct_rating":7.32,"distinct_type":"Top","rt":null,"stimulus":"Stimuli_Rocks480/S_Conglomerate_05.png","response":null,"trial_type":"image-keyboard-response","trial_index":52,"plugin_version":"2.1.0","time_elapsed":249201,"subject_id":"93095","group":"Group1","condition":"1_Rep","full_date":"2026-01-27T00:56:08.031Z","date":"2026-01-27","time":"00:56:08"},{"rt":null,"stimulus":"<p style=\"font-size: 50px; margin: 0; text-align: center;\">+</p>","response":null,"trial_type":"html-keyboard-response","trial_index":53,"plugin_version":"2.1.0","time_elapsed":250204,"subject_id":"93095","group":"Group1","condition":"1_Rep","full_date":"2026-01-27T00:56:08.031Z","date":"2026-01-27","time":"00:56:08"},{"task":"memory_phase","broad_category":"M","image_png":"M_Marble_04.png","image_id":228,"category_name":"Marble","category":15,"distinct_rating":3.15,"distinct_type":"Bottom","rt":null,"stimulus":"Stimuli_Rocks480/M_Marble_04.png","response":null,"trial_type":"image-keyboard-response","trial_index":54,"plugin_version":"2.1.0","time_elapsed":252708,"subject_id":"93095","group":"Group1","condition":"1_Rep","full_date":"2026-01-27T00:56:08.031Z","date":"2026-01-27","time":"00:56:08"},{"rt":1636,"stimulus":"<p style=\"max-width: 760px; margin: auto; font-size: 35px; line-height: 1.5;\">\n                Press SPACE to continue study phase\n              </p>","response":" ","trial_type":"html-keyboard-response","trial_index":55,"plugin_version":"2.1.0","time_elapsed":254346,"subject_id":"93095","group":"Group1","condition":"1_Rep","full_date":"2026-01-27T00:56:08.031Z","date":"2026-01-27","time":"00:56:08"},{"rt":null,"stimulus":"<p style=\"font-size: 50px; margin: 0; text-align: center;\">+</p>","response":null,"trial_type":"html-keyboard-response","trial_index":56,"plugin_version":"2.1.0","time_elapsed":255348,"subject_id":"93095","group":"Group1","condition":"1_Rep","full_date":"2026-01-27T00:56:08.031Z","date":"2026-01-27","time":"00:56:08"},{"task":"memory_phase","broad_category":"M","image_png":"M_Marble_06.png","image_id":230,"category_name":"Marble","category":15,"distinct_rating":3.4,"distinct_type":"Bottom","rt":null,"stimulus":"Stimuli_Rocks480/M_Marble_06.png","response":null,"trial_type":"image-keyboard-response","trial_index":57,"plugin_version":"2.1.0","time_elapsed":257852,"subject_id":"93095","group":"Group1","condition":"1_Rep","full_date":"2026-01-27T00:56:08.031Z","date":"2026-01-27","time":"00:56:08"},{"rt":null,"stimulus":"<p style=\"font-size: 50px; margin: 0; text-align: center;\">+</p>","response":null,"trial_type":"html-keyboard-response","trial_index":58,"plugin_version":"2.1.0","time_elapsed":258855,"subject_id":"93095","group":"Group1","condition":"1_Rep","full_date":"2026-01-27T00:56:08.031Z","date":"2026-01-27","time":"00:56:08"},{"task":"memory_phase","broad_category":"S","image_png":"S_Dolomite_12.png","image_id":396,"category_name":"Dolomite","category":25,"distinct_rating":1.85,"distinct_type":"Bottom","rt":null,"stimulus":"Stimuli_Rocks480/S_Dolomite_12.png","response":null,"trial_type":"image-keyboard-response","trial_index":59,"plugin_version":"2.1.0","time_elapsed":261359,"subject_id":"93095","group":"Group1","condition":"1_Rep","full_date":"2026-01-27T00:56:08.031Z","date":"2026-01-27","time":"00:56:08"},{"rt":null,"stimulus":"<p style=\"font-size: 50px; margin: 0; text-align: center;\">+</p>","response":null,"trial_type":"html-keyboard-response","trial_index":60,"plugin_version":"2.1.0","time_elapsed":262362,"subject_id":"93095","group":"Group1","condition":"1_Rep","full_date":"2026-01-27T00:56:08.031Z","date":"2026-01-27","time":"00:56:08"},{"task":"memory_phase","broad_category":"M","image_png":"M_Slate_11.png","image_id":315,"category_name":"Slate","category":20,"distinct_rating":2.75,"distinct_type":"Bottom","rt":null,"stimulus":"Stimuli_Rocks480/M_Slate_11.png","response":null,"trial_type":"image-keyboard-response","trial_index":61,"plugin_version":"2.1.0","time_elapsed":264866,"subject_id":"93095","group":"Group1","condition":"1_Rep","full_date":"2026-01-27T00:56:08.031Z","date":"2026-01-27","time":"00:56:08"},{"rt":null,"stimulus":"<p style=\"font-size: 50px; margin: 0; text-align: center;\">+</p>","response":null,"trial_type":"html-keyboard-response","trial_index":62,"plugin_version":"2.1.0","time_elapsed":265869,"subject_id":"93095","group":"Group1","condition":"1_Rep","full_date":"2026-01-27T00:56:08.031Z","date":"2026-01-27","time":"00:56:08"},{"task":"memory_phase","broad_category":"I","image_png":"I_Basalt_09.png","image_id":25,"category_name":"Basalt","category":2,"distinct_rating":1.89,"distinct_type":"Bottom","rt":null,"stimulus":"Stimuli_Rocks480/I_Basalt_09.png","response":null,"trial_type":"image-keyboard-response","trial_index":63,"plugin_version":"2.1.0","time_elapsed":268372,"subject_id":"93095","group":"Group1","condition":"1_Rep","full_date":"2026-01-27T00:56:08.031Z","date":"2026-01-27","time":"00:56:08"},{"rt":null,"stimulus":"<p style=\"font-size: 50px; margin: 0; text-align: center;\">+</p>","response":null,"trial_type":"html-keyboard-response","trial_index":64,"plugin_version":"2.1.0","time_elapsed":269375,"subject_id":"93095","group":"Group1","condition":"1_Rep","full_date":"2026-01-27T00:56:08.031Z","date":"2026-01-27","time":"00:56:08"},{"task":"memory_phase","broad_category":"I","image_png":"I_Andesite_10.png","image_id":10,"category_name":"Andesite","category":1,"distinct_rating":3.15,"distinct_type":"Bottom","rt":null,"stimulus":"Stimuli_Rocks480/I_Andesite_10.png","response":null,"trial_type":"image-keyboard-response","trial_index":65,"plugin_version":"2.1.0","time_elapsed":271879,"subject_id":"93095","group":"Group1","condition":"1_Rep","full_date":"2026-01-27T00:56:08.031Z","date":"2026-01-27","time":"00:56:08"},{"rt":null,"stimulus":"<p style=\"font-size: 50px; margin: 0; text-align: center;\">+</p>","response":null,"trial_type":"html-keyboard-response","trial_index":66,"plugin_version":"2.1.0","time_elapsed":272882,"subject_id":"93095","group":"Group1","condition":"1_Rep","full_date":"2026-01-27T00:56:08.031Z","date":"2026-01-27","time":"00:56:08"},{"task":"memory_phase","broad_category":"S","image_png":"S_Breccia_11.png","image_id":347,"category_name":"Breccia","category":22,"distinct_rating":6.7,"distinct_type":"Top","rt":null,"stimulus":"Stimuli_Rocks480/S_Breccia_11.png","response":null,"trial_type":"image-keyboard-response","trial_index":67,"plugin_version":"2.1.0","time_elapsed":275386,"subject_id":"93095","group":"Group1","condition":"1_Rep","full_date":"2026-01-27T00:56:08.031Z","date":"2026-01-27","time":"00:56:08"},{"rt":null,"stimulus":"<p style=\"font-size: 50px; margin: 0; text-align: center;\">+</p>","response":null,"trial_type":"html-keyboard-response","trial_index":68,"plugin_version":"2.1.0","time_elapsed":276389,"subject_id":"93095","group":"Group1","condition":"1_Rep","full_date":"2026-01-27T00:56:08.031Z","date":"2026-01-27","time":"00:56:08"},{"task":"memory_phase","broad_category":"S","image_png":"S_Rock Salt_01.png","image_id":433,"category_name":"Rock Salt","category":28,"distinct_rating":7.18,"distinct_type":"Top","rt":null,"stimulus":"Stimuli_Rocks480/S_Rock Salt_01.png","response":null,"trial_type":"image-keyboard-response","trial_index":69,"plugin_version":"2.1.0","time_elapsed":278892,"subject_id":"93095","group":"Group1","condition":"1_Rep","full_date":"2026-01-27T00:56:08.031Z","date":"2026-01-27","time":"00:56:08"},{"rt":null,"stimulus":"<p style=\"font-size: 50px; margin: 0; text-align: center;\">+</p>","response":null,"trial_type":"html-keyboard-response","trial_index":70,"plugin_version":"2.1.0","time_elapsed":279895,"subject_id":"93095","group":"Group1","condition":"1_Rep","full_date":"2026-01-27T00:56:08.031Z","date":"2026-01-27","time":"00:56:08"},{"task":"memory_phase","broad_category":"S","image_png":"S_Chert_10.png","image_id":362,"category_name":"Chert","category":23,"distinct_rating":7.17,"distinct_type":"Top","rt":null,"stimulus":"Stimuli_Rocks480/S_Chert_10.png","response":null,"trial_type":"image-keyboard-response","trial_index":71,"plugin_version":"2.1.0","time_elapsed":282399,"subject_id":"93095","group":"Group1","condition":"1_Rep","full_date":"2026-01-27T00:56:08.031Z","date":"2026-01-27","time":"00:56:08"},{"rt":null,"stimulus":"<p style=\"font-size: 50px; margin: 0; text-align: center;\">+</p>","response":null,"trial_type":"html-keyboard-response","trial_index":72,"plugin_version":"2.1.0","time_elapsed":283401,"subject_id":"93095","group":"Group1","condition":"1_Rep","full_date":"2026-01-27T00:56:08.031Z","date":"2026-01-27","time":"00:56:08"},{"task":"memory_phase","broad_category":"M","image_png":"M_Phyllite_03.png","image_id":259,"category_name":"Phyllite","category":17,"distinct_rating":2.5,"distinct_type":"Bottom","rt":null,"stimulus":"Stimuli_Rocks480/M_Phyllite_03.png","response":null,"trial_type":"image-keyboard-response","trial_index":73,"plugin_version":"2.1.0","time_elapsed":285905,"subject_id":"93095","group":"Group1","condition":"1_Rep","full_date":"2026-01-27T00:56:08.031Z","date":"2026-01-27","time":"00:56:08"},{"rt":null,"stimulus":"<p style=\"font-size: 50px; margin: 0; text-align: center;\">+</p>","response":null,"trial_type":"html-keyboard-response","trial_index":74,"plugin_version":"2.1.0","time_elapsed":286908,"subject_id":"93095","group":"Group1","condition":"1_Rep","full_date":"2026-01-27T00:56:08.031Z","date":"2026-01-27","time":"00:56:08"},{"task":"memory_phase","broad_category":"I","image_png":"I_Andesite_08.png","image_id":8,"category_name":"Andesite","category":1,"distinct_rating":1.95,"distinct_type":"Bottom","rt":null,"stimulus":"Stimuli_Rocks480/I_Andesite_08.png","response":null,"trial_type":"image-keyboard-response","trial_index":75,"plugin_version":"2.1.0","time_elapsed":289412,"subject_id":"93095","group":"Group1","condition":"1_Rep","full_date":"2026-01-27T00:56:08.031Z","date":"2026-01-27","time":"00:56:08"},{"rt":null,"stimulus":"<p style=\"font-size: 50px; margin: 0; text-align: center;\">+</p>","response":null,"trial_type":"html-keyboard-response","trial_index":76,"plugin_version":"2.1.0","time_elapsed":290415,"subject_id":"93095","group":"Group1","condition":"1_Rep","full_date":"2026-01-27T00:56:08.031Z","date":"2026-01-27","time":"00:56:08"},{"task":"memory_phase","broad_category":"I","image_png":"I_Pumice_11.png","image_id":139,"category_name":"Pumice","category":9,"distinct_rating":1.74,"distinct_type":"Bottom","rt":null,"stimulus":"Stimuli_Rocks480/I_Pumice_11.png","response":null,"trial_type":"image-keyboard-response","trial_index":77,"plugin_version":"2.1.0","time_elapsed":292919,"subject_id":"93095","group":"Group1","condition":"1_Rep","full_date":"2026-01-27T00:56:08.031Z","date":"2026-01-27","time":"00:56:08"},{"rt":null,"stimulus":"<p style=\"font-size: 50px; margin: 0; text-align: center;\">+</p>","response":null,"trial_type":"html-keyboard-response","trial_index":78,"plugin_version":"2.1.0","time_elapsed":293922,"subject_id":"93095","group":"Group1","condition":"1_Rep","full_date":"2026-01-27T00:56:08.031Z","date":"2026-01-27","time":"00:56:08"},{"task":"memory_phase","broad_category":"I","image_png":"I_Gabbro_08.png","image_id":56,"category_name":"Gabbro","category":4,"distinct_rating":3.02,"distinct_type":"Bottom","rt":null,"stimulus":"Stimuli_Rocks480/I_Gabbro_08.png","response":null,"trial_type":"image-keyboard-response","trial_index":79,"plugin_version":"2.1.0","time_elapsed":296427,"subject_id":"93095","group":"Group1","condition":"1_Rep","full_date":"2026-01-27T00:56:08.031Z","date":"2026-01-27","time":"00:56:08"},{"rt":null,"stimulus":"<p style=\"font-size: 50px; margin: 0; text-align: center;\">+</p>","response":null,"trial_type":"html-keyboard-response","trial_index":80,"plugin_version":"2.1.0","time_elapsed":297430,"subject_id":"93095","group":"Group1","condition":"1_Rep","full_date":"2026-01-27T00:56:08.031Z","date":"2026-01-27","time":"00:56:08"},{"task":"memory_phase","broad_category":"I","image_png":"I_Pumice_08.png","image_id":136,"category_name":"Pumice","category":9,"distinct_rating":3.1,"distinct_type":"Bottom","rt":null,"stimulus":"Stimuli_Rocks480/I_Pumice_08.png","response":null,"trial_type":"image-keyboard-response","trial_index":81,"plugin_version":"2.1.0","time_elapsed":299934,"subject_id":"93095","group":"Group1","condition":"1_Rep","full_date":"2026-01-27T00:56:08.031Z","date":"2026-01-27","time":"00:56:08"},{"rt":null,"stimulus":"<p style=\"font-size: 50px; margin: 0; text-align: center;\">+</p>","response":null,"trial_type":"html-keyboard-response","trial_index":82,"plugin_version":"2.1.0","time_elapsed":300936,"subject_id":"93095","group":"Group1","condition":"1_Rep","full_date":"2026-01-27T00:56:08.031Z","date":"2026-01-27","time":"00:56:08"},{"task":"memory_phase","broad_category":"M","image_png":"M_Gneiss_13.png","image_id":205,"category_name":"Gneiss","category":13,"distinct_rating":3.26,"distinct_type":"Bottom","rt":null,"stimulus":"Stimuli_Rocks480/M_Gneiss_13.png","response":null,"trial_type":"image-keyboard-response","trial_index":83,"plugin_version":"2.1.0","time_elapsed":303440,"subject_id":"93095","group":"Group1","condition":"1_Rep","full_date":"2026-01-27T00:56:08.031Z","date":"2026-01-27","time":"00:56:08"},{"rt":null,"stimulus":"<p style=\"font-size: 50px; margin: 0; text-align: center;\">+</p>","response":null,"trial_type":"html-keyboard-response","trial_index":84,"plugin_version":"2.1.0","time_elapsed":304443,"subject_id":"93095","group":"Group1","condition":"1_Rep","full_date":"2026-01-27T00:56:08.031Z","date":"2026-01-27","time":"00:56:08"},{"task":"memory_phase","broad_category":"S","image_png":"S_Dolomite_13.png","image_id":397,"category_name":"Dolomite","category":25,"distinct_rating":1.77,"distinct_type":"Bottom","rt":null,"stimulus":"Stimuli_Rocks480/S_Dolomite_13.png","response":null,"trial_type":"image-keyboard-response","trial_index":85,"plugin_version":"2.1.0","time_elapsed":306946,"subject_id":"93095","group":"Group1","condition":"1_Rep","full_date":"2026-01-27T00:56:08.031Z","date":"2026-01-27","time":"00:56:08"},{"rt":null,"stimulus":"<p style=\"font-size: 50px; margin: 0; text-align: center;\">+</p>","response":null,"trial_type":"html-keyboard-response","trial_index":86,"plugin_version":"2.1.0","time_elapsed":307949,"subject_id":"93095","group":"Group1","condition":"1_Rep","full_date":"2026-01-27T00:56:08.031Z","date":"2026-01-27","time":"00:56:08"},{"task":"memory_phase","broad_category":"I","image_png":"I_Pegmatite_16.png","image_id":112,"category_name":"Pegmatite","category":7,"distinct_rating":7.03,"distinct_type":"Top","rt":null,"stimulus":"Stimuli_Rocks480/I_Pegmatite_16.png","response":null,"trial_type":"image-keyboard-response","trial_index":87,"plugin_version":"2.1.0","time_elapsed":310453,"subject_id":"93095","group":"Group1","condition":"1_Rep","full_date":"2026-01-27T00:56:08.031Z","date":"2026-01-27","time":"00:56:08"},{"rt":null,"stimulus":"<p style=\"font-size: 50px; margin: 0; text-align: center;\">+</p>","response":null,"trial_type":"html-keyboard-response","trial_index":88,"plugin_version":"2.1.0","time_elapsed":311455,"subject_id":"93095","group":"Group1","condition":"1_Rep","full_date":"2026-01-27T00:56:08.031Z","date":"2026-01-27","time":"00:56:08"},{"task":"memory_phase","broad_category":"M","image_png":"M_Gneiss_06.png","image_id":198,"category_name":"Gneiss","category":13,"distinct_rating":2.65,"distinct_type":"Bottom","rt":null,"stimulus":"Stimuli_Rocks480/M_Gneiss_06.png","response":null,"trial_type":"image-keyboard-response","trial_index":89,"plugin_version":"2.1.0","time_elapsed":313959,"subject_id":"93095","group":"Group1","condition":"1_Rep","full_date":"2026-01-27T00:56:08.031Z","date":"2026-01-27","time":"00:56:08"},{"rt":null,"stimulus":"<p style=\"font-size: 50px; margin: 0; text-align: center;\">+</p>","response":null,"trial_type":"html-keyboard-response","trial_index":90,"plugin_version":"2.1.0","time_elapsed":314962,"subject_id":"93095","group":"Group1","condition":"1_Rep","full_date":"2026-01-27T00:56:08.031Z","date":"2026-01-27","time":"00:56:08"},{"task":"memory_phase","broad_category":"M","image_png":"M_Slate_15.png","image_id":319,"category_name":"Slate","category":20,"distinct_rating":2.13,"distinct_type":"Bottom","rt":null,"stimulus":"Stimuli_Rocks480/M_Slate_15.png","response":null,"trial_type":"image-keyboard-response","trial_index":91,"plugin_version":"2.1.0","time_elapsed":317466,"subject_id":"93095","group":"Group1","condition":"1_Rep","full_date":"2026-01-27T00:56:08.031Z","date":"2026-01-27","time":"00:56:08"},{"rt":null,"stimulus":"<p style=\"font-size: 50px; margin: 0; text-align: center;\">+</p>","response":null,"trial_type":"html-keyboard-response","trial_index":92,"plugin_version":"2.1.0","time_elapsed":318468,"subject_id":"93095","group":"Group1","condition":"1_Rep","full_date":"2026-01-27T00:56:08.031Z","date":"2026-01-27","time":"00:56:08"},{"task":"memory_phase","broad_category":"M","image_png":"M_Quartzite_05.png","image_id":277,"category_name":"Quartzite","category":18,"distinct_rating":2.23,"distinct_type":"Bottom","rt":null,"stimulus":"Stimuli_Rocks480/M_Quartzite_05.png","response":null,"trial_type":"image-keyboard-response","trial_index":93,"plugin_version":"2.1.0","time_elapsed":320972,"subject_id":"93095","group":"Group1","condition":"1_Rep","full_date":"2026-01-27T00:56:08.031Z","date":"2026-01-27","time":"00:56:08"},{"rt":null,"stimulus":"<p style=\"font-size: 50px; margin: 0; text-align: center;\">+</p>","response":null,"trial_type":"html-keyboard-response","trial_index":94,"plugin_version":"2.1.0","time_elapsed":321975,"subject_id":"93095","group":"Group1","condition":"1_Rep","full_date":"2026-01-27T00:56:08.031Z","date":"2026-01-27","time":"00:56:08"},{"task":"memory_phase","broad_category":"M","image_png":"M_Phyllite_07.png","image_id":263,"category_name":"Phyllite","category":17,"distinct_rating":2.59,"distinct_type":"Bottom","rt":null,"stimulus":"Stimuli_Rocks480/M_Phyllite_07.png","response":null,"trial_type":"image-keyboard-response","trial_index":95,"plugin_version":"2.1.0","time_elapsed":324479,"subject_id":"93095","group":"Group1","condition":"1_Rep","full_date":"2026-01-27T00:56:08.031Z","date":"2026-01-27","time":"00:56:08"},{"rt":null,"stimulus":"<p style=\"font-size: 50px; margin: 0; text-align: center;\">+</p>","response":null,"trial_type":"html-keyboard-response","trial_index":96,"plugin_version":"2.1.0","time_elapsed":325481,"subject_id":"93095","group":"Group1","condition":"1_Rep","full_date":"2026-01-27T00:56:08.031Z","date":"2026-01-27","time":"00:56:08"},{"task":"memory_phase","broad_category":"S","image_png":"S_Sandstone_03.png","image_id":451,"category_name":"Sandstone","category":29,"distinct_rating":1.86,"distinct_type":"Bottom","rt":null,"stimulus":"Stimuli_Rocks480/S_Sandstone_03.png","response":null,"trial_type":"image-keyboard-response","trial_index":97,"plugin_version":"2.1.0","time_elapsed":327985,"subject_id":"93095","group":"Group1","condition":"1_Rep","full_date":"2026-01-27T00:56:08.031Z","date":"2026-01-27","time":"00:56:08"},{"rt":null,"stimulus":"<p style=\"font-size: 50px; margin: 0; text-align: center;\">+</p>","response":null,"trial_type":"html-keyboard-response","trial_index":98,"plugin_version":"2.1.0","time_elapsed":328988,"subject_id":"93095","group":"Group1","condition":"1_Rep","full_date":"2026-01-27T00:56:08.031Z","date":"2026-01-27","time":"00:56:08"},{"task":"memory_phase","broad_category":"S","image_png":"S_Sandstone_16.png","image_id":464,"category_name":"Sandstone","category":29,"distinct_rating":1.93,"distinct_type":"Bottom","rt":null,"stimulus":"Stimuli_Rocks480/S_Sandstone_16.png","response":null,"trial_type":"image-keyboard-response","trial_index":99,"plugin_version":"2.1.0","time_elapsed":331493,"subject_id":"93095","group":"Group1","condition":"1_Rep","full_date":"2026-01-27T00:56:08.031Z","date":"2026-01-27","time":"00:56:08"},{"rt":null,"stimulus":"<p style=\"font-size: 50px; margin: 0; text-align: center;\">+</p>","response":null,"trial_type":"html-keyboard-response","trial_index":100,"plugin_version":"2.1.0","time_elapsed":332495,"subject_id":"93095","group":"Group1","condition":"1_Rep","full_date":"2026-01-27T00:56:08.031Z","date":"2026-01-27","time":"00:56:08"},{"task":"memory_phase","broad_category":"S","image_png":"S_Sandstone_15.png","image_id":463,"category_name":"Sandstone","category":29,"distinct_rating":2,"distinct_type":"Bottom","rt":null,"stimulus":"Stimuli_Rocks480/S_Sandstone_15.png","response":null,"trial_type":"image-keyboard-response","trial_index":101,"plugin_version":"2.1.0","time_elapsed":334999,"subject_id":"93095","group":"Group1","condition":"1_Rep","full_date":"2026-01-27T00:56:08.031Z","date":"2026-01-27","time":"00:56:08"},{"rt":null,"stimulus":"<p style=\"font-size: 50px; margin: 0; text-align: center;\">+</p>","response":null,"trial_type":"html-keyboard-response","trial_index":102,"plugin_version":"2.1.0","time_elapsed":336002,"subject_id":"93095","group":"Group1","condition":"1_Rep","full_date":"2026-01-27T00:56:08.031Z","date":"2026-01-27","time":"00:56:08"},{"task":"memory_phase","broad_category":"M","image_png":"M_Quartzite_13.png","image_id":285,"category_name":"Quartzite","category":18,"distinct_rating":2.27,"distinct_type":"Bottom","rt":null,"stimulus":"Stimuli_Rocks480/M_Quartzite_13.png","response":null,"trial_type":"image-keyboard-response","trial_index":103,"plugin_version":"2.1.0","time_elapsed":338505,"subject_id":"93095","group":"Group1","condition":"1_Rep","full_date":"2026-01-27T00:56:08.031Z","date":"2026-01-27","time":"00:56:08"},{"rt":null,"stimulus":"<p style=\"font-size: 50px; margin: 0; text-align: center;\">+</p>","response":null,"trial_type":"html-keyboard-response","trial_index":104,"plugin_version":"2.1.0","time_elapsed":339508,"subject_id":"93095","group":"Group1","condition":"1_Rep","full_date":"2026-01-27T00:56:08.031Z","date":"2026-01-27","time":"00:56:08"},{"task":"memory_phase","broad_category":"I","image_png":"I_Obsidian_05.png","image_id":85,"category_name":"Obsidian","category":6,"distinct_rating":7.32,"distinct_type":"Top","rt":null,"stimulus":"Stimuli_Rocks480/I_Obsidian_05.png","response":null,"trial_type":"image-keyboard-response","trial_index":105,"plugin_version":"2.1.0","time_elapsed":342012,"subject_id":"93095","group":"Group1","condition":"1_Rep","full_date":"2026-01-27T00:56:08.031Z","date":"2026-01-27","time":"00:56:08"},{"rt":21379,"stimulus":"<div style=\"max-width: 760px; margin: auto; font-size: 20px; line-height: 1.5;\">\n      <h1 style=\"text-align:center; font-size: 30px;\">Instructions for the Test Phase</h1>\n      <p>\n        The study phase is now complete.\n      </p>\n      <p>\n        In the test phase, you will again see a series of rock images. \n        Some will be ones you saw before - during the study phase, while others will be new.  \n        <b>Your task</b> is to decide whether you have seen each image before by pressing the corresponding key on your keyboard:<br><br>\n          <b>A</b> - NO (you did not see this image before)<br>\n          <b>L</b> - YES (you saw this image before)<br><br>\n        The test will proceed at your own pace. You will receive feedback after each response.  \n        Please try to respond <b>as accurately as possible</b>.\n      </p>\n      <p>\n        <b>Reminder:</b> If your computer has multiple language settings (e.g., English and another language),\n        please ensure it is set to English during the test phase.\n      </p>\n      <p>\n        You can track your progress using the <b>completion bar</b> at the top of the screen.  \n        Note that it has been refreshed to reflect your progress during this final phase.\n      </p>\n      <p>\n        Press the button below when you are ready to continue.\n      </p>\n    </div>","response":0,"trial_type":"html-button-response","trial_index":106,"plugin_version":"2.1.0","time_elapsed":363394,"subject_id":"93095","group":"Group1","condition":"1_Rep","full_date":"2026-01-27T00:56:08.031Z","date":"2026-01-27","time":"00:56:08"},{"correct_response":"a","task":"test_phase","broad_category":"S","image_png":"S_Sandstone_04.png","image_id":452,"category_name":"Sandstone","category":29,"distinct_rating":1.8,"distinct_type":"Bottom","item_type":"Foil","rt":1268,"stimulus":"Stimuli_Rocks480/S_Sandstone_04.png","response":"l","trial_type":"image-keyboard-response","trial_index":107,"plugin_version":"2.1.0","time_elapsed":364665,"subject_id":"93095","group":"Group1","condition":"1_Rep","full_date":"2026-01-27T00:56:08.031Z","date":"2026-01-27","time":"00:56:08","cor_ans":false},{"trial_type":"html-keyboard-response","rt":null,"stimulus":"<p style=\"color: red; font-size: 50px; font-weight: bold;\">Incorrect</p>","response":null,"trial_index":108,"plugin_version":"2.1.0","time_elapsed":365167,"subject_id":"93095","group":"Group1","condition":"1_Rep","full_date":"2026-01-27T00:56:08.031Z","date":"2026-01-27","time":"00:56:08"},{"correct_response":"l","task":"test_phase","broad_category":"M","image_png":"M_Phyllite_10.png","image_id":266,"category_name":"Phyllite","category":17,"distinct_rating":2.6,"distinct_type":"Bottom","item_type":"Target","rt":1604,"stimulus":"Stimuli_Rocks480/M_Phyllite_10.png","response":"a","trial_type":"image-keyboard-response","trial_index":109,"plugin_version":"2.1.0","time_elapsed":366773,"subject_id":"93095","group":"Group1","condition":"1_Rep","full_date":"2026-01-27T00:56:08.031Z","date":"2026-01-27","time":"00:56:08","cor_ans":false},{"trial_type":"html-keyboard-response","rt":null,"stimulus":"<p style=\"color: red; font-size: 50px; font-weight: bold;\">Incorrect</p>","response":null,"trial_index":110,"plugin_version":"2.1.0","time_elapsed":367274,"subject_id":"93095","group":"Group1","condition":"1_Rep","full_date":"2026-01-27T00:56:08.031Z","date":"2026-01-27","time":"00:56:08"},{"correct_response":"l","task":"test_phase","broad_category":"M","image_png":"M_Marble_16.png","image_id":240,"category_name":"Marble","category":15,"distinct_rating":2.57,"distinct_type":"Bottom","item_type":"Target","rt":1636,"stimulus":"Stimuli_Rocks480/M_Marble_16.png","response":"a","trial_type":"image-keyboard-response","trial_index":111,"plugin_version":"2.1.0","time_elapsed":368913,"subject_id":"93095","group":"Group1","condition":"1_Rep","full_date":"2026-01-27T00:56:08.031Z","date":"2026-01-27","time":"00:56:08","cor_ans":false},{"trial_type":"html-keyboard-response","rt":null,"stimulus":"<p style=\"color: red; font-size: 50px; font-weight: bold;\">Incorrect</p>","response":null,"trial_index":112,"plugin_version":"2.1.0","time_elapsed":369414,"subject_id":"93095","group":"Group1","condition":"1_Rep","full_date":"2026-01-27T00:56:08.031Z","date":"2026-01-27","time":"00:56:08"},{"correct_response":"a","task":"test_phase","broad_category":"I","image_png":"I_Rhyolite_10.png","image_id":154,"category_name":"Rhyolite","category":10,"distinct_rating":2.88,"distinct_type":"Bottom","item_type":"Foil","rt":1000,"stimulus":"Stimuli_Rocks480/I_Rhyolite_10.png","response":"l","trial_type":"image-keyboard-response","trial_index":113,"plugin_version":"2.1.0","time_elapsed":370416,"subject_id":"93095","group":"Group1","condition":"1_Rep","full_date":"2026-01-27T00:56:08.031Z","date":"2026-01-27","time":"00:56:08","cor_ans":false},{"trial_type":"html-keyboard-response","rt":null,"stimulus":"<p style=\"color: red; font-size: 50px; font-weight: bold;\">Incorrect</p>","response":null,"trial_index":114,"plugin_version":"2.1.0","time_elapsed":370917,"subject_id":"93095","group":"Group1","condition":"1_Rep","full_date":"2026-01-27T00:56:08.031Z","date":"2026-01-27","time":"00:56:08"},{"correct_response":"l","task":"test_phase","broad_category":"M","image_png":"M_Quartzite_13.png","image_id":285,"category_name":"Quartzite","category":18,"distinct_rating":2.27,"distinct_type":"Bottom","item_type":"Target","rt":925,"stimulus":"Stimuli_Rocks480/M_Quartzite_13.png","response":"l","trial_type":"image-keyboard-response","trial_index":115,"plugin_version":"2.1.0","time_elapsed":371844,"subject_id":"93095","group":"Group1","condition":"1_Rep","full_date":"2026-01-27T00:56:08.031Z","date":"2026-01-27","time":"00:56:08","cor_ans":true},{"trial_type":"html-keyboard-response","rt":null,"stimulus":"<p style=\"color: green; font-size: 50px; font-weight: bold;\">Correct</p>","response":null,"trial_index":116,"plugin_version":"2.1.0","time_elapsed":372345,"subject_id":"93095","group":"Group1","condition":"1_Rep","full_date":"2026-01-27T00:56:08.031Z","date":"2026-01-27","time":"00:56:08"},{"correct_response":"a","task":"test_phase","broad_category":"I","image_png":"I_Gabbro_14.png","image_id":62,"category_name":"Gabbro","category":4,"distinct_rating":2.95,"distinct_type":"Bottom","item_type":"Foil","rt":989,"stimulus":"Stimuli_Rocks480/I_Gabbro_14.png","response":"l","trial_type":"image-keyboard-response","trial_index":117,"plugin_version":"2.1.0","time_elapsed":373336,"subject_id":"93095","group":"Group1","condition":"1_Rep","full_date":"2026-01-27T00:56:08.031Z","date":"2026-01-27","time":"00:56:08","cor_ans":false},{"trial_type":"html-keyboard-response","rt":null,"stimulus":"<p style=\"color: red; font-size: 50px; font-weight: bold;\">Incorrect</p>","response":null,"trial_index":118,"plugin_version":"2.1.0","time_elapsed":373837,"subject_id":"93095","group":"Group1","condition":"1_Rep","full_date":"2026-01-27T00:56:08.031Z","date":"2026-01-27","time":"00:56:08"},{"correct_response":"a","task":"test_phase","broad_category":"I","image_png":"I_Peridotite_13.png","image_id":125,"category_name":"Peridotite","category":8,"distinct_rating":7.28,"distinct_type":"Top","item_type":"Foil","rt":773,"stimulus":"Stimuli_Rocks480/I_Peridotite_13.png","response":"a","trial_type":"image-keyboard-response","trial_index":119,"plugin_version":"2.1.0","time_elapsed":374613,"subject_id":"93095","group":"Group1","condition":"1_Rep","full_date":"2026-01-27T00:56:08.031Z","date":"2026-01-27","time":"00:56:08","cor_ans":true},{"trial_type":"html-keyboard-response","rt":null,"stimulus":"<p style=\"color: green; font-size: 50px; font-weight: bold;\">Correct</p>","response":null,"trial_index":120,"plugin_version":"2.1.0","time_elapsed":375114,"subject_id":"93095","group":"Group1","condition":"1_Rep","full_date":"2026-01-27T00:56:08.031Z","date":"2026-01-27","time":"00:56:08"},{"correct_response":"a","task":"test_phase","broad_category":"I","image_png":"I_Rhyolite_08.png","image_id":152,"category_name":"Rhyolite","category":10,"distinct_rating":1.38,"distinct_type":"Bottom","item_type":"Foil","rt":1297,"stimulus":"Stimuli_Rocks480/I_Rhyolite_08.png","response":"a","trial_type":"image-keyboard-response","trial_index":121,"plugin_version":"2.1.0","time_elapsed":376419,"subject_id":"93095","group":"Group1","condition":"1_Rep","full_date":"2026-01-27T00:56:08.031Z","date":"2026-01-27","time":"00:56:08","cor_ans":true},{"trial_type":"html-keyboard-response","rt":null,"stimulus":"<p style=\"color: green; font-size: 50px; font-weight: bold;\">Correct</p>","response":null,"trial_index":122,"plugin_version":"2.1.0","time_elapsed":376921,"subject_id":"93095","group":"Group1","condition":"1_Rep","full_date":"2026-01-27T00:56:08.031Z","date":"2026-01-27","time":"00:56:08"},{"correct_response":"l","task":"test_phase","broad_category":"S","image_png":"S_Sandstone_03.png","image_id":451,"category_name":"Sandstone","category":29,"distinct_rating":1.86,"distinct_type":"Bottom","item_type":"Target","rt":845,"stimulus":"Stimuli_Rocks480/S_Sandstone_03.png","response":"l","trial_type":"image-keyboard-response","trial_index":123,"plugin_version":"2.1.0","time_elapsed":377769,"subject_id":"93095","group":"Group1","condition":"1_Rep","full_date":"2026-01-27T00:56:08.031Z","date":"2026-01-27","time":"00:56:08","cor_ans":true},{"trial_type":"html-keyboard-response","rt":null,"stimulus":"<p style=\"color: green; font-size: 50px; font-weight: bold;\">Correct</p>","response":null,"trial_index":124,"plugin_version":"2.1.0","time_elapsed":378270,"subject_id":"93095","group":"Group1","condition":"1_Rep","full_date":"2026-01-27T00:56:08.031Z","date":"2026-01-27","time":"00:56:08"},{"correct_response":"l","task":"test_phase","broad_category":"M","image_png":"M_Marble_06.png","image_id":230,"category_name":"Marble","category":15,"distinct_rating":3.4,"distinct_type":"Bottom","item_type":"Target","rt":705,"stimulus":"Stimuli_Rocks480/M_Marble_06.png","response":"l","trial_type":"image-keyboard-response","trial_index":125,"plugin_version":"2.1.0","time_elapsed":378977,"subject_id":"93095","group":"Group1","condition":"1_Rep","full_date":"2026-01-27T00:56:08.031Z","date":"2026-01-27","time":"00:56:08","cor_ans":true},{"trial_type":"html-keyboard-response","rt":null,"stimulus":"<p style=\"color: green; font-size: 50px; font-weight: bold;\">Correct</p>","response":null,"trial_index":126,"plugin_version":"2.1.0","time_elapsed":379478,"subject_id":"93095","group":"Group1","condition":"1_Rep","full_date":"2026-01-27T00:56:08.031Z","date":"2026-01-27","time":"00:56:08"},{"correct_response":"l","task":"test_phase","broad_category":"I","image_png":"I_Pegmatite_16.png","image_id":112,"category_name":"Pegmatite","category":7,"distinct_rating":7.03,"distinct_type":"Top","item_type":"Target","rt":724,"stimulus":"Stimuli_Rocks480/I_Pegmatite_16.png","response":"l","trial_type":"image-keyboard-response","trial_index":127,"plugin_version":"2.1.0","time_elapsed":380204,"subject_id":"93095","group":"Group1","condition":"1_Rep","full_date":"2026-01-27T00:56:08.031Z","date":"2026-01-27","time":"00:56:08","cor_ans":true},{"trial_type":"html-keyboard-response","rt":null,"stimulus":"<p style=\"color: green; font-size: 50px; font-weight: bold;\">Correct</p>","response":null,"trial_index":128,"plugin_version":"2.1.0","time_elapsed":380706,"subject_id":"93095","group":"Group1","condition":"1_Rep","full_date":"2026-01-27T00:56:08.031Z","date":"2026-01-27","time":"00:56:08"},{"correct_response":"a","task":"test_phase","broad_category":"I","image_png":"I_Andesite_03.png","image_id":3,"category_name":"Andesite","category":1,"distinct_rating":3.17,"distinct_type":"Bottom","item_type":"Foil","rt":866,"stimulus":"Stimuli_Rocks480/I_Andesite_03.png","response":"l","trial_type":"image-keyboard-response","trial_index":129,"plugin_version":"2.1.0","time_elapsed":381574,"subject_id":"93095","group":"Group1","condition":"1_Rep","full_date":"2026-01-27T00:56:08.031Z","date":"2026-01-27","time":"00:56:08","cor_ans":false},{"trial_type":"html-keyboard-response","rt":null,"stimulus":"<p style=\"color: red; font-size: 50px; font-weight: bold;\">Incorrect</p>","response":null,"trial_index":130,"plugin_version":"2.1.0","time_elapsed":382075,"subject_id":"93095","group":"Group1","condition":"1_Rep","full_date":"2026-01-27T00:56:08.031Z","date":"2026-01-27","time":"00:56:08"},{"correct_response":"l","task":"test_phase","broad_category":"I","image_png":"I_Rhyolite_16.png","image_id":160,"category_name":"Rhyolite","category":10,"distinct_rating":2.19,"distinct_type":"Bottom","item_type":"Target","rt":771,"stimulus":"Stimuli_Rocks480/I_Rhyolite_16.png","response":"l","trial_type":"image-keyboard-response","trial_index":131,"plugin_version":"2.1.0","time_elapsed":382848,"subject_id":"93095","group":"Group1","condition":"1_Rep","full_date":"2026-01-27T00:56:08.031Z","date":"2026-01-27","time":"00:56:08","cor_ans":true},{"trial_type":"html-keyboard-response","rt":null,"stimulus":"<p style=\"color: green; font-size: 50px; font-weight: bold;\">Correct</p>","response":null,"trial_index":132,"plugin_version":"2.1.0","time_elapsed":383350,"subject_id":"93095","group":"Group1","condition":"1_Rep","full_date":"2026-01-27T00:56:08.031Z","date":"2026-01-27","time":"00:56:08"},{"correct_response":"a","task":"test_phase","broad_category":"S","image_png":"S_Shale_03.png","image_id":467,"category_name":"Shale","category":30,"distinct_rating":1.95,"distinct_type":"Bottom","item_type":"Foil","rt":753,"stimulus":"Stimuli_Rocks480/S_Shale_03.png","response":"a","trial_type":"image-keyboard-response","trial_index":133,"plugin_version":"2.1.0","time_elapsed":384104,"subject_id":"93095","group":"Group1","condition":"1_Rep","full_date":"2026-01-27T00:56:08.031Z","date":"2026-01-27","time":"00:56:08","cor_ans":true},{"trial_type":"html-keyboard-response","rt":null,"stimulus":"<p style=\"color: green; font-size: 50px; font-weight: bold;\">Correct</p>","response":null,"trial_index":134,"plugin_version":"2.1.0","time_elapsed":384606,"subject_id":"93095","group":"Group1","condition":"1_Rep","full_date":"2026-01-27T00:56:08.031Z","date":"2026-01-27","time":"00:56:08"},{"correct_response":"l","task":"test_phase","broad_category":"I","image_png":"I_Pumice_11.png","image_id":139,"category_name":"Pumice","category":9,"distinct_rating":1.74,"distinct_type":"Bottom","item_type":"Target","rt":604,"stimulus":"Stimuli_Rocks480/I_Pumice_11.png","response":"a","trial_type":"image-keyboard-response","trial_index":135,"plugin_version":"2.1.0","time_elapsed":385212,"subject_id":"93095","group":"Group1","condition":"1_Rep","full_date":"2026-01-27T00:56:08.031Z","date":"2026-01-27","time":"00:56:08","cor_ans":false},{"trial_type":"html-keyboard-response","rt":null,"stimulus":"<p style=\"color: red; font-size: 50px; font-weight: bold;\">Incorrect</p>","response":null,"trial_index":136,"plugin_version":"2.1.0","time_elapsed":385714,"subject_id":"93095","group":"Group1","condition":"1_Rep","full_date":"2026-01-27T00:56:08.031Z","date":"2026-01-27","time":"00:56:08"},{"correct_response":"a","task":"test_phase","broad_category":"I","image_png":"I_Pumice_13.png","image_id":141,"category_name":"Pumice","category":9,"distinct_rating":3.12,"distinct_type":"Bottom","item_type":"Foil","rt":1537,"stimulus":"Stimuli_Rocks480/I_Pumice_13.png","response":"l","trial_type":"image-keyboard-response","trial_index":137,"plugin_version":"2.1.0","time_elapsed":387254,"subject_id":"93095","group":"Group1","condition":"1_Rep","full_date":"2026-01-27T00:56:08.031Z","date":"2026-01-27","time":"00:56:08","cor_ans":false},{"trial_type":"html-keyboard-response","rt":null,"stimulus":"<p style=\"color: red; font-size: 50px; font-weight: bold;\">Incorrect</p>","response":null,"trial_index":138,"plugin_version":"2.1.0","time_elapsed":387755,"subject_id":"93095","group":"Group1","condition":"1_Rep","full_date":"2026-01-27T00:56:08.031Z","date":"2026-01-27","time":"00:56:08"},{"correct_response":"l","task":"test_phase","broad_category":"I","image_png":"I_Gabbro_16.png","image_id":64,"category_name":"Gabbro","category":4,"distinct_rating":2.52,"distinct_type":"Bottom","item_type":"Target","rt":897,"stimulus":"Stimuli_Rocks480/I_Gabbro_16.png","response":"l","trial_type":"image-keyboard-response","trial_index":139,"plugin_version":"2.1.0","time_elapsed":388655,"subject_id":"93095","group":"Group1","condition":"1_Rep","full_date":"2026-01-27T00:56:08.031Z","date":"2026-01-27","time":"00:56:08","cor_ans":true},{"trial_type":"html-keyboard-response","rt":null,"stimulus":"<p style=\"color: green; font-size: 50px; font-weight: bold;\">Correct</p>","response":null,"trial_index":140,"plugin_version":"2.1.0","time_elapsed":389156,"subject_id":"93095","group":"Group1","condition":"1_Rep","full_date":"2026-01-27T00:56:08.031Z","date":"2026-01-27","time":"00:56:08"},{"correct_response":"l","task":"test_phase","broad_category":"I","image_png":"I_Pumice_08.png","image_id":136,"category_name":"Pumice","category":9,"distinct_rating":3.1,"distinct_type":"Bottom","item_type":"Target","rt":724,"stimulus":"Stimuli_Rocks480/I_Pumice_08.png","response":"l","trial_type":"image-keyboard-response","trial_index":141,"plugin_version":"2.1.0","time_elapsed":389883,"subject_id":"93095","group":"Group1","condition":"1_Rep","full_date":"2026-01-27T00:56:08.031Z","date":"2026-01-27","time":"00:56:08","cor_ans":true},{"trial_type":"html-keyboard-response","rt":null,"stimulus":"<p style=\"color: green; font-size: 50px; font-weight: bold;\">Correct</p>","response":null,"trial_index":142,"plugin_version":"2.1.0","time_elapsed":390384,"subject_id":"93095","group":"Group1","condition":"1_Rep","full_date":"2026-01-27T00:56:08.031Z","date":"2026-01-27","time":"00:56:08"},{"correct_response":"a","task":"test_phase","broad_category":"I","image_png":"I_Diorite_15.png","image_id":47,"category_name":"Diorite","category":3,"distinct_rating":3.05,"distinct_type":"Bottom","item_type":"Foil","rt":969,"stimulus":"Stimuli_Rocks480/I_Diorite_15.png","response":"a","trial_type":"image-keyboard-response","trial_index":143,"plugin_version":"2.1.0","time_elapsed":391356,"subject_id":"93095","group":"Group1","condition":"1_Rep","full_date":"2026-01-27T00:56:08.031Z","date":"2026-01-27","time":"00:56:08","cor_ans":true},{"trial_type":"html-keyboard-response","rt":null,"stimulus":"<p style=\"color: green; font-size: 50px; font-weight: bold;\">Correct</p>","response":null,"trial_index":144,"plugin_version":"2.1.0","time_elapsed":391857,"subject_id":"93095","group":"Group1","condition":"1_Rep","full_date":"2026-01-27T00:56:08.031Z","date":"2026-01-27","time":"00:56:08"},{"correct_response":"a","task":"test_phase","broad_category":"I","image_png":"I_Obsidian_06.png","image_id":86,"category_name":"Obsidian","category":6,"distinct_rating":8.01,"distinct_type":"Top","item_type":"Foil","rt":600,"stimulus":"Stimuli_Rocks480/I_Obsidian_06.png","response":"a","trial_type":"image-keyboard-response","trial_index":145,"plugin_version":"2.1.0","time_elapsed":392460,"subject_id":"93095","group":"Group1","condition":"1_Rep","full_date":"2026-01-27T00:56:08.031Z","date":"2026-01-27","time":"00:56:08","cor_ans":true},{"trial_type":"html-keyboard-response","rt":null,"stimulus":"<p style=\"color: green; font-size: 50px; font-weight: bold;\">Correct</p>","response":null,"trial_index":146,"plugin_version":"2.1.0","time_elapsed":392961,"subject_id":"93095","group":"Group1","condition":"1_Rep","full_date":"2026-01-27T00:56:08.031Z","date":"2026-01-27","time":"00:56:08"},{"correct_response":"a","task":"test_phase","broad_category":"S","image_png":"S_Rock Salt_15.png","image_id":447,"category_name":"Rock Salt","category":28,"distinct_rating":7.79,"distinct_type":"Top","item_type":"Foil","rt":943,"stimulus":"Stimuli_Rocks480/S_Rock Salt_15.png","response":"a","trial_type":"image-keyboard-response","trial_index":147,"plugin_version":"2.1.0","time_elapsed":393906,"subject_id":"93095","group":"Group1","condition":"1_Rep","full_date":"2026-01-27T00:56:08.031Z","date":"2026-01-27","time":"00:56:08","cor_ans":true},{"trial_type":"html-keyboard-response","rt":null,"stimulus":"<p style=\"color: green; font-size: 50px; font-weight: bold;\">Correct</p>","response":null,"trial_index":148,"plugin_version":"2.1.0","time_elapsed":394407,"subject_id":"93095","group":"Group1","condition":"1_Rep","full_date":"2026-01-27T00:56:08.031Z","date":"2026-01-27","time":"00:56:08"},{"correct_response":"l","task":"test_phase","broad_category":"S","image_png":"S_Shale_01.png","image_id":465,"category_name":"Shale","category":30,"distinct_rating":2.7,"distinct_type":"Bottom","item_type":"Target","rt":890,"stimulus":"Stimuli_Rocks480/S_Shale_01.png","response":"l","trial_type":"image-keyboard-response","trial_index":149,"plugin_version":"2.1.0","time_elapsed":395300,"subject_id":"93095","group":"Group1","condition":"1_Rep","full_date":"2026-01-27T00:56:08.031Z","date":"2026-01-27","time":"00:56:08","cor_ans":true},{"trial_type":"html-keyboard-response","rt":null,"stimulus":"<p style=\"color: green; font-size: 50px; font-weight: bold;\">Correct</p>","response":null,"trial_index":150,"plugin_version":"2.1.0","time_elapsed":395802,"subject_id":"93095","group":"Group1","condition":"1_Rep","full_date":"2026-01-27T00:56:08.031Z","date":"2026-01-27","time":"00:56:08"},{"correct_response":"a","task":"test_phase","broad_category":"M","image_png":"M_Phyllite_05.png","image_id":261,"category_name":"Phyllite","category":17,"distinct_rating":2.14,"distinct_type":"Bottom","item_type":"Foil","rt":657,"stimulus":"Stimuli_Rocks480/M_Phyllite_05.png","response":"l","trial_type":"image-keyboard-response","trial_index":151,"plugin_version":"2.1.0","time_elapsed":396461,"subject_id":"93095","group":"Group1","condition":"1_Rep","full_date":"2026-01-27T00:56:08.031Z","date":"2026-01-27","time":"00:56:08","cor_ans":false},{"trial_type":"html-keyboard-response","rt":null,"stimulus":"<p style=\"color: red; font-size: 50px; font-weight: bold;\">Incorrect</p>","response":null,"trial_index":152,"plugin_version":"2.1.0","time_elapsed":396963,"subject_id":"93095","group":"Group1","condition":"1_Rep","full_date":"2026-01-27T00:56:08.031Z","date":"2026-01-27","time":"00:56:08"},{"correct_response":"l","task":"test_phase","broad_category":"S","image_png":"S_Rock Salt_01.png","image_id":433,"category_name":"Rock Salt","category":28,"distinct_rating":7.18,"distinct_type":"Top","item_type":"Target","rt":731,"stimulus":"Stimuli_Rocks480/S_Rock Salt_01.png","response":"l","trial_type":"image-keyboard-response","trial_index":153,"plugin_version":"2.1.0","time_elapsed":397697,"subject_id":"93095","group":"Group1","condition":"1_Rep","full_date":"2026-01-27T00:56:08.031Z","date":"2026-01-27","time":"00:56:08","cor_ans":true},{"trial_type":"html-keyboard-response","rt":null,"stimulus":"<p style=\"color: green; font-size: 50px; font-weight: bold;\">Correct</p>","response":null,"trial_index":154,"plugin_version":"2.1.0","time_elapsed":398199,"subject_id":"93095","group":"Group1","condition":"1_Rep","full_date":"2026-01-27T00:56:08.031Z","date":"2026-01-27","time":"00:56:08"},{"correct_response":"a","task":"test_phase","broad_category":"I","image_png":"I_Gabbro_12.png","image_id":60,"category_name":"Gabbro","category":4,"distinct_rating":2.6,"distinct_type":"Bottom","item_type":"Foil","rt":949,"stimulus":"Stimuli_Rocks480/I_Gabbro_12.png","response":"a","trial_type":"image-keyboard-response","trial_index":155,"plugin_version":"2.1.0","time_elapsed":399150,"subject_id":"93095","group":"Group1","condition":"1_Rep","full_date":"2026-01-27T00:56:08.031Z","date":"2026-01-27","time":"00:56:08","cor_ans":true},{"trial_type":"html-keyboard-response","rt":null,"stimulus":"<p style=\"color: green; font-size: 50px; font-weight: bold;\">Correct</p>","response":null,"trial_index":156,"plugin_version":"2.1.0","time_elapsed":399651,"subject_id":"93095","group":"Group1","condition":"1_Rep","full_date":"2026-01-27T00:56:08.031Z","date":"2026-01-27","time":"00:56:08"},{"correct_response":"l","task":"test_phase","broad_category":"I","image_png":"I_Basalt_01.png","image_id":17,"category_name":"Basalt","category":2,"distinct_rating":1.92,"distinct_type":"Bottom","item_type":"Target","rt":726,"stimulus":"Stimuli_Rocks480/I_Basalt_01.png","response":"l","trial_type":"image-keyboard-response","trial_index":157,"plugin_version":"2.1.0","time_elapsed":400379,"subject_id":"93095","group":"Group1","condition":"1_Rep","full_date":"2026-01-27T00:56:08.031Z","date":"2026-01-27","time":"00:56:08","cor_ans":true},{"trial_type":"html-keyboard-response","rt":null,"stimulus":"<p style=\"color: green; font-size: 50px; font-weight: bold;\">Correct</p>","response":null,"trial_index":158,"plugin_version":"2.1.0","time_elapsed":400881,"subject_id":"93095","group":"Group1","condition":"1_Rep","full_date":"2026-01-27T00:56:08.031Z","date":"2026-01-27","time":"00:56:08"},{"correct_response":"l","task":"test_phase","broad_category":"I","image_png":"I_Gabbro_08.png","image_id":56,"category_name":"Gabbro","category":4,"distinct_rating":3.02,"distinct_type":"Bottom","item_type":"Target","rt":806,"stimulus":"Stimuli_Rocks480/I_Gabbro_08.png","response":"l","trial_type":"image-keyboard-response","trial_index":159,"plugin_version":"2.1.0","time_elapsed":401689,"subject_id":"93095","group":"Group1","condition":"1_Rep","full_date":"2026-01-27T00:56:08.031Z","date":"2026-01-27","time":"00:56:08","cor_ans":true},{"trial_type":"html-keyboard-response","rt":null,"stimulus":"<p style=\"color: green; font-size: 50px; font-weight: bold;\">Correct</p>","response":null,"trial_index":160,"plugin_version":"2.1.0","time_elapsed":402190,"subject_id":"93095","group":"Group1","condition":"1_Rep","full_date":"2026-01-27T00:56:08.031Z","date":"2026-01-27","time":"00:56:08"},{"correct_response":"l","task":"test_phase","broad_category":"S","image_png":"S_Sandstone_15.png","image_id":463,"category_name":"Sandstone","category":29,"distinct_rating":2,"distinct_type":"Bottom","item_type":"Target","rt":729,"stimulus":"Stimuli_Rocks480/S_Sandstone_15.png","response":"l","trial_type":"image-keyboard-response","trial_index":161,"plugin_version":"2.1.0","time_elapsed":402921,"subject_id":"93095","group":"Group1","condition":"1_Rep","full_date":"2026-01-27T00:56:08.031Z","date":"2026-01-27","time":"00:56:08","cor_ans":true},{"trial_type":"html-keyboard-response","rt":null,"stimulus":"<p style=\"color: green; font-size: 50px; font-weight: bold;\">Correct</p>","response":null,"trial_index":162,"plugin_version":"2.1.0","time_elapsed":403422,"subject_id":"93095","group":"Group1","condition":"1_Rep","full_date":"2026-01-27T00:56:08.031Z","date":"2026-01-27","time":"00:56:08"},{"correct_response":"a","task":"test_phase","broad_category":"S","image_png":"S_Sandstone_11.png","image_id":459,"category_name":"Sandstone","category":29,"distinct_rating":1.82,"distinct_type":"Bottom","item_type":"Foil","rt":777,"stimulus":"Stimuli_Rocks480/S_Sandstone_11.png","response":"l","trial_type":"image-keyboard-response","trial_index":163,"plugin_version":"2.1.0","time_elapsed":404201,"subject_id":"93095","group":"Group1","condition":"1_Rep","full_date":"2026-01-27T00:56:08.031Z","date":"2026-01-27","time":"00:56:08","cor_ans":false},{"trial_type":"html-keyboard-response","rt":null,"stimulus":"<p style=\"color: red; font-size: 50px; font-weight: bold;\">Incorrect</p>","response":null,"trial_index":164,"plugin_version":"2.1.0","time_elapsed":404702,"subject_id":"93095","group":"Group1","condition":"1_Rep","full_date":"2026-01-27T00:56:08.031Z","date":"2026-01-27","time":"00:56:08"},{"correct_response":"l","task":"test_phase","broad_category":"M","image_png":"M_Phyllite_03.png","image_id":259,"category_name":"Phyllite","category":17,"distinct_rating":2.5,"distinct_type":"Bottom","item_type":"Target","rt":620,"stimulus":"Stimuli_Rocks480/M_Phyllite_03.png","response":"l","trial_type":"image-keyboard-response","trial_index":165,"plugin_version":"2.1.0","time_elapsed":405324,"subject_id":"93095","group":"Group1","condition":"1_Rep","full_date":"2026-01-27T00:56:08.031Z","date":"2026-01-27","time":"00:56:08","cor_ans":true},{"trial_type":"html-keyboard-response","rt":null,"stimulus":"<p style=\"color: green; font-size: 50px; font-weight: bold;\">Correct</p>","response":null,"trial_index":166,"plugin_version":"2.1.0","time_elapsed":405826,"subject_id":"93095","group":"Group1","condition":"1_Rep","full_date":"2026-01-27T00:56:08.031Z","date":"2026-01-27","time":"00:56:08"},{"correct_response":"a","task":"test_phase","broad_category":"M","image_png":"M_Marble_14.png","image_id":238,"category_name":"Marble","category":15,"distinct_rating":3.31,"distinct_type":"Bottom","item_type":"Foil","rt":992,"stimulus":"Stimuli_Rocks480/M_Marble_14.png","response":"l","trial_type":"image-keyboard-response","trial_index":167,"plugin_version":"2.1.0","time_elapsed":406820,"subject_id":"93095","group":"Group1","condition":"1_Rep","full_date":"2026-01-27T00:56:08.031Z","date":"2026-01-27","time":"00:56:08","cor_ans":false},{"trial_type":"html-keyboard-response","rt":null,"stimulus":"<p style=\"color: red; font-size: 50px; font-weight: bold;\">Incorrect</p>","response":null,"trial_index":168,"plugin_version":"2.1.0","time_elapsed":407322,"subject_id":"93095","group":"Group1","condition":"1_Rep","full_date":"2026-01-27T00:56:08.031Z","date":"2026-01-27","time":"00:56:08"},{"correct_response":"a","task":"test_phase","broad_category":"M","image_png":"M_Gneiss_15.png","image_id":207,"category_name":"Gneiss","category":13,"distinct_rating":3.11,"distinct_type":"Bottom","item_type":"Foil","rt":822,"stimulus":"Stimuli_Rocks480/M_Gneiss_15.png","response":"a","trial_type":"image-keyboard-response","trial_index":169,"plugin_version":"2.1.0","time_elapsed":408146,"subject_id":"93095","group":"Group1","condition":"1_Rep","full_date":"2026-01-27T00:56:08.031Z","date":"2026-01-27","time":"00:56:08","cor_ans":true},{"trial_type":"html-keyboard-response","rt":null,"stimulus":"<p style=\"color: green; font-size: 50px; font-weight: bold;\">Correct</p>","response":null,"trial_index":170,"plugin_version":"2.1.0","time_elapsed":408648,"subject_id":"93095","group":"Group1","condition":"1_Rep","full_date":"2026-01-27T00:56:08.031Z","date":"2026-01-27","time":"00:56:08"},{"correct_response":"l","task":"test_phase","broad_category":"I","image_png":"I_Rhyolite_14.png","image_id":158,"category_name":"Rhyolite","category":10,"distinct_rating":2.59,"distinct_type":"Bottom","item_type":"Target","rt":1635,"stimulus":"Stimuli_Rocks480/I_Rhyolite_14.png","response":"l","trial_type":"image-keyboard-response","trial_index":171,"plugin_version":"2.1.0","time_elapsed":410285,"subject_id":"93095","group":"Group1","condition":"1_Rep","full_date":"2026-01-27T00:56:08.031Z","date":"2026-01-27","time":"00:56:08","cor_ans":true},{"trial_type":"html-keyboard-response","rt":null,"stimulus":"<p style=\"color: green; font-size: 50px; font-weight: bold;\">Correct</p>","response":null,"trial_index":172,"plugin_version":"2.1.0","time_elapsed":410786,"subject_id":"93095","group":"Group1","condition":"1_Rep","full_date":"2026-01-27T00:56:08.031Z","date":"2026-01-27","time":"00:56:08"},{"correct_response":"l","task":"test_phase","broad_category":"I","image_png":"I_Gabbro_11.png","image_id":59,"category_name":"Gabbro","category":4,"distinct_rating":1.99,"distinct_type":"Bottom","item_type":"Target","rt":659,"stimulus":"Stimuli_Rocks480/I_Gabbro_11.png","response":"a","trial_type":"image-keyboard-response","trial_index":173,"plugin_version":"2.1.0","time_elapsed":411446,"subject_id":"93095","group":"Group1","condition":"1_Rep","full_date":"2026-01-27T00:56:08.031Z","date":"2026-01-27","time":"00:56:08","cor_ans":false},{"trial_type":"html-keyboard-response","rt":null,"stimulus":"<p style=\"color: red; font-size: 50px; font-weight: bold;\">Incorrect</p>","response":null,"trial_index":174,"plugin_version":"2.1.0","time_elapsed":411948,"subject_id":"93095","group":"Group1","condition":"1_Rep","full_date":"2026-01-27T00:56:08.031Z","date":"2026-01-27","time":"00:56:08"},{"correct_response":"a","task":"test_phase","broad_category":"S","image_png":"S_Sandstone_08.png","image_id":456,"category_name":"Sandstone","category":29,"distinct_rating":1.5,"distinct_type":"Bottom","item_type":"Foil","rt":939,"stimulus":"Stimuli_Rocks480/S_Sandstone_08.png","response":"a","trial_type":"image-keyboard-response","trial_index":175,"plugin_version":"2.1.0","time_elapsed":412889,"subject_id":"93095","group":"Group1","condition":"1_Rep","full_date":"2026-01-27T00:56:08.031Z","date":"2026-01-27","time":"00:56:08","cor_ans":true},{"trial_type":"html-keyboard-response","rt":null,"stimulus":"<p style=\"color: green; font-size: 50px; font-weight: bold;\">Correct</p>","response":null,"trial_index":176,"plugin_version":"2.1.0","time_elapsed":413390,"subject_id":"93095","group":"Group1","condition":"1_Rep","full_date":"2026-01-27T00:56:08.031Z","date":"2026-01-27","time":"00:56:08"},{"correct_response":"l","task":"test_phase","broad_category":"M","image_png":"M_Slate_03.png","image_id":307,"category_name":"Slate","category":20,"distinct_rating":1.87,"distinct_type":"Bottom","item_type":"Target","rt":635,"stimulus":"Stimuli_Rocks480/M_Slate_03.png","response":"l","trial_type":"image-keyboard-response","trial_index":177,"plugin_version":"2.1.0","time_elapsed":414027,"subject_id":"93095","group":"Group1","condition":"1_Rep","full_date":"2026-01-27T00:56:08.031Z","date":"2026-01-27","time":"00:56:08","cor_ans":true},{"trial_type":"html-keyboard-response","rt":null,"stimulus":"<p style=\"color: green; font-size: 50px; font-weight: bold;\">Correct</p>","response":null,"trial_index":178,"plugin_version":"2.1.0","time_elapsed":414528,"subject_id":"93095","group":"Group1","condition":"1_Rep","full_date":"2026-01-27T00:56:08.031Z","date":"2026-01-27","time":"00:56:08"},{"correct_response":"a","task":"test_phase","broad_category":"M","image_png":"M_Phyllite_02.png","image_id":258,"category_name":"Phyllite","category":17,"distinct_rating":2.89,"distinct_type":"Bottom","item_type":"Foil","rt":919,"stimulus":"Stimuli_Rocks480/M_Phyllite_02.png","response":"l","trial_type":"image-keyboard-response","trial_index":179,"plugin_version":"2.1.0","time_elapsed":415449,"subject_id":"93095","group":"Group1","condition":"1_Rep","full_date":"2026-01-27T00:56:08.031Z","date":"2026-01-27","time":"00:56:08","cor_ans":false},{"trial_type":"html-keyboard-response","rt":null,"stimulus":"<p style=\"color: red; font-size: 50px; font-weight: bold;\">Incorrect</p>","response":null,"trial_index":180,"plugin_version":"2.1.0","time_elapsed":415950,"subject_id":"93095","group":"Group1","condition":"1_Rep","full_date":"2026-01-27T00:56:08.031Z","date":"2026-01-27","time":"00:56:08"},{"correct_response":"l","task":"test_phase","broad_category":"M","image_png":"M_Marble_04.png","image_id":228,"category_name":"Marble","category":15,"distinct_rating":3.15,"distinct_type":"Bottom","item_type":"Target","rt":569,"stimulus":"Stimuli_Rocks480/M_Marble_04.png","response":"l","trial_type":"image-keyboard-response","trial_index":181,"plugin_version":"2.1.0","time_elapsed":416522,"subject_id":"93095","group":"Group1","condition":"1_Rep","full_date":"2026-01-27T00:56:08.031Z","date":"2026-01-27","time":"00:56:08","cor_ans":true},{"trial_type":"html-keyboard-response","rt":null,"stimulus":"<p style=\"color: green; font-size: 50px; font-weight: bold;\">Correct</p>","response":null,"trial_index":182,"plugin_version":"2.1.0","time_elapsed":417024,"subject_id":"93095","group":"Group1","condition":"1_Rep","full_date":"2026-01-27T00:56:08.031Z","date":"2026-01-27","time":"00:56:08"},{"correct_response":"a","task":"test_phase","broad_category":"I","image_png":"I_Gabbro_02.png","image_id":50,"category_name":"Gabbro","category":4,"distinct_rating":2.73,"distinct_type":"Bottom","item_type":"Foil","rt":677,"stimulus":"Stimuli_Rocks480/I_Gabbro_02.png","response":"a","trial_type":"image-keyboard-response","trial_index":183,"plugin_version":"2.1.0","time_elapsed":417703,"subject_id":"93095","group":"Group1","condition":"1_Rep","full_date":"2026-01-27T00:56:08.031Z","date":"2026-01-27","time":"00:56:08","cor_ans":true},{"trial_type":"html-keyboard-response","rt":null,"stimulus":"<p style=\"color: green; font-size: 50px; font-weight: bold;\">Correct</p>","response":null,"trial_index":184,"plugin_version":"2.1.0","time_elapsed":418205,"subject_id":"93095","group":"Group1","condition":"1_Rep","full_date":"2026-01-27T00:56:08.031Z","date":"2026-01-27","time":"00:56:08"},{"correct_response":"a","task":"test_phase","broad_category":"S","image_png":"S_Dolomite_07.png","image_id":391,"category_name":"Dolomite","category":25,"distinct_rating":1.73,"distinct_type":"Bottom","item_type":"Foil","rt":857,"stimulus":"Stimuli_Rocks480/S_Dolomite_07.png","response":"a","trial_type":"image-keyboard-response","trial_index":185,"plugin_version":"2.1.0","time_elapsed":419064,"subject_id":"93095","group":"Group1","condition":"1_Rep","full_date":"2026-01-27T00:56:08.031Z","date":"2026-01-27","time":"00:56:08","cor_ans":true},{"trial_type":"html-keyboard-response","rt":null,"stimulus":"<p style=\"color: green; font-size: 50px; font-weight: bold;\">Correct</p>","response":null,"trial_index":186,"plugin_version":"2.1.0","time_elapsed":419565,"subject_id":"93095","group":"Group1","condition":"1_Rep","full_date":"2026-01-27T00:56:08.031Z","date":"2026-01-27","time":"00:56:08"},{"correct_response":"a","task":"test_phase","broad_category":"I","image_png":"I_Diorite_10.png","image_id":42,"category_name":"Diorite","category":3,"distinct_rating":2.84,"distinct_type":"Bottom","item_type":"Foil","rt":944,"stimulus":"Stimuli_Rocks480/I_Diorite_10.png","response":"a","trial_type":"image-keyboard-response","trial_index":187,"plugin_version":"2.1.0","time_elapsed":420512,"subject_id":"93095","group":"Group1","condition":"1_Rep","full_date":"2026-01-27T00:56:08.031Z","date":"2026-01-27","time":"00:56:08","cor_ans":true},{"trial_type":"html-keyboard-response","rt":null,"stimulus":"<p style=\"color: green; font-size: 50px; font-weight: bold;\">Correct</p>","response":null,"trial_index":188,"plugin_version":"2.1.0","time_elapsed":421013,"subject_id":"93095","group":"Group1","condition":"1_Rep","full_date":"2026-01-27T00:56:08.031Z","date":"2026-01-27","time":"00:56:08"},{"correct_response":"a","task":"test_phase","broad_category":"S","image_png":"S_Dolomite_01.png","image_id":385,"category_name":"Dolomite","category":25,"distinct_rating":1.43,"distinct_type":"Bottom","item_type":"Foil","rt":1128,"stimulus":"Stimuli_Rocks480/S_Dolomite_01.png","response":"l","trial_type":"image-keyboard-response","trial_index":189,"plugin_version":"2.1.0","time_elapsed":422143,"subject_id":"93095","group":"Group1","condition":"1_Rep","full_date":"2026-01-27T00:56:08.031Z","date":"2026-01-27","time":"00:56:08","cor_ans":false},{"trial_type":"html-keyboard-response","rt":null,"stimulus":"<p style=\"color: red; font-size: 50px; font-weight: bold;\">Incorrect</p>","response":null,"trial_index":190,"plugin_version":"2.1.0","time_elapsed":422645,"subject_id":"93095","group":"Group1","condition":"1_Rep","full_date":"2026-01-27T00:56:08.031Z","date":"2026-01-27","time":"00:56:08"},{"correct_response":"a","task":"test_phase","broad_category":"S","image_png":"S_Rock Salt_13.png","image_id":445,"category_name":"Rock Salt","category":28,"distinct_rating":7.58,"distinct_type":"Top","item_type":"Foil","rt":745,"stimulus":"Stimuli_Rocks480/S_Rock Salt_13.png","response":"a","trial_type":"image-keyboard-response","trial_index":191,"plugin_version":"2.1.0","time_elapsed":423393,"subject_id":"93095","group":"Group1","condition":"1_Rep","full_date":"2026-01-27T00:56:08.031Z","date":"2026-01-27","time":"00:56:08","cor_ans":true},{"trial_type":"html-keyboard-response","rt":null,"stimulus":"<p style=\"color: green; font-size: 50px; font-weight: bold;\">Correct</p>","response":null,"trial_index":192,"plugin_version":"2.1.0","time_elapsed":423895,"subject_id":"93095","group":"Group1","condition":"1_Rep","full_date":"2026-01-27T00:56:08.031Z","date":"2026-01-27","time":"00:56:08"},{"correct_response":"l","task":"test_phase","broad_category":"S","image_png":"S_Shale_12.png","image_id":476,"category_name":"Shale","category":30,"distinct_rating":2.48,"distinct_type":"Bottom","item_type":"Target","rt":1176,"stimulus":"Stimuli_Rocks480/S_Shale_12.png","response":"l","trial_type":"image-keyboard-response","trial_index":193,"plugin_version":"2.1.0","time_elapsed":425073,"subject_id":"93095","group":"Group1","condition":"1_Rep","full_date":"2026-01-27T00:56:08.031Z","date":"2026-01-27","time":"00:56:08","cor_ans":true},{"trial_type":"html-keyboard-response","rt":null,"stimulus":"<p style=\"color: green; font-size: 50px; font-weight: bold;\">Correct</p>","response":null,"trial_index":194,"plugin_version":"2.1.0","time_elapsed":425575,"subject_id":"93095","group":"Group1","condition":"1_Rep","full_date":"2026-01-27T00:56:08.031Z","date":"2026-01-27","time":"00:56:08"},{"correct_response":"l","task":"test_phase","broad_category":"M","image_png":"M_Quartzite_05.png","image_id":277,"category_name":"Quartzite","category":18,"distinct_rating":2.23,"distinct_type":"Bottom","item_type":"Target","rt":776,"stimulus":"Stimuli_Rocks480/M_Quartzite_05.png","response":"a","trial_type":"image-keyboard-response","trial_index":195,"plugin_version":"2.1.0","time_elapsed":426353,"subject_id":"93095","group":"Group1","condition":"1_Rep","full_date":"2026-01-27T00:56:08.031Z","date":"2026-01-27","time":"00:56:08","cor_ans":false},{"trial_type":"html-keyboard-response","rt":null,"stimulus":"<p style=\"color: red; font-size: 50px; font-weight: bold;\">Incorrect</p>","response":null,"trial_index":196,"plugin_version":"2.1.0","time_elapsed":426855,"subject_id":"93095","group":"Group1","condition":"1_Rep","full_date":"2026-01-27T00:56:08.031Z","date":"2026-01-27","time":"00:56:08"},{"correct_response":"l","task":"test_phase","broad_category":"S","image_png":"S_Conglomerate_05.png","image_id":373,"category_name":"Conglomerate","category":24,"distinct_rating":7.32,"distinct_type":"Top","item_type":"Target","rt":841,"stimulus":"Stimuli_Rocks480/S_Conglomerate_05.png","response":"l","trial_type":"image-keyboard-response","trial_index":197,"plugin_version":"2.1.0","time_elapsed":427698,"subject_id":"93095","group":"Group1","condition":"1_Rep","full_date":"2026-01-27T00:56:08.031Z","date":"2026-01-27","time":"00:56:08","cor_ans":true},{"trial_type":"html-keyboard-response","rt":null,"stimulus":"<p style=\"color: green; font-size: 50px; font-weight: bold;\">Correct</p>","response":null,"trial_index":198,"plugin_version":"2.1.0","time_elapsed":428200,"subject_id":"93095","group":"Group1","condition":"1_Rep","full_date":"2026-01-27T00:56:08.031Z","date":"2026-01-27","time":"00:56:08"},{"correct_response":"l","task":"test_phase","broad_category":"I","image_png":"I_Basalt_02.png","image_id":18,"category_name":"Basalt","category":2,"distinct_rating":1.84,"distinct_type":"Bottom","item_type":"Target","rt":741,"stimulus":"Stimuli_Rocks480/I_Basalt_02.png","response":"l","trial_type":"image-keyboard-response","trial_index":199,"plugin_version":"2.1.0","time_elapsed":428943,"subject_id":"93095","group":"Group1","condition":"1_Rep","full_date":"2026-01-27T00:56:08.031Z","date":"2026-01-27","time":"00:56:08","cor_ans":true},{"trial_type":"html-keyboard-response","rt":null,"stimulus":"<p style=\"color: green; font-size: 50px; font-weight: bold;\">Correct</p>","response":null,"trial_index":200,"plugin_version":"2.1.0","time_elapsed":429445,"subject_id":"93095","group":"Group1","condition":"1_Rep","full_date":"2026-01-27T00:56:08.031Z","date":"2026-01-27","time":"00:56:08"},{"correct_response":"l","task":"test_phase","broad_category":"M","image_png":"M_Slate_15.png","image_id":319,"category_name":"Slate","category":20,"distinct_rating":2.13,"distinct_type":"Bottom","item_type":"Target","rt":864,"stimulus":"Stimuli_Rocks480/M_Slate_15.png","response":"l","trial_type":"image-keyboard-response","trial_index":201,"plugin_version":"2.1.0","time_elapsed":430311,"subject_id":"93095","group":"Group1","condition":"1_Rep","full_date":"2026-01-27T00:56:08.031Z","date":"2026-01-27","time":"00:56:08","cor_ans":true},{"trial_type":"html-keyboard-response","rt":null,"stimulus":"<p style=\"color: green; font-size: 50px; font-weight: bold;\">Correct</p>","response":null,"trial_index":202,"plugin_version":"2.1.0","time_elapsed":430812,"subject_id":"93095","group":"Group1","condition":"1_Rep","full_date":"2026-01-27T00:56:08.031Z","date":"2026-01-27","time":"00:56:08"},{"correct_response":"a","task":"test_phase","broad_category":"M","image_png":"M_Slate_10.png","image_id":314,"category_name":"Slate","category":20,"distinct_rating":1.94,"distinct_type":"Bottom","item_type":"Foil","rt":728,"stimulus":"Stimuli_Rocks480/M_Slate_10.png","response":"l","trial_type":"image-keyboard-response","trial_index":203,"plugin_version":"2.1.0","time_elapsed":431543,"subject_id":"93095","group":"Group1","condition":"1_Rep","full_date":"2026-01-27T00:56:08.031Z","date":"2026-01-27","time":"00:56:08","cor_ans":false},{"trial_type":"html-keyboard-response","rt":null,"stimulus":"<p style=\"color: red; font-size: 50px; font-weight: bold;\">Incorrect</p>","response":null,"trial_index":204,"plugin_version":"2.1.0","time_elapsed":432045,"subject_id":"93095","group":"Group1","condition":"1_Rep","full_date":"2026-01-27T00:56:08.031Z","date":"2026-01-27","time":"00:56:08"},{"correct_response":"l","task":"test_phase","broad_category":"M","image_png":"M_Gneiss_05.png","image_id":197,"category_name":"Gneiss","category":13,"distinct_rating":2.97,"distinct_type":"Bottom","item_type":"Target","rt":517,"stimulus":"Stimuli_Rocks480/M_Gneiss_05.png","response":"a","trial_type":"image-keyboard-response","trial_index":205,"plugin_version":"2.1.0","time_elapsed":432565,"subject_id":"93095","group":"Group1","condition":"1_Rep","full_date":"2026-01-27T00:56:08.031Z","date":"2026-01-27","time":"00:56:08","cor_ans":false},{"trial_type":"html-keyboard-response","rt":null,"stimulus":"<p style=\"color: red; font-size: 50px; font-weight: bold;\">Incorrect</p>","response":null,"trial_index":206,"plugin_version":"2.1.0","time_elapsed":433067,"subject_id":"93095","group":"Group1","condition":"1_Rep","full_date":"2026-01-27T00:56:08.031Z","date":"2026-01-27","time":"00:56:08"},{"correct_response":"l","task":"test_phase","broad_category":"I","image_png":"I_Pumice_12.png","image_id":140,"category_name":"Pumice","category":9,"distinct_rating":2.97,"distinct_type":"Bottom","item_type":"Target","rt":758,"stimulus":"Stimuli_Rocks480/I_Pumice_12.png","response":"a","trial_type":"image-keyboard-response","trial_index":207,"plugin_version":"2.1.0","time_elapsed":433827,"subject_id":"93095","group":"Group1","condition":"1_Rep","full_date":"2026-01-27T00:56:08.031Z","date":"2026-01-27","time":"00:56:08","cor_ans":false},{"trial_type":"html-keyboard-response","rt":null,"stimulus":"<p style=\"color: red; font-size: 50px; font-weight: bold;\">Incorrect</p>","response":null,"trial_index":208,"plugin_version":"2.1.0","time_elapsed":434329,"subject_id":"93095","group":"Group1","condition":"1_Rep","full_date":"2026-01-27T00:56:08.031Z","date":"2026-01-27","time":"00:56:08"},{"correct_response":"a","task":"test_phase","broad_category":"M","image_png":"M_Slate_14.png","image_id":318,"category_name":"Slate","category":20,"distinct_rating":2.58,"distinct_type":"Bottom","item_type":"Foil","rt":642,"stimulus":"Stimuli_Rocks480/M_Slate_14.png","response":"l","trial_type":"image-keyboard-response","trial_index":209,"plugin_version":"2.1.0","time_elapsed":434973,"subject_id":"93095","group":"Group1","condition":"1_Rep","full_date":"2026-01-27T00:56:08.031Z","date":"2026-01-27","time":"00:56:08","cor_ans":false},{"trial_type":"html-keyboard-response","rt":null,"stimulus":"<p style=\"color: red; font-size: 50px; font-weight: bold;\">Incorrect</p>","response":null,"trial_index":210,"plugin_version":"2.1.0","time_elapsed":435474,"subject_id":"93095","group":"Group1","condition":"1_Rep","full_date":"2026-01-27T00:56:08.031Z","date":"2026-01-27","time":"00:56:08"},{"correct_response":"a","task":"test_phase","broad_category":"M","image_png":"M_Slate_04.png","image_id":308,"category_name":"Slate","category":20,"distinct_rating":2.2,"distinct_type":"Bottom","item_type":"Foil","rt":663,"stimulus":"Stimuli_Rocks480/M_Slate_04.png","response":"l","trial_type":"image-keyboard-response","trial_index":211,"plugin_version":"2.1.0","time_elapsed":436139,"subject_id":"93095","group":"Group1","condition":"1_Rep","full_date":"2026-01-27T00:56:08.031Z","date":"2026-01-27","time":"00:56:08","cor_ans":false},{"trial_type":"html-keyboard-response","rt":null,"stimulus":"<p style=\"color: red; font-size: 50px; font-weight: bold;\">Incorrect</p>","response":null,"trial_index":212,"plugin_version":"2.1.0","time_elapsed":436641,"subject_id":"93095","group":"Group1","condition":"1_Rep","full_date":"2026-01-27T00:56:08.031Z","date":"2026-01-27","time":"00:56:08"},{"correct_response":"l","task":"test_phase","broad_category":"M","image_png":"M_Gneiss_06.png","image_id":198,"category_name":"Gneiss","category":13,"distinct_rating":2.65,"distinct_type":"Bottom","item_type":"Target","rt":831,"stimulus":"Stimuli_Rocks480/M_Gneiss_06.png","response":"l","trial_type":"image-keyboard-response","trial_index":213,"plugin_version":"2.1.0","time_elapsed":437474,"subject_id":"93095","group":"Group1","condition":"1_Rep","full_date":"2026-01-27T00:56:08.031Z","date":"2026-01-27","time":"00:56:08","cor_ans":true},{"trial_type":"html-keyboard-response","rt":null,"stimulus":"<p style=\"color: green; font-size: 50px; font-weight: bold;\">Correct</p>","response":null,"trial_index":214,"plugin_version":"2.1.0","time_elapsed":437975,"subject_id":"93095","group":"Group1","condition":"1_Rep","full_date":"2026-01-27T00:56:08.031Z","date":"2026-01-27","time":"00:56:08"},{"correct_response":"a","task":"test_phase","broad_category":"I","image_png":"I_Basalt_10.png","image_id":26,"category_name":"Basalt","category":2,"distinct_rating":2.76,"distinct_type":"Bottom","item_type":"Foil","rt":1021,"stimulus":"Stimuli_Rocks480/I_Basalt_10.png","response":"l","trial_type":"image-keyboard-response","trial_index":215,"plugin_version":"2.1.0","time_elapsed":439004,"subject_id":"93095","group":"Group1","condition":"1_Rep","full_date":"2026-01-27T00:56:08.031Z","date":"2026-01-27","time":"00:56:08","cor_ans":false},{"trial_type":"html-keyboard-response","rt":null,"stimulus":"<p style=\"color: red; font-size: 50px; font-weight: bold;\">Incorrect</p>","response":null,"trial_index":216,"plugin_version":"2.1.0","time_elapsed":439505,"subject_id":"93095","group":"Group1","condition":"1_Rep","full_date":"2026-01-27T00:56:08.031Z","date":"2026-01-27","time":"00:56:08"},{"correct_response":"l","task":"test_phase","broad_category":"S","image_png":"S_Dolomite_13.png","image_id":397,"category_name":"Dolomite","category":25,"distinct_rating":1.77,"distinct_type":"Bottom","item_type":"Target","rt":607,"stimulus":"Stimuli_Rocks480/S_Dolomite_13.png","response":"a","trial_type":"image-keyboard-response","trial_index":217,"plugin_version":"2.1.0","time_elapsed":440115,"subject_id":"93095","group":"Group1","condition":"1_Rep","full_date":"2026-01-27T00:56:08.031Z","date":"2026-01-27","time":"00:56:08","cor_ans":false},{"trial_type":"html-keyboard-response","rt":null,"stimulus":"<p style=\"color: red; font-size: 50px; font-weight: bold;\">Incorrect</p>","response":null,"trial_index":218,"plugin_version":"2.1.0","time_elapsed":440616,"subject_id":"93095","group":"Group1","condition":"1_Rep","full_date":"2026-01-27T00:56:08.031Z","date":"2026-01-27","time":"00:56:08"},{"correct_response":"a","task":"test_phase","broad_category":"I","image_png":"I_Pegmatite_03.png","image_id":99,"category_name":"Pegmatite","category":7,"distinct_rating":7.24,"distinct_type":"Top","item_type":"Foil","rt":1009,"stimulus":"Stimuli_Rocks480/I_Pegmatite_03.png","response":"a","trial_type":"image-keyboard-response","trial_index":219,"plugin_version":"2.1.0","time_elapsed":441627,"subject_id":"93095","group":"Group1","condition":"1_Rep","full_date":"2026-01-27T00:56:08.031Z","date":"2026-01-27","time":"00:56:08","cor_ans":true},{"trial_type":"html-keyboard-response","rt":null,"stimulus":"<p style=\"color: green; font-size: 50px; font-weight: bold;\">Correct</p>","response":null,"trial_index":220,"plugin_version":"2.1.0","time_elapsed":442129,"subject_id":"93095","group":"Group1","condition":"1_Rep","full_date":"2026-01-27T00:56:08.031Z","date":"2026-01-27","time":"00:56:08"},{"correct_response":"a","task":"test_phase","broad_category":"M","image_png":"M_Marble_02.png","image_id":226,"category_name":"Marble","category":15,"distinct_rating":3.2,"distinct_type":"Bottom","item_type":"Foil","rt":1049,"stimulus":"Stimuli_Rocks480/M_Marble_02.png","response":"l","trial_type":"image-keyboard-response","trial_index":221,"plugin_version":"2.1.0","time_elapsed":443180,"subject_id":"93095","group":"Group1","condition":"1_Rep","full_date":"2026-01-27T00:56:08.031Z","date":"2026-01-27","time":"00:56:08","cor_ans":false},{"trial_type":"html-keyboard-response","rt":null,"stimulus":"<p style=\"color: red; font-size: 50px; font-weight: bold;\">Incorrect</p>","response":null,"trial_index":222,"plugin_version":"2.1.0","time_elapsed":443681,"subject_id":"93095","group":"Group1","condition":"1_Rep","full_date":"2026-01-27T00:56:08.031Z","date":"2026-01-27","time":"00:56:08"},{"correct_response":"l","task":"test_phase","broad_category":"S","image_png":"S_Dolomite_12.png","image_id":396,"category_name":"Dolomite","category":25,"distinct_rating":1.85,"distinct_type":"Bottom","item_type":"Target","rt":804,"stimulus":"Stimuli_Rocks480/S_Dolomite_12.png","response":"l","trial_type":"image-keyboard-response","trial_index":223,"plugin_version":"2.1.0","time_elapsed":444487,"subject_id":"93095","group":"Group1","condition":"1_Rep","full_date":"2026-01-27T00:56:08.031Z","date":"2026-01-27","time":"00:56:08","cor_ans":true},{"trial_type":"html-keyboard-response","rt":null,"stimulus":"<p style=\"color: green; font-size: 50px; font-weight: bold;\">Correct</p>","response":null,"trial_index":224,"plugin_version":"2.1.0","time_elapsed":444989,"subject_id":"93095","group":"Group1","condition":"1_Rep","full_date":"2026-01-27T00:56:08.031Z","date":"2026-01-27","time":"00:56:08"},{"correct_response":"a","task":"test_phase","broad_category":"I",