[{"width":1440,"height":812,"webaudio":true,"browser":"chrome","browser_version":"138.0.0","mobile":false,"os":"Mac OS","fullscreen":true,"vsync_rate":60.48,"webcam":true,"microphone":true,"trial_type":"browser-check","trial_index":0,"plugin_version":"2.1.0","time_elapsed":1012,"subject_id":"92561","group":"Group2","condition":"1_Rep","full_date":"2026-03-03T19:02:13.948Z","date":"2026-03-03","time":"19:02:13"},{"success":true,"timeout":false,"failed_images":[],"failed_audio":[],"failed_video":[],"trial_type":"preload","trial_index":1,"plugin_version":"2.1.0","time_elapsed":3362,"subject_id":"92561","group":"Group2","condition":"1_Rep","full_date":"2026-03-03T19:02:13.948Z","date":"2026-03-03","time":"19:02:13"},{"rt":8439,"url":"SONA_consent_memorability.html","trial_type":"external-html","trial_index":2,"plugin_version":"2.1.0","time_elapsed":11851,"subject_id":"92561","group":"Group2","condition":"1_Rep","full_date":"2026-03-03T19:02:13.948Z","date":"2026-03-03","time":"19:02:13"},{"success":true,"rt":1330,"trial_type":"fullscreen","trial_index":3,"plugin_version":"2.1.0","time_elapsed":14185,"subject_id":"92561","group":"Group2","condition":"1_Rep","full_date":"2026-03-03T19:02:13.948Z","date":"2026-03-03","time":"19:02:13"},{"rt":1371,"stimulus":"<div style=\"max-width: 760px; margin: auto; font-size: 20px; line-height: 1.5;\">\n      <h1 style=\"text-align:center; font-size: 30px;\">Instructions</h1>\n      <p>\n        Welcome to the study on <b>visual memory</b>. This experiment consists of <b>two phases</b>: \n        a <b>study phase</b> and a <b>test phase</b>.\n      </p>\n      <p>\n        In the study phase, you will see a series of rock images along with their category labels.\n        The images will appear one at a time.\n        <b>Your task</b> is to learn the categories to which the rock images belong \n        and to remember each image as accurately as possible.\n      </p> \n      <p>\n        Note that you will see each image only <b>once</b> during the study phase. \n          So, please pay close attention and try to remember each image carefully.\n      </p>\n      <p>\n        After the study phase, <b>your memory will be tested</b>. \n        Additional instructions for the test phase will be provided at that time.\n      </p>\n      <p>\n        If your computer has multiple <b>language settings</b> (e.g., English and another language),\n        please make sure it is set to English before starting.\n      </p>\n      <p>\n        You can track your progress using the <b>completion bar</b> at the top of the screen. \n        Please note that the bar will refresh when the test phase begins \n        to give you an accurate sense of your progress in both phases.\n      </p> \n      <p>\n        Press the button below when you are ready to begin.\n      </p>\n    </div>","response":0,"trial_type":"html-button-response","trial_index":4,"plugin_version":"2.1.0","time_elapsed":15558,"subject_id":"92561","group":"Group2","condition":"1_Rep","full_date":"2026-03-03T19:02:13.948Z","date":"2026-03-03","time":"19:02:13"},{"rt":null,"stimulus":"<p style=\"font-size: 50px; margin: 0; text-align: center;\">+</p>","response":null,"trial_type":"html-keyboard-response","trial_index":5,"plugin_version":"2.1.0","time_elapsed":16562,"subject_id":"92561","group":"Group2","condition":"1_Rep","full_date":"2026-03-03T19:02:13.948Z","date":"2026-03-03","time":"19:02:13"},{"task":"memory_phase","broad_category":"M","image_png":"M_Quartzite_15.png","image_id":287,"category_name":"Quartzite","category":18,"distinct_rating":2.19,"distinct_type":"Bottom","rt":null,"stimulus":"Stimuli_Rocks480/M_Quartzite_15.png","response":null,"trial_type":"image-keyboard-response","trial_index":6,"plugin_version":"2.1.0","time_elapsed":19070,"subject_id":"92561","group":"Group2","condition":"1_Rep","full_date":"2026-03-03T19:02:13.948Z","date":"2026-03-03","time":"19:02:13"},{"rt":null,"stimulus":"<p style=\"font-size: 50px; margin: 0; text-align: center;\">+</p>","response":null,"trial_type":"html-keyboard-response","trial_index":7,"plugin_version":"2.1.0","time_elapsed":20073,"subject_id":"92561","group":"Group2","condition":"1_Rep","full_date":"2026-03-03T19:02:13.948Z","date":"2026-03-03","time":"19:02:13"},{"task":"memory_phase","broad_category":"I","image_png":"I_Gabbro_12.png","image_id":60,"category_name":"Gabbro","category":4,"distinct_rating":2.6,"distinct_type":"Bottom","rt":null,"stimulus":"Stimuli_Rocks480/I_Gabbro_12.png","response":null,"trial_type":"image-keyboard-response","trial_index":8,"plugin_version":"2.1.0","time_elapsed":22578,"subject_id":"92561","group":"Group2","condition":"1_Rep","full_date":"2026-03-03T19:02:13.948Z","date":"2026-03-03","time":"19:02:13"},{"rt":null,"stimulus":"<p style=\"font-size: 50px; margin: 0; text-align: center;\">+</p>","response":null,"trial_type":"html-keyboard-response","trial_index":9,"plugin_version":"2.1.0","time_elapsed":23580,"subject_id":"92561","group":"Group2","condition":"1_Rep","full_date":"2026-03-03T19:02:13.948Z","date":"2026-03-03","time":"19:02:13"},{"task":"memory_phase","broad_category":"I","image_png":"I_Pegmatite_11.png","image_id":107,"category_name":"Pegmatite","category":7,"distinct_rating":7.11,"distinct_type":"Top","rt":null,"stimulus":"Stimuli_Rocks480/I_Pegmatite_11.png","response":null,"trial_type":"image-keyboard-response","trial_index":10,"plugin_version":"2.1.0","time_elapsed":26084,"subject_id":"92561","group":"Group2","condition":"1_Rep","full_date":"2026-03-03T19:02:13.948Z","date":"2026-03-03","time":"19:02:13"},{"rt":null,"stimulus":"<p style=\"font-size: 50px; margin: 0; text-align: center;\">+</p>","response":null,"trial_type":"html-keyboard-response","trial_index":11,"plugin_version":"2.1.0","time_elapsed":27088,"subject_id":"92561","group":"Group2","condition":"1_Rep","full_date":"2026-03-03T19:02:13.948Z","date":"2026-03-03","time":"19:02:13"},{"task":"memory_phase","broad_category":"M","image_png":"M_Slate_10.png","image_id":314,"category_name":"Slate","category":20,"distinct_rating":1.94,"distinct_type":"Bottom","rt":null,"stimulus":"Stimuli_Rocks480/M_Slate_10.png","response":null,"trial_type":"image-keyboard-response","trial_index":12,"plugin_version":"2.1.0","time_elapsed":29592,"subject_id":"92561","group":"Group2","condition":"1_Rep","full_date":"2026-03-03T19:02:13.948Z","date":"2026-03-03","time":"19:02:13"},{"rt":null,"stimulus":"<p style=\"font-size: 50px; margin: 0; text-align: center;\">+</p>","response":null,"trial_type":"html-keyboard-response","trial_index":13,"plugin_version":"2.1.0","time_elapsed":30595,"subject_id":"92561","group":"Group2","condition":"1_Rep","full_date":"2026-03-03T19:02:13.948Z","date":"2026-03-03","time":"19:02:13"},{"task":"memory_phase","broad_category":"M","image_png":"M_Marble_03.png","image_id":227,"category_name":"Marble","category":15,"distinct_rating":2.67,"distinct_type":"Bottom","rt":null,"stimulus":"Stimuli_Rocks480/M_Marble_03.png","response":null,"trial_type":"image-keyboard-response","trial_index":14,"plugin_version":"2.1.0","time_elapsed":33099,"subject_id":"92561","group":"Group2","condition":"1_Rep","full_date":"2026-03-03T19:02:13.948Z","date":"2026-03-03","time":"19:02:13"},{"rt":null,"stimulus":"<p style=\"font-size: 50px; margin: 0; text-align: center;\">+</p>","response":null,"trial_type":"html-keyboard-response","trial_index":15,"plugin_version":"2.1.0","time_elapsed":34103,"subject_id":"92561","group":"Group2","condition":"1_Rep","full_date":"2026-03-03T19:02:13.948Z","date":"2026-03-03","time":"19:02:13"},{"task":"memory_phase","broad_category":"I","image_png":"I_Pumice_13.png","image_id":141,"category_name":"Pumice","category":9,"distinct_rating":3.12,"distinct_type":"Bottom","rt":null,"stimulus":"Stimuli_Rocks480/I_Pumice_13.png","response":null,"trial_type":"image-keyboard-response","trial_index":16,"plugin_version":"2.1.0","time_elapsed":36608,"subject_id":"92561","group":"Group2","condition":"1_Rep","full_date":"2026-03-03T19:02:13.948Z","date":"2026-03-03","time":"19:02:13"},{"rt":null,"stimulus":"<p style=\"font-size: 50px; margin: 0; text-align: center;\">+</p>","response":null,"trial_type":"html-keyboard-response","trial_index":17,"plugin_version":"2.1.0","time_elapsed":37611,"subject_id":"92561","group":"Group2","condition":"1_Rep","full_date":"2026-03-03T19:02:13.948Z","date":"2026-03-03","time":"19:02:13"},{"task":"memory_phase","broad_category":"M","image_png":"M_Gneiss_14.png","image_id":206,"category_name":"Gneiss","category":13,"distinct_rating":3.41,"distinct_type":"Bottom","rt":null,"stimulus":"Stimuli_Rocks480/M_Gneiss_14.png","response":null,"trial_type":"image-keyboard-response","trial_index":18,"plugin_version":"2.1.0","time_elapsed":40114,"subject_id":"92561","group":"Group2","condition":"1_Rep","full_date":"2026-03-03T19:02:13.948Z","date":"2026-03-03","time":"19:02:13"},{"rt":null,"stimulus":"<p style=\"font-size: 50px; margin: 0; text-align: center;\">+</p>","response":null,"trial_type":"html-keyboard-response","trial_index":19,"plugin_version":"2.1.0","time_elapsed":41117,"subject_id":"92561","group":"Group2","condition":"1_Rep","full_date":"2026-03-03T19:02:13.948Z","date":"2026-03-03","time":"19:02:13"},{"task":"memory_phase","broad_category":"M","image_png":"M_Phyllite_02.png","image_id":258,"category_name":"Phyllite","category":17,"distinct_rating":2.89,"distinct_type":"Bottom","rt":null,"stimulus":"Stimuli_Rocks480/M_Phyllite_02.png","response":null,"trial_type":"image-keyboard-response","trial_index":20,"plugin_version":"2.1.0","time_elapsed":43621,"subject_id":"92561","group":"Group2","condition":"1_Rep","full_date":"2026-03-03T19:02:13.948Z","date":"2026-03-03","time":"19:02:13"},{"rt":null,"stimulus":"<p style=\"font-size: 50px; margin: 0; text-align: center;\">+</p>","response":null,"trial_type":"html-keyboard-response","trial_index":21,"plugin_version":"2.1.0","time_elapsed":44624,"subject_id":"92561","group":"Group2","condition":"1_Rep","full_date":"2026-03-03T19:02:13.948Z","date":"2026-03-03","time":"19:02:13"},{"task":"memory_phase","broad_category":"I","image_png":"I_Diorite_15.png","image_id":47,"category_name":"Diorite","category":3,"distinct_rating":3.05,"distinct_type":"Bottom","rt":null,"stimulus":"Stimuli_Rocks480/I_Diorite_15.png","response":null,"trial_type":"image-keyboard-response","trial_index":22,"plugin_version":"2.1.0","time_elapsed":47128,"subject_id":"92561","group":"Group2","condition":"1_Rep","full_date":"2026-03-03T19:02:13.948Z","date":"2026-03-03","time":"19:02:13"},{"rt":null,"stimulus":"<p style=\"font-size: 50px; margin: 0; text-align: center;\">+</p>","response":null,"trial_type":"html-keyboard-response","trial_index":23,"plugin_version":"2.1.0","time_elapsed":48131,"subject_id":"92561","group":"Group2","condition":"1_Rep","full_date":"2026-03-03T19:02:13.948Z","date":"2026-03-03","time":"19:02:13"},{"task":"memory_phase","broad_category":"I","image_png":"I_Diorite_10.png","image_id":42,"category_name":"Diorite","category":3,"distinct_rating":2.84,"distinct_type":"Bottom","rt":null,"stimulus":"Stimuli_Rocks480/I_Diorite_10.png","response":null,"trial_type":"image-keyboard-response","trial_index":24,"plugin_version":"2.1.0","time_elapsed":50635,"subject_id":"92561","group":"Group2","condition":"1_Rep","full_date":"2026-03-03T19:02:13.948Z","date":"2026-03-03","time":"19:02:13"},{"rt":null,"stimulus":"<p style=\"font-size: 50px; margin: 0; text-align: center;\">+</p>","response":null,"trial_type":"html-keyboard-response","trial_index":25,"plugin_version":"2.1.0","time_elapsed":51638,"subject_id":"92561","group":"Group2","condition":"1_Rep","full_date":"2026-03-03T19:02:13.948Z","date":"2026-03-03","time":"19:02:13"},{"task":"memory_phase","broad_category":"S","image_png":"S_Rock Salt_15.png","image_id":447,"category_name":"Rock Salt","category":28,"distinct_rating":7.79,"distinct_type":"Top","rt":null,"stimulus":"Stimuli_Rocks480/S_Rock Salt_15.png","response":null,"trial_type":"image-keyboard-response","trial_index":26,"plugin_version":"2.1.0","time_elapsed":54142,"subject_id":"92561","group":"Group2","condition":"1_Rep","full_date":"2026-03-03T19:02:13.948Z","date":"2026-03-03","time":"19:02:13"},{"rt":null,"stimulus":"<p style=\"font-size: 50px; margin: 0; text-align: center;\">+</p>","response":null,"trial_type":"html-keyboard-response","trial_index":27,"plugin_version":"2.1.0","time_elapsed":55144,"subject_id":"92561","group":"Group2","condition":"1_Rep","full_date":"2026-03-03T19:02:13.948Z","date":"2026-03-03","time":"19:02:13"},{"task":"memory_phase","broad_category":"I","image_png":"I_Obsidian_06.png","image_id":86,"category_name":"Obsidian","category":6,"distinct_rating":8.01,"distinct_type":"Top","rt":null,"stimulus":"Stimuli_Rocks480/I_Obsidian_06.png","response":null,"trial_type":"image-keyboard-response","trial_index":28,"plugin_version":"2.1.0","time_elapsed":57648,"subject_id":"92561","group":"Group2","condition":"1_Rep","full_date":"2026-03-03T19:02:13.948Z","date":"2026-03-03","time":"19:02:13"},{"rt":null,"stimulus":"<p style=\"font-size: 50px; margin: 0; text-align: center;\">+</p>","response":null,"trial_type":"html-keyboard-response","trial_index":29,"plugin_version":"2.1.0","time_elapsed":58650,"subject_id":"92561","group":"Group2","condition":"1_Rep","full_date":"2026-03-03T19:02:13.948Z","date":"2026-03-03","time":"19:02:13"},{"task":"memory_phase","broad_category":"S","image_png":"S_Dolomite_01.png","image_id":385,"category_name":"Dolomite","category":25,"distinct_rating":1.43,"distinct_type":"Bottom","rt":null,"stimulus":"Stimuli_Rocks480/S_Dolomite_01.png","response":null,"trial_type":"image-keyboard-response","trial_index":30,"plugin_version":"2.1.0","time_elapsed":61155,"subject_id":"92561","group":"Group2","condition":"1_Rep","full_date":"2026-03-03T19:02:13.948Z","date":"2026-03-03","time":"19:02:13"},{"rt":null,"stimulus":"<p style=\"font-size: 50px; margin: 0; text-align: center;\">+</p>","response":null,"trial_type":"html-keyboard-response","trial_index":31,"plugin_version":"2.1.0","time_elapsed":62157,"subject_id":"92561","group":"Group2","condition":"1_Rep","full_date":"2026-03-03T19:02:13.948Z","date":"2026-03-03","time":"19:02:13"},{"task":"memory_phase","broad_category":"I","image_png":"I_Basalt_08.png","image_id":24,"category_name":"Basalt","category":2,"distinct_rating":2.31,"distinct_type":"Bottom","rt":null,"stimulus":"Stimuli_Rocks480/I_Basalt_08.png","response":null,"trial_type":"image-keyboard-response","trial_index":32,"plugin_version":"2.1.0","time_elapsed":64661,"subject_id":"92561","group":"Group2","condition":"1_Rep","full_date":"2026-03-03T19:02:13.948Z","date":"2026-03-03","time":"19:02:13"},{"rt":null,"stimulus":"<p style=\"font-size: 50px; margin: 0; text-align: center;\">+</p>","response":null,"trial_type":"html-keyboard-response","trial_index":33,"plugin_version":"2.1.0","time_elapsed":65664,"subject_id":"92561","group":"Group2","condition":"1_Rep","full_date":"2026-03-03T19:02:13.948Z","date":"2026-03-03","time":"19:02:13"},{"task":"memory_phase","broad_category":"S","image_png":"S_Sandstone_08.png","image_id":456,"category_name":"Sandstone","category":29,"distinct_rating":1.5,"distinct_type":"Bottom","rt":null,"stimulus":"Stimuli_Rocks480/S_Sandstone_08.png","response":null,"trial_type":"image-keyboard-response","trial_index":34,"plugin_version":"2.1.0","time_elapsed":68167,"subject_id":"92561","group":"Group2","condition":"1_Rep","full_date":"2026-03-03T19:02:13.948Z","date":"2026-03-03","time":"19:02:13"},{"rt":null,"stimulus":"<p style=\"font-size: 50px; margin: 0; text-align: center;\">+</p>","response":null,"trial_type":"html-keyboard-response","trial_index":35,"plugin_version":"2.1.0","time_elapsed":69169,"subject_id":"92561","group":"Group2","condition":"1_Rep","full_date":"2026-03-03T19:02:13.948Z","date":"2026-03-03","time":"19:02:13"},{"task":"memory_phase","broad_category":"M","image_png":"M_Quartzite_07.png","image_id":279,"category_name":"Quartzite","category":18,"distinct_rating":1.97,"distinct_type":"Bottom","rt":null,"stimulus":"Stimuli_Rocks480/M_Quartzite_07.png","response":null,"trial_type":"image-keyboard-response","trial_index":36,"plugin_version":"2.1.0","time_elapsed":71673,"subject_id":"92561","group":"Group2","condition":"1_Rep","full_date":"2026-03-03T19:02:13.948Z","date":"2026-03-03","time":"19:02:13"},{"rt":null,"stimulus":"<p style=\"font-size: 50px; margin: 0; text-align: center;\">+</p>","response":null,"trial_type":"html-keyboard-response","trial_index":37,"plugin_version":"2.1.0","time_elapsed":72676,"subject_id":"92561","group":"Group2","condition":"1_Rep","full_date":"2026-03-03T19:02:13.948Z","date":"2026-03-03","time":"19:02:13"},{"task":"memory_phase","broad_category":"M","image_png":"M_Slate_14.png","image_id":318,"category_name":"Slate","category":20,"distinct_rating":2.58,"distinct_type":"Bottom","rt":null,"stimulus":"Stimuli_Rocks480/M_Slate_14.png","response":null,"trial_type":"image-keyboard-response","trial_index":38,"plugin_version":"2.1.0","time_elapsed":75180,"subject_id":"92561","group":"Group2","condition":"1_Rep","full_date":"2026-03-03T19:02:13.948Z","date":"2026-03-03","time":"19:02:13"},{"rt":null,"stimulus":"<p style=\"font-size: 50px; margin: 0; text-align: center;\">+</p>","response":null,"trial_type":"html-keyboard-response","trial_index":39,"plugin_version":"2.1.0","time_elapsed":76183,"subject_id":"92561","group":"Group2","condition":"1_Rep","full_date":"2026-03-03T19:02:13.948Z","date":"2026-03-03","time":"19:02:13"},{"task":"memory_phase","broad_category":"I","image_png":"I_Basalt_13.png","image_id":29,"category_name":"Basalt","category":2,"distinct_rating":2.68,"distinct_type":"Bottom","rt":null,"stimulus":"Stimuli_Rocks480/I_Basalt_13.png","response":null,"trial_type":"image-keyboard-response","trial_index":40,"plugin_version":"2.1.0","time_elapsed":78687,"subject_id":"92561","group":"Group2","condition":"1_Rep","full_date":"2026-03-03T19:02:13.948Z","date":"2026-03-03","time":"19:02:13"},{"rt":null,"stimulus":"<p style=\"font-size: 50px; margin: 0; text-align: center;\">+</p>","response":null,"trial_type":"html-keyboard-response","trial_index":41,"plugin_version":"2.1.0","time_elapsed":79690,"subject_id":"92561","group":"Group2","condition":"1_Rep","full_date":"2026-03-03T19:02:13.948Z","date":"2026-03-03","time":"19:02:13"},{"task":"memory_phase","broad_category":"S","image_png":"S_Rock Salt_13.png","image_id":445,"category_name":"Rock Salt","category":28,"distinct_rating":7.58,"distinct_type":"Top","rt":null,"stimulus":"Stimuli_Rocks480/S_Rock Salt_13.png","response":null,"trial_type":"image-keyboard-response","trial_index":42,"plugin_version":"2.1.0","time_elapsed":82194,"subject_id":"92561","group":"Group2","condition":"1_Rep","full_date":"2026-03-03T19:02:13.948Z","date":"2026-03-03","time":"19:02:13"},{"rt":null,"stimulus":"<p style=\"font-size: 50px; margin: 0; text-align: center;\">+</p>","response":null,"trial_type":"html-keyboard-response","trial_index":43,"plugin_version":"2.1.0","time_elapsed":83197,"subject_id":"92561","group":"Group2","condition":"1_Rep","full_date":"2026-03-03T19:02:13.948Z","date":"2026-03-03","time":"19:02:13"},{"task":"memory_phase","broad_category":"I","image_png":"I_Pumice_01.png","image_id":129,"category_name":"Pumice","category":9,"distinct_rating":3.25,"distinct_type":"Bottom","rt":null,"stimulus":"Stimuli_Rocks480/I_Pumice_01.png","response":null,"trial_type":"image-keyboard-response","trial_index":44,"plugin_version":"2.1.0","time_elapsed":85701,"subject_id":"92561","group":"Group2","condition":"1_Rep","full_date":"2026-03-03T19:02:13.948Z","date":"2026-03-03","time":"19:02:13"},{"rt":null,"stimulus":"<p style=\"font-size: 50px; margin: 0; text-align: center;\">+</p>","response":null,"trial_type":"html-keyboard-response","trial_index":45,"plugin_version":"2.1.0","time_elapsed":86704,"subject_id":"92561","group":"Group2","condition":"1_Rep","full_date":"2026-03-03T19:02:13.948Z","date":"2026-03-03","time":"19:02:13"},{"task":"memory_phase","broad_category":"I","image_png":"I_Pumice_14.png","image_id":142,"category_name":"Pumice","category":9,"distinct_rating":3.22,"distinct_type":"Bottom","rt":null,"stimulus":"Stimuli_Rocks480/I_Pumice_14.png","response":null,"trial_type":"image-keyboard-response","trial_index":46,"plugin_version":"2.1.0","time_elapsed":89208,"subject_id":"92561","group":"Group2","condition":"1_Rep","full_date":"2026-03-03T19:02:13.948Z","date":"2026-03-03","time":"19:02:13"},{"rt":null,"stimulus":"<p style=\"font-size: 50px; margin: 0; text-align: center;\">+</p>","response":null,"trial_type":"html-keyboard-response","trial_index":47,"plugin_version":"2.1.0","time_elapsed":90211,"subject_id":"92561","group":"Group2","condition":"1_Rep","full_date":"2026-03-03T19:02:13.948Z","date":"2026-03-03","time":"19:02:13"},{"task":"memory_phase","broad_category":"S","image_png":"S_Shale_03.png","image_id":467,"category_name":"Shale","category":30,"distinct_rating":1.95,"distinct_type":"Bottom","rt":null,"stimulus":"Stimuli_Rocks480/S_Shale_03.png","response":null,"trial_type":"image-keyboard-response","trial_index":48,"plugin_version":"2.1.0","time_elapsed":92714,"subject_id":"92561","group":"Group2","condition":"1_Rep","full_date":"2026-03-03T19:02:13.948Z","date":"2026-03-03","time":"19:02:13"},{"rt":null,"stimulus":"<p style=\"font-size: 50px; margin: 0; text-align: center;\">+</p>","response":null,"trial_type":"html-keyboard-response","trial_index":49,"plugin_version":"2.1.0","time_elapsed":93717,"subject_id":"92561","group":"Group2","condition":"1_Rep","full_date":"2026-03-03T19:02:13.948Z","date":"2026-03-03","time":"19:02:13"},{"task":"memory_phase","broad_category":"M","image_png":"M_Slate_04.png","image_id":308,"category_name":"Slate","category":20,"distinct_rating":2.2,"distinct_type":"Bottom","rt":null,"stimulus":"Stimuli_Rocks480/M_Slate_04.png","response":null,"trial_type":"image-keyboard-response","trial_index":50,"plugin_version":"2.1.0","time_elapsed":96221,"subject_id":"92561","group":"Group2","condition":"1_Rep","full_date":"2026-03-03T19:02:13.948Z","date":"2026-03-03","time":"19:02:13"},{"rt":null,"stimulus":"<p style=\"font-size: 50px; margin: 0; text-align: center;\">+</p>","response":null,"trial_type":"html-keyboard-response","trial_index":51,"plugin_version":"2.1.0","time_elapsed":97224,"subject_id":"92561","group":"Group2","condition":"1_Rep","full_date":"2026-03-03T19:02:13.948Z","date":"2026-03-03","time":"19:02:13"},{"task":"memory_phase","broad_category":"I","image_png":"I_Basalt_10.png","image_id":26,"category_name":"Basalt","category":2,"distinct_rating":2.76,"distinct_type":"Bottom","rt":null,"stimulus":"Stimuli_Rocks480/I_Basalt_10.png","response":null,"trial_type":"image-keyboard-response","trial_index":52,"plugin_version":"2.1.0","time_elapsed":99728,"subject_id":"92561","group":"Group2","condition":"1_Rep","full_date":"2026-03-03T19:02:13.948Z","date":"2026-03-03","time":"19:02:13"},{"rt":null,"stimulus":"<p style=\"font-size: 50px; margin: 0; text-align: center;\">+</p>","response":null,"trial_type":"html-keyboard-response","trial_index":53,"plugin_version":"2.1.0","time_elapsed":100731,"subject_id":"92561","group":"Group2","condition":"1_Rep","full_date":"2026-03-03T19:02:13.948Z","date":"2026-03-03","time":"19:02:13"},{"task":"memory_phase","broad_category":"S","image_png":"S_Shale_02.png","image_id":466,"category_name":"Shale","category":30,"distinct_rating":2.9,"distinct_type":"Bottom","rt":null,"stimulus":"Stimuli_Rocks480/S_Shale_02.png","response":null,"trial_type":"image-keyboard-response","trial_index":54,"plugin_version":"2.1.0","time_elapsed":103235,"subject_id":"92561","group":"Group2","condition":"1_Rep","full_date":"2026-03-03T19:02:13.948Z","date":"2026-03-03","time":"19:02:13"},{"rt":13850,"stimulus":"<p style=\"max-width: 760px; margin: auto; font-size: 35px; line-height: 1.5;\">\n                Press SPACE to continue study phase\n              </p>","response":" ","trial_type":"html-keyboard-response","trial_index":55,"plugin_version":"2.1.0","time_elapsed":117087,"subject_id":"92561","group":"Group2","condition":"1_Rep","full_date":"2026-03-03T19:02:13.948Z","date":"2026-03-03","time":"19:02:13"},{"rt":null,"stimulus":"<p style=\"font-size: 50px; margin: 0; text-align: center;\">+</p>","response":null,"trial_type":"html-keyboard-response","trial_index":56,"plugin_version":"2.1.0","time_elapsed":118090,"subject_id":"92561","group":"Group2","condition":"1_Rep","full_date":"2026-03-03T19:02:13.948Z","date":"2026-03-03","time":"19:02:13"},{"task":"memory_phase","broad_category":"M","image_png":"M_Marble_02.png","image_id":226,"category_name":"Marble","category":15,"distinct_rating":3.2,"distinct_type":"Bottom","rt":null,"stimulus":"Stimuli_Rocks480/M_Marble_02.png","response":null,"trial_type":"image-keyboard-response","trial_index":57,"plugin_version":"2.1.0","time_elapsed":120594,"subject_id":"92561","group":"Group2","condition":"1_Rep","full_date":"2026-03-03T19:02:13.948Z","date":"2026-03-03","time":"19:02:13"},{"rt":null,"stimulus":"<p style=\"font-size: 50px; margin: 0; text-align: center;\">+</p>","response":null,"trial_type":"html-keyboard-response","trial_index":58,"plugin_version":"2.1.0","time_elapsed":121597,"subject_id":"92561","group":"Group2","condition":"1_Rep","full_date":"2026-03-03T19:02:13.948Z","date":"2026-03-03","time":"19:02:13"},{"task":"memory_phase","broad_category":"I","image_png":"I_Diorite_01.png","image_id":33,"category_name":"Diorite","category":3,"distinct_rating":2.97,"distinct_type":"Bottom","rt":null,"stimulus":"Stimuli_Rocks480/I_Diorite_01.png","response":null,"trial_type":"image-keyboard-response","trial_index":59,"plugin_version":"2.1.0","time_elapsed":124100,"subject_id":"92561","group":"Group2","condition":"1_Rep","full_date":"2026-03-03T19:02:13.948Z","date":"2026-03-03","time":"19:02:13"},{"rt":null,"stimulus":"<p style=\"font-size: 50px; margin: 0; text-align: center;\">+</p>","response":null,"trial_type":"html-keyboard-response","trial_index":60,"plugin_version":"2.1.0","time_elapsed":125102,"subject_id":"92561","group":"Group2","condition":"1_Rep","full_date":"2026-03-03T19:02:13.948Z","date":"2026-03-03","time":"19:02:13"},{"task":"memory_phase","broad_category":"S","image_png":"S_Conglomerate_14.png","image_id":382,"category_name":"Conglomerate","category":24,"distinct_rating":6.86,"distinct_type":"Top","rt":null,"stimulus":"Stimuli_Rocks480/S_Conglomerate_14.png","response":null,"trial_type":"image-keyboard-response","trial_index":61,"plugin_version":"2.1.0","time_elapsed":127606,"subject_id":"92561","group":"Group2","condition":"1_Rep","full_date":"2026-03-03T19:02:13.948Z","date":"2026-03-03","time":"19:02:13"},{"rt":null,"stimulus":"<p style=\"font-size: 50px; margin: 0; text-align: center;\">+</p>","response":null,"trial_type":"html-keyboard-response","trial_index":62,"plugin_version":"2.1.0","time_elapsed":128609,"subject_id":"92561","group":"Group2","condition":"1_Rep","full_date":"2026-03-03T19:02:13.948Z","date":"2026-03-03","time":"19:02:13"},{"task":"memory_phase","broad_category":"I","image_png":"I_Rhyolite_10.png","image_id":154,"category_name":"Rhyolite","category":10,"distinct_rating":2.88,"distinct_type":"Bottom","rt":null,"stimulus":"Stimuli_Rocks480/I_Rhyolite_10.png","response":null,"trial_type":"image-keyboard-response","trial_index":63,"plugin_version":"2.1.0","time_elapsed":131112,"subject_id":"92561","group":"Group2","condition":"1_Rep","full_date":"2026-03-03T19:02:13.948Z","date":"2026-03-03","time":"19:02:13"},{"rt":null,"stimulus":"<p style=\"font-size: 50px; margin: 0; text-align: center;\">+</p>","response":null,"trial_type":"html-keyboard-response","trial_index":64,"plugin_version":"2.1.0","time_elapsed":132114,"subject_id":"92561","group":"Group2","condition":"1_Rep","full_date":"2026-03-03T19:02:13.948Z","date":"2026-03-03","time":"19:02:13"},{"task":"memory_phase","broad_category":"M","image_png":"M_Phyllite_13.png","image_id":269,"category_name":"Phyllite","category":17,"distinct_rating":2.8,"distinct_type":"Bottom","rt":null,"stimulus":"Stimuli_Rocks480/M_Phyllite_13.png","response":null,"trial_type":"image-keyboard-response","trial_index":65,"plugin_version":"2.1.0","time_elapsed":134618,"subject_id":"92561","group":"Group2","condition":"1_Rep","full_date":"2026-03-03T19:02:13.948Z","date":"2026-03-03","time":"19:02:13"},{"rt":null,"stimulus":"<p style=\"font-size: 50px; margin: 0; text-align: center;\">+</p>","response":null,"trial_type":"html-keyboard-response","trial_index":66,"plugin_version":"2.1.0","time_elapsed":135621,"subject_id":"92561","group":"Group2","condition":"1_Rep","full_date":"2026-03-03T19:02:13.948Z","date":"2026-03-03","time":"19:02:13"},{"task":"memory_phase","broad_category":"M","image_png":"M_Quartzite_12.png","image_id":284,"category_name":"Quartzite","category":18,"distinct_rating":1.92,"distinct_type":"Bottom","rt":null,"stimulus":"Stimuli_Rocks480/M_Quartzite_12.png","response":null,"trial_type":"image-keyboard-response","trial_index":67,"plugin_version":"2.1.0","time_elapsed":138125,"subject_id":"92561","group":"Group2","condition":"1_Rep","full_date":"2026-03-03T19:02:13.948Z","date":"2026-03-03","time":"19:02:13"},{"rt":null,"stimulus":"<p style=\"font-size: 50px; margin: 0; text-align: center;\">+</p>","response":null,"trial_type":"html-keyboard-response","trial_index":68,"plugin_version":"2.1.0","time_elapsed":139127,"subject_id":"92561","group":"Group2","condition":"1_Rep","full_date":"2026-03-03T19:02:13.948Z","date":"2026-03-03","time":"19:02:13"},{"task":"memory_phase","broad_category":"I","image_png":"I_Rhyolite_05.png","image_id":149,"category_name":"Rhyolite","category":10,"distinct_rating":3.02,"distinct_type":"Bottom","rt":null,"stimulus":"Stimuli_Rocks480/I_Rhyolite_05.png","response":null,"trial_type":"image-keyboard-response","trial_index":69,"plugin_version":"2.1.0","time_elapsed":141631,"subject_id":"92561","group":"Group2","condition":"1_Rep","full_date":"2026-03-03T19:02:13.948Z","date":"2026-03-03","time":"19:02:13"},{"rt":null,"stimulus":"<p style=\"font-size: 50px; margin: 0; text-align: center;\">+</p>","response":null,"trial_type":"html-keyboard-response","trial_index":70,"plugin_version":"2.1.0","time_elapsed":142634,"subject_id":"92561","group":"Group2","condition":"1_Rep","full_date":"2026-03-03T19:02:13.948Z","date":"2026-03-03","time":"19:02:13"},{"task":"memory_phase","broad_category":"I","image_png":"I_Peridotite_13.png","image_id":125,"category_name":"Peridotite","category":8,"distinct_rating":7.28,"distinct_type":"Top","rt":null,"stimulus":"Stimuli_Rocks480/I_Peridotite_13.png","response":null,"trial_type":"image-keyboard-response","trial_index":71,"plugin_version":"2.1.0","time_elapsed":145138,"subject_id":"92561","group":"Group2","condition":"1_Rep","full_date":"2026-03-03T19:02:13.948Z","date":"2026-03-03","time":"19:02:13"},{"rt":null,"stimulus":"<p style=\"font-size: 50px; margin: 0; text-align: center;\">+</p>","response":null,"trial_type":"html-keyboard-response","trial_index":72,"plugin_version":"2.1.0","time_elapsed":146140,"subject_id":"92561","group":"Group2","condition":"1_Rep","full_date":"2026-03-03T19:02:13.948Z","date":"2026-03-03","time":"19:02:13"},{"task":"memory_phase","broad_category":"S","image_png":"S_Shale_07.png","image_id":471,"category_name":"Shale","category":30,"distinct_rating":2.73,"distinct_type":"Bottom","rt":null,"stimulus":"Stimuli_Rocks480/S_Shale_07.png","response":null,"trial_type":"image-keyboard-response","trial_index":73,"plugin_version":"2.1.0","time_elapsed":148645,"subject_id":"92561","group":"Group2","condition":"1_Rep","full_date":"2026-03-03T19:02:13.948Z","date":"2026-03-03","time":"19:02:13"},{"rt":null,"stimulus":"<p style=\"font-size: 50px; margin: 0; text-align: center;\">+</p>","response":null,"trial_type":"html-keyboard-response","trial_index":74,"plugin_version":"2.1.0","time_elapsed":149647,"subject_id":"92561","group":"Group2","condition":"1_Rep","full_date":"2026-03-03T19:02:13.948Z","date":"2026-03-03","time":"19:02:13"},{"task":"memory_phase","broad_category":"I","image_png":"I_Andesite_03.png","image_id":3,"category_name":"Andesite","category":1,"distinct_rating":3.17,"distinct_type":"Bottom","rt":null,"stimulus":"Stimuli_Rocks480/I_Andesite_03.png","response":null,"trial_type":"image-keyboard-response","trial_index":75,"plugin_version":"2.1.0","time_elapsed":152152,"subject_id":"92561","group":"Group2","condition":"1_Rep","full_date":"2026-03-03T19:02:13.948Z","date":"2026-03-03","time":"19:02:13"},{"rt":null,"stimulus":"<p style=\"font-size: 50px; margin: 0; text-align: center;\">+</p>","response":null,"trial_type":"html-keyboard-response","trial_index":76,"plugin_version":"2.1.0","time_elapsed":153154,"subject_id":"92561","group":"Group2","condition":"1_Rep","full_date":"2026-03-03T19:02:13.948Z","date":"2026-03-03","time":"19:02:13"},{"task":"memory_phase","broad_category":"M","image_png":"M_Gneiss_15.png","image_id":207,"category_name":"Gneiss","category":13,"distinct_rating":3.11,"distinct_type":"Bottom","rt":null,"stimulus":"Stimuli_Rocks480/M_Gneiss_15.png","response":null,"trial_type":"image-keyboard-response","trial_index":77,"plugin_version":"2.1.0","time_elapsed":155659,"subject_id":"92561","group":"Group2","condition":"1_Rep","full_date":"2026-03-03T19:02:13.948Z","date":"2026-03-03","time":"19:02:13"},{"rt":null,"stimulus":"<p style=\"font-size: 50px; margin: 0; text-align: center;\">+</p>","response":null,"trial_type":"html-keyboard-response","trial_index":78,"plugin_version":"2.1.0","time_elapsed":156662,"subject_id":"92561","group":"Group2","condition":"1_Rep","full_date":"2026-03-03T19:02:13.948Z","date":"2026-03-03","time":"19:02:13"},{"task":"memory_phase","broad_category":"I","image_png":"I_Gabbro_14.png","image_id":62,"category_name":"Gabbro","category":4,"distinct_rating":2.95,"distinct_type":"Bottom","rt":null,"stimulus":"Stimuli_Rocks480/I_Gabbro_14.png","response":null,"trial_type":"image-keyboard-response","trial_index":79,"plugin_version":"2.1.0","time_elapsed":159166,"subject_id":"92561","group":"Group2","condition":"1_Rep","full_date":"2026-03-03T19:02:13.948Z","date":"2026-03-03","time":"19:02:13"},{"rt":null,"stimulus":"<p style=\"font-size: 50px; margin: 0; text-align: center;\">+</p>","response":null,"trial_type":"html-keyboard-response","trial_index":80,"plugin_version":"2.1.0","time_elapsed":160169,"subject_id":"92561","group":"Group2","condition":"1_Rep","full_date":"2026-03-03T19:02:13.948Z","date":"2026-03-03","time":"19:02:13"},{"task":"memory_phase","broad_category":"M","image_png":"M_Phyllite_05.png","image_id":261,"category_name":"Phyllite","category":17,"distinct_rating":2.14,"distinct_type":"Bottom","rt":null,"stimulus":"Stimuli_Rocks480/M_Phyllite_05.png","response":null,"trial_type":"image-keyboard-response","trial_index":81,"plugin_version":"2.1.0","time_elapsed":162673,"subject_id":"92561","group":"Group2","condition":"1_Rep","full_date":"2026-03-03T19:02:13.948Z","date":"2026-03-03","time":"19:02:13"},{"rt":null,"stimulus":"<p style=\"font-size: 50px; margin: 0; text-align: center;\">+</p>","response":null,"trial_type":"html-keyboard-response","trial_index":82,"plugin_version":"2.1.0","time_elapsed":163675,"subject_id":"92561","group":"Group2","condition":"1_Rep","full_date":"2026-03-03T19:02:13.948Z","date":"2026-03-03","time":"19:02:13"},{"task":"memory_phase","broad_category":"M","image_png":"M_Gneiss_10.png","image_id":202,"category_name":"Gneiss","category":13,"distinct_rating":3.09,"distinct_type":"Bottom","rt":null,"stimulus":"Stimuli_Rocks480/M_Gneiss_10.png","response":null,"trial_type":"image-keyboard-response","trial_index":83,"plugin_version":"2.1.0","time_elapsed":166178,"subject_id":"92561","group":"Group2","condition":"1_Rep","full_date":"2026-03-03T19:02:13.948Z","date":"2026-03-03","time":"19:02:13"},{"rt":null,"stimulus":"<p style=\"font-size: 50px; margin: 0; text-align: center;\">+</p>","response":null,"trial_type":"html-keyboard-response","trial_index":84,"plugin_version":"2.1.0","time_elapsed":167181,"subject_id":"92561","group":"Group2","condition":"1_Rep","full_date":"2026-03-03T19:02:13.948Z","date":"2026-03-03","time":"19:02:13"},{"task":"memory_phase","broad_category":"I","image_png":"I_Gabbro_02.png","image_id":50,"category_name":"Gabbro","category":4,"distinct_rating":2.73,"distinct_type":"Bottom","rt":null,"stimulus":"Stimuli_Rocks480/I_Gabbro_02.png","response":null,"trial_type":"image-keyboard-response","trial_index":85,"plugin_version":"2.1.0","time_elapsed":169684,"subject_id":"92561","group":"Group2","condition":"1_Rep","full_date":"2026-03-03T19:02:13.948Z","date":"2026-03-03","time":"19:02:13"},{"rt":null,"stimulus":"<p style=\"font-size: 50px; margin: 0; text-align: center;\">+</p>","response":null,"trial_type":"html-keyboard-response","trial_index":86,"plugin_version":"2.1.0","time_elapsed":170686,"subject_id":"92561","group":"Group2","condition":"1_Rep","full_date":"2026-03-03T19:02:13.948Z","date":"2026-03-03","time":"19:02:13"},{"task":"memory_phase","broad_category":"I","image_png":"I_Andesite_09.png","image_id":9,"category_name":"Andesite","category":1,"distinct_rating":2.49,"distinct_type":"Bottom","rt":null,"stimulus":"Stimuli_Rocks480/I_Andesite_09.png","response":null,"trial_type":"image-keyboard-response","trial_index":87,"plugin_version":"2.1.0","time_elapsed":173189,"subject_id":"92561","group":"Group2","condition":"1_Rep","full_date":"2026-03-03T19:02:13.948Z","date":"2026-03-03","time":"19:02:13"},{"rt":null,"stimulus":"<p style=\"font-size: 50px; margin: 0; text-align: center;\">+</p>","response":null,"trial_type":"html-keyboard-response","trial_index":88,"plugin_version":"2.1.0","time_elapsed":174192,"subject_id":"92561","group":"Group2","condition":"1_Rep","full_date":"2026-03-03T19:02:13.948Z","date":"2026-03-03","time":"19:02:13"},{"task":"memory_phase","broad_category":"S","image_png":"S_Dolomite_07.png","image_id":391,"category_name":"Dolomite","category":25,"distinct_rating":1.73,"distinct_type":"Bottom","rt":null,"stimulus":"Stimuli_Rocks480/S_Dolomite_07.png","response":null,"trial_type":"image-keyboard-response","trial_index":89,"plugin_version":"2.1.0","time_elapsed":176696,"subject_id":"92561","group":"Group2","condition":"1_Rep","full_date":"2026-03-03T19:02:13.948Z","date":"2026-03-03","time":"19:02:13"},{"rt":null,"stimulus":"<p style=\"font-size: 50px; margin: 0; text-align: center;\">+</p>","response":null,"trial_type":"html-keyboard-response","trial_index":90,"plugin_version":"2.1.0","time_elapsed":177698,"subject_id":"92561","group":"Group2","condition":"1_Rep","full_date":"2026-03-03T19:02:13.948Z","date":"2026-03-03","time":"19:02:13"},{"task":"memory_phase","broad_category":"S","image_png":"S_Sandstone_04.png","image_id":452,"category_name":"Sandstone","category":29,"distinct_rating":1.8,"distinct_type":"Bottom","rt":null,"stimulus":"Stimuli_Rocks480/S_Sandstone_04.png","response":null,"trial_type":"image-keyboard-response","trial_index":91,"plugin_version":"2.1.0","time_elapsed":180200,"subject_id":"92561","group":"Group2","condition":"1_Rep","full_date":"2026-03-03T19:02:13.948Z","date":"2026-03-03","time":"19:02:13"},{"rt":null,"stimulus":"<p style=\"font-size: 50px; margin: 0; text-align: center;\">+</p>","response":null,"trial_type":"html-keyboard-response","trial_index":92,"plugin_version":"2.1.0","time_elapsed":181203,"subject_id":"92561","group":"Group2","condition":"1_Rep","full_date":"2026-03-03T19:02:13.948Z","date":"2026-03-03","time":"19:02:13"},{"task":"memory_phase","broad_category":"S","image_png":"S_Sandstone_11.png","image_id":459,"category_name":"Sandstone","category":29,"distinct_rating":1.82,"distinct_type":"Bottom","rt":null,"stimulus":"Stimuli_Rocks480/S_Sandstone_11.png","response":null,"trial_type":"image-keyboard-response","trial_index":93,"plugin_version":"2.1.0","time_elapsed":183707,"subject_id":"92561","group":"Group2","condition":"1_Rep","full_date":"2026-03-03T19:02:13.948Z","date":"2026-03-03","time":"19:02:13"},{"rt":null,"stimulus":"<p style=\"font-size: 50px; margin: 0; text-align: center;\">+</p>","response":null,"trial_type":"html-keyboard-response","trial_index":94,"plugin_version":"2.1.0","time_elapsed":184709,"subject_id":"92561","group":"Group2","condition":"1_Rep","full_date":"2026-03-03T19:02:13.948Z","date":"2026-03-03","time":"19:02:13"},{"task":"memory_phase","broad_category":"S","image_png":"S_Dolomite_16.png","image_id":400,"category_name":"Dolomite","category":25,"distinct_rating":1.71,"distinct_type":"Bottom","rt":null,"stimulus":"Stimuli_Rocks480/S_Dolomite_16.png","response":null,"trial_type":"image-keyboard-response","trial_index":95,"plugin_version":"2.1.0","time_elapsed":187214,"subject_id":"92561","group":"Group2","condition":"1_Rep","full_date":"2026-03-03T19:02:13.948Z","date":"2026-03-03","time":"19:02:13"},{"rt":null,"stimulus":"<p style=\"font-size: 50px; margin: 0; text-align: center;\">+</p>","response":null,"trial_type":"html-keyboard-response","trial_index":96,"plugin_version":"2.1.0","time_elapsed":188216,"subject_id":"92561","group":"Group2","condition":"1_Rep","full_date":"2026-03-03T19:02:13.948Z","date":"2026-03-03","time":"19:02:13"},{"task":"memory_phase","broad_category":"I","image_png":"I_Andesite_04.png","image_id":4,"category_name":"Andesite","category":1,"distinct_rating":3.18,"distinct_type":"Bottom","rt":null,"stimulus":"Stimuli_Rocks480/I_Andesite_04.png","response":null,"trial_type":"image-keyboard-response","trial_index":97,"plugin_version":"2.1.0","time_elapsed":190720,"subject_id":"92561","group":"Group2","condition":"1_Rep","full_date":"2026-03-03T19:02:13.948Z","date":"2026-03-03","time":"19:02:13"},{"rt":null,"stimulus":"<p style=\"font-size: 50px; margin: 0; text-align: center;\">+</p>","response":null,"trial_type":"html-keyboard-response","trial_index":98,"plugin_version":"2.1.0","time_elapsed":191723,"subject_id":"92561","group":"Group2","condition":"1_Rep","full_date":"2026-03-03T19:02:13.948Z","date":"2026-03-03","time":"19:02:13"},{"task":"memory_phase","broad_category":"I","image_png":"I_Pegmatite_03.png","image_id":99,"category_name":"Pegmatite","category":7,"distinct_rating":7.24,"distinct_type":"Top","rt":null,"stimulus":"Stimuli_Rocks480/I_Pegmatite_03.png","response":null,"trial_type":"image-keyboard-response","trial_index":99,"plugin_version":"2.1.0","time_elapsed":194229,"subject_id":"92561","group":"Group2","condition":"1_Rep","full_date":"2026-03-03T19:02:13.948Z","date":"2026-03-03","time":"19:02:13"},{"rt":null,"stimulus":"<p style=\"font-size: 50px; margin: 0; text-align: center;\">+</p>","response":null,"trial_type":"html-keyboard-response","trial_index":100,"plugin_version":"2.1.0","time_elapsed":195232,"subject_id":"92561","group":"Group2","condition":"1_Rep","full_date":"2026-03-03T19:02:13.948Z","date":"2026-03-03","time":"19:02:13"},{"task":"memory_phase","broad_category":"S","image_png":"S_Chert_13.png","image_id":365,"category_name":"Chert","category":23,"distinct_rating":6.57,"distinct_type":"Top","rt":null,"stimulus":"Stimuli_Rocks480/S_Chert_13.png","response":null,"trial_type":"image-keyboard-response","trial_index":101,"plugin_version":"2.1.0","time_elapsed":197737,"subject_id":"92561","group":"Group2","condition":"1_Rep","full_date":"2026-03-03T19:02:13.948Z","date":"2026-03-03","time":"19:02:13"},{"rt":null,"stimulus":"<p style=\"font-size: 50px; margin: 0; text-align: center;\">+</p>","response":null,"trial_type":"html-keyboard-response","trial_index":102,"plugin_version":"2.1.0","time_elapsed":198739,"subject_id":"92561","group":"Group2","condition":"1_Rep","full_date":"2026-03-03T19:02:13.948Z","date":"2026-03-03","time":"19:02:13"},{"task":"memory_phase","broad_category":"I","image_png":"I_Rhyolite_08.png","image_id":152,"category_name":"Rhyolite","category":10,"distinct_rating":1.38,"distinct_type":"Bottom","rt":null,"stimulus":"Stimuli_Rocks480/I_Rhyolite_08.png","response":null,"trial_type":"image-keyboard-response","trial_index":103,"plugin_version":"2.1.0","time_elapsed":201243,"subject_id":"92561","group":"Group2","condition":"1_Rep","full_date":"2026-03-03T19:02:13.948Z","date":"2026-03-03","time":"19:02:13"},{"rt":null,"stimulus":"<p style=\"font-size: 50px; margin: 0; text-align: center;\">+</p>","response":null,"trial_type":"html-keyboard-response","trial_index":104,"plugin_version":"2.1.0","time_elapsed":202246,"subject_id":"92561","group":"Group2","condition":"1_Rep","full_date":"2026-03-03T19:02:13.948Z","date":"2026-03-03","time":"19:02:13"},{"task":"memory_phase","broad_category":"M","image_png":"M_Marble_14.png","image_id":238,"category_name":"Marble","category":15,"distinct_rating":3.31,"distinct_type":"Bottom","rt":null,"stimulus":"Stimuli_Rocks480/M_Marble_14.png","response":null,"trial_type":"image-keyboard-response","trial_index":105,"plugin_version":"2.1.0","time_elapsed":204750,"subject_id":"92561","group":"Group2","condition":"1_Rep","full_date":"2026-03-03T19:02:13.948Z","date":"2026-03-03","time":"19:02:13"},{"rt":35965,"stimulus":"<div style=\"max-width: 760px; margin: auto; font-size: 20px; line-height: 1.5;\">\n      <h1 style=\"text-align:center; font-size: 30px;\">Instructions for the Test Phase</h1>\n      <p>\n        The study phase is now complete.\n      </p>\n      <p>\n        In the test phase, you will again see a series of rock images. \n        Some will be ones you saw before - during the study phase, while others will be new.  \n        <b>Your task</b> is to decide whether you have seen each image before by pressing the corresponding key on your keyboard:<br><br>\n          <b>A</b> - NO (you did not see this image before)<br>\n          <b>L</b> - YES (you saw this image before)<br><br>\n        The test will proceed at your own pace. You will receive feedback after each response.  \n        Please try to respond <b>as accurately as possible</b>.\n      </p>\n      <p>\n        <b>Reminder:</b> If your computer has multiple language settings (e.g., English and another language),\n        please ensure it is set to English during the test phase.\n      </p>\n      <p>\n        You can track your progress using the <b>completion bar</b> at the top of the screen.  \n        Note that it has been refreshed to reflect your progress during this final phase.\n      </p>\n      <p>\n        Press the button below when you are ready to continue.\n      </p>\n    </div>","response":0,"trial_type":"html-button-response","trial_index":106,"plugin_version":"2.1.0","time_elapsed":240718,"subject_id":"92561","group":"Group2","condition":"1_Rep","full_date":"2026-03-03T19:02:13.948Z","date":"2026-03-03","time":"19:02:13"},{"correct_response":"a","task":"test_phase","broad_category":"M","image_png":"M_Phyllite_03.png","image_id":259,"category_name":"Phyllite","category":17,"distinct_rating":2.5,"distinct_type":"Bottom","item_type":"Foil","rt":23131,"stimulus":"Stimuli_Rocks480/M_Phyllite_03.png","response":"l","trial_type":"image-keyboard-response","trial_index":107,"plugin_version":"2.1.0","time_elapsed":263857,"subject_id":"92561","group":"Group2","condition":"1_Rep","full_date":"2026-03-03T19:02:13.948Z","date":"2026-03-03","time":"19:02:13","cor_ans":false},{"trial_type":"html-keyboard-response","rt":null,"stimulus":"<p style=\"color: red; font-size: 50px; font-weight: bold;\">Incorrect</p>","response":null,"trial_index":108,"plugin_version":"2.1.0","time_elapsed":264359,"subject_id":"92561","group":"Group2","condition":"1_Rep","full_date":"2026-03-03T19:02:13.948Z","date":"2026-03-03","time":"19:02:13"},{"correct_response":"l","task":"test_phase","broad_category":"M","image_png":"M_Marble_02.png","image_id":226,"category_name":"Marble","category":15,"distinct_rating":3.2,"distinct_type":"Bottom","item_type":"Target","rt":2717,"stimulus":"Stimuli_Rocks480/M_Marble_02.png","response":"a","trial_type":"image-keyboard-response","trial_index":109,"plugin_version":"2.1.0","time_elapsed":267080,"subject_id":"92561","group":"Group2","condition":"1_Rep","full_date":"2026-03-03T19:02:13.948Z","date":"2026-03-03","time":"19:02:13","cor_ans":false},{"trial_type":"html-keyboard-response","rt":null,"stimulus":"<p style=\"color: red; font-size: 50px; font-weight: bold;\">Incorrect</p>","response":null,"trial_index":110,"plugin_version":"2.1.0","time_elapsed":267582,"subject_id":"92561","group":"Group2","condition":"1_Rep","full_date":"2026-03-03T19:02:13.948Z","date":"2026-03-03","time":"19:02:13"},{"correct_response":"a","task":"test_phase","broad_category":"M","image_png":"M_Marble_06.png","image_id":230,"category_name":"Marble","category":15,"distinct_rating":3.4,"distinct_type":"Bottom","item_type":"Foil","rt":352,"stimulus":"Stimuli_Rocks480/M_Marble_06.png","response":"l","trial_type":"image-keyboard-response","trial_index":111,"plugin_version":"2.1.0","time_elapsed":267937,"subject_id":"92561","group":"Group2","condition":"1_Rep","full_date":"2026-03-03T19:02:13.948Z","date":"2026-03-03","time":"19:02:13","cor_ans":false},{"trial_type":"html-keyboard-response","rt":null,"stimulus":"<p style=\"color: red; font-size: 50px; font-weight: bold;\">Incorrect</p>","response":null,"trial_index":112,"plugin_version":"2.1.0","time_elapsed":268439,"subject_id":"92561","group":"Group2","condition":"1_Rep","full_date":"2026-03-03T19:02:13.948Z","date":"2026-03-03","time":"19:02:13"},{"correct_response":"l","task":"test_phase","broad_category":"I","image_png":"I_Basalt_08.png","image_id":24,"category_name":"Basalt","category":2,"distinct_rating":2.31,"distinct_type":"Bottom","item_type":"Target","rt":328,"stimulus":"Stimuli_Rocks480/I_Basalt_08.png","response":"a","trial_type":"image-keyboard-response","trial_index":113,"plugin_version":"2.1.0","time_elapsed":268769,"subject_id":"92561","group":"Group2","condition":"1_Rep","full_date":"2026-03-03T19:02:13.948Z","date":"2026-03-03","time":"19:02:13","cor_ans":false},{"trial_type":"html-keyboard-response","rt":null,"stimulus":"<p style=\"color: red; font-size: 50px; font-weight: bold;\">Incorrect</p>","response":null,"trial_index":114,"plugin_version":"2.1.0","time_elapsed":269271,"subject_id":"92561","group":"Group2","condition":"1_Rep","full_date":"2026-03-03T19:02:13.948Z","date":"2026-03-03","time":"19:02:13"},{"correct_response":"a","task":"test_phase","broad_category":"S","image_png":"S_Breccia_11.png","image_id":347,"category_name":"Breccia","category":22,"distinct_rating":6.7,"distinct_type":"Top","item_type":"Foil","rt":310,"stimulus":"Stimuli_Rocks480/S_Breccia_11.png","response":"l","trial_type":"image-keyboard-response","trial_index":115,"plugin_version":"2.1.0","time_elapsed":269583,"subject_id":"92561","group":"Group2","condition":"1_Rep","full_date":"2026-03-03T19:02:13.948Z","date":"2026-03-03","time":"19:02:13","cor_ans":false},{"trial_type":"html-keyboard-response","rt":null,"stimulus":"<p style=\"color: red; font-size: 50px; font-weight: bold;\">Incorrect</p>","response":null,"trial_index":116,"plugin_version":"2.1.0","time_elapsed":270086,"subject_id":"92561","group":"Group2","condition":"1_Rep","full_date":"2026-03-03T19:02:13.948Z","date":"2026-03-03","time":"19:02:13"},{"correct_response":"a","task":"test_phase","broad_category":"S","image_png":"S_Sandstone_03.png","image_id":451,"category_name":"Sandstone","category":29,"distinct_rating":1.86,"distinct_type":"Bottom","item_type":"Foil","rt":337,"stimulus":"Stimuli_Rocks480/S_Sandstone_03.png","response":"l","trial_type":"image-keyboard-response","trial_index":117,"plugin_version":"2.1.0","time_elapsed":270426,"subject_id":"92561","group":"Group2","condition":"1_Rep","full_date":"2026-03-03T19:02:13.948Z","date":"2026-03-03","time":"19:02:13","cor_ans":false},{"trial_type":"html-keyboard-response","rt":null,"stimulus":"<p style=\"color: red; font-size: 50px; font-weight: bold;\">Incorrect</p>","response":null,"trial_index":118,"plugin_version":"2.1.0","time_elapsed":270927,"subject_id":"92561","group":"Group2","condition":"1_Rep","full_date":"2026-03-03T19:02:13.948Z","date":"2026-03-03","time":"19:02:13"},{"correct_response":"a","task":"test_phase","broad_category":"S","image_png":"S_Chert_10.png","image_id":362,"category_name":"Chert","category":23,"distinct_rating":7.17,"distinct_type":"Top","item_type":"Foil","rt":342,"stimulus":"Stimuli_Rocks480/S_Chert_10.png","response":"a","trial_type":"image-keyboard-response","trial_index":119,"plugin_version":"2.1.0","time_elapsed":271271,"subject_id":"92561","group":"Group2","condition":"1_Rep","full_date":"2026-03-03T19:02:13.948Z","date":"2026-03-03","time":"19:02:13","cor_ans":true},{"trial_type":"html-keyboard-response","rt":null,"stimulus":"<p style=\"color: green; font-size: 50px; font-weight: bold;\">Correct</p>","response":null,"trial_index":120,"plugin_version":"2.1.0","time_elapsed":271774,"subject_id":"92561","group":"Group2","condition":"1_Rep","full_date":"2026-03-03T19:02:13.948Z","date":"2026-03-03","time":"19:02:13"},{"correct_response":"l","task":"test_phase","broad_category":"I","image_png":"I_Rhyolite_08.png","image_id":152,"category_name":"Rhyolite","category":10,"distinct_rating":1.38,"distinct_type":"Bottom","item_type":"Target","rt":581,"stimulus":"Stimuli_Rocks480/I_Rhyolite_08.png","response":"a","trial_type":"image-keyboard-response","trial_index":121,"plugin_version":"2.1.0","time_elapsed":272358,"subject_id":"92561","group":"Group2","condition":"1_Rep","full_date":"2026-03-03T19:02:13.948Z","date":"2026-03-03","time":"19:02:13","cor_ans":false},{"trial_type":"html-keyboard-response","rt":null,"stimulus":"<p style=\"color: red; font-size: 50px; font-weight: bold;\">Incorrect</p>","response":null,"trial_index":122,"plugin_version":"2.1.0","time_elapsed":272859,"subject_id":"92561","group":"Group2","condition":"1_Rep","full_date":"2026-03-03T19:02:13.948Z","date":"2026-03-03","time":"19:02:13"},{"correct_response":"l","task":"test_phase","broad_category":"I","image_png":"I_Gabbro_14.png","image_id":62,"category_name":"Gabbro","category":4,"distinct_rating":2.95,"distinct_type":"Bottom","item_type":"Target","rt":336,"stimulus":"Stimuli_Rocks480/I_Gabbro_14.png","response":"l","trial_type":"image-keyboard-response","trial_index":123,"plugin_version":"2.1.0","time_elapsed":273198,"subject_id":"92561","group":"Group2","condition":"1_Rep","full_date":"2026-03-03T19:02:13.948Z","date":"2026-03-03","time":"19:02:13","cor_ans":true},{"trial_type":"html-keyboard-response","rt":null,"stimulus":"<p style=\"color: green; font-size: 50px; font-weight: bold;\">Correct</p>","response":null,"trial_index":124,"plugin_version":"2.1.0","time_elapsed":273701,"subject_id":"92561","group":"Group2","condition":"1_Rep","full_date":"2026-03-03T19:02:13.948Z","date":"2026-03-03","time":"19:02:13"},{"correct_response":"l","task":"test_phase","broad_category":"M","image_png":"M_Quartzite_07.png","image_id":279,"category_name":"Quartzite","category":18,"distinct_rating":1.97,"distinct_type":"Bottom","item_type":"Target","rt":29,"stimulus":"Stimuli_Rocks480/M_Quartzite_07.png","response":"a","trial_type":"image-keyboard-response","trial_index":125,"plugin_version":"2.1.0","time_elapsed":273732,"subject_id":"92561","group":"Group2","condition":"1_Rep","full_date":"2026-03-03T19:02:13.948Z","date":"2026-03-03","time":"19:02:13","cor_ans":false},{"trial_type":"html-keyboard-response","rt":null,"stimulus":"<p style=\"color: red; font-size: 50px; font-weight: bold;\">Incorrect</p>","response":null,"trial_index":126,"plugin_version":"2.1.0","time_elapsed":274234,"subject_id":"92561","group":"Group2","condition":"1_Rep","full_date":"2026-03-03T19:02:13.948Z","date":"2026-03-03","time":"19:02:13"},{"correct_response":"a","task":"test_phase","broad_category":"M","image_png":"M_Quartzite_05.png","image_id":277,"category_name":"Quartzite","category":18,"distinct_rating":2.23,"distinct_type":"Bottom","item_type":"Foil","rt":74,"stimulus":"Stimuli_Rocks480/M_Quartzite_05.png","response":"l","trial_type":"image-keyboard-response","trial_index":127,"plugin_version":"2.1.0","time_elapsed":274310,"subject_id":"92561","group":"Group2","condition":"1_Rep","full_date":"2026-03-03T19:02:13.948Z","date":"2026-03-03","time":"19:02:13","cor_ans":false},{"trial_type":"html-keyboard-response","rt":null,"stimulus":"<p style=\"color: red; font-size: 50px; font-weight: bold;\">Incorrect</p>","response":null,"trial_index":128,"plugin_version":"2.1.0","time_elapsed":274812,"subject_id":"92561","group":"Group2","condition":"1_Rep","full_date":"2026-03-03T19:02:13.948Z","date":"2026-03-03","time":"19:02:13"},{"correct_response":"a","task":"test_phase","broad_category":"I","image_png":"I_Pegmatite_16.png","image_id":112,"category_name":"Pegmatite","category":7,"distinct_rating":7.03,"distinct_type":"Top","item_type":"Foil","rt":105,"stimulus":"Stimuli_Rocks480/I_Pegmatite_16.png","response":"a","trial_type":"image-keyboard-response","trial_index":129,"plugin_version":"2.1.0","time_elapsed":274920,"subject_id":"92561","group":"Group2","condition":"1_Rep","full_date":"2026-03-03T19:02:13.948Z","date":"2026-03-03","time":"19:02:13","cor_ans":true},{"trial_type":"html-keyboard-response","rt":null,"stimulus":"<p style=\"color: green; font-size: 50px; font-weight: bold;\">Correct</p>","response":null,"trial_index":130,"plugin_version":"2.1.0","time_elapsed":275423,"subject_id":"92561","group":"Group2","condition":"1_Rep","full_date":"2026-03-03T19:02:13.948Z","date":"2026-03-03","time":"19:02:13"},{"correct_response":"l","task":"test_phase","broad_category":"I","image_png":"I_Gabbro_02.png","image_id":50,"category_name":"Gabbro","category":4,"distinct_rating":2.73,"distinct_type":"Bottom","item_type":"Target","rt":85,"stimulus":"Stimuli_Rocks480/I_Gabbro_02.png","response":"l","trial_type":"image-keyboard-response","trial_index":131,"plugin_version":"2.1.0","time_elapsed":275511,"subject_id":"92561","group":"Group2","condition":"1_Rep","full_date":"2026-03-03T19:02:13.948Z","date":"2026-03-03","time":"19:02:13","cor_ans":true},{"trial_type":"html-keyboard-response","rt":null,"stimulus":"<p style=\"color: green; font-size: 50px; font-weight: bold;\">Correct</p>","response":null,"trial_index":132,"plugin_version":"2.1.0","time_elapsed":276014,"subject_id":"92561","group":"Group2","condition":"1_Rep","full_date":"2026-03-03T19:02:13.948Z","date":"2026-03-03","time":"19:02:13"},{"correct_response":"a","task":"test_phase","broad_category":"S","image_png":"S_Shale_08.png","image_id":472,"category_name":"Shale","category":30,"distinct_rating":2.55,"distinct_type":"Bottom","item_type":"Foil","rt":157,"stimulus":"Stimuli_Rocks480/S_Shale_08.png","response":"a","trial_type":"image-keyboard-response","trial_index":133,"plugin_version":"2.1.0","time_elapsed":276174,"subject_id":"92561","group":"Group2","condition":"1_Rep","full_date":"2026-03-03T19:02:13.948Z","date":"2026-03-03","time":"19:02:13","cor_ans":true},{"trial_type":"html-keyboard-response","rt":null,"stimulus":"<p style=\"color: green; font-size: 50px; font-weight: bold;\">Correct</p>","response":null,"trial_index":134,"plugin_version":"2.1.0","time_elapsed":276676,"subject_id":"92561","group":"Group2","condition":"1_Rep","full_date":"2026-03-03T19:02:13.948Z","date":"2026-03-03","time":"19:02:13"},{"correct_response":"l","task":"test_phase","broad_category":"M","image_png":"M_Gneiss_15.png","image_id":207,"category_name":"Gneiss","category":13,"distinct_rating":3.11,"distinct_type":"Bottom","item_type":"Target","rt":214,"stimulus":"Stimuli_Rocks480/M_Gneiss_15.png","response":"l","trial_type":"image-keyboard-response","trial_index":135,"plugin_version":"2.1.0","time_elapsed":276894,"subject_id":"92561","group":"Group2","condition":"1_Rep","full_date":"2026-03-03T19:02:13.948Z","date":"2026-03-03","time":"19:02:13","cor_ans":true},{"trial_type":"html-keyboard-response","rt":null,"stimulus":"<p style=\"color: green; font-size: 50px; font-weight: bold;\">Correct</p>","response":null,"trial_index":136,"plugin_version":"2.1.0","time_elapsed":277397,"subject_id":"92561","group":"Group2","condition":"1_Rep","full_date":"2026-03-03T19:02:13.948Z","date":"2026-03-03","time":"19:02:13"},{"correct_response":"l","task":"test_phase","broad_category":"S","image_png":"S_Dolomite_16.png","image_id":400,"category_name":"Dolomite","category":25,"distinct_rating":1.71,"distinct_type":"Bottom","item_type":"Target","rt":663,"stimulus":"Stimuli_Rocks480/S_Dolomite_16.png","response":"a","trial_type":"image-keyboard-response","trial_index":137,"plugin_version":"2.1.0","time_elapsed":278063,"subject_id":"92561","group":"Group2","condition":"1_Rep","full_date":"2026-03-03T19:02:13.948Z","date":"2026-03-03","time":"19:02:13","cor_ans":false},{"trial_type":"html-keyboard-response","rt":null,"stimulus":"<p style=\"color: red; font-size: 50px; font-weight: bold;\">Incorrect</p>","response":null,"trial_index":138,"plugin_version":"2.1.0","time_elapsed":278565,"subject_id":"92561","group":"Group2","condition":"1_Rep","full_date":"2026-03-03T19:02:13.948Z","date":"2026-03-03","time":"19:02:13"},{"correct_response":"l","task":"test_phase","broad_category":"M","image_png":"M_Gneiss_14.png","image_id":206,"category_name":"Gneiss","category":13,"distinct_rating":3.41,"distinct_type":"Bottom","item_type":"Target","rt":425,"stimulus":"Stimuli_Rocks480/M_Gneiss_14.png","response":"l","trial_type":"image-keyboard-response","trial_index":139,"plugin_version":"2.1.0","time_elapsed":278994,"subject_id":"92561","group":"Group2","condition":"1_Rep","full_date":"2026-03-03T19:02:13.948Z","date":"2026-03-03","time":"19:02:13","cor_ans":true},{"trial_type":"html-keyboard-response","rt":null,"stimulus":"<p style=\"color: green; font-size: 50px; font-weight: bold;\">Correct</p>","response":null,"trial_index":140,"plugin_version":"2.1.0","time_elapsed":279495,"subject_id":"92561","group":"Group2","condition":"1_Rep","full_date":"2026-03-03T19:02:13.948Z","date":"2026-03-03","time":"19:02:13"},{"correct_response":"a","task":"test_phase","broad_category":"S","image_png":"S_Dolomite_13.png","image_id":397,"category_name":"Dolomite","category":25,"distinct_rating":1.77,"distinct_type":"Bottom","item_type":"Foil","rt":327,"stimulus":"Stimuli_Rocks480/S_Dolomite_13.png","response":"a","trial_type":"image-keyboard-response","trial_index":141,"plugin_version":"2.1.0","time_elapsed":279825,"subject_id":"92561","group":"Group2","condition":"1_Rep","full_date":"2026-03-03T19:02:13.948Z","date":"2026-03-03","time":"19:02:13","cor_ans":true},{"trial_type":"html-keyboard-response","rt":null,"stimulus":"<p style=\"color: green; font-size: 50px; font-weight: bold;\">Correct</p>","response":null,"trial_index":142,"plugin_version":"2.1.0","time_elapsed":280326,"subject_id":"92561","group":"Group2","condition":"1_Rep","full_date":"2026-03-03T19:02:13.948Z","date":"2026-03-03","time":"19:02:13"},{"correct_response":"l","task":"test_phase","broad_category":"S","image_png":"S_Sandstone_11.png","image_id":459,"category_name":"Sandstone","category":29,"distinct_rating":1.82,"distinct_type":"Bottom","item_type":"Target","rt":331,"stimulus":"Stimuli_Rocks480/S_Sandstone_11.png","response":"l","trial_type":"image-keyboard-response","trial_index":143,"plugin_version":"2.1.0","time_elapsed":280661,"subject_id":"92561","group":"Group2","condition":"1_Rep","full_date":"2026-03-03T19:02:13.948Z","date":"2026-03-03","time":"19:02:13","cor_ans":true},{"trial_type":"html-keyboard-response","rt":null,"stimulus":"<p style=\"color: green; font-size: 50px; font-weight: bold;\">Correct</p>","response":null,"trial_index":144,"plugin_version":"2.1.0","time_elapsed":281163,"subject_id":"92561","group":"Group2","condition":"1_Rep","full_date":"2026-03-03T19:02:13.948Z","date":"2026-03-03","time":"19:02:13"},{"correct_response":"l","task":"test_phase","broad_category":"S","image_png":"S_Conglomerate_14.png","image_id":382,"category_name":"Conglomerate","category":24,"distinct_rating":6.86,"distinct_type":"Top","item_type":"Target","rt":679,"stimulus":"Stimuli_Rocks480/S_Conglomerate_14.png","response":"a","trial_type":"image-keyboard-response","trial_index":145,"plugin_version":"2.1.0","time_elapsed":281844,"subject_id":"92561","group":"Group2","condition":"1_Rep","full_date":"2026-03-03T19:02:13.948Z","date":"2026-03-03","time":"19:02:13","cor_ans":false},{"trial_type":"html-keyboard-response","rt":null,"stimulus":"<p style=\"color: red; font-size: 50px; font-weight: bold;\">Incorrect</p>","response":null,"trial_index":146,"plugin_version":"2.1.0","time_elapsed":282346,"subject_id":"92561","group":"Group2","condition":"1_Rep","full_date":"2026-03-03T19:02:13.948Z","date":"2026-03-03","time":"19:02:13"},{"correct_response":"a","task":"test_phase","broad_category":"I","image_png":"I_Pegmatite_10.png","image_id":106,"category_name":"Pegmatite","category":7,"distinct_rating":7.66,"distinct_type":"Top","item_type":"Foil","rt":986,"stimulus":"Stimuli_Rocks480/I_Pegmatite_10.png","response":"l","trial_type":"image-keyboard-response","trial_index":147,"plugin_version":"2.1.0","time_elapsed":283334,"subject_id":"92561","group":"Group2","condition":"1_Rep","full_date":"2026-03-03T19:02:13.948Z","date":"2026-03-03","time":"19:02:13","cor_ans":false},{"trial_type":"html-keyboard-response","rt":null,"stimulus":"<p style=\"color: red; font-size: 50px; font-weight: bold;\">Incorrect</p>","response":null,"trial_index":148,"plugin_version":"2.1.0","time_elapsed":283837,"subject_id":"92561","group":"Group2","condition":"1_Rep","full_date":"2026-03-03T19:02:13.948Z","date":"2026-03-03","time":"19:02:13"},{"correct_response":"l","task":"test_phase","broad_category":"M","image_png":"M_Quartzite_15.png","image_id":287,"category_name":"Quartzite","category":18,"distinct_rating":2.19,"distinct_type":"Bottom","item_type":"Target","rt":144,"stimulus":"Stimuli_Rocks480/M_Quartzite_15.png","response":"a","trial_type":"image-keyboard-response","trial_index":149,"plugin_version":"2.1.0","time_elapsed":283984,"subject_id":"92561","group":"Group2","condition":"1_Rep","full_date":"2026-03-03T19:02:13.948Z","date":"2026-03-03","time":"19:02:13","cor_ans":false},{"trial_type":"html-keyboard-response","rt":null,"stimulus":"<p style=\"color: red; font-size: 50px; font-weight: bold;\">Incorrect</p>","response":null,"trial_index":150,"plugin_version":"2.1.0","time_elapsed":284486,"subject_id":"92561","group":"Group2","condition":"1_Rep","full_date":"2026-03-03T19:02:13.948Z","date":"2026-03-03","time":"19:02:13"},{"correct_response":"a","task":"test_phase","broad_category":"M","image_png":"M_Gneiss_13.png","image_id":205,"category_name":"Gneiss","category":13,"distinct_rating":3.26,"distinct_type":"Bottom","item_type":"Foil","rt":374,"stimulus":"Stimuli_Rocks480/M_Gneiss_13.png","response":"l","trial_type":"image-keyboard-response","trial_index":151,"plugin_version":"2.1.0","time_elapsed":284862,"subject_id":"92561","group":"Group2","condition":"1_Rep","full_date":"2026-03-03T19:02:13.948Z","date":"2026-03-03","time":"19:02:13","cor_ans":false},{"trial_type":"html-keyboard-response","rt":null,"stimulus":"<p style=\"color: red; font-size: 50px; font-weight: bold;\">Incorrect</p>","response":null,"trial_index":152,"plugin_version":"2.1.0","time_elapsed":285365,"subject_id":"92561","group":"Group2","condition":"1_Rep","full_date":"2026-03-03T19:02:13.948Z","date":"2026-03-03","time":"19:02:13"},{"correct_response":"a","task":"test_phase","broad_category":"M","image_png":"M_Marble_16.png","image_id":240,"category_name":"Marble","category":15,"distinct_rating":2.57,"distinct_type":"Bottom","item_type":"Foil","rt":374,"stimulus":"Stimuli_Rocks480/M_Marble_16.png","response":"a","trial_type":"image-keyboard-response","trial_index":153,"plugin_version":"2.1.0","time_elapsed":285743,"subject_id":"92561","group":"Group2","condition":"1_Rep","full_date":"2026-03-03T19:02:13.948Z","date":"2026-03-03","time":"19:02:13","cor_ans":true},{"trial_type":"html-keyboard-response","rt":null,"stimulus":"<p style=\"color: green; font-size: 50px; font-weight: bold;\">Correct</p>","response":null,"trial_index":154,"plugin_version":"2.1.0","time_elapsed":286245,"subject_id":"92561","group":"Group2","condition":"1_Rep","full_date":"2026-03-03T19:02:13.948Z","date":"2026-03-03","time":"19:02:13"},{"correct_response":"a","task":"test_phase","broad_category":"I","image_png":"I_Gabbro_08.png","image_id":56,"category_name":"Gabbro","category":4,"distinct_rating":3.02,"distinct_type":"Bottom","item_type":"Foil","rt":308,"stimulus":"Stimuli_Rocks480/I_Gabbro_08.png","response":"a","trial_type":"image-keyboard-response","trial_index":155,"plugin_version":"2.1.0","time_elapsed":286557,"subject_id":"92561","group":"Group2","condition":"1_Rep","full_date":"2026-03-03T19:02:13.948Z","date":"2026-03-03","time":"19:02:13","cor_ans":true},{"trial_type":"html-keyboard-response","rt":null,"stimulus":"<p style=\"color: green; font-size: 50px; font-weight: bold;\">Correct</p>","response":null,"trial_index":156,"plugin_version":"2.1.0","time_elapsed":287059,"subject_id":"92561","group":"Group2","condition":"1_Rep","full_date":"2026-03-03T19:02:13.948Z","date":"2026-03-03","time":"19:02:13"},{"correct_response":"l","task":"test_phase","broad_category":"I","image_png":"I_Andesite_03.png","image_id":3,"category_name":"Andesite","category":1,"distinct_rating":3.17,"distinct_type":"Bottom","item_type":"Target","rt":275,"stimulus":"Stimuli_Rocks480/I_Andesite_03.png","response":"a","trial_type":"image-keyboard-response","trial_index":157,"plugin_version":"2.1.0","time_elapsed":287338,"subject_id":"92561","group":"Group2","condition":"1_Rep","full_date":"2026-03-03T19:02:13.948Z","date":"2026-03-03","time":"19:02:13","cor_ans":false},{"trial_type":"html-keyboard-response","rt":null,"stimulus":"<p style=\"color: red; font-size: 50px; font-weight: bold;\">Incorrect</p>","response":null,"trial_index":158,"plugin_version":"2.1.0","time_elapsed":287840,"subject_id":"92561","group":"Group2","condition":"1_Rep","full_date":"2026-03-03T19:02:13.948Z","date":"2026-03-03","time":"19:02:13"},{"correct_response":"l","task":"test_phase","broad_category":"I","image_png":"I_Rhyolite_10.png","image_id":154,"category_name":"Rhyolite","category":10,"distinct_rating":2.88,"distinct_type":"Bottom","item_type":"Target","rt":322,"stimulus":"Stimuli_Rocks480/I_Rhyolite_10.png","response":"l","trial_type":"image-keyboard-response","trial_index":159,"plugin_version":"2.1.0","time_elapsed":288164,"subject_id":"92561","group":"Group2","condition":"1_Rep","full_date":"2026-03-03T19:02:13.948Z","date":"2026-03-03","time":"19:02:13","cor_ans":true},{"trial_type":"html-keyboard-response","rt":null,"stimulus":"<p style=\"color: green; font-size: 50px; font-weight: bold;\">Correct</p>","response":null,"trial_index":160,"plugin_version":"2.1.0","time_elapsed":288666,"subject_id":"92561","group":"Group2","condition":"1_Rep","full_date":"2026-03-03T19:02:13.948Z","date":"2026-03-03","time":"19:02:13"},{"correct_response":"a","task":"test_phase","broad_category":"M","image_png":"M_Slate_15.png","image_id":319,"category_name":"Slate","category":20,"distinct_rating":2.13,"distinct_type":"Bottom","item_type":"Foil","rt":347,"stimulus":"Stimuli_Rocks480/M_Slate_15.png","response":"l","trial_type":"image-keyboard-response","trial_index":161,"plugin_version":"2.1.0","time_elapsed":289016,"subject_id":"92561","group":"Group2","condition":"1_Rep","full_date":"2026-03-03T19:02:13.948Z","date":"2026-03-03","time":"19:02:13","cor_ans":false},{"trial_type":"html-keyboard-response","rt":null,"stimulus":"<p style=\"color: red; font-size: 50px; font-weight: bold;\">Incorrect</p>","response":null,"trial_index":162,"plugin_version":"2.1.0","time_elapsed":289518,"subject_id":"92561","group":"Group2","condition":"1_Rep","full_date":"2026-03-03T19:02:13.948Z","date":"2026-03-03","time":"19:02:13"},{"correct_response":"l","task":"test_phase","broad_category":"I","image_png":"I_Diorite_01.png","image_id":33,"category_name":"Diorite","category":3,"distinct_rating":2.97,"distinct_type":"Bottom","item_type":"Target","rt":27,"stimulus":"Stimuli_Rocks480/I_Diorite_01.png","response":"l","trial_type":"image-keyboard-response","trial_index":163,"plugin_version":"2.1.0","time_elapsed":289547,"subject_id":"92561","group":"Group2","condition":"1_Rep","full_date":"2026-03-03T19:02:13.948Z","date":"2026-03-03","time":"19:02:13","cor_ans":true},{"trial_type":"html-keyboard-response","rt":null,"stimulus":"<p style=\"color: green; font-size: 50px; font-weight: bold;\">Correct</p>","response":null,"trial_index":164,"plugin_version":"2.1.0","time_elapsed":290049,"subject_id":"92561","group":"Group2","condition":"1_Rep","full_date":"2026-03-03T19:02:13.948Z","date":"2026-03-03","time":"19:02:13"},{"correct_response":"l","task":"test_phase","broad_category":"M","image_png":"M_Phyllite_13.png","image_id":269,"category_name":"Phyllite","category":17,"distinct_rating":2.8,"distinct_type":"Bottom","item_type":"Target","rt":519,"stimulus":"Stimuli_Rocks480/M_Phyllite_13.png","response":"l","trial_type":"image-keyboard-response","trial_index":165,"plugin_version":"2.1.0","time_elapsed":290571,"subject_id":"92561","group":"Group2","condition":"1_Rep","full_date":"2026-03-03T19:02:13.948Z","date":"2026-03-03","time":"19:02:13","cor_ans":true},{"trial_type":"html-keyboard-response","rt":null,"stimulus":"<p style=\"color: green; font-size: 50px; font-weight: bold;\">Correct</p>","response":null,"trial_index":166,"plugin_version":"2.1.0","time_elapsed":291074,"subject_id":"92561","group":"Group2","condition":"1_Rep","full_date":"2026-03-03T19:02:13.948Z","date":"2026-03-03","time":"19:02:13"},{"correct_response":"l","task":"test_phase","broad_category":"M","image_png":"M_Phyllite_05.png","image_id":261,"category_name":"Phyllite","category":17,"distinct_rating":2.14,"distinct_type":"Bottom","item_type":"Target","rt":319,"stimulus":"Stimuli_Rocks480/M_Phyllite_05.png","response":"l","trial_type":"image-keyboard-response","trial_index":167,"plugin_version":"2.1.0","time_elapsed":291395,"subject_id":"92561","group":"Group2","condition":"1_Rep","full_date":"2026-03-03T19:02:13.948Z","date":"2026-03-03","time":"19:02:13","cor_ans":true},{"trial_type":"html-keyboard-response","rt":null,"stimulus":"<p style=\"color: green; font-size: 50px; font-weight: bold;\">Correct</p>","response":null,"trial_index":168,"plugin_version":"2.1.0","time_elapsed":291897,"subject_id":"92561","group":"Group2","condition":"1_Rep","full_date":"2026-03-03T19:02:13.948Z","date":"2026-03-03","time":"19:02:13"},{"correct_response":"l","task":"test_phase","broad_category":"S","image_png":"S_Shale_02.png","image_id":466,"category_name":"Shale","category":30,"distinct_rating":2.9,"distinct_type":"Bottom","item_type":"Target","rt":339,"stimulus":"Stimuli_Rocks480/S_Shale_02.png","response":"l","trial_type":"image-keyboard-response","trial_index":169,"plugin_version":"2.1.0","time_elapsed":292239,"subject_id":"92561","group":"Group2","condition":"1_Rep","full_date":"2026-03-03T19:02:13.948Z","date":"2026-03-03","time":"19:02:13","cor_ans":true},{"trial_type":"html-keyboard-response","rt":null,"stimulus":"<p style=\"color: green; font-size: 50px; font-weight: bold;\">Correct</p>","response":null,"trial_index":170,"plugin_version":"2.1.0","time_elapsed":292741,"subject_id":"92561","group":"Group2","condition":"1_Rep","full_date":"2026-03-03T19:02:13.948Z","date":"2026-03-03","time":"19:02:13"},{"correct_response":"l","task":"test_phase","broad_category":"M","image_png":"M_Slate_10.png","image_id":314,"category_name":"Slate","category":20,"distinct_rating":1.94,"distinct_type":"Bottom","item_type":"Target","rt":194,"stimulus":"Stimuli_Rocks480/M_Slate_10.png","response":"l","trial_type":"image-keyboard-response","trial_index":171,"plugin_version":"2.1.0","time_elapsed":292937,"subject_id":"92561","group":"Group2","condition":"1_Rep","full_date":"2026-03-03T19:02:13.948Z","date":"2026-03-03","time":"19:02:13","cor_ans":true},{"trial_type":"html-keyboard-response","rt":null,"stimulus":"<p style=\"color: green; font-size: 50px; font-weight: bold;\">Correct</p>","response":null,"trial_index":172,"plugin_version":"2.1.0","time_elapsed":293439,"subject_id":"92561","group":"Group2","condition":"1_Rep","full_date":"2026-03-03T19:02:13.948Z","date":"2026-03-03","time":"19:02:13"},{"correct_response":"a","task":"test_phase","broad_category":"S","image_png":"S_Sandstone_16.png","image_id":464,"category_name":"Sandstone","category":29,"distinct_rating":1.93,"distinct_type":"Bottom","item_type":"Foil","rt":156,"stimulus":"Stimuli_Rocks480/S_Sandstone_16.png","response":"l","trial_type":"image-keyboard-response","trial_index":173,"plugin_version":"2.1.0","time_elapsed":293597,"subject_id":"92561","group":"Group2","condition":"1_Rep","full_date":"2026-03-03T19:02:13.948Z","date":"2026-03-03","time":"19:02:13","cor_ans":false},{"trial_type":"html-keyboard-response","rt":null,"stimulus":"<p style=\"color: red; font-size: 50px; font-weight: bold;\">Incorrect</p>","response":null,"trial_index":174,"plugin_version":"2.1.0","time_elapsed":294099,"subject_id":"92561","group":"Group2","condition":"1_Rep","full_date":"2026-03-03T19:02:13.948Z","date":"2026-03-03","time":"19:02:13"},{"correct_response":"a","task":"test_phase","broad_category":"S","image_png":"S_Shale_12.png","image_id":476,"category_name":"Shale","category":30,"distinct_rating":2.48,"distinct_type":"Bottom","item_type":"Foil","rt":55,"stimulus":"Stimuli_Rocks480/S_Shale_12.png","response":"l","trial_type":"image-keyboard-response","trial_index":175,"plugin_version":"2.1.0","time_elapsed":294155,"subject_id":"92561","group":"Group2","condition":"1_Rep","full_date":"2026-03-03T19:02:13.948Z","date":"2026-03-03","time":"19:02:13","cor_ans":false},{"trial_type":"html-keyboard-response","rt":null,"stimulus":"<p style=\"color: red; font-size: 50px; font-weight: bold;\">Incorrect</p>","response":null,"trial_index":176,"plugin_version":"2.1.0","time_elapsed":294657,"subject_id":"92561","group":"Group2","condition":"1_Rep","full_date":"2026-03-03T19:02:13.948Z","date":"2026-03-03","time":"19:02:13"},{"correct_response":"l","task":"test_phase","broad_category":"I","image_png":"I_Obsidian_06.png","image_id":86,"category_name":"Obsidian","category":6,"distinct_rating":8.01,"distinct_type":"Top","item_type":"Target","rt":57,"stimulus":"Stimuli_Rocks480/I_Obsidian_06.png","response":"a","trial_type":"image-keyboard-response","trial_index":177,"plugin_version":"2.1.0","time_elapsed":294716,"subject_id":"92561","group":"Group2","condition":"1_Rep","full_date":"2026-03-03T19:02:13.948Z","date":"2026-03-03","time":"19:02:13","cor_ans":false},{"trial_type":"html-keyboard-response","rt":null,"stimulus":"<p style=\"color: red; font-size: 50px; font-weight: bold;\">Incorrect</p>","response":null,"trial_index":178,"plugin_version":"2.1.0","time_elapsed":295219,"subject_id":"92561","group":"Group2","condition":"1_Rep","full_date":"2026-03-03T19:02:13.948Z","date":"2026-03-03","time":"19:02:13"},{"correct_response":"l","task":"test_phase","broad_category":"S","image_png":"S_Sandstone_04.png","image_id":452,"category_name":"Sandstone","category":29,"distinct_rating":1.8,"distinct_type":"Bottom","item_type":"Target","rt":571,"stimulus":"Stimuli_Rocks480/S_Sandstone_04.png","response":"a","trial_type":"image-keyboard-response","trial_index":179,"plugin_version":"2.1.0","time_elapsed":295792,"subject_id":"92561","group":"Group2","condition":"1_Rep","full_date":"2026-03-03T19:02:13.948Z","date":"2026-03-03","time":"19:02:13","cor_ans":false},{"trial_type":"html-keyboard-response","rt":null,"stimulus":"<p style=\"color: red; font-size: 50px; font-weight: bold;\">Incorrect</p>","response":null,"trial_index":180,"plugin_version":"2.1.0","time_elapsed":296295,"subject_id":"92561","group":"Group2","condition":"1_Rep","full_date":"2026-03-03T19:02:13.948Z","date":"2026-03-03","time":"19:02:13"},{"correct_response":"l","task":"test_phase","broad_category":"I","image_png":"I_Pumice_13.png","image_id":141,"category_name":"Pumice","category":9,"distinct_rating":3.12,"distinct_type":"Bottom","item_type":"Target","rt":156,"stimulus":"Stimuli_Rocks480/I_Pumice_13.png","response":"l","trial_type":"image-keyboard-response","trial_index":181,"plugin_version":"2.1.0","time_elapsed":296454,"subject_id":"92561","group":"Group2","condition":"1_Rep","full_date":"2026-03-03T19:02:13.948Z","date":"2026-03-03","time":"19:02:13","cor_ans":true},{"trial_type":"html-keyboard-response","rt":null,"stimulus":"<p style=\"color: green; font-size: 50px; font-weight: bold;\">Correct</p>","response":null,"trial_index":182,"plugin_version":"2.1.0","time_elapsed":296957,"subject_id":"92561","group":"Group2","condition":"1_Rep","full_date":"2026-03-03T19:02:13.948Z","date":"2026-03-03","time":"19:02:13"},{"correct_response":"l","task":"test_phase","broad_category":"S","image_png":"S_Dolomite_07.png","image_id":391,"category_name":"Dolomite","category":25,"distinct_rating":1.73,"distinct_type":"Bottom","item_type":"Target","rt":310,"stimulus":"Stimuli_Rocks480/S_Dolomite_07.png","response":"l","trial_type":"image-keyboard-response","trial_index":183,"plugin_version":"2.1.0","time_elapsed":297270,"subject_id":"92561","group":"Group2","condition":"1_Rep","full_date":"2026-03-03T19:02:13.948Z","date":"2026-03-03","time":"19:02:13","cor_ans":true},{"trial_type":"html-keyboard-response","rt":null,"stimulus":"<p style=\"color: green; font-size: 50px; font-weight: bold;\">Correct</p>","response":null,"trial_index":184,"plugin_version":"2.1.0","time_elapsed":297771,"subject_id":"92561","group":"Group2","condition":"1_Rep","full_date":"2026-03-03T19:02:13.948Z","date":"2026-03-03","time":"19:02:13"},{"correct_response":"l","task":"test_phase","broad_category":"M","image_png":"M_Marble_14.png","image_id":238,"category_name":"Marble","category":15,"distinct_rating":3.31,"distinct_type":"Bottom","item_type":"Target","rt":480,"stimulus":"Stimuli_Rocks480/M_Marble_14.png","response":"l","trial_type":"image-keyboard-response","trial_index":185,"plugin_version":"2.1.0","time_elapsed":298253,"subject_id":"92561","group":"Group2","condition":"1_Rep","full_date":"2026-03-03T19:02:13.948Z","date":"2026-03-03","time":"19:02:13","cor_ans":true},{"trial_type":"html-keyboard-response","rt":null,"stimulus":"<p style=\"color: green; font-size: 50px; font-weight: bold;\">Correct</p>","response":null,"trial_index":186,"plugin_version":"2.1.0","time_elapsed":298757,"subject_id":"92561","group":"Group2","condition":"1_Rep","full_date":"2026-03-03T19:02:13.948Z","date":"2026-03-03","time":"19:02:13"},{"correct_response":"a","task":"test_phase","broad_category":"S","image_png":"S_Conglomerate_05.png","image_id":373,"category_name":"Conglomerate","category":24,"distinct_rating":7.32,"distinct_type":"Top","item_type":"Foil","rt":368,"stimulus":"Stimuli_Rocks480/S_Conglomerate_05.png","response":"l","trial_type":"image-keyboard-response","trial_index":187,"plugin_version":"2.1.0","time_elapsed":299128,"subject_id":"92561","group":"Group2","condition":"1_Rep","full_date":"2026-03-03T19:02:13.948Z","date":"2026-03-03","time":"19:02:13","cor_ans":false},{"trial_type":"html-keyboard-response","rt":null,"stimulus":"<p style=\"color: red; font-size: 50px; font-weight: bold;\">Incorrect</p>","response":null,"trial_index":188,"plugin_version":"2.1.0","time_elapsed":299630,"subject_id":"92561","group":"Group2","condition":"1_Rep","full_date":"2026-03-03T19:02:13.948Z","date":"2026-03-03","time":"19:02:13"},{"correct_response":"a","task":"test_phase","broad_category":"S","image_png":"S_Dolomite_14.png","image_id":398,"category_name":"Dolomite","category":25,"distinct_rating":1.43,"distinct_type":"Bottom","item_type":"Foil","rt":352,"stimulus":"Stimuli_Rocks480/S_Dolomite_14.png","response":"l","trial_type":"image-keyboard-response","trial_index":189,"plugin_version":"2.1.0","time_elapsed":299983,"subject_id":"92561","group":"Group2","condition":"1_Rep","full_date":"2026-03-03T19:02:13.948Z","date":"2026-03-03","time":"19:02:13","cor_ans":false},{"trial_type":"html-keyboard-response","rt":null,"stimulus":"<p style=\"color: red; font-size: 50px; font-weight: bold;\">Incorrect</p>","response":null,"trial_index":190,"plugin_version":"2.1.0","time_elapsed":300485,"subject_id":"92561","group":"Group2","condition":"1_Rep","full_date":"2026-03-03T19:02:13.948Z","date":"2026-03-03","time":"19:02:13"},{"correct_response":"l","task":"test_phase","broad_category":"M","image_png":"M_Gneiss_10.png","image_id":202,"category_name":"Gneiss","category":13,"distinct_rating":3.09,"distinct_type":"Bottom","item_type":"Target","rt":741,"stimulus":"Stimuli_Rocks480/M_Gneiss_10.png","response":"a","trial_type":"image-keyboard-response","trial_index":191,"plugin_version":"2.1.0","time_elapsed":301228,"subject_id":"92561","group":"Group2","condition":"1_Rep","full_date":"2026-03-03T19:02:13.948Z","date":"2026-03-03","time":"19:02:13","cor_ans":false},{"trial_type":"html-keyboard-response","rt":null,"stimulus":"<p style=\"color: red; font-size: 50px; font-weight: bold;\">Incorrect</p>","response":null,"trial_index":192,"plugin_version":"2.1.0","time_elapsed":301730,"subject_id":"92561","group":"Group2","condition":"1_Rep","full_date":"2026-03-03T19:02:13.948Z","date":"2026-03-03","time":"19:02:13"},{"correct_response":"a","task":"test_phase","broad_category":"S","image_png":"S_Sandstone_15.png","image_id":463,"category_name":"Sandstone","category":29,"distinct_rating":2,"distinct_type":"Bottom","item_type":"Foil","rt":60,"stimulus":"Stimuli_Rocks480/S_Sandstone_15.png","response":"l","trial_type":"image-keyboard-response","trial_index":193,"plugin_version":"2.1.0","time_elapsed":301792,"subject_id":"92561","group":"Group2","condition":"1_Rep","full_date":"2026-03-03T19:02:13.948Z","date":"2026-03-03","time":"19:02:13","cor_ans":false},{"trial_type":"html-keyboard-response","rt":null,"stimulus":"<p style=\"color: red; font-size: 50px; font-weight: bold;\">Incorrect</p>","response":null,"trial_index":194,"plugin_version":"2.1.0","time_elapsed":302294,"subject_id":"92561","group":"Group2","condition":"1_Rep","full_date":"2026-03-03T19:02:13.948Z","date":"2026-03-03","time":"19:02:13"},{"correct_response":"a","task":"test_phase","broad_category":"I","image_png":"I_Gabbro_11.png","image_id":59,"category_name":"Gabbro","category":4,"distinct_rating":1.99,"distinct_type":"Bottom","item_type":"Foil","rt":476,"stimulus":"Stimuli_Rocks480/I_Gabbro_11.png","response":"l","trial_type":"image-keyboard-response","trial_index":195,"plugin_version":"2.1.0","time_elapsed":302773,"subject_id":"92561","group":"Group2","condition":"1_Rep","full_date":"2026-03-03T19:02:13.948Z","date":"2026-03-03","time":"19:02:13","cor_ans":false},{"trial_type":"html-keyboard-response","rt":null,"stimulus":"<p style=\"color: red; font-size: 50px; font-weight: bold;\">Incorrect</p>","response":null,"trial_index":196,"plugin_version":"2.1.0","time_elapsed":303274,"subject_id":"92561","group":"Group2","condition":"1_Rep","full_date":"2026-03-03T19:02:13.948Z","date":"2026-03-03","time":"19:02:13"},{"correct_response":"l","task":"test_phase","broad_category":"I","image_png":"I_Pumice_01.png","image_id":129,"category_name":"Pumice","category":9,"distinct_rating":3.25,"distinct_type":"Bottom","item_type":"Target","rt":465,"stimulus":"Stimuli_Rocks480/I_Pumice_01.png","response":"a","trial_type":"image-keyboard-response","trial_index":197,"plugin_version":"2.1.0","time_elapsed":303742,"subject_id":"92561","group":"Group2","condition":"1_Rep","full_date":"2026-03-03T19:02:13.948Z","date":"2026-03-03","time":"19:02:13","cor_ans":false},{"trial_type":"html-keyboard-response","rt":null,"stimulus":"<p style=\"color: red; font-size: 50px; font-weight: bold;\">Incorrect</p>","response":null,"trial_index":198,"plugin_version":"2.1.0","time_elapsed":304244,"subject_id":"92561","group":"Group2","condition":"1_Rep","full_date":"2026-03-03T19:02:13.948Z","date":"2026-03-03","time":"19:02:13"},{"correct_response":"a","task":"test_phase","broad_category":"M","image_png":"M_Quartzite_13.png","image_id":285,"category_name":"Quartzite","category":18,"distinct_rating":2.27,"distinct_type":"Bottom","item_type":"Foil","rt":360,"stimulus":"Stimuli_Rocks480/M_Quartzite_13.png","response":"l","trial_type":"image-keyboard-response","trial_index":199,"plugin_version":"2.1.0","time_elapsed":304607,"subject_id":"92561","group":"Group2","condition":"1_Rep","full_date":"2026-03-03T19:02:13.948Z","date":"2026-03-03","time":"19:02:13","cor_ans":false},{"trial_type":"html-keyboard-response","rt":null,"stimulus":"<p style=\"color: red; font-size: 50px; font-weight: bold;\">Incorrect</p>","response":null,"trial_index":200,"plugin_version":"2.1.0","time_elapsed":305109,"subject_id":"92561","group":"Group2","condition":"1_Rep","full_date":"2026-03-03T19:02:13.948Z","date":"2026-03-03","time":"19:02:13"},{"correct_response":"l","task":"test_phase","broad_category":"I","image_png":"I_Basalt_13.png","image_id":29,"category_name":"Basalt","category":2,"distinct_rating":2.68,"distinct_type":"Bottom","item_type":"Target","rt":304,"stimulus":"Stimuli_Rocks480/I_Basalt_13.png","response":"a","trial_type":"image-keyboard-response","trial_index":201,"plugin_version":"2.1.0","time_elapsed":305419,"subject_id":"92561","group":"Group2","condition":"1_Rep","full_date":"2026-03-03T19:02:13.948Z","date":"2026-03-03","time":"19:02:13","cor_ans":false},{"trial_type":"html-keyboard-response","rt":null,"stimulus":"<p style=\"color: red; font-size: 50px; font-weight: bold;\">Incorrect</p>","response":null,"trial_index":202,"plugin_version":"2.1.0","time_elapsed":305921,"subject_id":"92561","group":"Group2","condition":"1_Rep","full_date":"2026-03-03T19:02:13.948Z","date":"2026-03-03","time":"19:02:13"},{"correct_response":"l","task":"test_phase","broad_category":"I","image_png":"I_Pegmatite_03.png","image_id":99,"category_name":"Pegmatite","category":7,"distinct_rating":7.24,"distinct_type":"Top","item_type":"Target","rt":320,"stimulus":"Stimuli_Rocks480/I_Pegmatite_03.png","response":"l","trial_type":"image-keyboard-response","trial_index":203,"plugin_version":"2.1.0","time_elapsed":306245,"subject_id":"92561","group":"Group2","condition":"1_Rep","full_date":"2026-03-03T19:02:13.948Z","date":"2026-03-03","time":"19:02:13","cor_ans":true},{"trial_type":"html-keyboard-response","rt":null,"stimulus":"<p style=\"color: green; font-size: 50px; font-weight: bold;\">Correct</p>","response":null,"trial_index":204,"plugin_version":"2.1.0","time_elapsed":306746,"subject_id":"92561","group":"Group2","condition":"1_Rep","full_date":"2026-03-03T19:02:13.948Z","date":"2026-03-03","time":"19:02:13"},{"correct_response":"l","task":"test_phase","broad_category":"S","image_png":"S_Rock Salt_13.png","image_id":445,"category_name":"Rock Salt","category":28,"distinct_rating":7.58,"distinct_type":"Top","item_type":"Target","rt":683,"stimulus":"Stimuli_Rocks480/S_Rock Salt_13.png","response":"l","trial_type":"image-keyboard-response","trial_index":205,"plugin_version":"2.1.0","time_elapsed":307433,"subject_id":"92561","group":"Group2","condition":"1_Rep","full_date":"2026-03-03T19:02:13.948Z","date":"2026-03-03","time":"19:02:13","cor_ans":true},{"trial_type":"html-keyboard-response","rt":null,"stimulus":"<p style=\"color: green; font-size: 50px; font-weight: bold;\">Correct</p>","response":null,"trial_index":206,"plugin_version":"2.1.0","time_elapsed":307934,"subject_id":"92561","group":"Group2","condition":"1_Rep","full_date":"2026-03-03T19:02:13.948Z","date":"2026-03-03","time":"19:02:13"},{"correct_response":"a","task":"test_phase","broad_category":"I","image_png":"I_Diorite_05.png","image_id":37,"category_name":"Diorite","category":3,"distinct_rating":3.08,"distinct_type":"Bottom","item_type":"Foil","rt":270,"stimulus":"Stimuli_Rocks480/I_Diorite_05.png","response":"l","trial_type":"image-keyboard-response","trial_index":207,"plugin_version":"2.1.0","time_elapsed":308208,"subject_id":"92561","group":"Group2","condition":"1_Rep","full_date":"2026-03-03T19:02:13.948Z","date":"2026-03-03","time":"19:02:13","cor_ans":false},{"trial_type":"html-keyboard-response","rt":null,"stimulus":"<p style=\"color: red; font-size: 50px; font-weight: bold;\">Incorrect</p>","response":null,"trial_index":208,"plugin_version":"2.1.0","time_elapsed":308709,"subject_id":"92561","group":"Group2","condition":"1_Rep","full_date":"2026-03-03T19:02:13.948Z","date":"2026-03-03","time":"19:02:13"},{"correct_response":"l","task":"test_phase","broad_category":"S","image_png":"S_Shale_03.png","image_id":467,"category_name":"Shale","category":30,"distinct_rating":1.95,"distinct_type":"Bottom","item_type":"Target","rt":215,"stimulus":"Stimuli_Rocks480/S_Shale_03.png","response":"a","trial_type":"image-keyboard-response","trial_index":209,"plugin_version":"2.1.0","time_elapsed":308928,"subject_id":"92561","group":"Group2","condition":"1_Rep","full_date":"2026-03-03T19:02:13.948Z","date":"2026-03-03","time":"19:02:13","cor_ans":false},{"trial_type":"html-keyboard-response","rt":null,"stimulus":"<p style=\"color: red; font-size: 50px; font-weight: bold;\">Incorrect</p>","response":null,"trial_index":210,"plugin_version":"2.1.0","time_elapsed":309430,"subject_id":"92561","group":"Group2","condition":"1_Rep","full_date":"2026-03-03T19:02:13.948Z","date":"2026-03-03","time":"19:02:13"},{"correct_response":"l","task":"test_phase","broad_category":"S","image_png":"S_Sandstone_08.png","image_id":456,"category_name":"Sandstone","category":29,"distinct_rating":1.5,"distinct_type":"Bottom","item_type":"Target","rt":466,"stimulus":"Stimuli_Rocks480/S_Sandstone_08.png","response":"a","trial_type":"image-keyboard-response","trial_index":211,"plugin_version":"2.1.0","time_elapsed":309900,"subject_id":"92561","group":"Group2","condition":"1_Rep","full_date":"2026-03-03T19:02:13.948Z","date":"2026-03-03","time":"19:02:13","cor_ans":false},{"trial_type":"html-keyboard-response","rt":null,"stimulus":"<p style=\"color: red; font-size: 50px; font-weight: bold;\">Incorrect</p>","response":null,"trial_index":212,"plugin_version":"2.1.0","time_elapsed":310402,"subject_id":"92561","group":"Group2","condition":"1_Rep","full_date":"2026-03-03T19:02:13.948Z","date":"2026-03-03","time":"19:02:13"},{"correct_response":"a","task":"test_phase","broad_category":"I","image_png":"I_Pumice_08.png","image_id":136,"category_name":"Pumice","category":9,"distinct_rating":3.1,"distinct_type":"Bottom","item_type":"Foil","rt":512,"stimulus":"Stimuli_Rocks480/I_Pumice_08.png","response":"l","trial_type":"image-keyboard-response","trial_index":213,"plugin_version":"2.1.0","time_elapsed":310916,"subject_id":"92561","group":"Group2","condition":"1_Rep","full_date":"2026-03-03T19:02:13.948Z","date":"2026-03-03","time":"19:02:13","cor_ans":false},{"trial_type":"html-keyboard-response","rt":null,"stimulus":"<p style=\"color: red; font-size: 50px; font-weight: bold;\">Incorrect</p>","response":null,"trial_index":214,"plugin_version":"2.1.0","time_elapsed":311418,"subject_id":"92561","group":"Group2","condition":"1_Rep","full_date":"2026-03-03T19:02:13.948Z","date":"2026-03-03","time":"19:02:13"},{"correct_response":"a","task":"test_phase","broad_category":"M","image_png":"M_Gneiss_06.png","image_id":198,"category_name":"Gneiss","category":13,"distinct_rating":2.65,"distinct_type":"Bottom","item_type":"Foil","rt":559,"stimulus":"Stimuli_Rocks480/M_Gneiss_06.png","response":"a","trial_type":"image-keyboard-response","trial_index":215,"plugin_version":"2.1.0","time_elapsed":311980,"subject_id":"92561","group":"Group2","condition":"1_Rep","full_date":"2026-03-03T19:02:13.948Z","date":"2026-03-03","time":"19:02:13","cor_ans":true},{"trial_type":"html-keyboard-response","rt":null,"stimulus":"<p style=\"color: green; font-size: 50px; font-weight: bold;\">Correct</p>","response":null,"trial_index":216,"plugin_version":"2.1.0","time_elapsed":312481,"subject_id":"92561","group":"Group2","condition":"1_Rep","full_date":"2026-03-03T19:02:13.948Z","date":"2026-03-03","time":"19:02:13"},{"correct_response":"l","task":"test_phase","broad_category":"I","image_png":"I_Rhyolite_05.png","image_id":149,"category_name":"Rhyolite","category":10,"distinct_rating":3.02,"distinct_type":"Bottom","item_type":"Target","rt":319,"stimulus":"Stimuli_Rocks480/I_Rhyolite_05.png","response":"a","trial_type":"image-keyboard-response","trial_index":217,"plugin_version":"2.1.0","time_elapsed":312803,"subject_id":"92561","group":"Group2","condition":"1_Rep","full_date":"2026-03-03T19:02:13.948Z","date":"2026-03-03","time":"19:02:13","cor_ans":false},{"trial_type":"html-keyboard-response","rt":null,"stimulus":"<p style=\"color: red; font-size: 50px; font-weight: bold;\">Incorrect</p>","response":null,"trial_index":218,"plugin_version":"2.1.0","time_elapsed":313304,"subject_id":"92561","group":"Group2","condition":"1_Rep","full_date":"2026-03-03T19:02:13.948Z","date":"2026-03-03","time":"19:02:13"},{"correct_response":"l","task":"test_phase","broad_category":"S","image_png":"S_Chert_13.png","image_id":365,"category_name":"Chert","category":23,"distinct_rating":6.57,"distinct_type":"Top","item_type":"Target","rt":380,"stimulus":"Stimuli_Rocks480/S_Chert_13.png","response":"l","trial_type":"image-keyboard-response","trial_index":219,"plugin_version":"2.1.0","time_elapsed":313686,"subject_id":"92561","group":"Group2","condition":"1_Rep","full_date":"2026-03-03T19:02:13.948Z","date":"2026-03-03","time":"19:02:13","cor_ans":true},{"trial_type":"html-keyboard-response","rt":null,"stimulus":"<p style=\"color: green; font-size: 50px; font-weight: bold;\">Correct</p>","response":null,"trial_index":220,"plugin_version":"2.1.0","time_elapsed":314189,"subject_id":"92561","group":"Group2","condition":"1_Rep","full_date":"2026-03-03T19:02:13.948Z","date":"2026-03-03","time":"19:02:13"},{"correct_response":"a","task":"test_phase","broad_category":"I","image_png":"I_Rhyolite_11.png","image_id":155,"category_name":"Rhyolite","category":10,"distinct_rating":1.73,"distinct_type":"Bottom","item_type":"Foil","rt":293,"stimulus":"Stimuli_Rocks480/I_Rhyolite_11.png","response":"l","trial_type":"image-keyboard-response","trial_index":221,"plugin_version":"2.1.0","time_elapsed":314485,"subject_id":"92561","group":"Group2","condition":"1_Rep","full_date":"2026-03-03T19:02:13.948Z","date":"2026-03-03","time":"19:02:13","cor_ans":false},{"trial_type":"html-keyboard-response","rt":null,"stimulus":"<p style=\"color: red; font-size: 50px; font-weight: bold;\">Incorrect</p>","response":null,"trial_index":222,"plugin_version":"2.1.0","time_elapsed":314987,"subject_id":"92561","group":"Group2","condition":"1_Rep","full_date":"2026-03-03T19:02:13.948Z","date":"2026-03-03","time":"19:02:13"},{"correct_response":"l","task":"test_phase","broad_category":"M","image_png":"M_Phyllite_02.png","image_id":258,"category_name":"Phyllite","category":17,"distinct_rating":2.89,"distinct_type":"Bottom","item_type":"Target","rt":538,"stimulus":"Stimuli_Rocks480/M_Phyllite_02.png","response":"a","trial_type":"image-keyboard-response","trial_index":223,"plugin_version":"2.1.0","time_elapsed":315527,"subject_id":"92561","group":"Group2","condition":"1_Rep","full_date":"2026-03-03T19:02:13.948Z","date":"2026-03-03","time":"19:02:13","cor_ans":false},{"trial_type":"html-keyboard-response","rt":null,"stimulus":"<p style=\"color: red; font-size: 50px; font-weight: bold;\">Incorrect</p>","response":null,"trial_index":224,"plugin_version":"2.1.0","time_elapsed":316030,"subject_id":"92561","group":"Group2","condition":"1_Rep","full_date":"2026-03-03T19:02:13.948Z","date":"2026-03-03","time":"19:02:13"},{"correct_response":"l","task":"test_phase","broad_category":"I","image_png":"I_Peri