[{"width":1470,"height":840,"webaudio":true,"browser":"safari","browser_version":"17.6.0","mobile":false,"os":"Mac OS","fullscreen":true,"vsync_rate":59.88,"webcam":true,"microphone":true,"trial_type":"browser-check","trial_index":0,"plugin_version":"2.1.0","time_elapsed":1011,"subject_id":"92610","group":"Group1","condition":"1_Rep","full_date":"2026-02-25T15:38:02.235Z","date":"2026-02-25","time":"15:38:02"},{"success":true,"timeout":false,"failed_images":[],"failed_audio":[],"failed_video":[],"trial_type":"preload","trial_index":1,"plugin_version":"2.1.0","time_elapsed":2560,"subject_id":"92610","group":"Group1","condition":"1_Rep","full_date":"2026-02-25T15:38:02.235Z","date":"2026-02-25","time":"15:38:02"},{"rt":195521,"url":"SONA_consent_memorability.html","trial_type":"external-html","trial_index":2,"plugin_version":"2.1.0","time_elapsed":198159,"subject_id":"92610","group":"Group1","condition":"1_Rep","full_date":"2026-02-25T15:38:02.235Z","date":"2026-02-25","time":"15:38:02"},{"success":true,"rt":1077,"trial_type":"fullscreen","trial_index":3,"plugin_version":"2.1.0","time_elapsed":200243,"subject_id":"92610","group":"Group1","condition":"1_Rep","full_date":"2026-02-25T15:38:02.235Z","date":"2026-02-25","time":"15:38:02"},{"rt":1141,"stimulus":"<div style=\"max-width: 760px; margin: auto; font-size: 20px; line-height: 1.5;\">\n      <h1 style=\"text-align:center; font-size: 30px;\">Instructions</h1>\n      <p>\n        Welcome to the study on <b>visual memory</b>. This experiment consists of <b>two phases</b>: \n        a <b>study phase</b> and a <b>test phase</b>.\n      </p>\n      <p>\n        In the study phase, you will see a series of rock images along with their category labels.\n        The images will appear one at a time.\n        <b>Your task</b> is to learn the categories to which the rock images belong \n        and to remember each image as accurately as possible.\n      </p> \n      <p>\n        Note that you will see each image only <b>once</b> during the study phase. \n          So, please pay close attention and try to remember each image carefully.\n      </p>\n      <p>\n        After the study phase, <b>your memory will be tested</b>. \n        Additional instructions for the test phase will be provided at that time.\n      </p>\n      <p>\n        If your computer has multiple <b>language settings</b> (e.g., English and another language),\n        please make sure it is set to English before starting.\n      </p>\n      <p>\n        You can track your progress using the <b>completion bar</b> at the top of the screen. \n        Please note that the bar will refresh when the test phase begins \n        to give you an accurate sense of your progress in both phases.\n      </p> \n      <p>\n        Press the button below when you are ready to begin.\n      </p>\n    </div>","response":0,"trial_type":"html-button-response","trial_index":4,"plugin_version":"2.1.0","time_elapsed":201389,"subject_id":"92610","group":"Group1","condition":"1_Rep","full_date":"2026-02-25T15:38:02.235Z","date":"2026-02-25","time":"15:38:02"},{"rt":null,"stimulus":"<p style=\"font-size: 50px; margin: 0; text-align: center;\">+</p>","response":null,"trial_type":"html-keyboard-response","trial_index":5,"plugin_version":"2.1.0","time_elapsed":202392,"subject_id":"92610","group":"Group1","condition":"1_Rep","full_date":"2026-02-25T15:38:02.235Z","date":"2026-02-25","time":"15:38:02"},{"task":"memory_phase","broad_category":"S","image_png":"S_Shale_01.png","image_id":465,"category_name":"Shale","category":30,"distinct_rating":2.7,"distinct_type":"Bottom","rt":null,"stimulus":"Stimuli_Rocks480/S_Shale_01.png","response":null,"trial_type":"image-keyboard-response","trial_index":6,"plugin_version":"2.1.0","time_elapsed":204909,"subject_id":"92610","group":"Group1","condition":"1_Rep","full_date":"2026-02-25T15:38:02.235Z","date":"2026-02-25","time":"15:38:02"},{"rt":null,"stimulus":"<p style=\"font-size: 50px; margin: 0; text-align: center;\">+</p>","response":null,"trial_type":"html-keyboard-response","trial_index":7,"plugin_version":"2.1.0","time_elapsed":205913,"subject_id":"92610","group":"Group1","condition":"1_Rep","full_date":"2026-02-25T15:38:02.235Z","date":"2026-02-25","time":"15:38:02"},{"task":"memory_phase","broad_category":"M","image_png":"M_Marble_06.png","image_id":230,"category_name":"Marble","category":15,"distinct_rating":3.4,"distinct_type":"Bottom","rt":null,"stimulus":"Stimuli_Rocks480/M_Marble_06.png","response":null,"trial_type":"image-keyboard-response","trial_index":8,"plugin_version":"2.1.0","time_elapsed":208432,"subject_id":"92610","group":"Group1","condition":"1_Rep","full_date":"2026-02-25T15:38:02.235Z","date":"2026-02-25","time":"15:38:02"},{"rt":null,"stimulus":"<p style=\"font-size: 50px; margin: 0; text-align: center;\">+</p>","response":null,"trial_type":"html-keyboard-response","trial_index":9,"plugin_version":"2.1.0","time_elapsed":209436,"subject_id":"92610","group":"Group1","condition":"1_Rep","full_date":"2026-02-25T15:38:02.235Z","date":"2026-02-25","time":"15:38:02"},{"task":"memory_phase","broad_category":"M","image_png":"M_Gneiss_13.png","image_id":205,"category_name":"Gneiss","category":13,"distinct_rating":3.26,"distinct_type":"Bottom","rt":null,"stimulus":"Stimuli_Rocks480/M_Gneiss_13.png","response":null,"trial_type":"image-keyboard-response","trial_index":10,"plugin_version":"2.1.0","time_elapsed":211954,"subject_id":"92610","group":"Group1","condition":"1_Rep","full_date":"2026-02-25T15:38:02.235Z","date":"2026-02-25","time":"15:38:02"},{"rt":null,"stimulus":"<p style=\"font-size: 50px; margin: 0; text-align: center;\">+</p>","response":null,"trial_type":"html-keyboard-response","trial_index":11,"plugin_version":"2.1.0","time_elapsed":212957,"subject_id":"92610","group":"Group1","condition":"1_Rep","full_date":"2026-02-25T15:38:02.235Z","date":"2026-02-25","time":"15:38:02"},{"task":"memory_phase","broad_category":"S","image_png":"S_Dolomite_13.png","image_id":397,"category_name":"Dolomite","category":25,"distinct_rating":1.77,"distinct_type":"Bottom","rt":null,"stimulus":"Stimuli_Rocks480/S_Dolomite_13.png","response":null,"trial_type":"image-keyboard-response","trial_index":12,"plugin_version":"2.1.0","time_elapsed":215475,"subject_id":"92610","group":"Group1","condition":"1_Rep","full_date":"2026-02-25T15:38:02.235Z","date":"2026-02-25","time":"15:38:02"},{"rt":null,"stimulus":"<p style=\"font-size: 50px; margin: 0; text-align: center;\">+</p>","response":null,"trial_type":"html-keyboard-response","trial_index":13,"plugin_version":"2.1.0","time_elapsed":216478,"subject_id":"92610","group":"Group1","condition":"1_Rep","full_date":"2026-02-25T15:38:02.235Z","date":"2026-02-25","time":"15:38:02"},{"task":"memory_phase","broad_category":"M","image_png":"M_Slate_03.png","image_id":307,"category_name":"Slate","category":20,"distinct_rating":1.87,"distinct_type":"Bottom","rt":null,"stimulus":"Stimuli_Rocks480/M_Slate_03.png","response":null,"trial_type":"image-keyboard-response","trial_index":14,"plugin_version":"2.1.0","time_elapsed":219000,"subject_id":"92610","group":"Group1","condition":"1_Rep","full_date":"2026-02-25T15:38:02.235Z","date":"2026-02-25","time":"15:38:02"},{"rt":null,"stimulus":"<p style=\"font-size: 50px; margin: 0; text-align: center;\">+</p>","response":null,"trial_type":"html-keyboard-response","trial_index":15,"plugin_version":"2.1.0","time_elapsed":220004,"subject_id":"92610","group":"Group1","condition":"1_Rep","full_date":"2026-02-25T15:38:02.235Z","date":"2026-02-25","time":"15:38:02"},{"task":"memory_phase","broad_category":"I","image_png":"I_Basalt_01.png","image_id":17,"category_name":"Basalt","category":2,"distinct_rating":1.92,"distinct_type":"Bottom","rt":null,"stimulus":"Stimuli_Rocks480/I_Basalt_01.png","response":null,"trial_type":"image-keyboard-response","trial_index":16,"plugin_version":"2.1.0","time_elapsed":222530,"subject_id":"92610","group":"Group1","condition":"1_Rep","full_date":"2026-02-25T15:38:02.235Z","date":"2026-02-25","time":"15:38:02"},{"rt":null,"stimulus":"<p style=\"font-size: 50px; margin: 0; text-align: center;\">+</p>","response":null,"trial_type":"html-keyboard-response","trial_index":17,"plugin_version":"2.1.0","time_elapsed":223533,"subject_id":"92610","group":"Group1","condition":"1_Rep","full_date":"2026-02-25T15:38:02.235Z","date":"2026-02-25","time":"15:38:02"},{"task":"memory_phase","broad_category":"I","image_png":"I_Diorite_03.png","image_id":35,"category_name":"Diorite","category":3,"distinct_rating":3.14,"distinct_type":"Bottom","rt":null,"stimulus":"Stimuli_Rocks480/I_Diorite_03.png","response":null,"trial_type":"image-keyboard-response","trial_index":18,"plugin_version":"2.1.0","time_elapsed":226058,"subject_id":"92610","group":"Group1","condition":"1_Rep","full_date":"2026-02-25T15:38:02.235Z","date":"2026-02-25","time":"15:38:02"},{"rt":null,"stimulus":"<p style=\"font-size: 50px; margin: 0; text-align: center;\">+</p>","response":null,"trial_type":"html-keyboard-response","trial_index":19,"plugin_version":"2.1.0","time_elapsed":227061,"subject_id":"92610","group":"Group1","condition":"1_Rep","full_date":"2026-02-25T15:38:02.235Z","date":"2026-02-25","time":"15:38:02"},{"task":"memory_phase","broad_category":"I","image_png":"I_Rhyolite_16.png","image_id":160,"category_name":"Rhyolite","category":10,"distinct_rating":2.19,"distinct_type":"Bottom","rt":null,"stimulus":"Stimuli_Rocks480/I_Rhyolite_16.png","response":null,"trial_type":"image-keyboard-response","trial_index":20,"plugin_version":"2.1.0","time_elapsed":229580,"subject_id":"92610","group":"Group1","condition":"1_Rep","full_date":"2026-02-25T15:38:02.235Z","date":"2026-02-25","time":"15:38:02"},{"rt":null,"stimulus":"<p style=\"font-size: 50px; margin: 0; text-align: center;\">+</p>","response":null,"trial_type":"html-keyboard-response","trial_index":21,"plugin_version":"2.1.0","time_elapsed":230583,"subject_id":"92610","group":"Group1","condition":"1_Rep","full_date":"2026-02-25T15:38:02.235Z","date":"2026-02-25","time":"15:38:02"},{"task":"memory_phase","broad_category":"S","image_png":"S_Breccia_11.png","image_id":347,"category_name":"Breccia","category":22,"distinct_rating":6.7,"distinct_type":"Top","rt":null,"stimulus":"Stimuli_Rocks480/S_Breccia_11.png","response":null,"trial_type":"image-keyboard-response","trial_index":22,"plugin_version":"2.1.0","time_elapsed":233116,"subject_id":"92610","group":"Group1","condition":"1_Rep","full_date":"2026-02-25T15:38:02.235Z","date":"2026-02-25","time":"15:38:02"},{"rt":null,"stimulus":"<p style=\"font-size: 50px; margin: 0; text-align: center;\">+</p>","response":null,"trial_type":"html-keyboard-response","trial_index":23,"plugin_version":"2.1.0","time_elapsed":234120,"subject_id":"92610","group":"Group1","condition":"1_Rep","full_date":"2026-02-25T15:38:02.235Z","date":"2026-02-25","time":"15:38:02"},{"task":"memory_phase","broad_category":"S","image_png":"S_Shale_12.png","image_id":476,"category_name":"Shale","category":30,"distinct_rating":2.48,"distinct_type":"Bottom","rt":null,"stimulus":"Stimuli_Rocks480/S_Shale_12.png","response":null,"trial_type":"image-keyboard-response","trial_index":24,"plugin_version":"2.1.0","time_elapsed":236644,"subject_id":"92610","group":"Group1","condition":"1_Rep","full_date":"2026-02-25T15:38:02.235Z","date":"2026-02-25","time":"15:38:02"},{"rt":null,"stimulus":"<p style=\"font-size: 50px; margin: 0; text-align: center;\">+</p>","response":null,"trial_type":"html-keyboard-response","trial_index":25,"plugin_version":"2.1.0","time_elapsed":237648,"subject_id":"92610","group":"Group1","condition":"1_Rep","full_date":"2026-02-25T15:38:02.235Z","date":"2026-02-25","time":"15:38:02"},{"task":"memory_phase","broad_category":"M","image_png":"M_Marble_04.png","image_id":228,"category_name":"Marble","category":15,"distinct_rating":3.15,"distinct_type":"Bottom","rt":null,"stimulus":"Stimuli_Rocks480/M_Marble_04.png","response":null,"trial_type":"image-keyboard-response","trial_index":26,"plugin_version":"2.1.0","time_elapsed":240171,"subject_id":"92610","group":"Group1","condition":"1_Rep","full_date":"2026-02-25T15:38:02.235Z","date":"2026-02-25","time":"15:38:02"},{"rt":null,"stimulus":"<p style=\"font-size: 50px; margin: 0; text-align: center;\">+</p>","response":null,"trial_type":"html-keyboard-response","trial_index":27,"plugin_version":"2.1.0","time_elapsed":241173,"subject_id":"92610","group":"Group1","condition":"1_Rep","full_date":"2026-02-25T15:38:02.235Z","date":"2026-02-25","time":"15:38:02"},{"task":"memory_phase","broad_category":"I","image_png":"I_Pumice_11.png","image_id":139,"category_name":"Pumice","category":9,"distinct_rating":1.74,"distinct_type":"Bottom","rt":null,"stimulus":"Stimuli_Rocks480/I_Pumice_11.png","response":null,"trial_type":"image-keyboard-response","trial_index":28,"plugin_version":"2.1.0","time_elapsed":243687,"subject_id":"92610","group":"Group1","condition":"1_Rep","full_date":"2026-02-25T15:38:02.235Z","date":"2026-02-25","time":"15:38:02"},{"rt":null,"stimulus":"<p style=\"font-size: 50px; margin: 0; text-align: center;\">+</p>","response":null,"trial_type":"html-keyboard-response","trial_index":29,"plugin_version":"2.1.0","time_elapsed":244690,"subject_id":"92610","group":"Group1","condition":"1_Rep","full_date":"2026-02-25T15:38:02.235Z","date":"2026-02-25","time":"15:38:02"},{"task":"memory_phase","broad_category":"M","image_png":"M_Phyllite_07.png","image_id":263,"category_name":"Phyllite","category":17,"distinct_rating":2.59,"distinct_type":"Bottom","rt":null,"stimulus":"Stimuli_Rocks480/M_Phyllite_07.png","response":null,"trial_type":"image-keyboard-response","trial_index":30,"plugin_version":"2.1.0","time_elapsed":247206,"subject_id":"92610","group":"Group1","condition":"1_Rep","full_date":"2026-02-25T15:38:02.235Z","date":"2026-02-25","time":"15:38:02"},{"rt":null,"stimulus":"<p style=\"font-size: 50px; margin: 0; text-align: center;\">+</p>","response":null,"trial_type":"html-keyboard-response","trial_index":31,"plugin_version":"2.1.0","time_elapsed":248209,"subject_id":"92610","group":"Group1","condition":"1_Rep","full_date":"2026-02-25T15:38:02.235Z","date":"2026-02-25","time":"15:38:02"},{"task":"memory_phase","broad_category":"I","image_png":"I_Pegmatite_10.png","image_id":106,"category_name":"Pegmatite","category":7,"distinct_rating":7.66,"distinct_type":"Top","rt":null,"stimulus":"Stimuli_Rocks480/I_Pegmatite_10.png","response":null,"trial_type":"image-keyboard-response","trial_index":32,"plugin_version":"2.1.0","time_elapsed":250728,"subject_id":"92610","group":"Group1","condition":"1_Rep","full_date":"2026-02-25T15:38:02.235Z","date":"2026-02-25","time":"15:38:02"},{"rt":null,"stimulus":"<p style=\"font-size: 50px; margin: 0; text-align: center;\">+</p>","response":null,"trial_type":"html-keyboard-response","trial_index":33,"plugin_version":"2.1.0","time_elapsed":251731,"subject_id":"92610","group":"Group1","condition":"1_Rep","full_date":"2026-02-25T15:38:02.235Z","date":"2026-02-25","time":"15:38:02"},{"task":"memory_phase","broad_category":"I","image_png":"I_Obsidian_05.png","image_id":85,"category_name":"Obsidian","category":6,"distinct_rating":7.32,"distinct_type":"Top","rt":null,"stimulus":"Stimuli_Rocks480/I_Obsidian_05.png","response":null,"trial_type":"image-keyboard-response","trial_index":34,"plugin_version":"2.1.0","time_elapsed":254253,"subject_id":"92610","group":"Group1","condition":"1_Rep","full_date":"2026-02-25T15:38:02.235Z","date":"2026-02-25","time":"15:38:02"},{"rt":null,"stimulus":"<p style=\"font-size: 50px; margin: 0; text-align: center;\">+</p>","response":null,"trial_type":"html-keyboard-response","trial_index":35,"plugin_version":"2.1.0","time_elapsed":255256,"subject_id":"92610","group":"Group1","condition":"1_Rep","full_date":"2026-02-25T15:38:02.235Z","date":"2026-02-25","time":"15:38:02"},{"task":"memory_phase","broad_category":"M","image_png":"M_Quartzite_08.png","image_id":280,"category_name":"Quartzite","category":18,"distinct_rating":2.15,"distinct_type":"Bottom","rt":null,"stimulus":"Stimuli_Rocks480/M_Quartzite_08.png","response":null,"trial_type":"image-keyboard-response","trial_index":36,"plugin_version":"2.1.0","time_elapsed":257774,"subject_id":"92610","group":"Group1","condition":"1_Rep","full_date":"2026-02-25T15:38:02.235Z","date":"2026-02-25","time":"15:38:02"},{"rt":null,"stimulus":"<p style=\"font-size: 50px; margin: 0; text-align: center;\">+</p>","response":null,"trial_type":"html-keyboard-response","trial_index":37,"plugin_version":"2.1.0","time_elapsed":258777,"subject_id":"92610","group":"Group1","condition":"1_Rep","full_date":"2026-02-25T15:38:02.235Z","date":"2026-02-25","time":"15:38:02"},{"task":"memory_phase","broad_category":"I","image_png":"I_Pegmatite_16.png","image_id":112,"category_name":"Pegmatite","category":7,"distinct_rating":7.03,"distinct_type":"Top","rt":null,"stimulus":"Stimuli_Rocks480/I_Pegmatite_16.png","response":null,"trial_type":"image-keyboard-response","trial_index":38,"plugin_version":"2.1.0","time_elapsed":261297,"subject_id":"92610","group":"Group1","condition":"1_Rep","full_date":"2026-02-25T15:38:02.235Z","date":"2026-02-25","time":"15:38:02"},{"rt":null,"stimulus":"<p style=\"font-size: 50px; margin: 0; text-align: center;\">+</p>","response":null,"trial_type":"html-keyboard-response","trial_index":39,"plugin_version":"2.1.0","time_elapsed":262299,"subject_id":"92610","group":"Group1","condition":"1_Rep","full_date":"2026-02-25T15:38:02.235Z","date":"2026-02-25","time":"15:38:02"},{"task":"memory_phase","broad_category":"S","image_png":"S_Sandstone_16.png","image_id":464,"category_name":"Sandstone","category":29,"distinct_rating":1.93,"distinct_type":"Bottom","rt":null,"stimulus":"Stimuli_Rocks480/S_Sandstone_16.png","response":null,"trial_type":"image-keyboard-response","trial_index":40,"plugin_version":"2.1.0","time_elapsed":264814,"subject_id":"92610","group":"Group1","condition":"1_Rep","full_date":"2026-02-25T15:38:02.235Z","date":"2026-02-25","time":"15:38:02"},{"rt":null,"stimulus":"<p style=\"font-size: 50px; margin: 0; text-align: center;\">+</p>","response":null,"trial_type":"html-keyboard-response","trial_index":41,"plugin_version":"2.1.0","time_elapsed":265817,"subject_id":"92610","group":"Group1","condition":"1_Rep","full_date":"2026-02-25T15:38:02.235Z","date":"2026-02-25","time":"15:38:02"},{"task":"memory_phase","broad_category":"S","image_png":"S_Dolomite_12.png","image_id":396,"category_name":"Dolomite","category":25,"distinct_rating":1.85,"distinct_type":"Bottom","rt":null,"stimulus":"Stimuli_Rocks480/S_Dolomite_12.png","response":null,"trial_type":"image-keyboard-response","trial_index":42,"plugin_version":"2.1.0","time_elapsed":268339,"subject_id":"92610","group":"Group1","condition":"1_Rep","full_date":"2026-02-25T15:38:02.235Z","date":"2026-02-25","time":"15:38:02"},{"rt":null,"stimulus":"<p style=\"font-size: 50px; margin: 0; text-align: center;\">+</p>","response":null,"trial_type":"html-keyboard-response","trial_index":43,"plugin_version":"2.1.0","time_elapsed":269342,"subject_id":"92610","group":"Group1","condition":"1_Rep","full_date":"2026-02-25T15:38:02.235Z","date":"2026-02-25","time":"15:38:02"},{"task":"memory_phase","broad_category":"I","image_png":"I_Rhyolite_11.png","image_id":155,"category_name":"Rhyolite","category":10,"distinct_rating":1.73,"distinct_type":"Bottom","rt":null,"stimulus":"Stimuli_Rocks480/I_Rhyolite_11.png","response":null,"trial_type":"image-keyboard-response","trial_index":44,"plugin_version":"2.1.0","time_elapsed":271861,"subject_id":"92610","group":"Group1","condition":"1_Rep","full_date":"2026-02-25T15:38:02.235Z","date":"2026-02-25","time":"15:38:02"},{"rt":null,"stimulus":"<p style=\"font-size: 50px; margin: 0; text-align: center;\">+</p>","response":null,"trial_type":"html-keyboard-response","trial_index":45,"plugin_version":"2.1.0","time_elapsed":272863,"subject_id":"92610","group":"Group1","condition":"1_Rep","full_date":"2026-02-25T15:38:02.235Z","date":"2026-02-25","time":"15:38:02"},{"task":"memory_phase","broad_category":"I","image_png":"I_Gabbro_11.png","image_id":59,"category_name":"Gabbro","category":4,"distinct_rating":1.99,"distinct_type":"Bottom","rt":null,"stimulus":"Stimuli_Rocks480/I_Gabbro_11.png","response":null,"trial_type":"image-keyboard-response","trial_index":46,"plugin_version":"2.1.0","time_elapsed":275380,"subject_id":"92610","group":"Group1","condition":"1_Rep","full_date":"2026-02-25T15:38:02.235Z","date":"2026-02-25","time":"15:38:02"},{"rt":null,"stimulus":"<p style=\"font-size: 50px; margin: 0; text-align: center;\">+</p>","response":null,"trial_type":"html-keyboard-response","trial_index":47,"plugin_version":"2.1.0","time_elapsed":276383,"subject_id":"92610","group":"Group1","condition":"1_Rep","full_date":"2026-02-25T15:38:02.235Z","date":"2026-02-25","time":"15:38:02"},{"task":"memory_phase","broad_category":"M","image_png":"M_Quartzite_05.png","image_id":277,"category_name":"Quartzite","category":18,"distinct_rating":2.23,"distinct_type":"Bottom","rt":null,"stimulus":"Stimuli_Rocks480/M_Quartzite_05.png","response":null,"trial_type":"image-keyboard-response","trial_index":48,"plugin_version":"2.1.0","time_elapsed":278907,"subject_id":"92610","group":"Group1","condition":"1_Rep","full_date":"2026-02-25T15:38:02.235Z","date":"2026-02-25","time":"15:38:02"},{"rt":null,"stimulus":"<p style=\"font-size: 50px; margin: 0; text-align: center;\">+</p>","response":null,"trial_type":"html-keyboard-response","trial_index":49,"plugin_version":"2.1.0","time_elapsed":279909,"subject_id":"92610","group":"Group1","condition":"1_Rep","full_date":"2026-02-25T15:38:02.235Z","date":"2026-02-25","time":"15:38:02"},{"task":"memory_phase","broad_category":"I","image_png":"I_Rhyolite_14.png","image_id":158,"category_name":"Rhyolite","category":10,"distinct_rating":2.59,"distinct_type":"Bottom","rt":null,"stimulus":"Stimuli_Rocks480/I_Rhyolite_14.png","response":null,"trial_type":"image-keyboard-response","trial_index":50,"plugin_version":"2.1.0","time_elapsed":282427,"subject_id":"92610","group":"Group1","condition":"1_Rep","full_date":"2026-02-25T15:38:02.235Z","date":"2026-02-25","time":"15:38:02"},{"rt":null,"stimulus":"<p style=\"font-size: 50px; margin: 0; text-align: center;\">+</p>","response":null,"trial_type":"html-keyboard-response","trial_index":51,"plugin_version":"2.1.0","time_elapsed":283430,"subject_id":"92610","group":"Group1","condition":"1_Rep","full_date":"2026-02-25T15:38:02.235Z","date":"2026-02-25","time":"15:38:02"},{"task":"memory_phase","broad_category":"S","image_png":"S_Chert_10.png","image_id":362,"category_name":"Chert","category":23,"distinct_rating":7.17,"distinct_type":"Top","rt":null,"stimulus":"Stimuli_Rocks480/S_Chert_10.png","response":null,"trial_type":"image-keyboard-response","trial_index":52,"plugin_version":"2.1.0","time_elapsed":285951,"subject_id":"92610","group":"Group1","condition":"1_Rep","full_date":"2026-02-25T15:38:02.235Z","date":"2026-02-25","time":"15:38:02"},{"rt":null,"stimulus":"<p style=\"font-size: 50px; margin: 0; text-align: center;\">+</p>","response":null,"trial_type":"html-keyboard-response","trial_index":53,"plugin_version":"2.1.0","time_elapsed":286953,"subject_id":"92610","group":"Group1","condition":"1_Rep","full_date":"2026-02-25T15:38:02.235Z","date":"2026-02-25","time":"15:38:02"},{"task":"memory_phase","broad_category":"M","image_png":"M_Gneiss_05.png","image_id":197,"category_name":"Gneiss","category":13,"distinct_rating":2.97,"distinct_type":"Bottom","rt":null,"stimulus":"Stimuli_Rocks480/M_Gneiss_05.png","response":null,"trial_type":"image-keyboard-response","trial_index":54,"plugin_version":"2.1.0","time_elapsed":289481,"subject_id":"92610","group":"Group1","condition":"1_Rep","full_date":"2026-02-25T15:38:02.235Z","date":"2026-02-25","time":"15:38:02"},{"rt":1886,"stimulus":"<p style=\"max-width: 760px; margin: auto; font-size: 35px; line-height: 1.5;\">\n                Press SPACE to continue study phase\n              </p>","response":" ","trial_type":"html-keyboard-response","trial_index":55,"plugin_version":"2.1.0","time_elapsed":291370,"subject_id":"92610","group":"Group1","condition":"1_Rep","full_date":"2026-02-25T15:38:02.235Z","date":"2026-02-25","time":"15:38:02"},{"rt":null,"stimulus":"<p style=\"font-size: 50px; margin: 0; text-align: center;\">+</p>","response":null,"trial_type":"html-keyboard-response","trial_index":56,"plugin_version":"2.1.0","time_elapsed":292374,"subject_id":"92610","group":"Group1","condition":"1_Rep","full_date":"2026-02-25T15:38:02.235Z","date":"2026-02-25","time":"15:38:02"},{"task":"memory_phase","broad_category":"S","image_png":"S_Conglomerate_05.png","image_id":373,"category_name":"Conglomerate","category":24,"distinct_rating":7.32,"distinct_type":"Top","rt":null,"stimulus":"Stimuli_Rocks480/S_Conglomerate_05.png","response":null,"trial_type":"image-keyboard-response","trial_index":57,"plugin_version":"2.1.0","time_elapsed":294895,"subject_id":"92610","group":"Group1","condition":"1_Rep","full_date":"2026-02-25T15:38:02.235Z","date":"2026-02-25","time":"15:38:02"},{"rt":null,"stimulus":"<p style=\"font-size: 50px; margin: 0; text-align: center;\">+</p>","response":null,"trial_type":"html-keyboard-response","trial_index":58,"plugin_version":"2.1.0","time_elapsed":295897,"subject_id":"92610","group":"Group1","condition":"1_Rep","full_date":"2026-02-25T15:38:02.235Z","date":"2026-02-25","time":"15:38:02"},{"task":"memory_phase","broad_category":"M","image_png":"M_Marble_16.png","image_id":240,"category_name":"Marble","category":15,"distinct_rating":2.57,"distinct_type":"Bottom","rt":null,"stimulus":"Stimuli_Rocks480/M_Marble_16.png","response":null,"trial_type":"image-keyboard-response","trial_index":59,"plugin_version":"2.1.0","time_elapsed":298418,"subject_id":"92610","group":"Group1","condition":"1_Rep","full_date":"2026-02-25T15:38:02.235Z","date":"2026-02-25","time":"15:38:02"},{"rt":null,"stimulus":"<p style=\"font-size: 50px; margin: 0; text-align: center;\">+</p>","response":null,"trial_type":"html-keyboard-response","trial_index":60,"plugin_version":"2.1.0","time_elapsed":299421,"subject_id":"92610","group":"Group1","condition":"1_Rep","full_date":"2026-02-25T15:38:02.235Z","date":"2026-02-25","time":"15:38:02"},{"task":"memory_phase","broad_category":"M","image_png":"M_Quartzite_13.png","image_id":285,"category_name":"Quartzite","category":18,"distinct_rating":2.27,"distinct_type":"Bottom","rt":null,"stimulus":"Stimuli_Rocks480/M_Quartzite_13.png","response":null,"trial_type":"image-keyboard-response","trial_index":61,"plugin_version":"2.1.0","time_elapsed":301944,"subject_id":"92610","group":"Group1","condition":"1_Rep","full_date":"2026-02-25T15:38:02.235Z","date":"2026-02-25","time":"15:38:02"},{"rt":null,"stimulus":"<p style=\"font-size: 50px; margin: 0; text-align: center;\">+</p>","response":null,"trial_type":"html-keyboard-response","trial_index":62,"plugin_version":"2.1.0","time_elapsed":302947,"subject_id":"92610","group":"Group1","condition":"1_Rep","full_date":"2026-02-25T15:38:02.235Z","date":"2026-02-25","time":"15:38:02"},{"task":"memory_phase","broad_category":"M","image_png":"M_Gneiss_06.png","image_id":198,"category_name":"Gneiss","category":13,"distinct_rating":2.65,"distinct_type":"Bottom","rt":null,"stimulus":"Stimuli_Rocks480/M_Gneiss_06.png","response":null,"trial_type":"image-keyboard-response","trial_index":63,"plugin_version":"2.1.0","time_elapsed":305471,"subject_id":"92610","group":"Group1","condition":"1_Rep","full_date":"2026-02-25T15:38:02.235Z","date":"2026-02-25","time":"15:38:02"},{"rt":null,"stimulus":"<p style=\"font-size: 50px; margin: 0; text-align: center;\">+</p>","response":null,"trial_type":"html-keyboard-response","trial_index":64,"plugin_version":"2.1.0","time_elapsed":306474,"subject_id":"92610","group":"Group1","condition":"1_Rep","full_date":"2026-02-25T15:38:02.235Z","date":"2026-02-25","time":"15:38:02"},{"task":"memory_phase","broad_category":"M","image_png":"M_Phyllite_10.png","image_id":266,"category_name":"Phyllite","category":17,"distinct_rating":2.6,"distinct_type":"Bottom","rt":null,"stimulus":"Stimuli_Rocks480/M_Phyllite_10.png","response":null,"trial_type":"image-keyboard-response","trial_index":65,"plugin_version":"2.1.0","time_elapsed":308995,"subject_id":"92610","group":"Group1","condition":"1_Rep","full_date":"2026-02-25T15:38:02.235Z","date":"2026-02-25","time":"15:38:02"},{"rt":null,"stimulus":"<p style=\"font-size: 50px; margin: 0; text-align: center;\">+</p>","response":null,"trial_type":"html-keyboard-response","trial_index":66,"plugin_version":"2.1.0","time_elapsed":309997,"subject_id":"92610","group":"Group1","condition":"1_Rep","full_date":"2026-02-25T15:38:02.235Z","date":"2026-02-25","time":"15:38:02"},{"task":"memory_phase","broad_category":"I","image_png":"I_Basalt_02.png","image_id":18,"category_name":"Basalt","category":2,"distinct_rating":1.84,"distinct_type":"Bottom","rt":null,"stimulus":"Stimuli_Rocks480/I_Basalt_02.png","response":null,"trial_type":"image-keyboard-response","trial_index":67,"plugin_version":"2.1.0","time_elapsed":312517,"subject_id":"92610","group":"Group1","condition":"1_Rep","full_date":"2026-02-25T15:38:02.235Z","date":"2026-02-25","time":"15:38:02"},{"rt":null,"stimulus":"<p style=\"font-size: 50px; margin: 0; text-align: center;\">+</p>","response":null,"trial_type":"html-keyboard-response","trial_index":68,"plugin_version":"2.1.0","time_elapsed":313520,"subject_id":"92610","group":"Group1","condition":"1_Rep","full_date":"2026-02-25T15:38:02.235Z","date":"2026-02-25","time":"15:38:02"},{"task":"memory_phase","broad_category":"S","image_png":"S_Sandstone_15.png","image_id":463,"category_name":"Sandstone","category":29,"distinct_rating":2,"distinct_type":"Bottom","rt":null,"stimulus":"Stimuli_Rocks480/S_Sandstone_15.png","response":null,"trial_type":"image-keyboard-response","trial_index":69,"plugin_version":"2.1.0","time_elapsed":316043,"subject_id":"92610","group":"Group1","condition":"1_Rep","full_date":"2026-02-25T15:38:02.235Z","date":"2026-02-25","time":"15:38:02"},{"rt":null,"stimulus":"<p style=\"font-size: 50px; margin: 0; text-align: center;\">+</p>","response":null,"trial_type":"html-keyboard-response","trial_index":70,"plugin_version":"2.1.0","time_elapsed":317046,"subject_id":"92610","group":"Group1","condition":"1_Rep","full_date":"2026-02-25T15:38:02.235Z","date":"2026-02-25","time":"15:38:02"},{"task":"memory_phase","broad_category":"S","image_png":"S_Dolomite_14.png","image_id":398,"category_name":"Dolomite","category":25,"distinct_rating":1.43,"distinct_type":"Bottom","rt":null,"stimulus":"Stimuli_Rocks480/S_Dolomite_14.png","response":null,"trial_type":"image-keyboard-response","trial_index":71,"plugin_version":"2.1.0","time_elapsed":319566,"subject_id":"92610","group":"Group1","condition":"1_Rep","full_date":"2026-02-25T15:38:02.235Z","date":"2026-02-25","time":"15:38:02"},{"rt":null,"stimulus":"<p style=\"font-size: 50px; margin: 0; text-align: center;\">+</p>","response":null,"trial_type":"html-keyboard-response","trial_index":72,"plugin_version":"2.1.0","time_elapsed":320568,"subject_id":"92610","group":"Group1","condition":"1_Rep","full_date":"2026-02-25T15:38:02.235Z","date":"2026-02-25","time":"15:38:02"},{"task":"memory_phase","broad_category":"I","image_png":"I_Andesite_06.png","image_id":6,"category_name":"Andesite","category":1,"distinct_rating":3.17,"distinct_type":"Bottom","rt":null,"stimulus":"Stimuli_Rocks480/I_Andesite_06.png","response":null,"trial_type":"image-keyboard-response","trial_index":73,"plugin_version":"2.1.0","time_elapsed":323090,"subject_id":"92610","group":"Group1","condition":"1_Rep","full_date":"2026-02-25T15:38:02.235Z","date":"2026-02-25","time":"15:38:02"},{"rt":null,"stimulus":"<p style=\"font-size: 50px; margin: 0; text-align: center;\">+</p>","response":null,"trial_type":"html-keyboard-response","trial_index":74,"plugin_version":"2.1.0","time_elapsed":324093,"subject_id":"92610","group":"Group1","condition":"1_Rep","full_date":"2026-02-25T15:38:02.235Z","date":"2026-02-25","time":"15:38:02"},{"task":"memory_phase","broad_category":"I","image_png":"I_Gabbro_16.png","image_id":64,"category_name":"Gabbro","category":4,"distinct_rating":2.52,"distinct_type":"Bottom","rt":null,"stimulus":"Stimuli_Rocks480/I_Gabbro_16.png","response":null,"trial_type":"image-keyboard-response","trial_index":75,"plugin_version":"2.1.0","time_elapsed":326618,"subject_id":"92610","group":"Group1","condition":"1_Rep","full_date":"2026-02-25T15:38:02.235Z","date":"2026-02-25","time":"15:38:02"},{"rt":null,"stimulus":"<p style=\"font-size: 50px; margin: 0; text-align: center;\">+</p>","response":null,"trial_type":"html-keyboard-response","trial_index":76,"plugin_version":"2.1.0","time_elapsed":327622,"subject_id":"92610","group":"Group1","condition":"1_Rep","full_date":"2026-02-25T15:38:02.235Z","date":"2026-02-25","time":"15:38:02"},{"task":"memory_phase","broad_category":"I","image_png":"I_Pumice_08.png","image_id":136,"category_name":"Pumice","category":9,"distinct_rating":3.1,"distinct_type":"Bottom","rt":null,"stimulus":"Stimuli_Rocks480/I_Pumice_08.png","response":null,"trial_type":"image-keyboard-response","trial_index":77,"plugin_version":"2.1.0","time_elapsed":330143,"subject_id":"92610","group":"Group1","condition":"1_Rep","full_date":"2026-02-25T15:38:02.235Z","date":"2026-02-25","time":"15:38:02"},{"rt":null,"stimulus":"<p style=\"font-size: 50px; margin: 0; text-align: center;\">+</p>","response":null,"trial_type":"html-keyboard-response","trial_index":78,"plugin_version":"2.1.0","time_elapsed":331146,"subject_id":"92610","group":"Group1","condition":"1_Rep","full_date":"2026-02-25T15:38:02.235Z","date":"2026-02-25","time":"15:38:02"},{"task":"memory_phase","broad_category":"M","image_png":"M_Slate_11.png","image_id":315,"category_name":"Slate","category":20,"distinct_rating":2.75,"distinct_type":"Bottom","rt":null,"stimulus":"Stimuli_Rocks480/M_Slate_11.png","response":null,"trial_type":"image-keyboard-response","trial_index":79,"plugin_version":"2.1.0","time_elapsed":333665,"subject_id":"92610","group":"Group1","condition":"1_Rep","full_date":"2026-02-25T15:38:02.235Z","date":"2026-02-25","time":"15:38:02"},{"rt":null,"stimulus":"<p style=\"font-size: 50px; margin: 0; text-align: center;\">+</p>","response":null,"trial_type":"html-keyboard-response","trial_index":80,"plugin_version":"2.1.0","time_elapsed":334668,"subject_id":"92610","group":"Group1","condition":"1_Rep","full_date":"2026-02-25T15:38:02.235Z","date":"2026-02-25","time":"15:38:02"},{"task":"memory_phase","broad_category":"I","image_png":"I_Pumice_12.png","image_id":140,"category_name":"Pumice","category":9,"distinct_rating":2.97,"distinct_type":"Bottom","rt":null,"stimulus":"Stimuli_Rocks480/I_Pumice_12.png","response":null,"trial_type":"image-keyboard-response","trial_index":81,"plugin_version":"2.1.0","time_elapsed":337183,"subject_id":"92610","group":"Group1","condition":"1_Rep","full_date":"2026-02-25T15:38:02.235Z","date":"2026-02-25","time":"15:38:02"},{"rt":null,"stimulus":"<p style=\"font-size: 50px; margin: 0; text-align: center;\">+</p>","response":null,"trial_type":"html-keyboard-response","trial_index":82,"plugin_version":"2.1.0","time_elapsed":338186,"subject_id":"92610","group":"Group1","condition":"1_Rep","full_date":"2026-02-25T15:38:02.235Z","date":"2026-02-25","time":"15:38:02"},{"task":"memory_phase","broad_category":"I","image_png":"I_Andesite_10.png","image_id":10,"category_name":"Andesite","category":1,"distinct_rating":3.15,"distinct_type":"Bottom","rt":null,"stimulus":"Stimuli_Rocks480/I_Andesite_10.png","response":null,"trial_type":"image-keyboard-response","trial_index":83,"plugin_version":"2.1.0","time_elapsed":340701,"subject_id":"92610","group":"Group1","condition":"1_Rep","full_date":"2026-02-25T15:38:02.235Z","date":"2026-02-25","time":"15:38:02"},{"rt":null,"stimulus":"<p style=\"font-size: 50px; margin: 0; text-align: center;\">+</p>","response":null,"trial_type":"html-keyboard-response","trial_index":84,"plugin_version":"2.1.0","time_elapsed":341704,"subject_id":"92610","group":"Group1","condition":"1_Rep","full_date":"2026-02-25T15:38:02.235Z","date":"2026-02-25","time":"15:38:02"},{"task":"memory_phase","broad_category":"I","image_png":"I_Gabbro_08.png","image_id":56,"category_name":"Gabbro","category":4,"distinct_rating":3.02,"distinct_type":"Bottom","rt":null,"stimulus":"Stimuli_Rocks480/I_Gabbro_08.png","response":null,"trial_type":"image-keyboard-response","trial_index":85,"plugin_version":"2.1.0","time_elapsed":344221,"subject_id":"92610","group":"Group1","condition":"1_Rep","full_date":"2026-02-25T15:38:02.235Z","date":"2026-02-25","time":"15:38:02"},{"rt":null,"stimulus":"<p style=\"font-size: 50px; margin: 0; text-align: center;\">+</p>","response":null,"trial_type":"html-keyboard-response","trial_index":86,"plugin_version":"2.1.0","time_elapsed":345223,"subject_id":"92610","group":"Group1","condition":"1_Rep","full_date":"2026-02-25T15:38:02.235Z","date":"2026-02-25","time":"15:38:02"},{"task":"memory_phase","broad_category":"S","image_png":"S_Sandstone_03.png","image_id":451,"category_name":"Sandstone","category":29,"distinct_rating":1.86,"distinct_type":"Bottom","rt":null,"stimulus":"Stimuli_Rocks480/S_Sandstone_03.png","response":null,"trial_type":"image-keyboard-response","trial_index":87,"plugin_version":"2.1.0","time_elapsed":347744,"subject_id":"92610","group":"Group1","condition":"1_Rep","full_date":"2026-02-25T15:38:02.235Z","date":"2026-02-25","time":"15:38:02"},{"rt":null,"stimulus":"<p style=\"font-size: 50px; margin: 0; text-align: center;\">+</p>","response":null,"trial_type":"html-keyboard-response","trial_index":88,"plugin_version":"2.1.0","time_elapsed":348747,"subject_id":"92610","group":"Group1","condition":"1_Rep","full_date":"2026-02-25T15:38:02.235Z","date":"2026-02-25","time":"15:38:02"},{"task":"memory_phase","broad_category":"I","image_png":"I_Basalt_09.png","image_id":25,"category_name":"Basalt","category":2,"distinct_rating":1.89,"distinct_type":"Bottom","rt":null,"stimulus":"Stimuli_Rocks480/I_Basalt_09.png","response":null,"trial_type":"image-keyboard-response","trial_index":89,"plugin_version":"2.1.0","time_elapsed":351263,"subject_id":"92610","group":"Group1","condition":"1_Rep","full_date":"2026-02-25T15:38:02.235Z","date":"2026-02-25","time":"15:38:02"},{"rt":null,"stimulus":"<p style=\"font-size: 50px; margin: 0; text-align: center;\">+</p>","response":null,"trial_type":"html-keyboard-response","trial_index":90,"plugin_version":"2.1.0","time_elapsed":352266,"subject_id":"92610","group":"Group1","condition":"1_Rep","full_date":"2026-02-25T15:38:02.235Z","date":"2026-02-25","time":"15:38:02"},{"task":"memory_phase","broad_category":"M","image_png":"M_Phyllite_03.png","image_id":259,"category_name":"Phyllite","category":17,"distinct_rating":2.5,"distinct_type":"Bottom","rt":null,"stimulus":"Stimuli_Rocks480/M_Phyllite_03.png","response":null,"trial_type":"image-keyboard-response","trial_index":91,"plugin_version":"2.1.0","time_elapsed":354788,"subject_id":"92610","group":"Group1","condition":"1_Rep","full_date":"2026-02-25T15:38:02.235Z","date":"2026-02-25","time":"15:38:02"},{"rt":null,"stimulus":"<p style=\"font-size: 50px; margin: 0; text-align: center;\">+</p>","response":null,"trial_type":"html-keyboard-response","trial_index":92,"plugin_version":"2.1.0","time_elapsed":355791,"subject_id":"92610","group":"Group1","condition":"1_Rep","full_date":"2026-02-25T15:38:02.235Z","date":"2026-02-25","time":"15:38:02"},{"task":"memory_phase","broad_category":"S","image_png":"S_Rock Salt_01.png","image_id":433,"category_name":"Rock Salt","category":28,"distinct_rating":7.18,"distinct_type":"Top","rt":null,"stimulus":"Stimuli_Rocks480/S_Rock Salt_01.png","response":null,"trial_type":"image-keyboard-response","trial_index":93,"plugin_version":"2.1.0","time_elapsed":358316,"subject_id":"92610","group":"Group1","condition":"1_Rep","full_date":"2026-02-25T15:38:02.235Z","date":"2026-02-25","time":"15:38:02"},{"rt":null,"stimulus":"<p style=\"font-size: 50px; margin: 0; text-align: center;\">+</p>","response":null,"trial_type":"html-keyboard-response","trial_index":94,"plugin_version":"2.1.0","time_elapsed":359318,"subject_id":"92610","group":"Group1","condition":"1_Rep","full_date":"2026-02-25T15:38:02.235Z","date":"2026-02-25","time":"15:38:02"},{"task":"memory_phase","broad_category":"S","image_png":"S_Rock Gypsum_04.png","image_id":420,"category_name":"Rock Gypsum","category":27,"distinct_rating":7.61,"distinct_type":"Top","rt":null,"stimulus":"Stimuli_Rocks480/S_Rock Gypsum_04.png","response":null,"trial_type":"image-keyboard-response","trial_index":95,"plugin_version":"2.1.0","time_elapsed":361840,"subject_id":"92610","group":"Group1","condition":"1_Rep","full_date":"2026-02-25T15:38:02.235Z","date":"2026-02-25","time":"15:38:02"},{"rt":null,"stimulus":"<p style=\"font-size: 50px; margin: 0; text-align: center;\">+</p>","response":null,"trial_type":"html-keyboard-response","trial_index":96,"plugin_version":"2.1.0","time_elapsed":362842,"subject_id":"92610","group":"Group1","condition":"1_Rep","full_date":"2026-02-25T15:38:02.235Z","date":"2026-02-25","time":"15:38:02"},{"task":"memory_phase","broad_category":"M","image_png":"M_Slate_15.png","image_id":319,"category_name":"Slate","category":20,"distinct_rating":2.13,"distinct_type":"Bottom","rt":null,"stimulus":"Stimuli_Rocks480/M_Slate_15.png","response":null,"trial_type":"image-keyboard-response","trial_index":97,"plugin_version":"2.1.0","time_elapsed":365359,"subject_id":"92610","group":"Group1","condition":"1_Rep","full_date":"2026-02-25T15:38:02.235Z","date":"2026-02-25","time":"15:38:02"},{"rt":null,"stimulus":"<p style=\"font-size: 50px; margin: 0; text-align: center;\">+</p>","response":null,"trial_type":"html-keyboard-response","trial_index":98,"plugin_version":"2.1.0","time_elapsed":366362,"subject_id":"92610","group":"Group1","condition":"1_Rep","full_date":"2026-02-25T15:38:02.235Z","date":"2026-02-25","time":"15:38:02"},{"task":"memory_phase","broad_category":"I","image_png":"I_Diorite_05.png","image_id":37,"category_name":"Diorite","category":3,"distinct_rating":3.08,"distinct_type":"Bottom","rt":null,"stimulus":"Stimuli_Rocks480/I_Diorite_05.png","response":null,"trial_type":"image-keyboard-response","trial_index":99,"plugin_version":"2.1.0","time_elapsed":368881,"subject_id":"92610","group":"Group1","condition":"1_Rep","full_date":"2026-02-25T15:38:02.235Z","date":"2026-02-25","time":"15:38:02"},{"rt":null,"stimulus":"<p style=\"font-size: 50px; margin: 0; text-align: center;\">+</p>","response":null,"trial_type":"html-keyboard-response","trial_index":100,"plugin_version":"2.1.0","time_elapsed":369884,"subject_id":"92610","group":"Group1","condition":"1_Rep","full_date":"2026-02-25T15:38:02.235Z","date":"2026-02-25","time":"15:38:02"},{"task":"memory_phase","broad_category":"S","image_png":"S_Shale_08.png","image_id":472,"category_name":"Shale","category":30,"distinct_rating":2.55,"distinct_type":"Bottom","rt":null,"stimulus":"Stimuli_Rocks480/S_Shale_08.png","response":null,"trial_type":"image-keyboard-response","trial_index":101,"plugin_version":"2.1.0","time_elapsed":372408,"subject_id":"92610","group":"Group1","condition":"1_Rep","full_date":"2026-02-25T15:38:02.235Z","date":"2026-02-25","time":"15:38:02"},{"rt":null,"stimulus":"<p style=\"font-size: 50px; margin: 0; text-align: center;\">+</p>","response":null,"trial_type":"html-keyboard-response","trial_index":102,"plugin_version":"2.1.0","time_elapsed":373411,"subject_id":"92610","group":"Group1","condition":"1_Rep","full_date":"2026-02-25T15:38:02.235Z","date":"2026-02-25","time":"15:38:02"},{"task":"memory_phase","broad_category":"I","image_png":"I_Diorite_04.png","image_id":36,"category_name":"Diorite","category":3,"distinct_rating":2.98,"distinct_type":"Bottom","rt":null,"stimulus":"Stimuli_Rocks480/I_Diorite_04.png","response":null,"trial_type":"image-keyboard-response","trial_index":103,"plugin_version":"2.1.0","time_elapsed":375934,"subject_id":"92610","group":"Group1","condition":"1_Rep","full_date":"2026-02-25T15:38:02.235Z","date":"2026-02-25","time":"15:38:02"},{"rt":null,"stimulus":"<p style=\"font-size: 50px; margin: 0; text-align: center;\">+</p>","response":null,"trial_type":"html-keyboard-response","trial_index":104,"plugin_version":"2.1.0","time_elapsed":376937,"subject_id":"92610","group":"Group1","condition":"1_Rep","full_date":"2026-02-25T15:38:02.235Z","date":"2026-02-25","time":"15:38:02"},{"task":"memory_phase","broad_category":"I","image_png":"I_Andesite_08.png","image_id":8,"category_name":"Andesite","category":1,"distinct_rating":1.95,"distinct_type":"Bottom","rt":null,"stimulus":"Stimuli_Rocks480/I_Andesite_08.png","response":null,"trial_type":"image-keyboard-response","trial_index":105,"plugin_version":"2.1.0","time_elapsed":379457,"subject_id":"92610","group":"Group1","condition":"1_Rep","full_date":"2026-02-25T15:38:02.235Z","date":"2026-02-25","time":"15:38:02"},{"rt":4437,"stimulus":"<div style=\"max-width: 760px; margin: auto; font-size: 20px; line-height: 1.5;\">\n      <h1 style=\"text-align:center; font-size: 30px;\">Instructions for the Test Phase</h1>\n      <p>\n        The study phase is now complete.\n      </p>\n      <p>\n        In the test phase, you will again see a series of rock images. \n        Some will be ones you saw before - during the study phase, while others will be new.  \n        <b>Your task</b> is to decide whether you have seen each image before by pressing the corresponding key on your keyboard:<br><br>\n          <b>A</b> - NO (you did not see this image before)<br>\n          <b>L</b> - YES (you saw this image before)<br><br>\n        The test will proceed at your own pace. You will receive feedback after each response.  \n        Please try to respond <b>as accurately as possible</b>.\n      </p>\n      <p>\n        <b>Reminder:</b> If your computer has multiple language settings (e.g., English and another language),\n        please ensure it is set to English during the test phase.\n      </p>\n      <p>\n        You can track your progress using the <b>completion bar</b> at the top of the screen.  \n        Note that it has been refreshed to reflect your progress during this final phase.\n      </p>\n      <p>\n        Press the button below when you are ready to continue.\n      </p>\n    </div>","response":0,"trial_type":"html-button-response","trial_index":106,"plugin_version":"2.1.0","time_elapsed":383898,"subject_id":"92610","group":"Group1","condition":"1_Rep","full_date":"2026-02-25T15:38:02.235Z","date":"2026-02-25","time":"15:38:02"},{"correct_response":"a","task":"test_phase","broad_category":"S","image_png":"S_Dolomite_07.png","image_id":391,"category_name":"Dolomite","category":25,"distinct_rating":1.73,"distinct_type":"Bottom","item_type":"Foil","rt":2586,"stimulus":"Stimuli_Rocks480/S_Dolomite_07.png","response":"a","trial_type":"image-keyboard-response","trial_index":107,"plugin_version":"2.1.0","time_elapsed":386495,"subject_id":"92610","group":"Group1","condition":"1_Rep","full_date":"2026-02-25T15:38:02.235Z","date":"2026-02-25","time":"15:38:02","cor_ans":true},{"trial_type":"html-keyboard-response","rt":null,"stimulus":"<p style=\"color: green; font-size: 50px; font-weight: bold;\">Correct</p>","response":null,"trial_index":108,"plugin_version":"2.1.0","time_elapsed":386998,"subject_id":"92610","group":"Group1","condition":"1_Rep","full_date":"2026-02-25T15:38:02.235Z","date":"2026-02-25","time":"15:38:02"},{"correct_response":"a","task":"test_phase","broad_category":"M","image_png":"M_Phyllite_02.png","image_id":258,"category_name":"Phyllite","category":17,"distinct_rating":2.89,"distinct_type":"Bottom","item_type":"Foil","rt":940,"stimulus":"Stimuli_Rocks480/M_Phyllite_02.png","response":"a","trial_type":"image-keyboard-response","trial_index":109,"plugin_version":"2.1.0","time_elapsed":387961,"subject_id":"92610","group":"Group1","condition":"1_Rep","full_date":"2026-02-25T15:38:02.235Z","date":"2026-02-25","time":"15:38:02","cor_ans":true},{"trial_type":"html-keyboard-response","rt":null,"stimulus":"<p style=\"color: green; font-size: 50px; font-weight: bold;\">Correct</p>","response":null,"trial_index":110,"plugin_version":"2.1.0","time_elapsed":388464,"subject_id":"92610","group":"Group1","condition":"1_Rep","full_date":"2026-02-25T15:38:02.235Z","date":"2026-02-25","time":"15:38:02"},{"correct_response":"a","task":"test_phase","broad_category":"S","image_png":"S_Shale_02.png","image_id":466,"category_name":"Shale","category":30,"distinct_rating":2.9,"distinct_type":"Bottom","item_type":"Foil","rt":1532,"stimulus":"Stimuli_Rocks480/S_Shale_02.png","response":"l","trial_type":"image-keyboard-response","trial_index":111,"plugin_version":"2.1.0","time_elapsed":390015,"subject_id":"92610","group":"Group1","condition":"1_Rep","full_date":"2026-02-25T15:38:02.235Z","date":"2026-02-25","time":"15:38:02","cor_ans":false},{"trial_type":"html-keyboard-response","rt":null,"stimulus":"<p style=\"color: red; font-size: 50px; font-weight: bold;\">Incorrect</p>","response":null,"trial_index":112,"plugin_version":"2.1.0","time_elapsed":390518,"subject_id":"92610","group":"Group1","condition":"1_Rep","full_date":"2026-02-25T15:38:02.235Z","date":"2026-02-25","time":"15:38:02"},{"correct_response":"l","task":"test_phase","broad_category":"I","image_png":"I_Andesite_06.png","image_id":6,"category_name":"Andesite","category":1,"distinct_rating":3.17,"distinct_type":"Bottom","item_type":"Target","rt":785,"stimulus":"Stimuli_Rocks480/I_Andesite_06.png","response":"a","trial_type":"image-keyboard-response","trial_index":113,"plugin_version":"2.1.0","time_elapsed":391323,"subject_id":"92610","group":"Group1","condition":"1_Rep","full_date":"2026-02-25T15:38:02.235Z","date":"2026-02-25","time":"15:38:02","cor_ans":false},{"trial_type":"html-keyboard-response","rt":null,"stimulus":"<p style=\"color: red; font-size: 50px; font-weight: bold;\">Incorrect</p>","response":null,"trial_index":114,"plugin_version":"2.1.0","time_elapsed":391825,"subject_id":"92610","group":"Group1","condition":"1_Rep","full_date":"2026-02-25T15:38:02.235Z","date":"2026-02-25","time":"15:38:02"},{"correct_response":"l","task":"test_phase","broad_category":"I","image_png":"I_Pumice_12.png","image_id":140,"category_name":"Pumice","category":9,"distinct_rating":2.97,"distinct_type":"Bottom","item_type":"Target","rt":2078,"stimulus":"Stimuli_Rocks480/I_Pumice_12.png","response":"l","trial_type":"image-keyboard-response","trial_index":115,"plugin_version":"2.1.0","time_elapsed":393917,"subject_id":"92610","group":"Group1","condition":"1_Rep","full_date":"2026-02-25T15:38:02.235Z","date":"2026-02-25","time":"15:38:02","cor_ans":true},{"trial_type":"html-keyboard-response","rt":null,"stimulus":"<p style=\"color: green; font-size: 50px; font-weight: bold;\">Correct</p>","response":null,"trial_index":116,"plugin_version":"2.1.0","time_elapsed":394420,"subject_id":"92610","group":"Group1","condition":"1_Rep","full_date":"2026-02-25T15:38:02.235Z","date":"2026-02-25","time":"15:38:02"},{"correct_response":"l","task":"test_phase","broad_category":"M","image_png":"M_Gneiss_06.png","image_id":198,"category_name":"Gneiss","category":13,"distinct_rating":2.65,"distinct_type":"Bottom","item_type":"Target","rt":1031,"stimulus":"Stimuli_Rocks480/M_Gneiss_06.png","response":"a","trial_type":"image-keyboard-response","trial_index":117,"plugin_version":"2.1.0","time_elapsed":395472,"subject_id":"92610","group":"Group1","condition":"1_Rep","full_date":"2026-02-25T15:38:02.235Z","date":"2026-02-25","time":"15:38:02","cor_ans":false},{"trial_type":"html-keyboard-response","rt":null,"stimulus":"<p style=\"color: red; font-size: 50px; font-weight: bold;\">Incorrect</p>","response":null,"trial_index":118,"plugin_version":"2.1.0","time_elapsed":395975,"subject_id":"92610","group":"Group1","condition":"1_Rep","full_date":"2026-02-25T15:38:02.235Z","date":"2026-02-25","time":"15:38:02"},{"correct_response":"a","task":"test_phase","broad_category":"S","image_png":"S_Shale_07.png","image_id":471,"category_name":"Shale","category":30,"distinct_rating":2.73,"distinct_type":"Bottom","item_type":"Foil","rt":838,"stimulus":"Stimuli_Rocks480/S_Shale_07.png","response":"l","trial_type":"image-keyboard-response","trial_index":119,"plugin_version":"2.1.0","time_elapsed":396831,"subject_id":"92610","group":"Group1","condition":"1_Rep","full_date":"2026-02-25T15:38:02.235Z","date":"2026-02-25","time":"15:38:02","cor_ans":false},{"trial_type":"html-keyboard-response","rt":null,"stimulus":"<p style=\"color: red; font-size: 50px; font-weight: bold;\">Incorrect</p>","response":null,"trial_index":120,"plugin_version":"2.1.0","time_elapsed":397334,"subject_id":"92610","group":"Group1","condition":"1_Rep","full_date":"2026-02-25T15:38:02.235Z","date":"2026-02-25","time":"15:38:02"},{"correct_response":"l","task":"test_phase","broad_category":"I","image_png":"I_Rhyolite_14.png","image_id":158,"category_name":"Rhyolite","category":10,"distinct_rating":2.59,"distinct_type":"Bottom","item_type":"Target","rt":1044,"stimulus":"Stimuli_Rocks480/I_Rhyolite_14.png","response":"a","trial_type":"image-keyboard-response","trial_index":121,"plugin_version":"2.1.0","time_elapsed":398393,"subject_id":"92610","group":"Group1","condition":"1_Rep","full_date":"2026-02-25T15:38:02.235Z","date":"2026-02-25","time":"15:38:02","cor_ans":false},{"trial_type":"html-keyboard-response","rt":null,"stimulus":"<p style=\"color: red; font-size: 50px; font-weight: bold;\">Incorrect</p>","response":null,"trial_index":122,"plugin_version":"2.1.0","time_elapsed":398896,"subject_id":"92610","group":"Group1","condition":"1_Rep","full_date":"2026-02-25T15:38:02.235Z","date":"2026-02-25","time":"15:38:02"},{"correct_response":"a","task":"test_phase","broad_category":"M","image_png":"M_Gneiss_15.png","image_id":207,"category_name":"Gneiss","category":13,"distinct_rating":3.11,"distinct_type":"Bottom","item_type":"Foil","rt":972,"stimulus":"Stimuli_Rocks480/M_Gneiss_15.png","response":"l","trial_type":"image-keyboard-response","trial_index":123,"plugin_version":"2.1.0","time_elapsed":399881,"subject_id":"92610","group":"Group1","condition":"1_Rep","full_date":"2026-02-25T15:38:02.235Z","date":"2026-02-25","time":"15:38:02","cor_ans":false},{"trial_type":"html-keyboard-response","rt":null,"stimulus":"<p style=\"color: red; font-size: 50px; font-weight: bold;\">Incorrect</p>","response":null,"trial_index":124,"plugin_version":"2.1.0","time_elapsed":400384,"subject_id":"92610","group":"Group1","condition":"1_Rep","full_date":"2026-02-25T15:38:02.235Z","date":"2026-02-25","time":"15:38:02"},{"correct_response":"a","task":"test_phase","broad_category":"I","image_png":"I_Diorite_01.png","image_id":33,"category_name":"Diorite","category":3,"distinct_rating":2.97,"distinct_type":"Bottom","item_type":"Foil","rt":915,"stimulus":"Stimuli_Rocks480/I_Diorite_01.png","response":"l","trial_type":"image-keyboard-response","trial_index":125,"plugin_version":"2.1.0","time_elapsed":401328,"subject_id":"92610","group":"Group1","condition":"1_Rep","full_date":"2026-02-25T15:38:02.235Z","date":"2026-02-25","time":"15:38:02","cor_ans":false},{"trial_type":"html-keyboard-response","rt":null,"stimulus":"<p style=\"color: red; font-size: 50px; font-weight: bold;\">Incorrect</p>","response":null,"trial_index":126,"plugin_version":"2.1.0","time_elapsed":401832,"subject_id":"92610","group":"Group1","condition":"1_Rep","full_date":"2026-02-25T15:38:02.235Z","date":"2026-02-25","time":"15:38:02"},{"correct_response":"a","task":"test_phase","broad_category":"M","image_png":"M_Slate_10.png","image_id":314,"category_name":"Slate","category":20,"distinct_rating":1.94,"distinct_type":"Bottom","item_type":"Foil","rt":1044,"stimulus":"Stimuli_Rocks480/M_Slate_10.png","response":"l","trial_type":"image-keyboard-response","trial_index":127,"plugin_version":"2.1.0","time_elapsed":402892,"subject_id":"92610","group":"Group1","condition":"1_Rep","full_date":"2026-02-25T15:38:02.235Z","date":"2026-02-25","time":"15:38:02","cor_ans":false},{"trial_type":"html-keyboard-response","rt":null,"stimulus":"<p style=\"color: red; font-size: 50px; font-weight: bold;\">Incorrect</p>","response":null,"trial_index":128,"plugin_version":"2.1.0","time_elapsed":403395,"subject_id":"92610","group":"Group1","condition":"1_Rep","full_date":"2026-02-25T15:38:02.235Z","date":"2026-02-25","time":"15:38:02"},{"correct_response":"a","task":"test_phase","broad_category":"M","image_png":"M_Phyllite_05.png","image_id":261,"category_name":"Phyllite","category":17,"distinct_rating":2.14,"distinct_type":"Bottom","item_type":"Foil","rt":717,"stimulus":"Stimuli_Rocks480/M_Phyllite_05.png","response":"a","trial_type":"image-keyboard-response","trial_index":129,"plugin_version":"2.1.0","time_elapsed":404129,"subject_id":"92610","group":"Group1","condition":"1_Rep","full_date":"2026-02-25T15:38:02.235Z","date":"2026-02-25","time":"15:38:02","cor_ans":true},{"trial_type":"html-keyboard-response","rt":null,"stimulus":"<p style=\"color: green; font-size: 50px; font-weight: bold;\">Correct</p>","response":null,"trial_index":130,"plugin_version":"2.1.0","time_elapsed":404632,"subject_id":"92610","group":"Group1","condition":"1_Rep","full_date":"2026-02-25T15:38:02.235Z","date":"2026-02-25","time":"15:38:02"},{"correct_response":"a","task":"test_phase","broad_category":"I","image_png":"I_Andesite_09.png","image_id":9,"category_name":"Andesite","category":1,"distinct_rating":2.49,"distinct_type":"Bottom","item_type":"Foil","rt":1211,"stimulus":"Stimuli_Rocks480/I_Andesite_09.png","response":"l","trial_type":"image-keyboard-response","trial_index":131,"plugin_version":"2.1.0","time_elapsed":405862,"subject_id":"92610","group":"Group1","condition":"1_Rep","full_date":"2026-02-25T15:38:02.235Z","date":"2026-02-25","time":"15:38:02","cor_ans":false},{"trial_type":"html-keyboard-response","rt":null,"stimulus":"<p style=\"color: red; font-size: 50px; font-weight: bold;\">Incorrect</p>","response":null,"trial_index":132,"plugin_version":"2.1.0","time_elapsed":406365,"subject_id":"92610","group":"Group1","condition":"1_Rep","full_date":"2026-02-25T15:38:02.235Z","date":"2026-02-25","time":"15:38:02"},{"correct_response":"l","task":"test_phase","broad_category":"S","image_png":"S_Dolomite_12.png","image_id":396,"category_name":"Dolomite","category":25,"distinct_rating":1.85,"distinct_type":"Bottom","item_type":"Target","rt":807,"stimulus":"Stimuli_Rocks480/S_Dolomite_12.png","response":"a","trial_type":"image-keyboard-response","trial_index":133,"plugin_version":"2.1.0","time_elapsed":407193,"subject_id":"92610","group":"Group1","condition":"1_Rep","full_date":"2026-02-25T15:38:02.235Z","date":"2026-02-25","time":"15:38:02","cor_ans":false},{"trial_type":"html-keyboard-response","rt":null,"stimulus":"<p style=\"color: red; font-size: 50px; font-weight: bold;\">Incorrect</p>","response":null,"trial_index":134,"plugin_version":"2.1.0","time_elapsed":407696,"subject_id":"92610","group":"Group1","condition":"1_Rep","full_date":"2026-02-25T15:38:02.235Z","date":"2026-02-25","time":"15:38:02"},{"correct_response":"l","task":"test_phase","broad_category":"I","image_png":"I_Pegmatite_16.png","image_id":112,"category_name":"Pegmatite","category":7,"distinct_rating":7.03,"distinct_type":"Top","item_type":"Target","rt":928,"stimulus":"Stimuli_Rocks480/I_Pegmatite_16.png","response":"l","trial_type":"image-keyboard-response","trial_index":135,"plugin_version":"2.1.0","time_elapsed":408644,"subject_id":"92610","group":"Group1","condition":"1_Rep","full_date":"2026-02-25T15:38:02.235Z","date":"2026-02-25","time":"15:38:02","cor_ans":true},{"trial_type":"html-keyboard-response","rt":null,"stimulus":"<p style=\"color: green; font-size: 50px; font-weight: bold;\">Correct</p>","response":null,"trial_index":136,"plugin_version":"2.1.0","time_elapsed":409146,"subject_id":"92610","group":"Group1","condition":"1_Rep","full_date":"2026-02-25T15:38:02.235Z","date":"2026-02-25","time":"15:38:02"},{"correct_response":"l","task":"test_phase","broad_category":"M","image_png":"M_Slate_11.png","image_id":315,"category_name":"Slate","category":20,"distinct_rating":2.75,"distinct_type":"Bottom","item_type":"Target","rt":895,"stimulus":"Stimuli_Rocks480/M_Slate_11.png","response":"a","trial_type":"image-keyboard-response","trial_index":137,"plugin_version":"2.1.0","time_elapsed":410058,"subject_id":"92610","group":"Group1","condition":"1_Rep","full_date":"2026-02-25T15:38:02.235Z","date":"2026-02-25","time":"15:38:02","cor_ans":false},{"trial_type":"html-keyboard-response","rt":null,"stimulus":"<p style=\"color: red; font-size: 50px; font-weight: bold;\">Incorrect</p>","response":null,"trial_index":138,"plugin_version":"2.1.0","time_elapsed":410561,"subject_id":"92610","group":"Group1","condition":"1_Rep","full_date":"2026-02-25T15:38:02.235Z","date":"2026-02-25","time":"15:38:02"},{"correct_response":"a","task":"test_phase","broad_category":"M","image_png":"M_Marble_14.png","image_id":238,"category_name":"Marble","category":15,"distinct_rating":3.31,"distinct_type":"Bottom","item_type":"Foil","rt":1215,"stimulus":"Stimuli_Rocks480/M_Marble_14.png","response":"a","trial_type":"image-keyboard-response","trial_index":139,"plugin_version":"2.1.0","time_elapsed":411793,"subject_id":"92610","group":"Group1","condition":"1_Rep","full_date":"2026-02-25T15:38:02.235Z","date":"2026-02-25","time":"15:38:02","cor_ans":true},{"trial_type":"html-keyboard-response","rt":null,"stimulus":"<p style=\"color: green; font-size: 50px; font-weight: bold;\">Correct</p>","response":null,"trial_index":140,"plugin_version":"2.1.0","time_elapsed":412296,"subject_id":"92610","group":"Group1","condition":"1_Rep","full_date":"2026-02-25T15:38:02.235Z","date":"2026-02-25","time":"15:38:02"},{"correct_response":"l","task":"test_phase","broad_category":"M","image_png":"M_Marble_04.png","image_id":228,"category_name":"Marble","category":15,"distinct_rating":3.15,"distinct_type":"Bottom","item_type":"Target","rt":1186,"stimulus":"Stimuli_Rocks480/M_Marble_04.png","response":"l","trial_type":"image-keyboard-response","trial_index":141,"plugin_version":"2.1.0","time_elapsed":413502,"subject_id":"92610","group":"Group1","condition":"1_Rep","full_date":"2026-02-25T15:38:02.235Z","date":"2026-02-25","time":"15:38:02","cor_ans":true},{"trial_type":"html-keyboard-response","rt":null,"stimulus":"<p style=\"color: green; font-size: 50px; font-weight: bold;\">Correct</p>","response":null,"trial_index":142,"plugin_version":"2.1.0","time_elapsed":414005,"subject_id":"92610","group":"Group1","condition":"1_Rep","full_date":"2026-02-25T15:38:02.235Z","date":"2026-02-25","time":"15:38:02"},{"correct_response":"a","task":"test_phase","broad_category":"S","image_png":"S_Sandstone_08.png","image_id":456,"category_name":"Sandstone","category":29,"distinct_rating":1.5,"distinct_type":"Bottom","item_type":"Foil","rt":1333,"stimulus":"Stimuli_Rocks480/S_Sandstone_08.png","response":"a","trial_type":"image-keyboard-response","trial_index":143,"plugin_version":"2.1.0","time_elapsed":415355,"subject_id":"92610","group":"Group1","condition":"1_Rep","full_date":"2026-02-25T15:38:02.235Z","date":"2026-02-25","time":"15:38:02","cor_ans":true},{"trial_type":"html-keyboard-response","rt":null,"stimulus":"<p style=\"color: green; font-size: 50px; font-weight: bold;\">Correct</p>","response":null,"trial_index":144,"plugin_version":"2.1.0","time_elapsed":415858,"subject_id":"92610","group":"Group1","condition":"1_Rep","full_date":"2026-02-25T15:38:02.235Z","date":"2026-02-25","time":"15:38:02"},{"correct_response":"a","task":"test_phase","broad_category":"M","image_png":"M_Quartzite_15.png","image_id":287,"category_name":"Quartzite","category":18,"distinct_rating":2.19,"distinct_type":"Bottom","item_type":"Foil","rt":1024,"stimulus":"Stimuli_Rocks480/M_Quartzite_15.png","response":"a","trial_type":"image-keyboard-response","trial_index":145,"plugin_version":"2.1.0","time_elapsed":416903,"subject_id":"92610","group":"Group1","condition":"1_Rep","full_date":"2026-02-25T15:38:02.235Z","date":"2026-02-25","time":"15:38:02","cor_ans":true},{"trial_type":"html-keyboard-response","rt":null,"stimulus":"<p style=\"color: green; font-size: 50px; font-weight: bold;\">Correct</p>","response":null,"trial_index":146,"plugin_version":"2.1.0","time_elapsed":417406,"subject_id":"92610","group":"Group1","condition":"1_Rep","full_date":"2026-02-25T15:38:02.235Z","date":"2026-02-25","time":"15:38:02"},{"correct_response":"a","task":"test_phase","broad_category":"M","image_png":"M_Gneiss_10.png","image_id":202,"category_name":"Gneiss","category":13,"distinct_rating":3.09,"distinct_type":"Bottom","item_type":"Foil","rt":916,"stimulus":"Stimuli_Rocks480/M_Gneiss_10.png","response":"l","trial_type":"image-keyboard-response","trial_index":147,"plugin_version":"2.1.0","time_elapsed":418345,"subject_id":"92610","group":"Group1","condition":"1_Rep","full_date":"2026-02-25T15:38:02.235Z","date":"2026-02-25","time":"15:38:02","cor_ans":false},{"trial_type":"html-keyboard-response","rt":null,"stimulus":"<p style=\"color: red; font-size: 50px; font-weight: bold;\">Incorrect</p>","response":null,"trial_index":148,"plugin_version":"2.1.0","time_elapsed":418848,"subject_id":"92610","group":"Group1","condition":"1_Rep","full_date":"2026-02-25T15:38:02.235Z","date":"2026-02-25","time":"15:38:02"},{"correct_response":"l","task":"test_phase","broad_category":"S","image_png":"S_Sandstone_16.png","image_id":464,"category_name":"Sandstone","category":29,"distinct_rating":1.93,"distinct_type":"Bottom","item_type":"Target","rt":869,"stimulus":"Stimuli_Rocks480/S_Sandstone_16.png","response":"a","trial_type":"image-keyboard-response","trial_index":149,"plugin_version":"2.1.0","time_elapsed":419732,"subject_id":"92610","group":"Group1","condition":"1_Rep","full_date":"2026-02-25T15:38:02.235Z","date":"2026-02-25","time":"15:38:02","cor_ans":false},{"trial_type":"html-keyboard-response","rt":null,"stimulus":"<p style=\"color: red; font-size: 50px; font-weight: bold;\">Incorrect</p>","response":null,"trial_index":150,"plugin_version":"2.1.0","time_elapsed":420234,"subject_id":"92610","group":"Group1","condition":"1_Rep","full_date":"2026-02-25T15:38:02.235Z","date":"2026-02-25","time":"15:38:02"},{"correct_response":"l","task":"test_phase","broad_category":"S","image_png":"S_Chert_10.png","image_id":362,"category_name":"Chert","category":23,"distinct_rating":7.17,"distinct_type":"Top","item_type":"Target","rt":1206,"stimulus":"Stimuli_Rocks480/S_Chert_10.png","response":"a","trial_type":"image-keyboard-response","trial_index":151,"plugin_version":"2.1.0","time_elapsed":421459,"subject_id":"92610","group":"Group1","condition":"1_Rep","full_date":"2026-02-25T15:38:02.235Z","date":"2026-02-25","time":"15:38:02","cor_ans":false},{"trial_type":"html-keyboard-response","rt":null,"stimulus":"<p style=\"color: red; font-size: 50px; font-weight: bold;\">Incorrect</p>","response":null,"trial_index":152,"plugin_version":"2.1.0","time_elapsed":421961,"subject_id":"92610","group":"Group1","condition":"1_Rep","full_date":"2026-02-25T15:38:02.235Z","date":"2026-02-25","time":"15:38:02"},{"correct_response":"a","task":"test_phase","broad_category":"I","image_png":"I_Andesite_04.png","image_id":4,"category_name":"Andesite","category":1,"distinct_rating":3.18,"distinct_type":"Bottom","item_type":"Foil","rt":643,"stimulus":"Stimuli_Rocks480/I_Andesite_04.png","response":"l","trial_type":"image-keyboard-response","trial_index":153,"plugin_version":"2.1.0","time_elapsed":422623,"subject_id":"92610","group":"Group1","condition":"1_Rep","full_date":"2026-02-25T15:38:02.235Z","date":"2026-02-25","time":"15:38:02","cor_ans":false},{"trial_type":"html-keyboard-response","rt":null,"stimulus":"<p style=\"color: red; font-size: 50px; font-weight: bold;\">Incorrect</p>","response":null,"trial_index":154,"plugin_version":"2.1.0","time_elapsed":423126,"subject_id":"92610","group":"Group1","condition":"1_Rep","full_date":"2026-02-25T15:38:02.235Z","date":"2026-02-25","time":"15:38:02"},{"correct_response":"a","task":"test_phase","broad_category":"I","image_png":"I_Pumice_01.png","image_id":129,"category_name":"Pumice","category":9,"distinct_rating":3.25,"distinct_type":"Bottom","item_type":"Foil","rt":1263,"stimulus":"Stimuli_Rocks480/I_Pumice_01.png","response":"l","trial_type":"image-keyboard-response","trial_index":155,"plugin_version":"2.1.0","time_elapsed":424407,"subject_id":"92610","group":"Group1","condition":"1_Rep","full_date":"2026-02-25T15:38:02.235Z","date":"2026-02-25","time":"15:38:02","cor_ans":false},{"trial_type":"html-keyboard-response","rt":null,"stimulus":"<p style=\"color: red; font-size: 50px; font-weight: bold;\">Incorrect</p>","response":null,"trial_index":156,"plugin_version":"2.1.0","time_elapsed":424910,"subject_id":"92610","group":"Group1","condition":"1_Rep","full_date":"2026-02-25T15:38:02.235Z","date":"2026-02-25","time":"15:38:02"},{"correct_response":"l","task":"test_phase","broad_category":"S","image_png":"S_Breccia_11.png","image_id":347,"category_name":"Breccia","category":22,"distinct_rating":6.7,"distinct_type":"Top","item_type":"Target","rt":777,"stimulus":"Stimuli_Rocks480/S_Breccia_11.png","response":"l","trial_type":"image-keyboard-response","trial_index":157,"plugin_version":"2.1.0","time_elapsed":425715,"subject_id":"92610","group":"Group1","condition":"1_Rep","full_date":"2026-02-25T15:38:02.235Z","date":"2026-02-25","time":"15:38:02","cor_ans":true},{"trial_type":"html-keyboard-response","rt":null,"stimulus":"<p style=\"color: green; font-size: 50px; font-weight: bold;\">Correct</p>","response":null,"trial_index":158,"plugin_version":"2.1.0","time_elapsed":426217,"subject_id":"92610","group":"Group1","condition":"1_Rep","full_date":"2026-02-25T15:38:02.235Z","date":"2026-02-25","time":"15:38:02"},{"correct_response":"a","task":"test_phase","broad_category":"S","image_png":"S_Sandstone_11.png","image_id":459,"category_name":"Sandstone","category":29,"distinct_rating":1.82,"distinct_type":"Bottom","item_type":"Foil","rt":792,"stimulus":"Stimuli_Rocks480/S_Sandstone_11.png","response":"l","trial_type":"image-keyboard-response","trial_index":159,"plugin_version":"2.1.0","time_elapsed":427033,"subject_id":"92610","group":"Group1","condition":"1_Rep","full_date":"2026-02-25T15:38:02.235Z","date":"2026-02-25","time":"15:38:02","cor_ans":false},{"trial_type":"html-keyboard-response","rt":null,"stimulus":"<p style=\"color: red; font-size: 50px; font-weight: bold;\">Incorrect</p>","response":null,"trial_index":160,"plugin_version":"2.1.0","time_elapsed":427535,"subject_id":"92610","group":"Group1","condition":"1_Rep","full_date":"2026-02-25T15:38:02.235Z","date":"2026-02-25","time":"15:38:02"},{"correct_response":"a","task":"test_phase","broad_category":"M","image_png":"M_Marble_02.png","image_id":226,"category_name":"Marble","category":15,"distinct_rating":3.2,"distinct_type":"Bottom","item_type":"Foil","rt":877,"stimulus":"Stimuli_Rocks480/M_Marble_02.png","response":"a","trial_type":"image-keyboard-response","trial_index":161,"plugin_version":"2.1.0","time_elapsed":428430,"subject_id":"92610","group":"Group1","condition":"1_Rep","full_date":"2026-02-25T15:38:02.235Z","date":"2026-02-25","time":"15:38:02","cor_ans":true},{"trial_type":"html-keyboard-response","rt":null,"stimulus":"<p style=\"color: green; font-size: 50px; font-weight: bold;\">Correct</p>","response":null,"trial_index":162,"plugin_version":"2.1.0","time_elapsed":428933,"subject_id":"92610","group":"Group1","condition":"1_Rep","full_date":"2026-02-25T15:38:02.235Z","date":"2026-02-25","time":"15:38:02"},{"correct_response":"l","task":"test_phase","broad_category":"M","image_png":"M_Marble_16.png","image_id":240,"category_name":"Marble","category":15,"distinct_rating":2.57,"distinct_type":"Bottom","item_type":"Target","rt":901,"stimulus":"Stimuli_Rocks480/M_Marble_16.png","response":"l","trial_type":"image-keyboard-response","trial_index":163,"plugin_version":"2.1.0","time_elapsed":429853,"subject_id":"92610","group":"Group1","condition":"1_Rep","full_date":"2026-02-25T15:38:02.235Z","date":"2026-02-25","time":"15:38:02","cor_ans":true},{"trial_type":"html-keyboard-response","rt":null,"stimulus":"<p style=\"color: green; font-size: 50px; font-weight: bold;\">Correct</p>","response":null,"trial_index":164,"plugin_version":"2.1.0","time_elapsed":430355,"subject_id":"92610","group":"Group1","condition":"1_Rep","full_date":"2026-02-25T15:38:02.235Z","date":"2026-02-25","time":"15:38:02"},{"correct_response":"l","task":"test_phase","broad_category":"S","image_png":"S_Shale_08.png","image_id":472,"category_name":"Shale","category":30,"distinct_rating":2.55,"distinct_type":"Bottom","item_type":"Target","rt":915,"stimulus":"Stimuli_Rocks480/S_Shale_08.png","response":"l","trial_type":"image-keyboard-response","trial_index":165,"plugin_version":"2.1.0","time_elapsed":431292,"subject_id":"92610","group":"Group1","condition":"1_Rep","full_date":"2026-02-25T15:38:02.235Z","date":"2026-02-25","time":"15:38:02","cor_ans":true},{"trial_type":"html-keyboard-response","rt":null,"stimulus":"<p style=\"color: green; font-size: 50px; font-weight: bold;\">Correct</p>","response":null,"trial_index":166,"plugin_version":"2.1.0","time_elapsed":431794,"subject_id":"92610","group":"Group1","condition":"1_Rep","full_date":"2026-02-25T15:38:02.235Z","date":"2026-02-25","time":"15:38:02"},{"correct_response":"a","task":"test_phase","broad_category":"I","image_png":"I_Rhyolite_10.png","image_id":154,"category_name":"Rhyolite","category":10,"distinct_rating":2.88,"distinct_type":"Bottom","item_type":"Foil","rt":962,"stimulus":"Stimuli_Rocks480/I_Rhyolite_10.png","response":"l","trial_type":"image-keyboard-response","trial_index":167,"plugin_version":"2.1.0","time_elapsed":432781,"subject_id":"92610","group":"Group1","condition":"1_Rep","full_date":"2026-02-25T15:38:02.235Z","date":"2026-02-25","time":"15:38:02","cor_ans":false},{"trial_type":"html-keyboard-response","rt":null,"stimulus":"<p style=\"color: red; font-size: 50px; font-weight: bold;\">Incorrect</p>","response":null,"trial_index":168,"plugin_version":"2.1.0","time_elapsed":433284,"subject_id":"92610","group":"Group1","condition":"1_Rep","full_date":"2026-02-25T15:38:02.235Z","date":"2026-02-25","time":"15:38:02"},{"correct_response":"l","task":"test_phase","broad_category":"S","image_png":"S_Sandstone_03.png","image_id":451,"category_name":"Sandstone","category":29,"distinct_rating":1.86,"distinct_type":"Bottom","item_type":"Target","rt":796,"stimulus":"Stimuli_Rocks480/S_Sandstone_03.png","response":"a","trial_type":"image-keyboard-response","trial_index":169,"plugin_version":"2.1.0","time_elapsed":434106,"subject_id":"92610","group":"Group1","condition":"1_Rep","full_date":"2026-02-25T15:38:02.235Z","date":"2026-02-25","time":"15:38:02","cor_ans":false},{"trial_type":"html-keyboard-response","rt":null,"stimulus":"<p style=\"color: red; font-size: 50px; font-weight: bold;\">Incorrect</p>","response":null,"trial_index":170,"plugin_version":"2.1.0","time_elapsed":434609,"subject_id":"92610","group":"Group1","condition":"1_Rep","full_date":"2026-02-25T15:38:02.235Z","date":"2026-02-25","time":"15:38:02"},{"correct_response":"a","task":"test_phase","broad_category":"I","image_png":"I_Pegmatite_03.png","image_id":99,"category_name":"Pegmatite","category":7,"distinct_rating":7.24,"distinct_type":"Top","item_type":"Foil","rt":1653,"stimulus":"Stimuli_Rocks480/I_Pegmatite_03.png","response":"a","trial_type":"image-keyboard-response","trial_index":171,"plugin_version":"2.1.0","time_elapsed":436283,"subject_id":"92610","group":"Group1","condition":"1_Rep","full_date":"2026-02-25T15:38:02.235Z","date":"2026-02-25","time":"15:38:02","cor_ans":true},{"trial_type":"html-keyboard-response","rt":null,"stimulus":"<p style=\"color: green; font-size: 50px; font-weight: bold;\">Correct</p>","response":null,"trial_index":172,"plugin_version":"2.1.0","time_elapsed":436785,"subject_id":"92610","group":"Group1","condition":"1_Rep","full_date":"2026-02-25T15:38:02.235Z","date":"2026-02-25","time":"15:38:02"},{"correct_response":"l","task":"test_phase","broad_category":"M","image_png":"M_Quartzite_05.png","image_id":277,"category_name":"Quartzite","category":18,"distinct_rating":2.23,"distinct_type":"Bottom","item_type":"Target","rt":691,"stimulus":"Stimuli_Rocks480/M_Quartzite_05.png","response":"l","trial_type":"image-keyboard-response","trial_index":173,"plugin_version":"2.1.0","time_elapsed":437498,"subject_id":"92610","group":"Group1","condition":"1_Rep","full_date":"2026-02-25T15:38:02.235Z","date":"2026-02-25","time":"15:38:02","cor_ans":true},{"trial_type":"html-keyboard-response","rt":null,"stimulus":"<p style=\"color: green; font-size: 50px; font-weight: bold;\">Correct</p>","response":null,"trial_index":174,"plugin_version":"2.1.0","time_elapsed":438000,"subject_id":"92610","group":"Group1","condition":"1_Rep","full_date":"2026-02-25T15:38:02.235Z","date":"2026-02-25","time":"15:38:02"},{"correct_response":"l","task":"test_phase","broad_category":"I","image_png":"I_Pegmatite_10.png","image_id":106,"category_name":"Pegmatite","category":7,"distinct_rating":7.66,"distinct_type":"Top","item_type":"Target","rt":817,"stimulus":"Stimuli_Rocks480/I_Pegmatite_10.png","response":"l","trial_type":"image-keyboard-response","trial_index":175,"plugin_version":"2.1.0","time_elapsed":438836,"subject_id":"92610","group":"Group1","condition":"1_Rep","full_date":"2026-02-25T15:38:02.235Z","date":"2026-02-25","time":"15:38:02","cor_ans":true},{"trial_type":"html-keyboard-response","rt":null,"stimulus":"<p style=\"color: green; font-size: 50px; font-weight: bold;\">Correct</p>","response":null,"trial_index":176,"plugin_version":"2.1.0","time_elapsed":439339,"subject_id":"92610","group":"Group1","condition":"1_Rep","full_date":"2026-02-25T15:38:02.235Z","date":"2026-02-25","time":"15:38:02"},{"correct_response":"l","task":"test_phase","broad_category":"I","image_png":"I_Pumice_08.png","image_id":136,"category_name":"Pumice","category":9,"distinct_rating":3.1,"distinct_type":"Bottom","item_type":"Target","rt":734,"stimulus":"Stimuli_Rocks480/I_Pumice_08.png","response":"l","trial_type":"image-keyboard-response","trial_index":177,"plugin_version":"2.1.0","time_elapsed":440093,"subject_id":"92610","group":"Group1","condition":"1_Rep","full_date":"2026-02-25T15:38:02.235Z","date":"2026-02-25","time":"15:38:02","cor_ans":true},{"trial_type":"html-keyboard-response","rt":null,"stimulus":"<p style=\"color: green; font-size: 50px; font-weight: bold;\">Correct</p>","response":null,"trial_index":178,"plugin_version":"2.1.0","time_elapsed":440596,"subject_id":"92610","group":"Group1","condition":"1_Rep","full_date":"2026-02-25T15:38:02.235Z","date":"2026-02-25","time":"15:38:02"},{"correct_response":"l","task":"test_phase","broad_category":"M","image_png":"M_Phyllite_10.png","image_id":266,"category_name":"Phyllite","category":17,"distinct_rating":2.6,"distinct_type":"Bottom","item_type":"Target","rt":1982,"stimulus":"Stimuli_Rocks480/M_Phyllite_10.png","response":"a","trial_type":"image-keyboard-response","trial_index":179,"plugin_version":"2.1.0","time_elapsed":442592,"subject_id":"92610","group":"Group1","condition":"1_Rep","full_date":"2026-02-25T15:38:02.235Z","date":"2026-02-25","time":"15:38:02","cor_ans":false},{"trial_type":"html-keyboard-response","rt":null,"stimulus":"<p style=\"color: red; font-size: 50px; font-weight: bold;\">Incorrect</p>","response":null,"trial_index":180,"plugin_version":"2.1.0","time_elapsed":443095,"subject_id":"92610","group":"Group1","condition":"1_Rep","full_date":"2026-02-25T15:38:02.235Z","date":"2026-02-25","time":"15:38:02"},{"correct_response":"a","task":"test_phase","broad_category":"M","image_png":"M_Slate_14.png","image_id":318,"category_name":"Slate","category":20,"distinct_rating":2.58,"distinct_type":"Bottom","item_type":"Foil","rt":1450,"stimulus":"Stimuli_Rocks480/M_Slate_14.png","response":"a","trial_type":"image-keyboard-response","trial_index":181,"plugin_version":"2.1.0","time_elapsed":444562,"subject_id":"92610","group":"Group1","condition":"1_Rep","full_date":"2026-02-25T15:38:02.235Z","date":"2026-02-25","time":"15:38:02","cor_ans":true},{"trial_type":"html-keyboard-response","rt":null,"stimulus":"<p style=\"color: green; font-size: 50px; font-weight: bold;\">Correct</p>","response":null,"trial_index":182,"plugin_version":"2.1.0","time_elapsed":445065,"subject_id":"92610","group":"Group1","condition":"1_Rep","full_date":"2026-02-25T15:38:02.235Z","date":"2026-02-25","time":"15:38:02"},{"correct_response":"a","task":"test_phase","broad_category":"S","image_png":"S_Sandstone_04.png","image_id":452,"category_name":"Sandstone","category":29,"distinct_rating":1.8,"distinct_type":"Bottom","item_type":"Foil","rt":776,"stimulus":"Stimuli_Rocks480/S_Sandstone_04.png","response":"l","trial_type":"image-keyboard-response","trial_index":183,"plugin_version":"2.1.0","time_elapsed":445865,"subject_id":"92610","group":"Group1","condition":"1_Rep","full_date":"2026-02-25T15:38:02.235Z","date":"2026-02-25","time":"15:38:02","cor_ans":false},{"trial_type":"html-keyboard-response","rt":null,"stimulus":"<p style=\"color: red; font-size: 50px; font-weight: bold;\">Incorrect</p>","response":null,"trial_index":184,"plugin_version":"2.1.0","time_elapsed":446368,"subject_id":"92610","group":"Group1","condition":"1_Rep","full_date":"2026-02-25T15:38:02.235Z","date":"2026-02-25","time":"15:38:02"},{"correct_response":"a","task":"test_phase","broad_category":"I","image_png":"I_Diorite_15.png","image_id":47,"category_name":"Diorite","category":3,"distinct_rating":3.05,"distinct_type":"Bottom","item_type":"Foil","rt":765,"stimulus":"Stimuli_Rocks480/I_Diorite_15.png","response":"a","trial_type":"image-keyboard-response","trial_index":185,"plugin_version":"2.1.0","time_elapsed":447150,"subject_id":"92610","group":"Group1","condition":"1_Rep","full_date":"2026-02-25T15:38:02.235Z","date":"2026-02-25","time":"15:38:02","cor_ans":true},{"trial_type":"html-keyboard-response","rt":null,"stimulus":"<p style=\"color: green; font-size: 50px; font-weight: bold;\">Correct</p>","response":null,"trial_index":186,"plugin_version":"2.1.0","time_elapsed":447653,"subject_id":"92610","group":"Group1","condition":"1_Rep","full_date":"2026-02-25T15:38:02.235Z","date":"2026-02-25","time":"15:38:02"},{"correct_response":"l","task":"test_phase","broad_category":"I","image_png":"I_Obsidian_05.png","image_id":85,"category_name":"Obsidian","category":6,"distinct_rating":7.32,"distinct_type":"Top","item_type":"Target","rt":1474,"stimulus":"Stimuli_Rocks480/I_Obsidian_05.png","response":"l","trial_type":"image-keyboard-response","trial_index":187,"plugin_version":"2.1.0","time_elapsed":449149,"subject_id":"92610","group":"Group1","condition":"1_Rep","full_date":"2026-02-25T15:38:02.235Z","date":"2026-02-25","time":"15:38:02","cor_ans":true},{"trial_type":"html-keyboard-response","rt":null,"stimulus":"<p style=\"color: green; font-size: 50px; font-weight: bold;\">Correct</p>","response":null,"trial_index":188,"plugin_version":"2.1.0","time_elapsed":449652,"subject_id":"92610","group":"Group1","condition":"1_Rep","full_date":"2026-02-25T15:38:02.235Z","date":"2026-02-25","time":"15:38:02"},{"correct_response":"l","task":"test_phase","broad_category":"S","image_png":"S_Shale_01.png","image_id":465,"category_name":"Shale","category":30,"distinct_rating":2.7,"distinct_type":"Bottom","item_type":"Target","rt":2543,"stimulus":"Stimuli_Rocks480/S_Shale_01.png","response":"a","trial_type":"image-keyboard-response","trial_index":189,"plugin_version":"2.1.0","time_elapsed":452214,"subject_id":"92610","group":"Group1","condition":"1_Rep","full_date":"2026-02-25T15:38:02.235Z","date":"2026-02-25","time":"15:38:02","cor_ans":false},{"trial_type":"html-keyboard-response","rt":null,"stimulus":"<p style=\"color: red; font-size: 50px; font-weight: bold;\">Incorrect</p>","response":null,"trial_index":190,"plugin_version":"2.1.0","time_elapsed":452717,"subject_id":"92610","group":"Group1","condition":"1_Rep","full_date":"2026-02-25T15:38:02.235Z","date":"2026-02-25","time":"15:38:02"},{"correct_response":"a","task":"test_phase","broad_category":"S","image_png":"S_Rock Salt_13.png","image_id":445,"category_name":"Rock Salt","category":28,"distinct_rating":7.58,"distinct_type":"Top","item_type":"Foil","rt":770,"stimulus":"Stimuli_Rocks480/S_Rock Salt_13.png","response":"a","trial_type":"image-keyboard-response","trial_index":191,"plugin_version":"2.1.0","time_elapsed":453510,"subject_id":"92610","group":"Group1","condition":"1_Rep","full_date":"2026-02-25T15:38:02.235Z","date":"2026-02-25","time":"15:38:02","cor_ans":true},{"trial_type":"html-keyboard-response","rt":null,"stimulus":"<p style=\"color: green; font-size: 50px; font-weight: bold;\">Correct</p>","response":null,"trial_index":192,"plugin_version":"2.1.0","time_elapsed":454012,"subject_id":"92610","group":"Group1","condition":"1_Rep","full_date":"2026-02-25T15:38:02.235Z","date":"2026-02-25","time":"15:38:02"},{"correct_response":"a","task":"test_phase","broad_category":"M","image_png":"M_Quartzite_12.png","image_id":284,"category_name":"Quartzite","category":18,"distinct_rating":1.92,"distinct_type":"Bottom","item_type":"Foil","rt":916,"stimulus":"Stimuli_Rocks480/M_Quartzite_12.png","response":"a","trial_type":"image-keyboard-response","trial_index":193,"plugin_version":"2.1.0","time_elapsed":454945,"subject_id":"92610","group":"Group1","condition":"1_Rep","full_date":"2026-02-25T15:38:02.235Z","date":"2026-02-25","time":"15:38:02","cor_ans":true},{"trial_type":"html-keyboard-response","rt":null,"stimulus":"<p style=\"color: green; font-size: 50px; font-weight: bold;\">Correct</p>","response":null,"trial_index":194,"plugin_version":"2.1.0","time_elapsed":455448,"subject_id":"92610","group":"Group1","condition":"1_Rep","full_date":"2026-02-25T15:38:02.235Z","date":"2026-02-25","time":"15:38:02"},{"correct_response":"l","task":"test_phase","broad_category":"M","image_png":"M_Slate_03.png","image_id":307,"category_name":"Slate","category":20,"distinct_rating":1.87,"distinct_type":"Bottom","item_type":"Target","rt":994,"stimulus":"Stimuli_Rocks480/M_Slate_03.png","response":"l","trial_type":"image-keyboard-response","trial_index":195,"plugin_version":"2.1.0","time_elapsed":456461,"subject_id":"92610","group":"Group1","condition":"1_Rep","full_date":"2026-02-25T15:38:02.235Z","date":"2026-02-25","time":"15:38:02","cor_ans":true},{"trial_type":"html-keyboard-response","rt":null,"stimulus":"<p style=\"color: green; font-size: 50px; font-weight: bold;\">Correct</p>","response":null,"trial_index":196,"plugin_version":"2.1.0","time_elapsed":456964,"subject_id":"92610","group":"Group1","condition":"1_Rep","full_date":"2026-02-25T15:38:02.235Z","date":"2026-02-25","time":"15:38:02"},{"correct_response":"l","task":"test_phase","broad_category":"I","image_png":"I_Andesite_08.png","image_id":8,"category_name":"Andesite","category":1,"distinct_rating":1.95,"distinct_type":"Bottom","item_type":"Target","rt":937,"stimulus":"Stimuli_Rocks480/I_Andesite_08.png","response":"l","trial_type":"image-keyboard-response","trial_index":197,"plugin_version":"2.1.0","time_elapsed":457921,"subject_id":"92610","group":"Group1","condition":"1_Rep","full_date":"2026-02-25T15:38:02.235Z","date":"2026-02-25","time":"15:38:02","cor_ans":true},{"trial_type":"html-keyboard-response","rt":null,"stimulus":"<p style=\"color: green; font-size: 50px; font-weight: bold;\">Correct</p>","response":null,"trial_index":198,"plugin_version":"2.1.0","time_elapsed":458424,"subject_id":"92610","group":"Group1","condition":"1_Rep","full_date":"2026-02-25T15:38:02.235Z","date":"2026-02-25","time":"15:38:02"},{"correct_response":"l","task":"test_phase","broad_category":"I","image_png":"I_Andesite_10.png","image_id":10,"category_name":"Andesite","category":1,"distinct_rating":3.15,"distinct_type":"Bottom","item_type":"Target","rt":1262,"stimulus":"Stimuli_Rocks480/I_Andesite_10.png","response":"l","trial_type":"image-keyboard-response","trial_index":199,"plugin_version":"2.1.0","time_elapsed":459701,"subject_id":"92610","group":"Group1","condition":"1_Rep","full_date":"2026-02-25T15:38:02.235Z","date":"2026-02-25","time":"15:38:02","cor_ans":true},{"trial_type":"html-keyboard-response","rt":null,"stimulus":"<p style=\"color: green; font-size: 50px; font-weight: bold;\">Correct</p>","response":null,"trial_index":200,"plugin_version":"2.1.0","time_elapsed":460204,"subject_id":"92610","group":"Group1","condition":"1_Rep","full_date":"2026-02-25T15:38:02.235Z","date":"2026-02-25","time":"15:38:02"},{"correct_response":"a","task":"test_phase","broad_category":"M","image_png":"M_Slate_04.png","image_id":308,"category_name":"Slate","category":20,"distinct_rating":2.2,"distinct_type":"Bottom","item_type":"Foil","rt":1027,"stimulus":"Stimuli_Rocks480/M_Slate_04.png","response":"a","trial_type":"image-keyboard-response","trial_index":201,"plugin_version":"2.1.0","time_elapsed":461244,"subject_id":"92610","group":"Group1","condition":"1_Rep","full_date":"2026-02-25T15:38:02.235Z","date":"2026-02-25","time":"15:38:02","cor_ans":true},{"trial_type":"html-keyboard-response","rt":null,"stimulus":"<p style=\"color: green; font-size: 50px; font-weight: bold;\">Correct</p>","response":null,"trial_index":202,"plugin_version":"2.1.0","time_elapsed":461747,"subject_id":"92610","group":"Group1","condition":"1_Rep","full_date":"2026-02-25T15:38:02.235Z","date":"2026-02-25","time":"15:38:02"},{"correct_response":"a","task":"test_phase","broad_category":"S","image_png":"S_Conglomerate_14.png","image_id":382,"category_name":"Conglomerate","category":24,"distinct_rating":6.86,"distinct_type":"Top","item_type":"Foil","rt":917,"stimulus":"Stimuli_Rocks480/S_Conglomerate_14.png","response":"a","trial_type":"image-keyboard-response","trial_index":203,"plugin_version":"2.1.0","time_elapsed":462681,"subject_id":"92610","group":"Group1","condition":"1_Rep","full_date":"2026-02-25T15:38:02.235Z","date":"2026-02-25","time":"15:38:02","cor_ans":true},{"trial_type":"html-keyboard-response","rt":null,"stimulus":"<p style=\"color: green; font-size: 50px; font-weight: bold;\">Correct</p>","response":null,"trial_index":204,"plugin_version":"2.1.0","time_elapsed":463184,"subject_id":"92610","group":"Group1","condition":"1_Rep","full_date":"2026-02-25T15:38:02.235Z","date":"2026-02-25","time":"15:38:02"},{"correct_response":"a","task":"test_phase","broad_category":"S","image_png":"S_Shale_03.png","image_id":467,"category_name":"Shale","category":30,"distinct_rating":1.95,"distinct_type":"Bottom","item_type":"Foil","rt":1152,"stimulus":"Stimuli_Rocks480/S_Shale_03.png","response":"a","trial_type":"image-keyboard-response","trial_index":205,"plugin_version":"2.1.0","time_elapsed":464357,"subject_id":"92610","group":"Group1","condition":"1_Rep","full_date":"2026-02-25T15:38:02.235Z","date":"2026-02-25","time":"15:38:02","cor_ans":true},{"trial_type":"html-keyboard-response","rt":null,"stimulus":"<p style=\"color: green; font-size: 50px; font-weight: bold;\">Correct</p>","response":null,"trial_index":206,"plugin_version":"2.1.0","time_elapsed":464860,"subject_id":"92610","group":"Group1","condition":"1_Rep","full_date":"2026-02-25T15:38:02.235Z","date":"2026-02-25","time":"15:38:02"},{"correct_response":"l","task":"test_phase","broad_category":"S","image_png":"S_Dolomite_13.png","image_id":397,"category_name":"Dolomite","category":25,"distinct_rating":1.77,"distinct_type":"Bottom","item_type":"Target","rt":961,"stimulus":"Stimuli_Rocks480/S_Dolomite_13.png","response":"l","trial_type":"image-keyboard-response","trial_index":207,"plugin_version":"2.1.0","time_elapsed":465839,"subject_id":"92610","group":"Group1","condition":"1_Rep","full_date":"2026-02-25T15:38:02.235Z","date":"2026-02-25","time":"15:38:02","cor_ans":true},{"trial_type":"html-keyboard-response","rt":null,"stimulus":"<p style=\"color: green; font-size: 50px; font-weight: bold;\">Correct</p>","response":null,"trial_index":208,"plugin_version":"2.1.0","time_elapsed":466342,"subject_id":"92610","group":"Group1","condition":"1_Rep","full_date":"2026-02-25T15:38:02.235Z","date":"2026-02-25","time":"15:38:02"},{"correct_response":"l","task":"test_phase","broad_category":"M","image_png":"M_Gneiss_05.png","image_id":197,"category_name":"Gneiss","category":13,"distinct_rating":2.97,"distinct_type":"Bottom","item_type":"Target","rt":852,"stimulus":"Stimuli_Rocks480/M_Gneiss_05.png","response":"l","trial_type":"image-keyboard-response","trial_index":209,"plugin_version":"2.1.0","time_elapsed":467222,"subject_id":"92610","group":"Group1","condition":"1_Rep","full_date":"2026-02-25T15:38:02.235Z","date":"2026-02-25","time":"15:38:02","cor_ans":true},{"trial_type":"html-keyboard-response","rt":null,"stimulus":"<p style=\"color: green; font-size: 50px; font-weight: bold;\">Correct</p>","response":null,"trial_index":210,"plugin_version":"2.1.0","time_elapsed":467725,"subject_id":"92610","group":"Group1","condition":"1_Rep","full_date":"2026-02-25T15:38:02.235Z","date":"2026-02-25","time":"15:38:02"},{"correct_response":"a","task":"test_phase","broad_category":"I","image_png":"I_Andesite_03.png","image_id":3,"category_name":"Andesite","category":1,"distinct_rating":3.17,"distinct_type":"Bottom","item_type":"Foil","rt":842,"stimulus":"Stimuli_Rocks480/I_Andesite_03.png","response":"a","trial_type":"image-keyboard-response","trial_index":211,"plugin_version":"2.1.0","time_elapsed":468581,"subject_id":"92610","group":"Group1","condition":"1_Rep","full_date":"2026-02-25T15:38:02.235Z","date":"2026-02-25","time":"15:38:02","cor_ans":true},{"trial_type":"html-keyboard-response","rt":null,"stimulus":"<p style=\"color: green; font-size: 50px; font-weight: bold;\">Correct</p>","response":null,"trial_index":212,"plugin_version":"2.1.0","time_elapsed":469084,"subject_id":"92610","group":"Group1","condition":"1_Rep","full_date":"2026-02-25T15:38:02.235Z","date":"2026-02-25","time":"15:38:02"},{"correct_response":"a","task":"test_phase","broad_category":"I","image_png":"I_Gabbro_02.png","image_id":50,"category_name":"Gabbro","category":4,"distinct_rating":2.73,"distinct_type":"Bottom","item_type":"Foil","rt":1403,"stimulus":"Stimuli_Rocks480/I_Gabbro_02.png","response":"a","trial_type":"image-keyboard-response","trial_index":213,"plugin_version":"2.1.0","time_elapsed":470507,"subject_id":"92610","group":"Group1","condition":"1_Rep","full_date":"2026-02-25T15:38:02.235Z","date":"2026-02-25","time":"15:38:02","cor_ans":true},{"trial_type":"html-keyboard-response","rt":null,"stimulus":"<p style=\"color: green; font-size: 50px; font-weight: bold;\">Correct</p>","response":null,"trial_index":214,"plugin_version":"2.1.0","time_elapsed":471010,"subject_id":"92610","group":"Group1","condition":"1_Rep","full_date":"2026-02-25T15:38:02.235Z","date":"2026-02-25","time":"15:38:02"},{"correct_response":"a","task":"test_phase","broad_category":"I","image_png":"I_Rhyolite_05.png","image_id":149,"category_name":"Rhyolite","category":10,"distinct_rating":3.02,"distinct_type":"Bottom","item_type":"Foil","rt":1688,"stimulus":"Stimuli_Rocks480/I_Rhyolite_05.png","response":"l","trial_type":"image-keyboard-response","trial_index":215,"plugin_version":"2.1.0","time_elapsed":472723,"subject_id":"92610","group":"Group1","condition":"1_Rep","full_date":"2026-02-25T15:38:02.235Z","date":"2026-02-25","time":"15:38:02","cor_ans":false},{"trial_type":"html-keyboard-response","rt":null,"stimulus":"<p style=\"color: red; font-size: 50px; font-weight: bold;\">Incorrect</p>","response":null,"trial_index":216,"plugin_version":"2.1.0","time_elapsed":473225,"subject_id":"92610","group":"Group1","condition":"1_Rep","full_date":"2026-02-25T15:38:02.235Z","date":"2026-02-25","time":"15:38:02"},{"correct_response":"l","task":"test_phase","broad_category":"M","image_png":"M_Quartzite_13.png","image_id":285,"category_name":"Quartzite","category":18,"distinct_rating":2.27,"distinct_type":"Bottom","item_type":"Target","rt":1155,"stimulus":"Stimuli_Rocks480/M_Quartzite_13.png","response":"l","trial_type":"image-keyboard-response","trial_index":217,"plugin_version":"2.1.0","time_elapsed":474403,"subject_id":"92610","group":"Group1","condition":"1_Rep","full_date":"2026-02-25T15:38:02.235Z","date":"2026-02-25","time":"15:38:02","cor_ans":true},{"trial_type":"html-keyboard-response","rt":null,"stimulus":"<p style=\"color: green; font-size: 50px; font-weight: bold;\">Correct</p>","response":null,"trial_index":218,"plugin_version":"2.1.0","time_elapsed":474906,"subject_id":"92610","group":"Group1","condition":"1_Rep","full_date":"2026-02-25T15:38:02.235Z","date":"2026-02-25","time":"15:38:02"},{"correct_response":"l","task":"test_phase","broad_category":"I","image_png":"I_Basalt_01.png","image_id":17,"category_name":"Basalt","category":2,"distinct_rating":1.92,"distinct_type":"Bottom","item_type":"Target","rt":658,"stimulus":"Stimuli_Rocks480/I_Basalt_01.png","response":"a","trial_type":"image-keyboard-response","trial_index":219,"plugin_version":"2.1.0","time_elapsed":475585,"subject_id":"92610","group":"Group1","condition":"1_Rep","full_date":"2026-02-25T15:38:02.235Z","date":"2026-02-25","time":"15:38:02","cor_ans":false},{"trial_type":"html-keyboard-response","rt":null,"stimulus":"<p style=\"color: red; font-size: 50px; font-weight: bold;\">Incorrect</p>","response":null,"trial_index":220,"plugin_version":"2.1.0","time_elapsed":476088,"subject_id":"92610","group":"Group1","condition":"1_Rep","full_date":"2026-02-25T15:38:02.235Z","date":"2026-02-25","time":"15:38:02"},{"correct_response":"a","task":"test_phase","broad_category":"I","image_png":"I_Obsidian_06.png","image_id":86,"category_name":"Obsidian","category":6,"distinct_rating":8.01,"distinct_type":"Top","item_type":"Foil","rt":769,"stimulus":"Stimuli_Rocks480/I_Obsidian_06.png","response":"a","trial_type":"image-keyboard-response","trial_index":221,"plugin_version":"2.1.0","time_elapsed":476880,"subject_id":"92610","group":"Group1","condition":"1_Rep","full_date":"2026-02-25T15:38:02.235Z","date":"2026-02-25","time":"15:38:02","cor_ans":true},{"trial_type":"html-keyboard-response","rt":null,"stimulus":"<p style=\"color: green; font-size: 50px; font-weight: bold;\">Correct</p>","response":null,"trial_index":222,"plugin_version":"2.1.0","time_elapsed":477383,"subject_id":"92610","group":"Group1","condition":"1_Rep","full_date":"2026-02-25T15:38:02.235Z","date":"2026-02-25","time":"15:38:02"},{"correct_response":"l","task":"test_phase","broad_category":"M","image_png":"M_Phyllite_07.png","image_id":263,"category_name":"Phyllite","category":17,"distinct_rating":2.59,"distinct_type":"Bottom","item_type":"Target","rt":611,"stimulus":"Stimuli_Rocks480/M_Phyllite_07.png","response":"l","trial_type":"image-keyboard-response","trial_index":223,"plugin_version":"2.1.0","time_elapsed":478013,"subject_id":"92610","group":"Group1","condition":"1_Rep","full_date":"2026-02-25T15:38:02.235Z","date":"2026-02-25","time":"15:38:02","cor_ans":true},{"trial_type":"html-keyboard-response","rt":null,"stimulus":"<p style=\"color: green; font-size: 50px; font-weight: bold;\">Correct</p>","response":null,"trial_index":224,"plugin_version":"2.1.0","time_elapsed":478516,"subject_id":"92610","group":"Group1","condition":"1_Rep","full_date":"2026-02-25T15:38:02.235Z","date":"2026-02-25","time":"15:38:02"},{"correct_response":"a","task":"test_phase","