[{"width":1366,"height":633,"webaudio":true,"browser":"chrome","browser_version":"144.0.0","mobile":false,"os":"Windows 10","fullscreen":true,"vsync_rate":60.39,"webcam":true,"microphone":true,"trial_type":"browser-check","trial_index":0,"plugin_version":"2.1.0","time_elapsed":1003,"subject_id":"92052","group":"Group1","condition":"3_Rep","full_date":"2026-01-23T17:19:47.394Z","date":"2026-01-23","time":"17:19:47"},{"success":true,"timeout":false,"failed_images":[],"failed_audio":[],"failed_video":[],"trial_type":"preload","trial_index":1,"plugin_version":"2.1.0","time_elapsed":4282,"subject_id":"92052","group":"Group1","condition":"3_Rep","full_date":"2026-01-23T17:19:47.394Z","date":"2026-01-23","time":"17:19:47"},{"rt":29858,"url":"SONA_consent_memorability.html","trial_type":"external-html","trial_index":2,"plugin_version":"2.1.0","time_elapsed":34159,"subject_id":"92052","group":"Group1","condition":"3_Rep","full_date":"2026-01-23T17:19:47.394Z","date":"2026-01-23","time":"17:19:47"},{"success":true,"rt":3220,"trial_type":"fullscreen","trial_index":3,"plugin_version":"2.1.0","time_elapsed":38394,"subject_id":"92052","group":"Group1","condition":"3_Rep","full_date":"2026-01-23T17:19:47.394Z","date":"2026-01-23","time":"17:19:47"},{"rt":18013696,"stimulus":"<div style=\"max-width: 760px; margin: auto; font-size: 20px; line-height: 1.5;\">\n      <h1 style=\"text-align:center; font-size: 30px;\">Instructions</h1>\n      <p>\n        Welcome to the study on <b>visual memory</b>. This experiment consists of <b>two phases</b>: \n        a <b>study phase</b> and a <b>test phase</b>.\n      </p>\n      <p>\n        In the study phase, you will see a series of rock images along with their category labels.\n        The images will appear one at a time.\n        <b>Your task</b> is to learn the categories to which the rock images belong \n        and to remember each image as accurately as possible.\n      </p> \n      <p>\n        Note that we will repeat the study phase <b>3 times</b>, \n             so you will have multiple opportunities to see and remember each image.\n      </p>\n      <p>\n        After the study phase, <b>your memory will be tested</b>. \n        Additional instructions for the test phase will be provided at that time.\n      </p>\n      <p>\n        If your computer has multiple <b>language settings</b> (e.g., English and another language),\n        please make sure it is set to English before starting.\n      </p>\n      <p>\n        You can track your progress using the <b>completion bar</b> at the top of the screen. \n        Please note that the bar will refresh when the test phase begins \n        to give you an accurate sense of your progress in both phases.\n      </p> \n      <p>\n        Press the button below when you are ready to begin.\n      </p>\n    </div>","response":0,"trial_type":"html-button-response","trial_index":4,"plugin_version":"2.1.0","time_elapsed":18052093,"subject_id":"92052","group":"Group1","condition":"3_Rep","full_date":"2026-01-23T17:19:47.394Z","date":"2026-01-23","time":"17:19:47"},{"rt":null,"stimulus":"<p style=\"font-size: 50px; margin: 0; text-align: center;\">+</p>","response":null,"trial_type":"html-keyboard-response","trial_index":5,"plugin_version":"2.1.0","time_elapsed":18053103,"subject_id":"92052","group":"Group1","condition":"3_Rep","full_date":"2026-01-23T17:19:47.394Z","date":"2026-01-23","time":"17:19:47"},{"task":"memory_phase","broad_category":"S","image_png":"S_Sandstone_03.png","image_id":451,"category_name":"Sandstone","category":29,"distinct_rating":1.86,"distinct_type":"Bottom","rt":null,"stimulus":"Stimuli_Rocks480/S_Sandstone_03.png","response":null,"trial_type":"image-keyboard-response","trial_index":6,"plugin_version":"2.1.0","time_elapsed":18055610,"subject_id":"92052","group":"Group1","condition":"3_Rep","full_date":"2026-01-23T17:19:47.394Z","date":"2026-01-23","time":"17:19:47"},{"rt":null,"stimulus":"<p style=\"font-size: 50px; margin: 0; text-align: center;\">+</p>","response":null,"trial_type":"html-keyboard-response","trial_index":7,"plugin_version":"2.1.0","time_elapsed":18056613,"subject_id":"92052","group":"Group1","condition":"3_Rep","full_date":"2026-01-23T17:19:47.394Z","date":"2026-01-23","time":"17:19:47"},{"task":"memory_phase","broad_category":"M","image_png":"M_Quartzite_08.png","image_id":280,"category_name":"Quartzite","category":18,"distinct_rating":2.15,"distinct_type":"Bottom","rt":null,"stimulus":"Stimuli_Rocks480/M_Quartzite_08.png","response":null,"trial_type":"image-keyboard-response","trial_index":8,"plugin_version":"2.1.0","time_elapsed":18059129,"subject_id":"92052","group":"Group1","condition":"3_Rep","full_date":"2026-01-23T17:19:47.394Z","date":"2026-01-23","time":"17:19:47"},{"rt":null,"stimulus":"<p style=\"font-size: 50px; margin: 0; text-align: center;\">+</p>","response":null,"trial_type":"html-keyboard-response","trial_index":9,"plugin_version":"2.1.0","time_elapsed":18060137,"subject_id":"92052","group":"Group1","condition":"3_Rep","full_date":"2026-01-23T17:19:47.394Z","date":"2026-01-23","time":"17:19:47"},{"task":"memory_phase","broad_category":"I","image_png":"I_Basalt_02.png","image_id":18,"category_name":"Basalt","category":2,"distinct_rating":1.84,"distinct_type":"Bottom","rt":null,"stimulus":"Stimuli_Rocks480/I_Basalt_02.png","response":null,"trial_type":"image-keyboard-response","trial_index":10,"plugin_version":"2.1.0","time_elapsed":18062646,"subject_id":"92052","group":"Group1","condition":"3_Rep","full_date":"2026-01-23T17:19:47.394Z","date":"2026-01-23","time":"17:19:47"},{"rt":null,"stimulus":"<p style=\"font-size: 50px; margin: 0; text-align: center;\">+</p>","response":null,"trial_type":"html-keyboard-response","trial_index":11,"plugin_version":"2.1.0","time_elapsed":18063660,"subject_id":"92052","group":"Group1","condition":"3_Rep","full_date":"2026-01-23T17:19:47.394Z","date":"2026-01-23","time":"17:19:47"},{"task":"memory_phase","broad_category":"M","image_png":"M_Slate_11.png","image_id":315,"category_name":"Slate","category":20,"distinct_rating":2.75,"distinct_type":"Bottom","rt":null,"stimulus":"Stimuli_Rocks480/M_Slate_11.png","response":null,"trial_type":"image-keyboard-response","trial_index":12,"plugin_version":"2.1.0","time_elapsed":18066177,"subject_id":"92052","group":"Group1","condition":"3_Rep","full_date":"2026-01-23T17:19:47.394Z","date":"2026-01-23","time":"17:19:47"},{"rt":null,"stimulus":"<p style=\"font-size: 50px; margin: 0; text-align: center;\">+</p>","response":null,"trial_type":"html-keyboard-response","trial_index":13,"plugin_version":"2.1.0","time_elapsed":18067183,"subject_id":"92052","group":"Group1","condition":"3_Rep","full_date":"2026-01-23T17:19:47.394Z","date":"2026-01-23","time":"17:19:47"},{"task":"memory_phase","broad_category":"I","image_png":"I_Obsidian_05.png","image_id":85,"category_name":"Obsidian","category":6,"distinct_rating":7.32,"distinct_type":"Top","rt":null,"stimulus":"Stimuli_Rocks480/I_Obsidian_05.png","response":null,"trial_type":"image-keyboard-response","trial_index":14,"plugin_version":"2.1.0","time_elapsed":18069700,"subject_id":"92052","group":"Group1","condition":"3_Rep","full_date":"2026-01-23T17:19:47.394Z","date":"2026-01-23","time":"17:19:47"},{"rt":null,"stimulus":"<p style=\"font-size: 50px; margin: 0; text-align: center;\">+</p>","response":null,"trial_type":"html-keyboard-response","trial_index":15,"plugin_version":"2.1.0","time_elapsed":18070708,"subject_id":"92052","group":"Group1","condition":"3_Rep","full_date":"2026-01-23T17:19:47.394Z","date":"2026-01-23","time":"17:19:47"},{"task":"memory_phase","broad_category":"I","image_png":"I_Diorite_04.png","image_id":36,"category_name":"Diorite","category":3,"distinct_rating":2.98,"distinct_type":"Bottom","rt":null,"stimulus":"Stimuli_Rocks480/I_Diorite_04.png","response":null,"trial_type":"image-keyboard-response","trial_index":16,"plugin_version":"2.1.0","time_elapsed":18073216,"subject_id":"92052","group":"Group1","condition":"3_Rep","full_date":"2026-01-23T17:19:47.394Z","date":"2026-01-23","time":"17:19:47"},{"rt":null,"stimulus":"<p style=\"font-size: 50px; margin: 0; text-align: center;\">+</p>","response":null,"trial_type":"html-keyboard-response","trial_index":17,"plugin_version":"2.1.0","time_elapsed":18074229,"subject_id":"92052","group":"Group1","condition":"3_Rep","full_date":"2026-01-23T17:19:47.394Z","date":"2026-01-23","time":"17:19:47"},{"task":"memory_phase","broad_category":"I","image_png":"I_Gabbro_11.png","image_id":59,"category_name":"Gabbro","category":4,"distinct_rating":1.99,"distinct_type":"Bottom","rt":null,"stimulus":"Stimuli_Rocks480/I_Gabbro_11.png","response":null,"trial_type":"image-keyboard-response","trial_index":18,"plugin_version":"2.1.0","time_elapsed":18076744,"subject_id":"92052","group":"Group1","condition":"3_Rep","full_date":"2026-01-23T17:19:47.394Z","date":"2026-01-23","time":"17:19:47"},{"rt":null,"stimulus":"<p style=\"font-size: 50px; margin: 0; text-align: center;\">+</p>","response":null,"trial_type":"html-keyboard-response","trial_index":19,"plugin_version":"2.1.0","time_elapsed":18077755,"subject_id":"92052","group":"Group1","condition":"3_Rep","full_date":"2026-01-23T17:19:47.394Z","date":"2026-01-23","time":"17:19:47"},{"task":"memory_phase","broad_category":"I","image_png":"I_Gabbro_08.png","image_id":56,"category_name":"Gabbro","category":4,"distinct_rating":3.02,"distinct_type":"Bottom","rt":null,"stimulus":"Stimuli_Rocks480/I_Gabbro_08.png","response":null,"trial_type":"image-keyboard-response","trial_index":20,"plugin_version":"2.1.0","time_elapsed":18080262,"subject_id":"92052","group":"Group1","condition":"3_Rep","full_date":"2026-01-23T17:19:47.394Z","date":"2026-01-23","time":"17:19:47"},{"rt":null,"stimulus":"<p style=\"font-size: 50px; margin: 0; text-align: center;\">+</p>","response":null,"trial_type":"html-keyboard-response","trial_index":21,"plugin_version":"2.1.0","time_elapsed":18081267,"subject_id":"92052","group":"Group1","condition":"3_Rep","full_date":"2026-01-23T17:19:47.394Z","date":"2026-01-23","time":"17:19:47"},{"task":"memory_phase","broad_category":"I","image_png":"I_Rhyolite_14.png","image_id":158,"category_name":"Rhyolite","category":10,"distinct_rating":2.59,"distinct_type":"Bottom","rt":null,"stimulus":"Stimuli_Rocks480/I_Rhyolite_14.png","response":null,"trial_type":"image-keyboard-response","trial_index":22,"plugin_version":"2.1.0","time_elapsed":18083778,"subject_id":"92052","group":"Group1","condition":"3_Rep","full_date":"2026-01-23T17:19:47.394Z","date":"2026-01-23","time":"17:19:47"},{"rt":null,"stimulus":"<p style=\"font-size: 50px; margin: 0; text-align: center;\">+</p>","response":null,"trial_type":"html-keyboard-response","trial_index":23,"plugin_version":"2.1.0","time_elapsed":18084795,"subject_id":"92052","group":"Group1","condition":"3_Rep","full_date":"2026-01-23T17:19:47.394Z","date":"2026-01-23","time":"17:19:47"},{"task":"memory_phase","broad_category":"I","image_png":"I_Basalt_09.png","image_id":25,"category_name":"Basalt","category":2,"distinct_rating":1.89,"distinct_type":"Bottom","rt":null,"stimulus":"Stimuli_Rocks480/I_Basalt_09.png","response":null,"trial_type":"image-keyboard-response","trial_index":24,"plugin_version":"2.1.0","time_elapsed":18087306,"subject_id":"92052","group":"Group1","condition":"3_Rep","full_date":"2026-01-23T17:19:47.394Z","date":"2026-01-23","time":"17:19:47"},{"rt":null,"stimulus":"<p style=\"font-size: 50px; margin: 0; text-align: center;\">+</p>","response":null,"trial_type":"html-keyboard-response","trial_index":25,"plugin_version":"2.1.0","time_elapsed":18088308,"subject_id":"92052","group":"Group1","condition":"3_Rep","full_date":"2026-01-23T17:19:47.394Z","date":"2026-01-23","time":"17:19:47"},{"task":"memory_phase","broad_category":"S","image_png":"S_Dolomite_14.png","image_id":398,"category_name":"Dolomite","category":25,"distinct_rating":1.43,"distinct_type":"Bottom","rt":null,"stimulus":"Stimuli_Rocks480/S_Dolomite_14.png","response":null,"trial_type":"image-keyboard-response","trial_index":26,"plugin_version":"2.1.0","time_elapsed":18090821,"subject_id":"92052","group":"Group1","condition":"3_Rep","full_date":"2026-01-23T17:19:47.394Z","date":"2026-01-23","time":"17:19:47"},{"rt":null,"stimulus":"<p style=\"font-size: 50px; margin: 0; text-align: center;\">+</p>","response":null,"trial_type":"html-keyboard-response","trial_index":27,"plugin_version":"2.1.0","time_elapsed":18091827,"subject_id":"92052","group":"Group1","condition":"3_Rep","full_date":"2026-01-23T17:19:47.394Z","date":"2026-01-23","time":"17:19:47"},{"task":"memory_phase","broad_category":"S","image_png":"S_Breccia_11.png","image_id":347,"category_name":"Breccia","category":22,"distinct_rating":6.7,"distinct_type":"Top","rt":null,"stimulus":"Stimuli_Rocks480/S_Breccia_11.png","response":null,"trial_type":"image-keyboard-response","trial_index":28,"plugin_version":"2.1.0","time_elapsed":18094342,"subject_id":"92052","group":"Group1","condition":"3_Rep","full_date":"2026-01-23T17:19:47.394Z","date":"2026-01-23","time":"17:19:47"},{"rt":null,"stimulus":"<p style=\"font-size: 50px; margin: 0; text-align: center;\">+</p>","response":null,"trial_type":"html-keyboard-response","trial_index":29,"plugin_version":"2.1.0","time_elapsed":18095358,"subject_id":"92052","group":"Group1","condition":"3_Rep","full_date":"2026-01-23T17:19:47.394Z","date":"2026-01-23","time":"17:19:47"},{"task":"memory_phase","broad_category":"I","image_png":"I_Pegmatite_16.png","image_id":112,"category_name":"Pegmatite","category":7,"distinct_rating":7.03,"distinct_type":"Top","rt":null,"stimulus":"Stimuli_Rocks480/I_Pegmatite_16.png","response":null,"trial_type":"image-keyboard-response","trial_index":30,"plugin_version":"2.1.0","time_elapsed":18097863,"subject_id":"92052","group":"Group1","condition":"3_Rep","full_date":"2026-01-23T17:19:47.394Z","date":"2026-01-23","time":"17:19:47"},{"rt":null,"stimulus":"<p style=\"font-size: 50px; margin: 0; text-align: center;\">+</p>","response":null,"trial_type":"html-keyboard-response","trial_index":31,"plugin_version":"2.1.0","time_elapsed":18098874,"subject_id":"92052","group":"Group1","condition":"3_Rep","full_date":"2026-01-23T17:19:47.394Z","date":"2026-01-23","time":"17:19:47"},{"task":"memory_phase","broad_category":"S","image_png":"S_Dolomite_13.png","image_id":397,"category_name":"Dolomite","category":25,"distinct_rating":1.77,"distinct_type":"Bottom","rt":null,"stimulus":"Stimuli_Rocks480/S_Dolomite_13.png","response":null,"trial_type":"image-keyboard-response","trial_index":32,"plugin_version":"2.1.0","time_elapsed":18101381,"subject_id":"92052","group":"Group1","condition":"3_Rep","full_date":"2026-01-23T17:19:47.394Z","date":"2026-01-23","time":"17:19:47"},{"rt":null,"stimulus":"<p style=\"font-size: 50px; margin: 0; text-align: center;\">+</p>","response":null,"trial_type":"html-keyboard-response","trial_index":33,"plugin_version":"2.1.0","time_elapsed":18102394,"subject_id":"92052","group":"Group1","condition":"3_Rep","full_date":"2026-01-23T17:19:47.394Z","date":"2026-01-23","time":"17:19:47"},{"task":"memory_phase","broad_category":"I","image_png":"I_Pumice_08.png","image_id":136,"category_name":"Pumice","category":9,"distinct_rating":3.1,"distinct_type":"Bottom","rt":null,"stimulus":"Stimuli_Rocks480/I_Pumice_08.png","response":null,"trial_type":"image-keyboard-response","trial_index":34,"plugin_version":"2.1.0","time_elapsed":18104911,"subject_id":"92052","group":"Group1","condition":"3_Rep","full_date":"2026-01-23T17:19:47.394Z","date":"2026-01-23","time":"17:19:47"},{"rt":null,"stimulus":"<p style=\"font-size: 50px; margin: 0; text-align: center;\">+</p>","response":null,"trial_type":"html-keyboard-response","trial_index":35,"plugin_version":"2.1.0","time_elapsed":18105915,"subject_id":"92052","group":"Group1","condition":"3_Rep","full_date":"2026-01-23T17:19:47.394Z","date":"2026-01-23","time":"17:19:47"},{"task":"memory_phase","broad_category":"S","image_png":"S_Sandstone_16.png","image_id":464,"category_name":"Sandstone","category":29,"distinct_rating":1.93,"distinct_type":"Bottom","rt":null,"stimulus":"Stimuli_Rocks480/S_Sandstone_16.png","response":null,"trial_type":"image-keyboard-response","trial_index":36,"plugin_version":"2.1.0","time_elapsed":18108430,"subject_id":"92052","group":"Group1","condition":"3_Rep","full_date":"2026-01-23T17:19:47.394Z","date":"2026-01-23","time":"17:19:47"},{"rt":null,"stimulus":"<p style=\"font-size: 50px; margin: 0; text-align: center;\">+</p>","response":null,"trial_type":"html-keyboard-response","trial_index":37,"plugin_version":"2.1.0","time_elapsed":18109442,"subject_id":"92052","group":"Group1","condition":"3_Rep","full_date":"2026-01-23T17:19:47.394Z","date":"2026-01-23","time":"17:19:47"},{"task":"memory_phase","broad_category":"S","image_png":"S_Shale_01.png","image_id":465,"category_name":"Shale","category":30,"distinct_rating":2.7,"distinct_type":"Bottom","rt":null,"stimulus":"Stimuli_Rocks480/S_Shale_01.png","response":null,"trial_type":"image-keyboard-response","trial_index":38,"plugin_version":"2.1.0","time_elapsed":18111958,"subject_id":"92052","group":"Group1","condition":"3_Rep","full_date":"2026-01-23T17:19:47.394Z","date":"2026-01-23","time":"17:19:47"},{"rt":null,"stimulus":"<p style=\"font-size: 50px; margin: 0; text-align: center;\">+</p>","response":null,"trial_type":"html-keyboard-response","trial_index":39,"plugin_version":"2.1.0","time_elapsed":18112960,"subject_id":"92052","group":"Group1","condition":"3_Rep","full_date":"2026-01-23T17:19:47.394Z","date":"2026-01-23","time":"17:19:47"},{"task":"memory_phase","broad_category":"M","image_png":"M_Marble_04.png","image_id":228,"category_name":"Marble","category":15,"distinct_rating":3.15,"distinct_type":"Bottom","rt":null,"stimulus":"Stimuli_Rocks480/M_Marble_04.png","response":null,"trial_type":"image-keyboard-response","trial_index":40,"plugin_version":"2.1.0","time_elapsed":18115466,"subject_id":"92052","group":"Group1","condition":"3_Rep","full_date":"2026-01-23T17:19:47.394Z","date":"2026-01-23","time":"17:19:47"},{"rt":null,"stimulus":"<p style=\"font-size: 50px; margin: 0; text-align: center;\">+</p>","response":null,"trial_type":"html-keyboard-response","trial_index":41,"plugin_version":"2.1.0","time_elapsed":18116481,"subject_id":"92052","group":"Group1","condition":"3_Rep","full_date":"2026-01-23T17:19:47.394Z","date":"2026-01-23","time":"17:19:47"},{"task":"memory_phase","broad_category":"I","image_png":"I_Andesite_06.png","image_id":6,"category_name":"Andesite","category":1,"distinct_rating":3.17,"distinct_type":"Bottom","rt":null,"stimulus":"Stimuli_Rocks480/I_Andesite_06.png","response":null,"trial_type":"image-keyboard-response","trial_index":42,"plugin_version":"2.1.0","time_elapsed":18118990,"subject_id":"92052","group":"Group1","condition":"3_Rep","full_date":"2026-01-23T17:19:47.394Z","date":"2026-01-23","time":"17:19:47"},{"rt":null,"stimulus":"<p style=\"font-size: 50px; margin: 0; text-align: center;\">+</p>","response":null,"trial_type":"html-keyboard-response","trial_index":43,"plugin_version":"2.1.0","time_elapsed":18119994,"subject_id":"92052","group":"Group1","condition":"3_Rep","full_date":"2026-01-23T17:19:47.394Z","date":"2026-01-23","time":"17:19:47"},{"task":"memory_phase","broad_category":"M","image_png":"M_Marble_16.png","image_id":240,"category_name":"Marble","category":15,"distinct_rating":2.57,"distinct_type":"Bottom","rt":null,"stimulus":"Stimuli_Rocks480/M_Marble_16.png","response":null,"trial_type":"image-keyboard-response","trial_index":44,"plugin_version":"2.1.0","time_elapsed":18122508,"subject_id":"92052","group":"Group1","condition":"3_Rep","full_date":"2026-01-23T17:19:47.394Z","date":"2026-01-23","time":"17:19:47"},{"rt":null,"stimulus":"<p style=\"font-size: 50px; margin: 0; text-align: center;\">+</p>","response":null,"trial_type":"html-keyboard-response","trial_index":45,"plugin_version":"2.1.0","time_elapsed":18123517,"subject_id":"92052","group":"Group1","condition":"3_Rep","full_date":"2026-01-23T17:19:47.394Z","date":"2026-01-23","time":"17:19:47"},{"task":"memory_phase","broad_category":"I","image_png":"I_Rhyolite_16.png","image_id":160,"category_name":"Rhyolite","category":10,"distinct_rating":2.19,"distinct_type":"Bottom","rt":null,"stimulus":"Stimuli_Rocks480/I_Rhyolite_16.png","response":null,"trial_type":"image-keyboard-response","trial_index":46,"plugin_version":"2.1.0","time_elapsed":18126032,"subject_id":"92052","group":"Group1","condition":"3_Rep","full_date":"2026-01-23T17:19:47.394Z","date":"2026-01-23","time":"17:19:47"},{"rt":null,"stimulus":"<p style=\"font-size: 50px; margin: 0; text-align: center;\">+</p>","response":null,"trial_type":"html-keyboard-response","trial_index":47,"plugin_version":"2.1.0","time_elapsed":18127037,"subject_id":"92052","group":"Group1","condition":"3_Rep","full_date":"2026-01-23T17:19:47.394Z","date":"2026-01-23","time":"17:19:47"},{"task":"memory_phase","broad_category":"M","image_png":"M_Gneiss_06.png","image_id":198,"category_name":"Gneiss","category":13,"distinct_rating":2.65,"distinct_type":"Bottom","rt":null,"stimulus":"Stimuli_Rocks480/M_Gneiss_06.png","response":null,"trial_type":"image-keyboard-response","trial_index":48,"plugin_version":"2.1.0","time_elapsed":18129549,"subject_id":"92052","group":"Group1","condition":"3_Rep","full_date":"2026-01-23T17:19:47.394Z","date":"2026-01-23","time":"17:19:47"},{"rt":null,"stimulus":"<p style=\"font-size: 50px; margin: 0; text-align: center;\">+</p>","response":null,"trial_type":"html-keyboard-response","trial_index":49,"plugin_version":"2.1.0","time_elapsed":18130565,"subject_id":"92052","group":"Group1","condition":"3_Rep","full_date":"2026-01-23T17:19:47.394Z","date":"2026-01-23","time":"17:19:47"},{"task":"memory_phase","broad_category":"S","image_png":"S_Conglomerate_05.png","image_id":373,"category_name":"Conglomerate","category":24,"distinct_rating":7.32,"distinct_type":"Top","rt":null,"stimulus":"Stimuli_Rocks480/S_Conglomerate_05.png","response":null,"trial_type":"image-keyboard-response","trial_index":50,"plugin_version":"2.1.0","time_elapsed":18133078,"subject_id":"92052","group":"Group1","condition":"3_Rep","full_date":"2026-01-23T17:19:47.394Z","date":"2026-01-23","time":"17:19:47"},{"rt":null,"stimulus":"<p style=\"font-size: 50px; margin: 0; text-align: center;\">+</p>","response":null,"trial_type":"html-keyboard-response","trial_index":51,"plugin_version":"2.1.0","time_elapsed":18134094,"subject_id":"92052","group":"Group1","condition":"3_Rep","full_date":"2026-01-23T17:19:47.394Z","date":"2026-01-23","time":"17:19:47"},{"task":"memory_phase","broad_category":"I","image_png":"I_Basalt_01.png","image_id":17,"category_name":"Basalt","category":2,"distinct_rating":1.92,"distinct_type":"Bottom","rt":null,"stimulus":"Stimuli_Rocks480/I_Basalt_01.png","response":null,"trial_type":"image-keyboard-response","trial_index":52,"plugin_version":"2.1.0","time_elapsed":18136600,"subject_id":"92052","group":"Group1","condition":"3_Rep","full_date":"2026-01-23T17:19:47.394Z","date":"2026-01-23","time":"17:19:47"},{"rt":null,"stimulus":"<p style=\"font-size: 50px; margin: 0; text-align: center;\">+</p>","response":null,"trial_type":"html-keyboard-response","trial_index":53,"plugin_version":"2.1.0","time_elapsed":18137608,"subject_id":"92052","group":"Group1","condition":"3_Rep","full_date":"2026-01-23T17:19:47.394Z","date":"2026-01-23","time":"17:19:47"},{"task":"memory_phase","broad_category":"I","image_png":"I_Pumice_12.png","image_id":140,"category_name":"Pumice","category":9,"distinct_rating":2.97,"distinct_type":"Bottom","rt":null,"stimulus":"Stimuli_Rocks480/I_Pumice_12.png","response":null,"trial_type":"image-keyboard-response","trial_index":54,"plugin_version":"2.1.0","time_elapsed":18140123,"subject_id":"92052","group":"Group1","condition":"3_Rep","full_date":"2026-01-23T17:19:47.394Z","date":"2026-01-23","time":"17:19:47"},{"rt":2335,"stimulus":"<p style=\"max-width: 760px; margin: auto; font-size: 35px; line-height: 1.5;\">\n                Press SPACE to continue study phase\n              </p>","response":" ","trial_type":"html-keyboard-response","trial_index":55,"plugin_version":"2.1.0","time_elapsed":18142460,"subject_id":"92052","group":"Group1","condition":"3_Rep","full_date":"2026-01-23T17:19:47.394Z","date":"2026-01-23","time":"17:19:47"},{"rt":null,"stimulus":"<p style=\"font-size: 50px; margin: 0; text-align: center;\">+</p>","response":null,"trial_type":"html-keyboard-response","trial_index":56,"plugin_version":"2.1.0","time_elapsed":18143471,"subject_id":"92052","group":"Group1","condition":"3_Rep","full_date":"2026-01-23T17:19:47.394Z","date":"2026-01-23","time":"17:19:47"},{"task":"memory_phase","broad_category":"S","image_png":"S_Rock Salt_01.png","image_id":433,"category_name":"Rock Salt","category":28,"distinct_rating":7.18,"distinct_type":"Top","rt":null,"stimulus":"Stimuli_Rocks480/S_Rock Salt_01.png","response":null,"trial_type":"image-keyboard-response","trial_index":57,"plugin_version":"2.1.0","time_elapsed":18145979,"subject_id":"92052","group":"Group1","condition":"3_Rep","full_date":"2026-01-23T17:19:47.394Z","date":"2026-01-23","time":"17:19:47"},{"rt":null,"stimulus":"<p style=\"font-size: 50px; margin: 0; text-align: center;\">+</p>","response":null,"trial_type":"html-keyboard-response","trial_index":58,"plugin_version":"2.1.0","time_elapsed":18146993,"subject_id":"92052","group":"Group1","condition":"3_Rep","full_date":"2026-01-23T17:19:47.394Z","date":"2026-01-23","time":"17:19:47"},{"task":"memory_phase","broad_category":"S","image_png":"S_Sandstone_15.png","image_id":463,"category_name":"Sandstone","category":29,"distinct_rating":2,"distinct_type":"Bottom","rt":null,"stimulus":"Stimuli_Rocks480/S_Sandstone_15.png","response":null,"trial_type":"image-keyboard-response","trial_index":59,"plugin_version":"2.1.0","time_elapsed":18149502,"subject_id":"92052","group":"Group1","condition":"3_Rep","full_date":"2026-01-23T17:19:47.394Z","date":"2026-01-23","time":"17:19:47"},{"rt":null,"stimulus":"<p style=\"font-size: 50px; margin: 0; text-align: center;\">+</p>","response":null,"trial_type":"html-keyboard-response","trial_index":60,"plugin_version":"2.1.0","time_elapsed":18150507,"subject_id":"92052","group":"Group1","condition":"3_Rep","full_date":"2026-01-23T17:19:47.394Z","date":"2026-01-23","time":"17:19:47"},{"task":"memory_phase","broad_category":"M","image_png":"M_Slate_15.png","image_id":319,"category_name":"Slate","category":20,"distinct_rating":2.13,"distinct_type":"Bottom","rt":null,"stimulus":"Stimuli_Rocks480/M_Slate_15.png","response":null,"trial_type":"image-keyboard-response","trial_index":61,"plugin_version":"2.1.0","time_elapsed":18153024,"subject_id":"92052","group":"Group1","condition":"3_Rep","full_date":"2026-01-23T17:19:47.394Z","date":"2026-01-23","time":"17:19:47"},{"rt":null,"stimulus":"<p style=\"font-size: 50px; margin: 0; text-align: center;\">+</p>","response":null,"trial_type":"html-keyboard-response","trial_index":62,"plugin_version":"2.1.0","time_elapsed":18154036,"subject_id":"92052","group":"Group1","condition":"3_Rep","full_date":"2026-01-23T17:19:47.394Z","date":"2026-01-23","time":"17:19:47"},{"task":"memory_phase","broad_category":"I","image_png":"I_Pumice_11.png","image_id":139,"category_name":"Pumice","category":9,"distinct_rating":1.74,"distinct_type":"Bottom","rt":null,"stimulus":"Stimuli_Rocks480/I_Pumice_11.png","response":null,"trial_type":"image-keyboard-response","trial_index":63,"plugin_version":"2.1.0","time_elapsed":18156542,"subject_id":"92052","group":"Group1","condition":"3_Rep","full_date":"2026-01-23T17:19:47.394Z","date":"2026-01-23","time":"17:19:47"},{"rt":null,"stimulus":"<p style=\"font-size: 50px; margin: 0; text-align: center;\">+</p>","response":null,"trial_type":"html-keyboard-response","trial_index":64,"plugin_version":"2.1.0","time_elapsed":18157558,"subject_id":"92052","group":"Group1","condition":"3_Rep","full_date":"2026-01-23T17:19:47.394Z","date":"2026-01-23","time":"17:19:47"},{"task":"memory_phase","broad_category":"M","image_png":"M_Slate_03.png","image_id":307,"category_name":"Slate","category":20,"distinct_rating":1.87,"distinct_type":"Bottom","rt":null,"stimulus":"Stimuli_Rocks480/M_Slate_03.png","response":null,"trial_type":"image-keyboard-response","trial_index":65,"plugin_version":"2.1.0","time_elapsed":18160062,"subject_id":"92052","group":"Group1","condition":"3_Rep","full_date":"2026-01-23T17:19:47.394Z","date":"2026-01-23","time":"17:19:47"},{"rt":null,"stimulus":"<p style=\"font-size: 50px; margin: 0; text-align: center;\">+</p>","response":null,"trial_type":"html-keyboard-response","trial_index":66,"plugin_version":"2.1.0","time_elapsed":18161070,"subject_id":"92052","group":"Group1","condition":"3_Rep","full_date":"2026-01-23T17:19:47.394Z","date":"2026-01-23","time":"17:19:47"},{"task":"memory_phase","broad_category":"I","image_png":"I_Rhyolite_11.png","image_id":155,"category_name":"Rhyolite","category":10,"distinct_rating":1.73,"distinct_type":"Bottom","rt":null,"stimulus":"Stimuli_Rocks480/I_Rhyolite_11.png","response":null,"trial_type":"image-keyboard-response","trial_index":67,"plugin_version":"2.1.0","time_elapsed":18163584,"subject_id":"92052","group":"Group1","condition":"3_Rep","full_date":"2026-01-23T17:19:47.394Z","date":"2026-01-23","time":"17:19:47"},{"rt":null,"stimulus":"<p style=\"font-size: 50px; margin: 0; text-align: center;\">+</p>","response":null,"trial_type":"html-keyboard-response","trial_index":68,"plugin_version":"2.1.0","time_elapsed":18164587,"subject_id":"92052","group":"Group1","condition":"3_Rep","full_date":"2026-01-23T17:19:47.394Z","date":"2026-01-23","time":"17:19:47"},{"task":"memory_phase","broad_category":"M","image_png":"M_Phyllite_03.png","image_id":259,"category_name":"Phyllite","category":17,"distinct_rating":2.5,"distinct_type":"Bottom","rt":null,"stimulus":"Stimuli_Rocks480/M_Phyllite_03.png","response":null,"trial_type":"image-keyboard-response","trial_index":69,"plugin_version":"2.1.0","time_elapsed":18167096,"subject_id":"92052","group":"Group1","condition":"3_Rep","full_date":"2026-01-23T17:19:47.394Z","date":"2026-01-23","time":"17:19:47"},{"rt":null,"stimulus":"<p style=\"font-size: 50px; margin: 0; text-align: center;\">+</p>","response":null,"trial_type":"html-keyboard-response","trial_index":70,"plugin_version":"2.1.0","time_elapsed":18168112,"subject_id":"92052","group":"Group1","condition":"3_Rep","full_date":"2026-01-23T17:19:47.394Z","date":"2026-01-23","time":"17:19:47"},{"task":"memory_phase","broad_category":"S","image_png":"S_Shale_12.png","image_id":476,"category_name":"Shale","category":30,"distinct_rating":2.48,"distinct_type":"Bottom","rt":null,"stimulus":"Stimuli_Rocks480/S_Shale_12.png","response":null,"trial_type":"image-keyboard-response","trial_index":71,"plugin_version":"2.1.0","time_elapsed":18170617,"subject_id":"92052","group":"Group1","condition":"3_Rep","full_date":"2026-01-23T17:19:47.394Z","date":"2026-01-23","time":"17:19:47"},{"rt":null,"stimulus":"<p style=\"font-size: 50px; margin: 0; text-align: center;\">+</p>","response":null,"trial_type":"html-keyboard-response","trial_index":72,"plugin_version":"2.1.0","time_elapsed":18171620,"subject_id":"92052","group":"Group1","condition":"3_Rep","full_date":"2026-01-23T17:19:47.394Z","date":"2026-01-23","time":"17:19:47"},{"task":"memory_phase","broad_category":"I","image_png":"I_Diorite_05.png","image_id":37,"category_name":"Diorite","category":3,"distinct_rating":3.08,"distinct_type":"Bottom","rt":null,"stimulus":"Stimuli_Rocks480/I_Diorite_05.png","response":null,"trial_type":"image-keyboard-response","trial_index":73,"plugin_version":"2.1.0","time_elapsed":18174125,"subject_id":"92052","group":"Group1","condition":"3_Rep","full_date":"2026-01-23T17:19:47.394Z","date":"2026-01-23","time":"17:19:47"},{"rt":null,"stimulus":"<p style=\"font-size: 50px; margin: 0; text-align: center;\">+</p>","response":null,"trial_type":"html-keyboard-response","trial_index":74,"plugin_version":"2.1.0","time_elapsed":18175137,"subject_id":"92052","group":"Group1","condition":"3_Rep","full_date":"2026-01-23T17:19:47.394Z","date":"2026-01-23","time":"17:19:47"},{"task":"memory_phase","broad_category":"S","image_png":"S_Shale_08.png","image_id":472,"category_name":"Shale","category":30,"distinct_rating":2.55,"distinct_type":"Bottom","rt":null,"stimulus":"Stimuli_Rocks480/S_Shale_08.png","response":null,"trial_type":"image-keyboard-response","trial_index":75,"plugin_version":"2.1.0","time_elapsed":18177651,"subject_id":"92052","group":"Group1","condition":"3_Rep","full_date":"2026-01-23T17:19:47.394Z","date":"2026-01-23","time":"17:19:47"},{"rt":null,"stimulus":"<p style=\"font-size: 50px; margin: 0; text-align: center;\">+</p>","response":null,"trial_type":"html-keyboard-response","trial_index":76,"plugin_version":"2.1.0","time_elapsed":18178660,"subject_id":"92052","group":"Group1","condition":"3_Rep","full_date":"2026-01-23T17:19:47.394Z","date":"2026-01-23","time":"17:19:47"},{"task":"memory_phase","broad_category":"M","image_png":"M_Gneiss_13.png","image_id":205,"category_name":"Gneiss","category":13,"distinct_rating":3.26,"distinct_type":"Bottom","rt":null,"stimulus":"Stimuli_Rocks480/M_Gneiss_13.png","response":null,"trial_type":"image-keyboard-response","trial_index":77,"plugin_version":"2.1.0","time_elapsed":18181175,"subject_id":"92052","group":"Group1","condition":"3_Rep","full_date":"2026-01-23T17:19:47.394Z","date":"2026-01-23","time":"17:19:47"},{"rt":null,"stimulus":"<p style=\"font-size: 50px; margin: 0; text-align: center;\">+</p>","response":null,"trial_type":"html-keyboard-response","trial_index":78,"plugin_version":"2.1.0","time_elapsed":18182190,"subject_id":"92052","group":"Group1","condition":"3_Rep","full_date":"2026-01-23T17:19:47.394Z","date":"2026-01-23","time":"17:19:47"},{"task":"memory_phase","broad_category":"I","image_png":"I_Diorite_03.png","image_id":35,"category_name":"Diorite","category":3,"distinct_rating":3.14,"distinct_type":"Bottom","rt":null,"stimulus":"Stimuli_Rocks480/I_Diorite_03.png","response":null,"trial_type":"image-keyboard-response","trial_index":79,"plugin_version":"2.1.0","time_elapsed":18184695,"subject_id":"92052","group":"Group1","condition":"3_Rep","full_date":"2026-01-23T17:19:47.394Z","date":"2026-01-23","time":"17:19:47"},{"rt":null,"stimulus":"<p style=\"font-size: 50px; margin: 0; text-align: center;\">+</p>","response":null,"trial_type":"html-keyboard-response","trial_index":80,"plugin_version":"2.1.0","time_elapsed":18185705,"subject_id":"92052","group":"Group1","condition":"3_Rep","full_date":"2026-01-23T17:19:47.394Z","date":"2026-01-23","time":"17:19:47"},{"task":"memory_phase","broad_category":"I","image_png":"I_Andesite_08.png","image_id":8,"category_name":"Andesite","category":1,"distinct_rating":1.95,"distinct_type":"Bottom","rt":null,"stimulus":"Stimuli_Rocks480/I_Andesite_08.png","response":null,"trial_type":"image-keyboard-response","trial_index":81,"plugin_version":"2.1.0","time_elapsed":18188210,"subject_id":"92052","group":"Group1","condition":"3_Rep","full_date":"2026-01-23T17:19:47.394Z","date":"2026-01-23","time":"17:19:47"},{"rt":null,"stimulus":"<p style=\"font-size: 50px; margin: 0; text-align: center;\">+</p>","response":null,"trial_type":"html-keyboard-response","trial_index":82,"plugin_version":"2.1.0","time_elapsed":18189227,"subject_id":"92052","group":"Group1","condition":"3_Rep","full_date":"2026-01-23T17:19:47.394Z","date":"2026-01-23","time":"17:19:47"},{"task":"memory_phase","broad_category":"S","image_png":"S_Rock Gypsum_04.png","image_id":420,"category_name":"Rock Gypsum","category":27,"distinct_rating":7.61,"distinct_type":"Top","rt":null,"stimulus":"Stimuli_Rocks480/S_Rock Gypsum_04.png","response":null,"trial_type":"image-keyboard-response","trial_index":83,"plugin_version":"2.1.0","time_elapsed":18191739,"subject_id":"92052","group":"Group1","condition":"3_Rep","full_date":"2026-01-23T17:19:47.394Z","date":"2026-01-23","time":"17:19:47"},{"rt":null,"stimulus":"<p style=\"font-size: 50px; margin: 0; text-align: center;\">+</p>","response":null,"trial_type":"html-keyboard-response","trial_index":84,"plugin_version":"2.1.0","time_elapsed":18192756,"subject_id":"92052","group":"Group1","condition":"3_Rep","full_date":"2026-01-23T17:19:47.394Z","date":"2026-01-23","time":"17:19:47"},{"task":"memory_phase","broad_category":"S","image_png":"S_Chert_10.png","image_id":362,"category_name":"Chert","category":23,"distinct_rating":7.17,"distinct_type":"Top","rt":null,"stimulus":"Stimuli_Rocks480/S_Chert_10.png","response":null,"trial_type":"image-keyboard-response","trial_index":85,"plugin_version":"2.1.0","time_elapsed":18195262,"subject_id":"92052","group":"Group1","condition":"3_Rep","full_date":"2026-01-23T17:19:47.394Z","date":"2026-01-23","time":"17:19:47"},{"rt":null,"stimulus":"<p style=\"font-size: 50px; margin: 0; text-align: center;\">+</p>","response":null,"trial_type":"html-keyboard-response","trial_index":86,"plugin_version":"2.1.0","time_elapsed":18196268,"subject_id":"92052","group":"Group1","condition":"3_Rep","full_date":"2026-01-23T17:19:47.394Z","date":"2026-01-23","time":"17:19:47"},{"task":"memory_phase","broad_category":"I","image_png":"I_Pegmatite_10.png","image_id":106,"category_name":"Pegmatite","category":7,"distinct_rating":7.66,"distinct_type":"Top","rt":null,"stimulus":"Stimuli_Rocks480/I_Pegmatite_10.png","response":null,"trial_type":"image-keyboard-response","trial_index":87,"plugin_version":"2.1.0","time_elapsed":18198779,"subject_id":"92052","group":"Group1","condition":"3_Rep","full_date":"2026-01-23T17:19:47.394Z","date":"2026-01-23","time":"17:19:47"},{"rt":null,"stimulus":"<p style=\"font-size: 50px; margin: 0; text-align: center;\">+</p>","response":null,"trial_type":"html-keyboard-response","trial_index":88,"plugin_version":"2.1.0","time_elapsed":18199790,"subject_id":"92052","group":"Group1","condition":"3_Rep","full_date":"2026-01-23T17:19:47.394Z","date":"2026-01-23","time":"17:19:47"},{"task":"memory_phase","broad_category":"M","image_png":"M_Marble_06.png","image_id":230,"category_name":"Marble","category":15,"distinct_rating":3.4,"distinct_type":"Bottom","rt":null,"stimulus":"Stimuli_Rocks480/M_Marble_06.png","response":null,"trial_type":"image-keyboard-response","trial_index":89,"plugin_version":"2.1.0","time_elapsed":18202306,"subject_id":"92052","group":"Group1","condition":"3_Rep","full_date":"2026-01-23T17:19:47.394Z","date":"2026-01-23","time":"17:19:47"},{"rt":null,"stimulus":"<p style=\"font-size: 50px; margin: 0; text-align: center;\">+</p>","response":null,"trial_type":"html-keyboard-response","trial_index":90,"plugin_version":"2.1.0","time_elapsed":18203311,"subject_id":"92052","group":"Group1","condition":"3_Rep","full_date":"2026-01-23T17:19:47.394Z","date":"2026-01-23","time":"17:19:47"},{"task":"memory_phase","broad_category":"M","image_png":"M_Gneiss_05.png","image_id":197,"category_name":"Gneiss","category":13,"distinct_rating":2.97,"distinct_type":"Bottom","rt":null,"stimulus":"Stimuli_Rocks480/M_Gneiss_05.png","response":null,"trial_type":"image-keyboard-response","trial_index":91,"plugin_version":"2.1.0","time_elapsed":18205815,"subject_id":"92052","group":"Group1","condition":"3_Rep","full_date":"2026-01-23T17:19:47.394Z","date":"2026-01-23","time":"17:19:47"},{"rt":null,"stimulus":"<p style=\"font-size: 50px; margin: 0; text-align: center;\">+</p>","response":null,"trial_type":"html-keyboard-response","trial_index":92,"plugin_version":"2.1.0","time_elapsed":18206833,"subject_id":"92052","group":"Group1","condition":"3_Rep","full_date":"2026-01-23T17:19:47.394Z","date":"2026-01-23","time":"17:19:47"},{"task":"memory_phase","broad_category":"S","image_png":"S_Dolomite_12.png","image_id":396,"category_name":"Dolomite","category":25,"distinct_rating":1.85,"distinct_type":"Bottom","rt":null,"stimulus":"Stimuli_Rocks480/S_Dolomite_12.png","response":null,"trial_type":"image-keyboard-response","trial_index":93,"plugin_version":"2.1.0","time_elapsed":18209342,"subject_id":"92052","group":"Group1","condition":"3_Rep","full_date":"2026-01-23T17:19:47.394Z","date":"2026-01-23","time":"17:19:47"},{"rt":null,"stimulus":"<p style=\"font-size: 50px; margin: 0; text-align: center;\">+</p>","response":null,"trial_type":"html-keyboard-response","trial_index":94,"plugin_version":"2.1.0","time_elapsed":18210358,"subject_id":"92052","group":"Group1","condition":"3_Rep","full_date":"2026-01-23T17:19:47.394Z","date":"2026-01-23","time":"17:19:47"},{"task":"memory_phase","broad_category":"I","image_png":"I_Andesite_10.png","image_id":10,"category_name":"Andesite","category":1,"distinct_rating":3.15,"distinct_type":"Bottom","rt":null,"stimulus":"Stimuli_Rocks480/I_Andesite_10.png","response":null,"trial_type":"image-keyboard-response","trial_index":95,"plugin_version":"2.1.0","time_elapsed":18212869,"subject_id":"92052","group":"Group1","condition":"3_Rep","full_date":"2026-01-23T17:19:47.394Z","date":"2026-01-23","time":"17:19:47"},{"rt":null,"stimulus":"<p style=\"font-size: 50px; margin: 0; text-align: center;\">+</p>","response":null,"trial_type":"html-keyboard-response","trial_index":96,"plugin_version":"2.1.0","time_elapsed":18213876,"subject_id":"92052","group":"Group1","condition":"3_Rep","full_date":"2026-01-23T17:19:47.394Z","date":"2026-01-23","time":"17:19:47"},{"task":"memory_phase","broad_category":"M","image_png":"M_Phyllite_10.png","image_id":266,"category_name":"Phyllite","category":17,"distinct_rating":2.6,"distinct_type":"Bottom","rt":null,"stimulus":"Stimuli_Rocks480/M_Phyllite_10.png","response":null,"trial_type":"image-keyboard-response","trial_index":97,"plugin_version":"2.1.0","time_elapsed":18216384,"subject_id":"92052","group":"Group1","condition":"3_Rep","full_date":"2026-01-23T17:19:47.394Z","date":"2026-01-23","time":"17:19:47"},{"rt":null,"stimulus":"<p style=\"font-size: 50px; margin: 0; text-align: center;\">+</p>","response":null,"trial_type":"html-keyboard-response","trial_index":98,"plugin_version":"2.1.0","time_elapsed":18217391,"subject_id":"92052","group":"Group1","condition":"3_Rep","full_date":"2026-01-23T17:19:47.394Z","date":"2026-01-23","time":"17:19:47"},{"task":"memory_phase","broad_category":"M","image_png":"M_Quartzite_13.png","image_id":285,"category_name":"Quartzite","category":18,"distinct_rating":2.27,"distinct_type":"Bottom","rt":null,"stimulus":"Stimuli_Rocks480/M_Quartzite_13.png","response":null,"trial_type":"image-keyboard-response","trial_index":99,"plugin_version":"2.1.0","time_elapsed":18219896,"subject_id":"92052","group":"Group1","condition":"3_Rep","full_date":"2026-01-23T17:19:47.394Z","date":"2026-01-23","time":"17:19:47"},{"rt":null,"stimulus":"<p style=\"font-size: 50px; margin: 0; text-align: center;\">+</p>","response":null,"trial_type":"html-keyboard-response","trial_index":100,"plugin_version":"2.1.0","time_elapsed":18220912,"subject_id":"92052","group":"Group1","condition":"3_Rep","full_date":"2026-01-23T17:19:47.394Z","date":"2026-01-23","time":"17:19:47"},{"task":"memory_phase","broad_category":"M","image_png":"M_Phyllite_07.png","image_id":263,"category_name":"Phyllite","category":17,"distinct_rating":2.59,"distinct_type":"Bottom","rt":null,"stimulus":"Stimuli_Rocks480/M_Phyllite_07.png","response":null,"trial_type":"image-keyboard-response","trial_index":101,"plugin_version":"2.1.0","time_elapsed":18223426,"subject_id":"92052","group":"Group1","condition":"3_Rep","full_date":"2026-01-23T17:19:47.394Z","date":"2026-01-23","time":"17:19:47"},{"rt":null,"stimulus":"<p style=\"font-size: 50px; margin: 0; text-align: center;\">+</p>","response":null,"trial_type":"html-keyboard-response","trial_index":102,"plugin_version":"2.1.0","time_elapsed":18224428,"subject_id":"92052","group":"Group1","condition":"3_Rep","full_date":"2026-01-23T17:19:47.394Z","date":"2026-01-23","time":"17:19:47"},{"task":"memory_phase","broad_category":"I","image_png":"I_Gabbro_16.png","image_id":64,"category_name":"Gabbro","category":4,"distinct_rating":2.52,"distinct_type":"Bottom","rt":null,"stimulus":"Stimuli_Rocks480/I_Gabbro_16.png","response":null,"trial_type":"image-keyboard-response","trial_index":103,"plugin_version":"2.1.0","time_elapsed":18226939,"subject_id":"92052","group":"Group1","condition":"3_Rep","full_date":"2026-01-23T17:19:47.394Z","date":"2026-01-23","time":"17:19:47"},{"rt":null,"stimulus":"<p style=\"font-size: 50px; margin: 0; text-align: center;\">+</p>","response":null,"trial_type":"html-keyboard-response","trial_index":104,"plugin_version":"2.1.0","time_elapsed":18227953,"subject_id":"92052","group":"Group1","condition":"3_Rep","full_date":"2026-01-23T17:19:47.394Z","date":"2026-01-23","time":"17:19:47"},{"task":"memory_phase","broad_category":"M","image_png":"M_Quartzite_05.png","image_id":277,"category_name":"Quartzite","category":18,"distinct_rating":2.23,"distinct_type":"Bottom","rt":null,"stimulus":"Stimuli_Rocks480/M_Quartzite_05.png","response":null,"trial_type":"image-keyboard-response","trial_index":105,"plugin_version":"2.1.0","time_elapsed":18230455,"subject_id":"92052","group":"Group1","condition":"3_Rep","full_date":"2026-01-23T17:19:47.394Z","date":"2026-01-23","time":"17:19:47"},{"rt":3994,"stimulus":"<p style=\"max-width: 760px; margin: auto; font-size: 35px; line-height: 1.5;\">\n                You have completed 1 study phase. \n                Now, we'll show you all the images again 2 more times.\n                <br><br>Press SPACE to continue\n              </p>","response":" ","trial_type":"html-keyboard-response","trial_index":106,"plugin_version":"2.1.0","time_elapsed":18234451,"subject_id":"92052","group":"Group1","condition":"3_Rep","full_date":"2026-01-23T17:19:47.394Z","date":"2026-01-23","time":"17:19:47"},{"rt":null,"stimulus":"<p style=\"font-size: 50px; margin: 0; text-align: center;\">+</p>","response":null,"trial_type":"html-keyboard-response","trial_index":107,"plugin_version":"2.1.0","time_elapsed":18235464,"subject_id":"92052","group":"Group1","condition":"3_Rep","full_date":"2026-01-23T17:19:47.394Z","date":"2026-01-23","time":"17:19:47"},{"task":"memory_phase","broad_category":"I","image_png":"I_Pegmatite_16.png","image_id":112,"category_name":"Pegmatite","category":7,"distinct_rating":7.03,"distinct_type":"Top","rt":null,"stimulus":"Stimuli_Rocks480/I_Pegmatite_16.png","response":null,"trial_type":"image-keyboard-response","trial_index":108,"plugin_version":"2.1.0","time_elapsed":18237976,"subject_id":"92052","group":"Group1","condition":"3_Rep","full_date":"2026-01-23T17:19:47.394Z","date":"2026-01-23","time":"17:19:47"},{"rt":null,"stimulus":"<p style=\"font-size: 50px; margin: 0; text-align: center;\">+</p>","response":null,"trial_type":"html-keyboard-response","trial_index":109,"plugin_version":"2.1.0","time_elapsed":18238989,"subject_id":"92052","group":"Group1","condition":"3_Rep","full_date":"2026-01-23T17:19:47.394Z","date":"2026-01-23","time":"17:19:47"},{"task":"memory_phase","broad_category":"M","image_png":"M_Gneiss_05.png","image_id":197,"category_name":"Gneiss","category":13,"distinct_rating":2.97,"distinct_type":"Bottom","rt":null,"stimulus":"Stimuli_Rocks480/M_Gneiss_05.png","response":null,"trial_type":"image-keyboard-response","trial_index":110,"plugin_version":"2.1.0","time_elapsed":18241506,"subject_id":"92052","group":"Group1","condition":"3_Rep","full_date":"2026-01-23T17:19:47.394Z","date":"2026-01-23","time":"17:19:47"},{"rt":null,"stimulus":"<p style=\"font-size: 50px; margin: 0; text-align: center;\">+</p>","response":null,"trial_type":"html-keyboard-response","trial_index":111,"plugin_version":"2.1.0","time_elapsed":18242514,"subject_id":"92052","group":"Group1","condition":"3_Rep","full_date":"2026-01-23T17:19:47.394Z","date":"2026-01-23","time":"17:19:47"},{"task":"memory_phase","broad_category":"I","image_png":"I_Andesite_06.png","image_id":6,"category_name":"Andesite","category":1,"distinct_rating":3.17,"distinct_type":"Bottom","rt":null,"stimulus":"Stimuli_Rocks480/I_Andesite_06.png","response":null,"trial_type":"image-keyboard-response","trial_index":112,"plugin_version":"2.1.0","time_elapsed":18245019,"subject_id":"92052","group":"Group1","condition":"3_Rep","full_date":"2026-01-23T17:19:47.394Z","date":"2026-01-23","time":"17:19:47"},{"rt":null,"stimulus":"<p style=\"font-size: 50px; margin: 0; text-align: center;\">+</p>","response":null,"trial_type":"html-keyboard-response","trial_index":113,"plugin_version":"2.1.0","time_elapsed":18246028,"subject_id":"92052","group":"Group1","condition":"3_Rep","full_date":"2026-01-23T17:19:47.394Z","date":"2026-01-23","time":"17:19:47"},{"task":"memory_phase","broad_category":"S","image_png":"S_Rock Gypsum_04.png","image_id":420,"category_name":"Rock Gypsum","category":27,"distinct_rating":7.61,"distinct_type":"Top","rt":null,"stimulus":"Stimuli_Rocks480/S_Rock Gypsum_04.png","response":null,"trial_type":"image-keyboard-response","trial_index":114,"plugin_version":"2.1.0","time_elapsed":18248536,"subject_id":"92052","group":"Group1","condition":"3_Rep","full_date":"2026-01-23T17:19:47.394Z","date":"2026-01-23","time":"17:19:47"},{"rt":null,"stimulus":"<p style=\"font-size: 50px; margin: 0; text-align: center;\">+</p>","response":null,"trial_type":"html-keyboard-response","trial_index":115,"plugin_version":"2.1.0","time_elapsed":18249550,"subject_id":"92052","group":"Group1","condition":"3_Rep","full_date":"2026-01-23T17:19:47.394Z","date":"2026-01-23","time":"17:19:47"},{"task":"memory_phase","broad_category":"M","image_png":"M_Quartzite_13.png","image_id":285,"category_name":"Quartzite","category":18,"distinct_rating":2.27,"distinct_type":"Bottom","rt":null,"stimulus":"Stimuli_Rocks480/M_Quartzite_13.png","response":null,"trial_type":"image-keyboard-response","trial_index":116,"plugin_version":"2.1.0","time_elapsed":18252064,"subject_id":"92052","group":"Group1","condition":"3_Rep","full_date":"2026-01-23T17:19:47.394Z","date":"2026-01-23","time":"17:19:47"},{"rt":null,"stimulus":"<p style=\"font-size: 50px; margin: 0; text-align: center;\">+</p>","response":null,"trial_type":"html-keyboard-response","trial_index":117,"plugin_version":"2.1.0","time_elapsed":18253078,"subject_id":"92052","group":"Group1","condition":"3_Rep","full_date":"2026-01-23T17:19:47.394Z","date":"2026-01-23","time":"17:19:47"},{"task":"memory_phase","broad_category":"M","image_png":"M_Marble_06.png","image_id":230,"category_name":"Marble","category":15,"distinct_rating":3.4,"distinct_type":"Bottom","rt":null,"stimulus":"Stimuli_Rocks480/M_Marble_06.png","response":null,"trial_type":"image-keyboard-response","trial_index":118,"plugin_version":"2.1.0","time_elapsed":18255595,"subject_id":"92052","group":"Group1","condition":"3_Rep","full_date":"2026-01-23T17:19:47.394Z","date":"2026-01-23","time":"17:19:47"},{"rt":null,"stimulus":"<p style=\"font-size: 50px; margin: 0; text-align: center;\">+</p>","response":null,"trial_type":"html-keyboard-response","trial_index":119,"plugin_version":"2.1.0","time_elapsed":18256603,"subject_id":"92052","group":"Group1","condition":"3_Rep","full_date":"2026-01-23T17:19:47.394Z","date":"2026-01-23","time":"17:19:47"},{"task":"memory_phase","broad_category":"I","image_png":"I_Pumice_12.png","image_id":140,"category_name":"Pumice","category":9,"distinct_rating":2.97,"distinct_type":"Bottom","rt":null,"stimulus":"Stimuli_Rocks480/I_Pumice_12.png","response":null,"trial_type":"image-keyboard-response","trial_index":120,"plugin_version":"2.1.0","time_elapsed":18259108,"subject_id":"92052","group":"Group1","condition":"3_Rep","full_date":"2026-01-23T17:19:47.394Z","date":"2026-01-23","time":"17:19:47"},{"rt":null,"stimulus":"<p style=\"font-size: 50px; margin: 0; text-align: center;\">+</p>","response":null,"trial_type":"html-keyboard-response","trial_index":121,"plugin_version":"2.1.0","time_elapsed":18260125,"subject_id":"92052","group":"Group1","condition":"3_Rep","full_date":"2026-01-23T17:19:47.394Z","date":"2026-01-23","time":"17:19:47"},{"task":"memory_phase","broad_category":"I","image_png":"I_Pumice_11.png","image_id":139,"category_name":"Pumice","category":9,"distinct_rating":1.74,"distinct_type":"Bottom","rt":null,"stimulus":"Stimuli_Rocks480/I_Pumice_11.png","response":null,"trial_type":"image-keyboard-response","trial_index":122,"plugin_version":"2.1.0","time_elapsed":18262636,"subject_id":"92052","group":"Group1","condition":"3_Rep","full_date":"2026-01-23T17:19:47.394Z","date":"2026-01-23","time":"17:19:47"},{"rt":null,"stimulus":"<p style=\"font-size: 50px; margin: 0; text-align: center;\">+</p>","response":null,"trial_type":"html-keyboard-response","trial_index":123,"plugin_version":"2.1.0","time_elapsed":18263653,"subject_id":"92052","group":"Group1","condition":"3_Rep","full_date":"2026-01-23T17:19:47.394Z","date":"2026-01-23","time":"17:19:47"},{"task":"memory_phase","broad_category":"I","image_png":"I_Diorite_05.png","image_id":37,"category_name":"Diorite","category":3,"distinct_rating":3.08,"distinct_type":"Bottom","rt":null,"stimulus":"Stimuli_Rocks480/I_Diorite_05.png","response":null,"trial_type":"image-keyboard-response","trial_index":124,"plugin_version":"2.1.0","time_elapsed":18266163,"subject_id":"92052","group":"Group1","condition":"3_Rep","full_date":"2026-01-23T17:19:47.394Z","date":"2026-01-23","time":"17:19:47"},{"rt":null,"stimulus":"<p style=\"font-size: 50px; margin: 0; text-align: center;\">+</p>","response":null,"trial_type":"html-keyboard-response","trial_index":125,"plugin_version":"2.1.0","time_elapsed":18267165,"subject_id":"92052","group":"Group1","condition":"3_Rep","full_date":"2026-01-23T17:19:47.394Z","date":"2026-01-23","time":"17:19:47"},{"task":"memory_phase","broad_category":"I","image_png":"I_Diorite_03.png","image_id":35,"category_name":"Diorite","category":3,"distinct_rating":3.14,"distinct_type":"Bottom","rt":null,"stimulus":"Stimuli_Rocks480/I_Diorite_03.png","response":null,"trial_type":"image-keyboard-response","trial_index":126,"plugin_version":"2.1.0","time_elapsed":18269683,"subject_id":"92052","group":"Group1","condition":"3_Rep","full_date":"2026-01-23T17:19:47.394Z","date":"2026-01-23","time":"17:19:47"},{"rt":null,"stimulus":"<p style=\"font-size: 50px; margin: 0; text-align: center;\">+</p>","response":null,"trial_type":"html-keyboard-response","trial_index":127,"plugin_version":"2.1.0","time_elapsed":18270696,"subject_id":"92052","group":"Group1","condition":"3_Rep","full_date":"2026-01-23T17:19:47.394Z","date":"2026-01-23","time":"17:19:47"},{"task":"memory_phase","broad_category":"I","image_png":"I_Andesite_08.png","image_id":8,"category_name":"Andesite","category":1,"distinct_rating":1.95,"distinct_type":"Bottom","rt":null,"stimulus":"Stimuli_Rocks480/I_Andesite_08.png","response":null,"trial_type":"image-keyboard-response","trial_index":128,"plugin_version":"2.1.0","time_elapsed":18273209,"subject_id":"92052","group":"Group1","condition":"3_Rep","full_date":"2026-01-23T17:19:47.394Z","date":"2026-01-23","time":"17:19:47"},{"rt":null,"stimulus":"<p style=\"font-size: 50px; margin: 0; text-align: center;\">+</p>","response":null,"trial_type":"html-keyboard-response","trial_index":129,"plugin_version":"2.1.0","time_elapsed":18274225,"subject_id":"92052","group":"Group1","condition":"3_Rep","full_date":"2026-01-23T17:19:47.394Z","date":"2026-01-23","time":"17:19:47"},{"task":"memory_phase","broad_category":"S","image_png":"S_Sandstone_15.png","image_id":463,"category_name":"Sandstone","category":29,"distinct_rating":2,"distinct_type":"Bottom","rt":null,"stimulus":"Stimuli_Rocks480/S_Sandstone_15.png","response":null,"trial_type":"image-keyboard-response","trial_index":130,"plugin_version":"2.1.0","time_elapsed":18276732,"subject_id":"92052","group":"Group1","condition":"3_Rep","full_date":"2026-01-23T17:19:47.394Z","date":"2026-01-23","time":"17:19:47"},{"rt":null,"stimulus":"<p style=\"font-size: 50px; margin: 0; text-align: center;\">+</p>","response":null,"trial_type":"html-keyboard-response","trial_index":131,"plugin_version":"2.1.0","time_elapsed":18277741,"subject_id":"92052","group":"Group1","condition":"3_Rep","full_date":"2026-01-23T17:19:47.394Z","date":"2026-01-23","time":"17:19:47"},{"task":"memory_phase","broad_category":"S","image_png":"S_Shale_01.png","image_id":465,"category_name":"Shale","category":30,"distinct_rating":2.7,"distinct_type":"Bottom","rt":null,"stimulus":"Stimuli_Rocks480/S_Shale_01.png","response":null,"trial_type":"image-keyboard-response","trial_index":132,"plugin_version":"2.1.0","time_elapsed":18280244,"subject_id":"92052","group":"Group1","condition":"3_Rep","full_date":"2026-01-23T17:19:47.394Z","date":"2026-01-23","time":"17:19:47"},{"rt":null,"stimulus":"<p style=\"font-size: 50px; margin: 0; text-align: center;\">+</p>","response":null,"trial_type":"html-keyboard-response","trial_index":133,"plugin_version":"2.1.0","time_elapsed":18281258,"subject_id":"92052","group":"Group1","condition":"3_Rep","full_date":"2026-01-23T17:19:47.394Z","date":"2026-01-23","time":"17:19:47"},{"task":"memory_phase","broad_category":"M","image_png":"M_Quartzite_08.png","image_id":280,"category_name":"Quartzite","category":18,"distinct_rating":2.15,"distinct_type":"Bottom","rt":null,"stimulus":"Stimuli_Rocks480/M_Quartzite_08.png","response":null,"trial_type":"image-keyboard-response","trial_index":134,"plugin_version":"2.1.0","time_elapsed":18283769,"subject_id":"92052","group":"Group1","condition":"3_Rep","full_date":"2026-01-23T17:19:47.394Z","date":"2026-01-23","time":"17:19:47"},{"rt":null,"stimulus":"<p style=\"font-size: 50px; margin: 0; text-align: center;\">+</p>","response":null,"trial_type":"html-keyboard-response","trial_index":135,"plugin_version":"2.1.0","time_elapsed":18284785,"subject_id":"92052","group":"Group1","condition":"3_Rep","full_date":"2026-01-23T17:19:47.394Z","date":"2026-01-23","time":"17:19:47"},{"task":"memory_phase","broad_category":"I","image_png":"I_Rhyolite_11.png","image_id":155,"category_name":"Rhyolite","category":10,"distinct_rating":1.73,"distinct_type":"Bottom","rt":null,"stimulus":"Stimuli_Rocks480/I_Rhyolite_11.png","response":null,"trial_type":"image-keyboard-response","trial_index":136,"plugin_version":"2.1.0","time_elapsed":18287289,"subject_id":"92052","group":"Group1","condition":"3_Rep","full_date":"2026-01-23T17:19:47.394Z","date":"2026-01-23","time":"17:19:47"},{"rt":null,"stimulus":"<p style=\"font-size: 50px; margin: 0; text-align: center;\">+</p>","response":null,"trial_type":"html-keyboard-response","trial_index":137,"plugin_version":"2.1.0","time_elapsed":18288296,"subject_id":"92052","group":"Group1","condition":"3_Rep","full_date":"2026-01-23T17:19:47.394Z","date":"2026-01-23","time":"17:19:47"},{"task":"memory_phase","broad_category":"I","image_png":"I_Basalt_02.png","image_id":18,"category_name":"Basalt","category":2,"distinct_rating":1.84,"distinct_type":"Bottom","rt":null,"stimulus":"Stimuli_Rocks480/I_Basalt_02.png","response":null,"trial_type":"image-keyboard-response","trial_index":138,"plugin_version":"2.1.0","time_elapsed":18290807,"subject_id":"92052","group":"Group1","condition":"3_Rep","full_date":"2026-01-23T17:19:47.394Z","date":"2026-01-23","time":"17:19:47"},{"rt":null,"stimulus":"<p style=\"font-size: 50px; margin: 0; text-align: center;\">+</p>","response":null,"trial_type":"html-keyboard-response","trial_index":139,"plugin_version":"2.1.0","time_elapsed":18291820,"subject_id":"92052","group":"Group1","condition":"3_Rep","full_date":"2026-01-23T17:19:47.394Z","date":"2026-01-23","time":"17:19:47"},{"task":"memory_phase","broad_category":"I","image_png":"I_Rhyolite_16.png","image_id":160,"category_name":"Rhyolite","category":10,"distinct_rating":2.19,"distinct_type":"Bottom","rt":null,"stimulus":"Stimuli_Rocks480/I_Rhyolite_16.png","response":null,"trial_type":"image-keyboard-response","trial_index":140,"plugin_version":"2.1.0","time_elapsed":18294325,"subject_id":"92052","group":"Group1","condition":"3_Rep","full_date":"2026-01-23T17:19:47.394Z","date":"2026-01-23","time":"17:19:47"},{"rt":null,"stimulus":"<p style=\"font-size: 50px; margin: 0; text-align: center;\">+</p>","response":null,"trial_type":"html-keyboard-response","trial_index":141,"plugin_version":"2.1.0","time_elapsed":18295338,"subject_id":"92052","group":"Group1","condition":"3_Rep","full_date":"2026-01-23T17:19:47.394Z","date":"2026-01-23","time":"17:19:47"},{"task":"memory_phase","broad_category":"M","image_png":"M_Slate_15.png","image_id":319,"category_name":"Slate","category":20,"distinct_rating":2.13,"distinct_type":"Bottom","rt":null,"stimulus":"Stimuli_Rocks480/M_Slate_15.png","response":null,"trial_type":"image-keyboard-response","trial_index":142,"plugin_version":"2.1.0","time_elapsed":18297849,"subject_id":"92052","group":"Group1","condition":"3_Rep","full_date":"2026-01-23T17:19:47.394Z","date":"2026-01-23","time":"17:19:47"},{"rt":null,"stimulus":"<p style=\"font-size: 50px; margin: 0; text-align: center;\">+</p>","response":null,"trial_type":"html-keyboard-response","trial_index":143,"plugin_version":"2.1.0","time_elapsed":18298862,"subject_id":"92052","group":"Group1","condition":"3_Rep","full_date":"2026-01-23T17:19:47.394Z","date":"2026-01-23","time":"17:19:47"},{"task":"memory_phase","broad_category":"S","image_png":"S_Shale_08.png","image_id":472,"category_name":"Shale","category":30,"distinct_rating":2.55,"distinct_type":"Bottom","rt":null,"stimulus":"Stimuli_Rocks480/S_Shale_08.png","response":null,"trial_type":"image-keyboard-response","trial_index":144,"plugin_version":"2.1.0","time_elapsed":18301374,"subject_id":"92052","group":"Group1","condition":"3_Rep","full_date":"2026-01-23T17:19:47.394Z","date":"2026-01-23","time":"17:19:47"},{"rt":null,"stimulus":"<p style=\"font-size: 50px; margin: 0; text-align: center;\">+</p>","response":null,"trial_type":"html-keyboard-response","trial_index":145,"plugin_version":"2.1.0","time_elapsed":18302391,"subject_id":"92052","group":"Group1","condition":"3_Rep","full_date":"2026-01-23T17:19:47.394Z","date":"2026-01-23","time":"17:19:47"},{"task":"memory_phase","broad_category":"M","image_png":"M_Phyllite_03.png","image_id":259,"category_name":"Phyllite","category":17,"distinct_rating":2.5,"distinct_type":"Bottom","rt":null,"stimulus":"Stimuli_Rocks480/M_Phyllite_03.png","response":null,"trial_type":"image-keyboard-response","trial_index":146,"plugin_version":"2.1.0","time_elapsed":18304896,"subject_id":"92052","group":"Group1","condition":"3_Rep","full_date":"2026-01-23T17:19:47.394Z","date":"2026-01-23","time":"17:19:47"},{"rt":null,"stimulus":"<p style=\"font-size: 50px; margin: 0; text-align: center;\">+</p>","response":null,"trial_type":"html-keyboard-response","trial_index":147,"plugin_version":"2.1.0","time_elapsed":18305913,"subject_id":"92052","group":"Group1","condition":"3_Rep","full_date":"2026-01-23T17:19:47.394Z","date":"2026-01-23","time":"17:19:47"},{"task":"memory_phase","broad_category":"I","image_png":"I_Gabbro_11.png","image_id":59,"category_name":"Gabbro","category":4,"distinct_rating":1.99,"distinct_type":"Bottom","rt":null,"stimulus":"Stimuli_Rocks480/I_Gabbro_11.png","response":null,"trial_type":"image-keyboard-response","trial_index":148,"plugin_version":"2.1.0","time_elapsed":18308417,"subject_id":"92052","group":"Group1","condition":"3_Rep","full_date":"2026-01-23T17:19:47.394Z","date":"2026-01-23","time":"17:19:47"},{"rt":null,"stimulus":"<p style=\"font-size: 50px; margin: 0; text-align: center;\">+</p>","response":null,"trial_type":"html-keyboard-response","trial_index":149,"plugin_version":"2.1.0","time_elapsed":18309419,"subject_id":"92052","group":"Group1","condition":"3_Rep","full_date":"2026-01-23T17:19:47.394Z","date":"2026-01-23","time":"17:19:47"},{"task":"memory_phase","broad_category":"M","image_png":"M_Phyllite_10.png","image_id":266,"category_name":"Phyllite","category":17,"distinct_rating":2.6,"distinct_type":"Bottom","rt":null,"stimulus":"Stimuli_Rocks480/M_Phyllite_10.png","response":null,"trial_type":"image-keyboard-response","trial_index":150,"plugin_version":"2.1.0","time_elapsed":18311937,"subject_id":"92052","group":"Group1","condition":"3_Rep","full_date":"2026-01-23T17:19:47.394Z","date":"2026-01-23","time":"17:19:47"},{"rt":null,"stimulus":"<p style=\"font-size: 50px; margin: 0; text-align: center;\">+</p>","response":null,"trial_type":"html-keyboard-response","trial_index":151,"plugin_version":"2.1.0","time_elapsed":18312949,"subject_id":"92052","group":"Group1","condition":"3_Rep","full_date":"2026-01-23T17:19:47.394Z","date":"2026-01-23","time":"17:19:47"},{"task":"memory_phase","broad_category":"I","image_png":"I_Andesite_10.png","image_id":10,"category_name":"Andesite","category":1,"distinct_rating":3.15,"distinct_type":"Bottom","rt":null,"stimulus":"Stimuli_Rocks480/I_Andesite_10.png","response":null,"trial_type":"image-keyboard-response","trial_index":152,"plugin_version":"2.1.0","time_elapsed":18315462,"subject_id":"92052","group":"Group1","condition":"3_Rep","full_date":"2026-01-23T17:19:47.394Z","date":"2026-01-23","time":"17:19:47"},{"rt":null,"stimulus":"<p style=\"font-size: 50px; margin: 0; text-align: center;\">+</p>","response":null,"trial_type":"html-keyboard-response","trial_index":153,"plugin_version":"2.1.0","time_elapsed":18316470,"subject_id":"92052","group":"Group1","condition":"3_Rep","full_date":"2026-01-23T17:19:47.394Z","date":"2026-01-23","time":"17:19:47"},{"task":"memory_phase","broad_category":"I","image_png":"I_Pegmatite_10.png","image_id":106,"category_name":"Pegmatite","category":7,"distinct_rating":7.66,"distinct_type":"Top","rt":null,"stimulus":"Stimuli_Rocks480/I_Pegmatite_10.png","response":null,"trial_type":"image-keyboard-response","trial_index":154,"plugin_version":"2.1.0","time_elapsed":18318974,"subject_id":"92052","group":"Group1","condition":"3_Rep","full_date":"2026-01-23T17:19:47.394Z","date":"2026-01-23","time":"17:19:47"},{"rt":null,"stimulus":"<p style=\"font-size: 50px; margin: 0; text-align: center;\">+</p>","response":null,"trial_type":"html-keyboard-response","trial_index":155,"plugin_version":"2.1.0","time_elapsed":18319978,"subject_id":"92052","group":"Group1","condition":"3_Rep","full_date":"2026-01-23T17:19:47.394Z","date":"2026-01-23","time":"17:19:47"},{"task":"memory_phase","broad_category":"I","image_png":"I_Gabbro_16.png","image_id":64,"category_name":"Gabbro","category":4,"distinct_rating":2.52,"distinct_type":"Bottom","rt":null,"stimulus":"Stimuli_Rocks480/I_Gabbro_16.png","response":null,"trial_type":"image-keyboard-response","trial_index":156,"plugin_version":"2.1.0","time_elapsed":18322487,"subject_id":"92052","group":"Group1","condition":"3_Rep","full_date":"2026-01-23T17:19:47.394Z","date":"2026-01-23","time":"17:19:47"},{"rt":9767,"stimulus":"<p style=\"max-width: 760px; margin: auto; font-size: 35px; line-height: 1.5;\">\n                Press SPACE to continue study phase\n              </p>","response":" ","trial_type":"html-keyboard-response","trial_index":157,"plugin_version":"2.1.0","time_elapsed":18332256,"subject_id":"92052","group":"Group1","condition":"3_Rep","full_date":"2026-01-23T17:19:47.394Z","date":"2026-01-23","time":"17:19:47"},{"rt":null,"stimulus":"<p style=\"font-size: 50px; margin: 0; text-align: center;\">+</p>","response":null,"trial_type":"html-keyboard-response","trial_index":158,"plugin_version":"2.1.0","time_elapsed":18333264,"subject_id":"92052","group":"Group1","condition":"3_Rep","full_date":"2026-01-23T17:19:47.394Z","date":"2026-01-23","time":"17:19:47"},{"task":"memory_phase","broad_category":"M","image_png":"M_Quartzite_05.png","image_id":277,"category_name":"Quartzite","category":18,"distinct_rating":2.23,"distinct_type":"Bottom","rt":null,"stimulus":"Stimuli_Rocks480/M_Quartzite_05.png","response":null,"trial_type":"image-keyboard-response","trial_index":159,"plugin_version":"2.1.0","time_elapsed":18335774,"subject_id":"92052","group":"Group1","condition":"3_Rep","full_date":"2026-01-23T17:19:47.394Z","date":"2026-01-23","time":"17:19:47"},{"rt":null,"stimulus":"<p style=\"font-size: 50px; margin: 0; text-align: center;\">+</p>","response":null,"trial_type":"html-keyboard-response","trial_index":160,"plugin_version":"2.1.0","time_elapsed":18336778,"subject_id":"92052","group":"Group1","condition":"3_Rep","full_date":"2026-01-23T17:19:47.394Z","date":"2026-01-23","time":"17:19:47"},{"task":"memory_phase","broad_category":"M","image_png":"M_Phyllite_07.png","image_id":263,"category_name":"Phyllite","category":17,"distinct_rating":2.59,"distinct_type":"Bottom","rt":null,"stimulus":"Stimuli_Rocks480/M_Phyllite_07.png","response":null,"trial_type":"image-keyboard-response","trial_index":161,"plugin_version":"2.1.0","time_elapsed":18339280,"subject_id":"92052","group":"Group1","condition":"3_Rep","full_date":"2026-01-23T17:19:47.394Z","date":"2026-01-23","time":"17:19:47"},{"rt":null,"stimulus":"<p style=\"font-size: 50px; margin: 0; text-align: center;\">+</p>","response":null,"trial_type":"html-keyboard-response","trial_index":162,"plugin_version":"2.1.0","time_elapsed":18340295,"subject_id":"92052","group":"Group1","condition":"3_Rep","full_date":"2026-01-23T17:19:47.394Z","date":"2026-01-23","time":"17:19:47"},{"task":"memory_phase","broad_category":"M","image_png":"M_Marble_16.png","image_id":240,"category_name":"Marble","category":15,"distinct_rating":2.57,"distinct_type":"Bottom","rt":null,"stimulus":"Stimuli_Rocks480/M_Marble_16.png","response":null,"trial_type":"image-keyboard-response","trial_index":163,"plugin_version":"2.1.0","time_elapsed":18342808,"subject_id":"92052","group":"Group1","condition":"3_Rep","full_date":"2026-01-23T17:19:47.394Z","date":"2026-01-23","time":"17:19:47"},{"rt":null,"stimulus":"<p style=\"font-size: 50px; margin: 0; text-align: center;\">+</p>","response":null,"trial_type":"html-keyboard-response","trial_index":164,"plugin_version":"2.1.0","time_elapsed":18343815,"subject_id":"92052","group":"Group1","condition":"3_Rep","full_date":"2026-01-23T17:19:47.394Z","date":"2026-01-23","time":"17:19:47"},{"task":"memory_phase","broad_category":"I","image_png":"I_Pumice_08.png","image_id":136,"category_name":"Pumice","category":9,"distinct_rating":3.1,"distinct_type":"Bottom","rt":null,"stimulus":"Stimuli_Rocks480/I_Pumice_08.png","response":null,"trial_type":"image-keyboard-response","trial_index":165,"plugin_version":"2.1.0","time_elapsed":18346330,"subject_id":"92052","group":"Group1","condition":"3_Rep","full_date":"2026-01-23T17:19:47.394Z","date":"2026-01-23","time":"17:19:47"},{"rt":null,"stimulus":"<p style=\"font-size: 50px; margin: 0; text-align: center;\">+</p>","response":null,"trial_type":"html-keyboard-response","trial_index":166,"plugin_version":"2.1.0","time_elapsed":18347338,"subject_id":"92052","group":"Group1","condition":"3_Rep","full_date":"2026-01-23T17:19:47.394Z","date":"2026-01-23","time":"17:19:47"},{"task":"memory_phase","broad_category":"M","image_png":"M_Slate_03.png","image_id":307,"category_name":"Slate","category":20,"distinct_rating":1.87,"distinct_type":"Bottom","rt":null,"stimulus":"Stimuli_Rocks480/M_Slate_03.png","response":null,"trial_type":"image-keyboard-response","trial_index":167,"plugin_version":"2.1.0","time_elapsed":18349856,"subject_id":"92052","group":"Group1","condition":"3_Rep","full_date":"2026-01-23T17:19:47.394Z","date":"2026-01-23","time":"17:19:47"},{"rt":null,"stimulus":"<p style=\"font-size: 50px; margin: 0; text-align: center;\">+</p>","response":null,"trial_type":"html-keyboard-response","trial_index":168,"plugin_version":"2.1.0","time_elapsed":18350874,"subject_id":"92052","group":"Group1","condition":"3_Rep","full_date":"2026-01-23T17:19:47.394Z","date":"2026-01-23","time":"17:19:47"},{"task":"memory_phase","broad_category":"S","image_png":"S_Rock Salt_01.png","image_id":433,"category_name":"Rock Salt","category":28,"distinct_rating":7.18,"distinct_type":"Top","rt":null,"stimulus":"Stimuli_Rocks480/S_Rock Salt_01.png","response":null,"trial_type":"image-keyboard-response","trial_index":169,"plugin_version":"2.1.0","time_elapsed":18353385,"subject_id":"92052","group":"Group1","condition":"3_Rep","full_date":"2026-01-23T17:19:47.394Z","date":"2026-01-23","time":"17:19:47"},{"rt":null,"stimulus":"<p style=\"font-size: 50px; margin: 0; text-align: center;\">+</p>","response":null,"trial_type":"html-keyboard-response","trial_index":170,"plugin_version":"2.1.0","time_elapsed":18354402,"subject_id":"92052","group":"Group1","condition":"3_Rep","full_date":"2026-01-23T17:19:47.394Z","date":"2026-01-23","time":"17:19:47"},{"task":"memory_phase","broad_category":"S","image_png":"S_Shale_12.png","image_id":476,"category_name":"Shale","category":30,"distinct_rating":2.48,"distinct_type":"Bottom","rt":null,"stimulus":"Stimuli_Rocks480/S_Shale_12.png","response":null,"trial_type":"image-keyboard-response","trial_index":171,"plugin_version":"2.1.0","time_elapsed":18356910,"subject_id":"92052","group":"Group1","condition":"3_Rep","full_date":"2026-01-23T17:19:47.394Z","date":"2026-01-23","time":"17:19:47"},{"rt":null,"stimulus":"<p style=\"font-size: 50px; margin: 0; text-align: center;\">+</p>","response":null,"trial_type":"html-keyboard-response","trial_index":172,"plugin_version":"2.1.0","time_elapsed":18357920,"subject_id":"92052","group":"Group1","condition":"3_Rep","full_date":"2026-01-23T17:19:47.394Z","date":"2026-01-23","time":"17:19:47"},{"task":"memory_phase","broad_category":"S","image_png":"S_Sandstone_16.png","image_id":464,"category_name":"Sandstone","category":29,"distinct_rating":1.93,"distinct_type":"Bottom","rt":null,"stimulus":"Stimuli_Rocks480/S_Sandstone_16.png","response":null,"trial_type":"image-keyboard-response","trial_index":173,"plugin_version":"2.1.0","time_elapsed":18360432,"subject_id":"92052","group":"Group1","condition":"3_Rep","full_date":"2026-01-23T17:19:47.394Z","date":"2026-01-23","time":"17:19:47"},{"rt":null,"stimulus":"<p style=\"font-size: 50px; margin: 0; text-align: center;\">+</p>","response":null,"trial_type":"html-keyboard-response","trial_index":174,"plugin_version":"2.1.0","time_elapsed":18361447,"subject_id":"92052","group":"Group1","condition":"3_Rep","full_date":"2026-01-23T17:19:47.394Z","date":"2026-01-23","time":"17:19:47"},{"task":"memory_phase","broad_category":"S","image_png":"S_Dolomite_14.png","image_id":398,"category_name":"Dolomite","category":25,"distinct_rating":1.43,"distinct_type":"Bottom","rt":null,"stimulus":"Stimuli_Rocks480/S_Dolomite_14.png","response":null,"trial_type":"image-keyboard-response","trial_index":175,"plugin_version":"2.1.0","time_elapsed":18363953,"subject_id":"92052","group":"Group1","condition":"3_Rep","full_date":"2026-01-23T17:19:47.394Z","date":"2026-01-23","time":"17:19:47"},{"rt":null,"stimulus":"<p style=\"font-size: 50px; margin: 0; text-align: center;\">+</p>","response":null,"trial_type":"html-keyboard-response","trial_index":176,"plugin_version":"2.1.0","time_elapsed":18364967,"subject_id":"92052","group":"Group1","condition":"3_Rep","full_date":"2026-01-23T17:19:47.394Z","date":"2026-01-23","time":"17:19:47"},{"task":"memory_phase","broad_category":"S","image_png":"S_Sandstone_03.png","image_id":451,"category_name":"Sandstone","category":29,"distinct_rating":1.86,"distinct_type":"Bottom","rt":null,"stimulus":"Stimuli_Rocks480/S_Sandstone_03.png","response":null,"trial_type":"image-keyboard-response","trial_index":177,"plugin_version":"2.1.0","time_elapsed":18367485,"subject_id":"92052","group":"Group1","condition":"3_Rep","full_date":"2026-01-23T17:19:47.394Z","date":"2026-01-23","time":"17:19:47"},{"rt":null,"stimulus":"<p style=\"font-size: 50px; margin: 0; text-align: center;\">+</p>","response":null,"trial_type":"html-keyboard-response","trial_index":178,"plugin_version":"2.1.0","time_elapsed":18368491,"subject_id":"92052","group":"Group1","condition":"3_Rep","full_date":"2026-01-23T17:19:47.394Z","date":"2026-01-23","time":"17:19:47"},{"task":"memory_phase","broad_category":"M","image_png":"M_Gneiss_06.png","image_id":198,"category_name":"Gneiss","category":13,"distinct_rating":2.65,"distinct_type":"Bottom","rt":null,"stimulus":"Stimuli_Rocks480/M_Gneiss_06.png","response":null,"trial_type":"image-keyboard-response","trial_index":179,"plugin_version":"2.1.0","time_elapsed":18371006,"subject_id":"92052","group":"Group1","condition":"3_Rep","full_date":"2026-01-23T17:19:47.394Z","date":"2026-01-23","time":"17:19:47"},{"rt":null,"stimulus":"<p style=\"font-size: 50px; margin: 0; text-align: center;\">+</p>","response":null,"trial_type":"html-keyboard-response","trial_index":180,"plugin_version":"2.1.0","time_elapsed":18372017,"subject_id":"92052","group":"Group1","condition":"3_Rep","full_date":"2026-01-23T17:19:47.394Z","date":"2026-01-23","time":"17:19:47"},{"task":"memory_phase","broad_category":"M","image_png":"M_Gneiss_13.png","image_id":205,"category_name":"Gneiss","category":13,"distinct_rating":3.26,"distinct_type":"Bottom","rt":null,"stimulus":"Stimuli_Rocks480/M_Gneiss_13.png","response":null,"trial_type":"image-keyboard-response","trial_index":181,"plugin_version":"2.1.0","time_elapsed":18374534,"subject_id":"92052","group":"Group1","condition":"3_Rep","full_date":"2026-01-23T17:19:47.394Z","date":"2026-01-23","time":"17:19:47"},{"rt":null,"stimulus":"<p style=\"font-size: 50px; margin: 0; text-align: center;\">+</p>","response":null,"trial_type":"html-keyboard-response","trial_index":182,"plugin_version":"2.1.0","time_elapsed":18375536,"subject_id":"92052","group":"Group1","condition":"3_Rep","full_date":"2026-01-23T17:19:47.394Z","date":"2026-01-23","time":"17:19:47"},{"task":"memory_phase","broad_category":"M","image_png":"M_Marble_04.png","image_id":228,"category_name":"Marble","category":15,"distinct_rating":3.15,"distinct_type":"Bottom","rt":null,"stimulus":"Stimuli_Rocks480/M_Marble_04.png","response":null,"trial_type":"image-keyboard-response","trial_index":183,"plugin_version":"2.1.0","time_elapsed":18378049,"subject_id":"92052","group":"Group1","condition":"3_Rep","full_date":"2026-01-23T17:19:47.394Z","date":"2026-01-23","time":"17:19:47"},{"rt":null,"stimulus":"<p style=\"font-size: 50px; margin: 0; text-align: center;\">+</p>","response":null,"trial_type":"html-keyboard-response","trial_index":184,"plugin_version":"2.1.0","time_elapsed":18379059,"subject_id":"92052","group":"Group1","condition":"3_Rep","full_date":"2026-01-23T17:19:47.394Z","date":"2026-01-23","time":"17:19:47"},{"task":"memory_phase","broad_category":"I","image_png":"I_Obsidian_05.png","image_id":85,"category_name":"Obsidian","category":6,"distinct_rating":7.32,"distinct_type":"Top","rt":null,"stimulus":"Stimuli_Rocks480/I_Obsidian_05.png","response":null,"trial_type":"image-keyboard-response","trial_index":185,"plugin_version":"2.1.0","time_elapsed":18381571,"subject_id":"92052","group":"Group1","condition":"3_Rep","full_date":"2026-01-23T17:19:47.394Z","date":"2026-01-23","time":"17:19:47"},{"rt":null,"stimulus":"<p style=\"font-size: 50px; margin: 0; text-align: center;\">+</p>","response":null,"trial_type":"html-keyboard-response","trial_index":186,"plugin_version":"2.1.0","time_elapsed":18382587,"subject_id":"92052","group":"Group1","condition":"3_Rep","full_date":"2026-01-23T17:19:47.394Z","date":"2026-01-23","time":"17:19:47"},{"task":"memory_phase","broad_category":"I","image_png":"I_Rhyolite_14.png","image_id":158,"category_name":"Rhyolite","category":10,"distinct_rating":2.59,"distinct_type":"Bottom","rt":null,"stimulus":"Stimuli_Rocks480/I_Rhyolite_14.png","response":null,"trial_type":"image-keyboard-response","trial_index":187,"plugin_version":"2.1.0","time_elapsed":18385096,"subject_id":"92052","group":"Group1","condition":"3_Rep","full_date":"2026-01-23T17:19:47.394Z","date":"2026-01-23","time":"17:19:47"},{"rt":null,"stimulus":"<p style=\"font-size: 50px; margin: 0; text-align: center;\">+</p>","response":null,"trial_type":"html-keyboard-response","trial_index":188,"plugin_version":"2.1.0","time_elapsed":18386098,"subject_id":"92052","group":"Group1","condition":"3_Rep","full_date":"2026-01-23T17:19:47.394Z","date":"2026-01-23","time":"17:19:47"},{"task":"memory_phase","broad_category":"I","image_png":"I_Basalt_09.png","image_id":25,"category_name":"Basalt","category":2,"distinct_rating":1.89,"distinct_type":"Bottom","rt":null,"stimulus":"Stimuli_Rocks480/I_Basalt_09.png","response":null,"trial_type":"image-keyboard-response","trial_index":189,"plugin_version":"2.1.0","time_elapsed":18388608,"subject_id":"92052","group":"Group1","condition":"3_Rep","full_date":"2026-01-23T17:19:47.394Z","date":"2026-01-23","time":"17:19:47"},{"rt":null,"stimulus":"<p style=\"font-size: 50px; margin: 0; text-align: center;\">+</p>","response":null,"trial_type":"html-keyboard-response","trial_index":190,"plugin_version":"2.1.0","time_elapsed":18389612,"subject_id":"92052","group":"Group1","condition":"3_Rep","full_date":"2026-01-23T17:19:47.394Z","date":"2026-01-23","time":"17:19:47"},{"task":"memory_phase","broad_category":"S","image_png":"S_Chert_10.png","image_id":362,"category_name":"Chert","category":23,"distinct_rating":7.17,"distinct_type":"Top","rt":null,"stimulus":"Stimuli_Rocks480/S_Chert_10.png","response":null,"trial_type":"image-keyboard-response","trial_index":191,"plugin_version":"2.1.0","time_elapsed":18392120,"subject_id":"92052","group":"Group1","condition":"3_Rep","full_date":"2026-01-23T17:19:47.394Z","date":"2026-01-23","time":"17:19:47"},{"rt":null,"stimulus":"<p style=\"font-size: 50px; margin: 0; text-align: center;\">+</p>","response":null,"trial_type":"html-keyboard-response","trial_index":192,"plugin_version":"2.1.0","time_elapsed":18393134,"subject_id":"92052","group":"Group1","condition":"3_Rep","full_date":"2026-01-23T17:19:47.394Z","date":"2026-01-23","time":"17:19:47"},{"task":"memory_phase","broad_category":"S","image_png":"S_Conglomerate_05.png","image_id":373,"category_name":"Conglomerate","category":24,"distinct_rating":7.32,"distinct_type":"Top","rt":null,"stimulus":"Stimuli_Rocks480/S_Conglomerate_05.png","response":null,"trial_type":"image-keyboard-response","trial_index":193,"plugin_version":"2.1.0","time_elapsed":18395641,"subject_id":"92052","group":"Group1","condition":"3_Rep","full_date":"2026-01-23T17:19:47.394Z","date":"2026-01-23","time":"17:19:47"},{"rt":null,"stimulus":"<p style=\"font-size: 50px; margin: 0; text-align: center;\">+</p>","response":null,"trial_type":"html-keyboard-response","trial_index":194,"plugin_version":"2.1.0","time_elapsed":18396650,"subject_id":"92052","group":"Group1","condition":"3_Rep","full_date":"2026-01-23T17:19:47.394Z","date":"2026-01-23","time":"17:19:47"},{"task":"memory_phase","broad_category":"I","image_png":"I_Basalt_01.png","image_id":17,"category_name":"Basalt","category":2,"distinct_rating":1.92,"distinct_type":"Bottom","rt":null,"stimulus":"Stimuli_Rocks480/I_Basalt_01.png","response":null,"trial_type":"image-keyboard-response","trial_index":195,"plugin_version":"2.1.0","time_elapsed":18399161,"subject_id":"92052","group":"Group1","condition":"3_Rep","full_date":"2026-01-23T17:19:47.394Z","date":"2026-01-23","time":"17:19:47"},{"rt":null,"stimulus":"<p style=\"font-size: 50px; margin: 0; text-align: center;\">+</p>","response":null,"trial_type":"html-keyboard-response","trial_index":196,"plugin_version":"2.1.0","time_elapsed":18400176,"subject_id":"92052","group":"Group1","condition":"3_Rep","full_date":"2026-01-23T17:19:47.394Z","date":"2026-01-23","time":"17:19:47"},{"task":"memory_phase","broad_category":"I","image_png":"I_Diorite_04.png","image_id":36,"category_name":"Diorite","category":3,"distinct_rating":2.98,"distinct_type":"Bottom","rt":null,"stimulus":"Stimuli_Rocks480/I_Diorite_04.png","response":null,"trial_type":"image-keyboard-response","trial_index":197,"plugin_version":"2.1.0","time_elapsed":18402683,"subject_id":"92052","group":"Group1","condition":"3_Rep","full_date":"2026-01-23T17:19:47.394Z","date":"2026-01-23","time":"17:19:47"},{"rt":null,"stimulus":"<p style=\"font-size: 50px; margin: 0; text-align: center;\">+</p>","response":null,"trial_type":"html-keyboard-response","trial_index":198,"plugin_version":"2.1.0","time_elapsed":18403701,"subject_id":"92052","group":"Group1","condition":"3_Rep","full_date":"2026-01-23T17:19:47.394Z","date":"2026-01-23","time":"17:19:47"},{"task":"memory_phase","broad_category":"I","image_png":"I_Gabbro_08.png","image_id":56,"category_name":"Gabbro","category":4,"distinct_rating":3.02,"distinct_type":"Bottom","rt":null,"stimulus":"Stimuli_Rocks480/I_Gabbro_08.png","response":null,"trial_type":"image-keyboard-response","trial_index":199,"plugin_version":"2.1.0","time_elapsed":18406211,"subject_id":"92052","group":"Group1","condition":"3_Rep","full_date":"2026-01-23T17:19:47.394Z","date":"2026-01-23","time":"17:19:47"},{"rt":null,"stimulus":"<p style=\"font-size: 50px; margin: 0; text-align: center;\">+</p>","response":null,"trial_type":"html-keyboard-response","trial_index":200,"plugin_version":"2.1.0","time_elapsed":18407229,"subject_id":"92052","group":"Group1","condition":"3_Rep","full_date":"2026-01-23T17:19:47.394Z","date":"2026-01-23","time":"17:19:47"},{"task":"memory_phase","broad_category":"S","image_png":"S_Dolomite_12.png","image_id":396,"category_name":"Dolomite","category":25,"distinct_rating":1.85,"distinct_type":"Bottom","rt":null,"stimulus":"Stimuli_Rocks480/S_Dolomite_12.png","response":null,"trial_type":"image-keyboard-response","trial_index":201,"plugin_version":"2.1.0","time_elapsed":18409743,"subject_id":"92052","group":"Group1","condition":"3_Rep","full_date":"2026-01-23T17:19:47.394Z","date":"2026-01-23","time":"17:19:47"},{"rt":null,"stimulus":"<p style=\"font-size: 50px; margin: 0; text-align: center;\">+</p>","response":null,"trial_type":"html-keyboard-response","trial_index":202,"plugin_version":"2.1.0","time_elapsed":18410751,"subject_id":"92052","group":"Group1","condition":"3_Rep","full_date":"2026-01-23T17:19:47.394Z","date":"2026-01-23","time":"17:19:47"},{"task":"memory_phase","broad_category":"M","image_png":"M_Slate_11.png","image_id":315,"category_name":"Slate","category":20,"distinct_rating":2.75,"distinct_type":"Bottom","rt":null,"stimulus":"Stimuli_Rocks480/M_Slate_11.png","response":null,"trial_type":"image-keyboard-response","trial_index":203,"plugin_version":"2.1.0","time_elapsed":18413262,"subject_id":"92052","group":"Group1","condition":"3_Rep","full_date":"2026-01-23T17:19:47.394Z","date":"2026-01-23","time":"17:19:47"},{"rt":null,"stimulus":"<p style=\"font-size: 50px; margin: 0; text-align: center;\">+</p>","response":null,"trial_type":"html-keyboard-response","trial_index":204,"plugin_version":"2.1.0","time_elapsed":18414273,"subject_id":"92052","group":"Group1","condition":"3_Rep","full_date":"2026-01-23T17:19:47.394Z","date":"2026-01-23","time":"17:19:47"},{"task":"memory_phase","broad_category":"S","image_png":"S_Dolomite_13.png","image_id":397,"category_name":"Dolomite","category":25,"distinct_rating":1.77,"distinct_type":"Bottom","rt":null,"stimulus":"Stimuli_Rocks480/S_Dolomite_13.png","response":null,"trial_type":"image-keyboard-response","trial_index":205,"plugin_version":"2.1.0","time_elapsed":18416789,"subject_id":"92052","group":"Group1","condition":"3_Rep","full_date":"2026-01-23T17:19:47.394Z","date":"2026-01-23","time":"17:19:47"},{"rt":null,"stimulus":"<p style=\"font-size: 50px; margin: 0; text-align: center;\">+</p>","response":null,"trial_type":"html-keyboard-response","trial_index":206,"plugin_version":"2.1.0","time_elapsed":18417800,"subject_id":"92052","group":"Group1","condition":"3_Rep","full_date":"2026-01-23T17:19:47.394Z","date":"2026-01-23","time":"17:19:47"},{"task":"memory_phase","broad_category":"S","image_png":"S_Breccia_11.png","image_id":347,"category_name":"Breccia","category":22,"distinct_rating":6.7,"distinct_type":"Top","rt":null,"stimulus":"Stimuli_Rocks480/S_Breccia_11.png","response":null,"trial_type":"image-keyboard-response","trial_index":207,"plugin_version":"2.1.0","time_elapsed":18420306,"subject_id":"92052","group":"Group1","condition":"3_Rep","full_date":"2026-01-23T17:19:47.394Z","date":"2026-01-23","time":"17:19:47"},{"rt":4730,"stimulus":"<p style=\"max-width: 760px; margin: auto; font-size: 35px; line-height: 1.5;\">\n                You have completed 2 study phases. \n                Now, we'll show you all the images again 1 more time.\n                <br><br>Press SPACE to continue\n              </p>","response":" ","trial_type":"html-keyboard-response","trial_index":208,"plugin_version":"2.1.0","time_elapsed":18425038,"subject_id":"92052","group":"Group1","condition":"3_Rep","full_date":"2026-01-23T17:19:47.394Z","date":"2026-01-23","time":"17:19:47"},{"rt":null,"stimulus":"<p style=\"font-size: 50px; margin: 0; text-align: center;\">+</p>","response":null,"trial_type":"html-keyboard-response","trial_index":209,"plugin_version":"2.1.0","time_elapsed":18426044,"subject_id":"92052","group":"Group1","condition":"3_Rep","full_date":"2026-01-23T17:19:47.394Z","date":"2026-01-23","time":"17:19:47"},{"task":"memory_phase","broad_category":"S","image_png":"S_Dolomite_12.png","image_id":396,"category_name":"Dolomite","category":25,"distinct_rating":1.85,"distinct_type":"Bottom","rt":null,"stimulus":"Stimuli_Rocks480/S_Dolomite_12.png","response":null,"trial_type":"image-keyboard-response","trial_index":210,"plugin_version":"2.1.0","time_elapsed":18428550,"subject_id":"92052","group":"Group1","condition":"3_Rep","full_date":"2026-01-23T17:19:47.394Z","date":"2026-01-23","time":"17:19:47"},{"rt":null,"stimulus":"<p style=\"font-size: 50px; margin: 0; text-align: center;\">+</p>","response":null,"trial_type":"html-keyboard-response","trial_index":211,"plugin_version":"2.1.0","time_elapsed":18429563,"subject_id":"92052","group":"Group1","condition":"3_Rep","full_date":"2026-01-23T17:19:47.394Z","date":"2026-01-23","time":"17:19:47"},{"task":"memory_phase","broad_category":"M","image_png":"M_Slate_11.png","image_id":315,"category_name":"Slate","category":20,"distinct_rating":2.75,"distinct_type":"Bottom","rt":null,"stimulus":"Stimuli_Rocks480/M_Slate_11.png","response":null,"trial_type":"image-keyboard-response","trial_index":212,"plugin_version":"2.1.0","time_elapsed":18432077,"subject_id":"92052","group":"Group1","condition":"3_Rep","full_date":"2026-01-23T17:19:47.394Z","date":"2026-01-23","time":"17:19:47"},{"rt":null,"stimulus":"<p style=\"font-size: 50px; margin: 0; text-align: center;\">+</p>","response":null,"trial_type":"html-keyboard-response","trial_index":213,"plugin_version":"2.1.0","time_elapsed":18433087,"subject_id":"92052","group":"Group1","condition":"3_Rep","full_date":"2026-01-23T17:19:47.394Z","date":"2026-01-23","time":"17:19:47"},{"task":"memory_phase","broad_category":"I","image_png":"I_Obsidian_05.png","image_id":85,"category_name":"Obsidian","category":6,"distinct_rating":7.32,"distinct_type":"Top","rt":null,"stimulus":"Stimuli_Rocks480/I_Obsidian_05.png","response":null,"trial_type":"image-keyboard-response","trial_index":214,"plugin_version":"2.1.0","time_elapsed":18435597,"subject_id":"92052","group":"Group1","condition":"3_Rep","full_date":"2026-01-23T17:19:47.394Z","date":"2026-01-23","time":"17:19:47"},{"rt":null,"stimulus":"<p style=\"font-size: 50px; margin: 0; text-align: center;\">+</p>","response":null,"trial_type":"html-keyboard-response","trial_index":215,"plugin_version":"2.1.0","time_elapsed":18436614,"subject_id":"92052","group":"Group1","condition":"3_Rep","full_date":"2026-01-23T17:19:47.394Z","date":"2026-01-23","time":"17:19:47"},{"task":"memory_phase","broad_category":"S","image_png":"S_Sandstone_16.png","image_id":464,"category_name":"Sandstone","category":29,"distinct_rating":1.93,"distinct_type":"Bottom","rt":null,"stimulus":"Stimuli_Rocks480/S_Sandstone_16.png","response":null,"trial_type":"image-keyboard-response","trial_index":216,"plugin_version":"2.1.0","time_elapsed":18439123,"subject_id":"92052","group":"Group1","condition":"3_Rep","full_date":"2026-01-23T17:19:47.394Z","date":"2026-01-23","time":"17:19:47"},{"rt":null,"stimulus":"<p style=\"font-size: 50px; margin: 0; text-align: center;\">+</p>","response":null,"trial_type":"html-keyboard-response","trial_index":217,"plugin_version":"2.1.0","time_elapsed":18440126,"subject_id":"92052","group":"Group1","condition":"3_Rep","full_date":"2026-01-23T17:19:47.394Z","date":"2026-01-23","time":"17:19:47"},{"task":"memory_phase","broad_category":"I","image_png":"I_Andesite_10.png","image_id":10,"category_name":"Andesite","category":1,"distinct_rating":3.15,"distinct_type":"Bottom","rt":null,"stimulus":"Stimuli_Rocks480/I_Andesite_10.png","response":null,"trial_type":"image-keyboard-response","trial_index":218,"plugin_version":"2.1.0","time_elapsed":18442636,"subject_id":"92052","group":"Group1","condition":"3_Rep","full_date":"2026-01-23T17:19:47.394Z","date":"2026-01-23","time":"17:19:47"},{"rt":null,"stimulus":"<p style=\"font-size: 50px; margin: 0; text-align: center;\">+</p>","response":null,"trial_type":"html-keyboard-response","trial_index":219,"plugin_version":"2.1.0","time_elapsed":18443646,"subject_id":"92052","group":"Group1","condition":"3_Rep","full_date":"2026-01-23T17:19:47.394Z","date":"2026-01-23","time":"17:19:47"},{"task":"memory_phase","broad_category":"I","image_png":"I_Pumice_11.png","image_id":139,"category_name":"Pumice","category":9,"distinct_rating":1.74,"distinct_type":"Bottom","rt":null,"stimulus":"Stimuli_Rocks480/I_Pumice_11.png","response":null,"trial_type":"image-keyboard-response","trial_index":220,"plugin_version":"2.1.0","time_elapsed":18446154,"subject_id":"92052","group":"Group1","condition":"3_Rep","full_date":"2026-01-23T17:19:47.394Z","date":"2026-01-23","time":"17:19:47"},{"rt":null,"stimulus":"<p style=\"font-size: 50px; margin: 0; text-align: center;\">+</p>","response":null,"trial_type":"html-keyboard-response","trial_index":221,"plugin_version":"2.1.0","time_elapsed":18447168,"subject_id":"92052","group":"Group1","condition":"3_Rep","full_date":"2026-01-23T17:19:47.394Z","date":"2026-01-23","time":"17:19:47"},{"task":"memory_phase","broad_category":"S","image_png":"S_Shale_08.png","image_id":472,"category_name":"Shale","category":30,"distinct_rating":2.55,"distinct_type":"Bottom","rt":null,"stimulus":"Stimuli_Rocks480/S_Shale_08.png","response":null,"trial_type":"image-keyboard-response","trial_index":222,"plugin_version":"2.1.0","time_elapsed":18449674,"subject_id":"92052","group":"Group1","condition":"3_Rep","full_date":"2026-01-23T17:19:47.394Z","date":"2026-01-23","time":"17:19:47"},{"rt":null,"stimulus":"<p style=\"font-size: 50px; margin: 0; text-align: center;\">+</p>","response":null,"trial_type":"html-keyboard-response","trial_index":223,"plugin_version":"2.1.0","time_elapsed":18450677,"subject_id":"92052","group":"Group1","condition":"3_Rep","full_date":"2026-01-23T17:19:47.394Z","date":"2026-01-23","time":"17:19:47"},{"task":"memory_phase","broad_category":"I","image_png":"I_Rhyolite_16.png","image_id":160,"category_name":"Rhyolite","category":10,"distinct_rating":2.19,"distinct_type":"Bottom","rt":null,"stimulus":"Stimuli_Rocks480/I_Rhyolite_16.png","response":null,"trial_type":"image-keyboard-response","trial_index":224,"plugin_version":"2.1.0","time_elapsed":18453192,"subject_id":"92052","group":"Group1","condition":"3_Rep","full_date":"2026-01-23T17:19:47.394Z","date":"2026-01-23","time":"17:19:47"},{"rt":null,"stimulus":"<p style=\"font-size: 50px; margin: 0; text-align: center;\">+</p>","response":null,"trial_type":"html-keyboard-response","trial_index":225,"plugin_version":"2.1.0","time_elapsed":18454203,"subject_id":"92052","group":"Group1","condition":"3_Rep","full_date":"2026-01-23T17:19:47.394Z","date":"2026-01-23","time":"17:19:47"},{"task":"memory_phase","broad_category":"S","image_png":"S_Sandstone_15.png","image_id":463,"category_name":"Sandstone","category":29,"distinct_rating":2,"distinct_type":"Bottom","rt":null,"stimulus":"Stimuli_Rocks480/S_Sandstone_15.png","response":null,"trial_type":"image-keyboard-response","trial_index":226,"plugin_version":"2.1.0","time_elapsed":18456706,"subject_id":"92052","group":"Group1","condition":"3_Rep","full_date":"2026-01-23T17:19:47.394Z","date":"2026-01-23","time":"17:19:47"},{"rt":null,"stimulus":"<p style=\"font-size: 50px; margin: 0; text-align: center;\">+</p>","response":null,"trial_type":"html-keyboard-response","trial_index":227,"plugin_version":"2.1.0","time_elapsed":18457723,"subject_id":"92052","group":"Group1","condition":"3_Rep","full_date":"2026-01-23T17:19:47.394Z","date":"2026-01-23","time":"17:19:47"},{"task":"memory_phase","broad_category":"S","image_png":"S_Shale_12.png","image_id":476,"category_name":"Shale","category":30,"distinct_rating":2.48,"distinct_type":"Bottom","rt":null,"stimulus":"Stimuli_Rocks480/S_Shale_12.png","response":null,"trial_type":"image-keyboard-response","trial_index":228,"plugin_version":"2.1.0","time_elapsed":18460239,"subject_id":"92052","group":"Group1","condition":"3_Rep","full_date":"2026-01-23T17:19:47.394Z","date":"2026-01-23","time":"17:19:47"},{"rt":null,"stimulus":"<p style=\"font-size: 50px; margin: 0; text-align: center;\">+</p>","response":null,"trial_type":"html-keyboard-response","trial_index":229,"plugin_version":"2.1.0","time_elapsed":18461249,"subject_id":"92052","group":"Group1","condition":"3_Rep","full_date":"2026-01-23T17:19:47.394Z","date":"2026-01-23","time":"17:19:47"},{"task":"memory_phase","broad_category":"M","image_png":"M_Gneiss_05.png","image_id":197,"category_name":"Gneiss","category":13,"distinct_rating":2.97,"distinct_type":"Bottom","rt":null,"stimulus":"Stimuli_Rocks480/M_Gneiss_05.png","response":null,"trial_type":"image-keyboard-response","trial_index":230,"plugin_version":"2.1.0","time_elapsed":18463753,"subject_id":"92052","group":"Group1","condition":"3_Rep","full_date":"2026-01-23T17:19:47.394Z","date":"2026-01-23","time":"17:19:47"},{"rt":null,"stimulus":"<p style=\"font-size: 50px; margin: 0; text-align: center;\">+</p>","response":null,"trial_type":"html-keyboard-response","trial_index":231,"plugin_version":"2.1.0","time_elapsed":18464764,"subject_id":"92052","group":"Group1","condition":"3_Rep","full_date":"2026-01-23T17:19:47.394Z","date":"2026-01-23","time":"17:19:47"},{"task":"memory_phase","broad_category":"I","image_png":"I_Diorite_03.png","image_id":35,"category_name":"Diorite","category":3,"distinct_rating":3.14,"distinct_type":"Bottom","rt":null,"stimulus":"Stimuli_Rocks480/I_Diorite_03.png","response":null,"trial_type":"image-keyboard-response","trial_index":232,"plugin_version":"2.1.0","time_elapsed":18467282,"subject_id":"92052","group":"Group1","condition":"3_Rep","full_date":"2026-01-23T17:19:47.394Z","date":"2026-01-23","time":"17:19:47"},{"rt":null,"stimulus":"<p style=\"font-size: 50px; margin: 0; text-align: center;\">+</p>","response":null,"trial_type":"html-keyboard-response","trial_index":233,"plugin_version":"2.1.0","time_elapsed":18468286,"subject_id":"92052","group":"Group1","condition":"3_Rep","full_date":"2026-01-23T17:19:47.394Z","date":"2026-01-23","time":"17:19:47"},{"task":"memory_phase","broad_category":"I","image_png":"I_Pegmatite_16.png","image_id":112,"category_name":"Pegmatite","category":7,"distinct_rating":7.03,"distinct_type":"Top","rt":null,"stimulus":"Stimuli_Rocks480/I_Pegmatite_16.png","response":null,"trial_type":"image-keyboard-response","trial_index":234,"plugin_version":"2.1.0","time_elapsed":18470795,"subject_id":"92052","group":"Group1","condition":"3_Rep","full_date":"2026-01-23T17:19:47.394Z","date":"2026-01-23","time":"17:19:47"},{"rt":null,"stimulus":"<p style=\"font-size: 50px; margin: 0; text-align: c