[{"width":1440,"height":788,"webaudio":true,"browser":"firefox","browser_version":"148.0.0","mobile":false,"os":"Windows 10","fullscreen":true,"vsync_rate":59.64,"webcam":true,"microphone":true,"trial_type":"browser-check","trial_index":0,"plugin_version":"2.1.0","time_elapsed":1053,"subject_id":"92518","group":"Group2","condition":"3_Rep","full_date":"2026-03-11T00:45:22.947Z","date":"2026-03-11","time":"00:45:22"},{"success":true,"timeout":false,"failed_images":[],"failed_audio":[],"failed_video":[],"trial_type":"preload","trial_index":1,"plugin_version":"2.1.0","time_elapsed":3192,"subject_id":"92518","group":"Group2","condition":"3_Rep","full_date":"2026-03-11T00:45:22.947Z","date":"2026-03-11","time":"00:45:22"},{"rt":26503,"url":"SONA_consent_memorability.html","trial_type":"external-html","trial_index":2,"plugin_version":"2.1.0","time_elapsed":29757,"subject_id":"92518","group":"Group2","condition":"3_Rep","full_date":"2026-03-11T00:45:22.947Z","date":"2026-03-11","time":"00:45:22"},{"success":true,"rt":1265,"trial_type":"fullscreen","trial_index":3,"plugin_version":"2.1.0","time_elapsed":32031,"subject_id":"92518","group":"Group2","condition":"3_Rep","full_date":"2026-03-11T00:45:22.947Z","date":"2026-03-11","time":"00:45:22"},{"rt":34517,"stimulus":"<div style=\"max-width: 760px; margin: auto; font-size: 20px; line-height: 1.5;\">\n      <h1 style=\"text-align:center; font-size: 30px;\">Instructions</h1>\n      <p>\n        Welcome to the study on <b>visual memory</b>. This experiment consists of <b>two phases</b>: \n        a <b>study phase</b> and a <b>test phase</b>.\n      </p>\n      <p>\n        In the study phase, you will see a series of rock images along with their category labels.\n        The images will appear one at a time.\n        <b>Your task</b> is to learn the categories to which the rock images belong \n        and to remember each image as accurately as possible.\n      </p> \n      <p>\n        Note that we will repeat the study phase <b>3 times</b>, \n             so you will have multiple opportunities to see and remember each image.\n      </p>\n      <p>\n        After the study phase, <b>your memory will be tested</b>. \n        Additional instructions for the test phase will be provided at that time.\n      </p>\n      <p>\n        If your computer has multiple <b>language settings</b> (e.g., English and another language),\n        please make sure it is set to English before starting.\n      </p>\n      <p>\n        You can track your progress using the <b>completion bar</b> at the top of the screen. \n        Please note that the bar will refresh when the test phase begins \n        to give you an accurate sense of your progress in both phases.\n      </p> \n      <p>\n        Press the button below when you are ready to begin.\n      </p>\n    </div>","response":0,"trial_type":"html-button-response","trial_index":4,"plugin_version":"2.1.0","time_elapsed":66556,"subject_id":"92518","group":"Group2","condition":"3_Rep","full_date":"2026-03-11T00:45:22.947Z","date":"2026-03-11","time":"00:45:22"},{"rt":null,"stimulus":"<p style=\"font-size: 50px; margin: 0; text-align: center;\">+</p>","response":null,"trial_type":"html-keyboard-response","trial_index":5,"plugin_version":"2.1.0","time_elapsed":67572,"subject_id":"92518","group":"Group2","condition":"3_Rep","full_date":"2026-03-11T00:45:22.947Z","date":"2026-03-11","time":"00:45:22"},{"task":"memory_phase","broad_category":"I","image_png":"I_Rhyolite_08.png","image_id":152,"category_name":"Rhyolite","category":10,"distinct_rating":1.38,"distinct_type":"Bottom","rt":null,"stimulus":"Stimuli_Rocks480/I_Rhyolite_08.png","response":null,"trial_type":"image-keyboard-response","trial_index":6,"plugin_version":"2.1.0","time_elapsed":70151,"subject_id":"92518","group":"Group2","condition":"3_Rep","full_date":"2026-03-11T00:45:22.947Z","date":"2026-03-11","time":"00:45:22"},{"rt":null,"stimulus":"<p style=\"font-size: 50px; margin: 0; text-align: center;\">+</p>","response":null,"trial_type":"html-keyboard-response","trial_index":7,"plugin_version":"2.1.0","time_elapsed":71162,"subject_id":"92518","group":"Group2","condition":"3_Rep","full_date":"2026-03-11T00:45:22.947Z","date":"2026-03-11","time":"00:45:22"},{"task":"memory_phase","broad_category":"I","image_png":"I_Gabbro_12.png","image_id":60,"category_name":"Gabbro","category":4,"distinct_rating":2.6,"distinct_type":"Bottom","rt":null,"stimulus":"Stimuli_Rocks480/I_Gabbro_12.png","response":null,"trial_type":"image-keyboard-response","trial_index":8,"plugin_version":"2.1.0","time_elapsed":73747,"subject_id":"92518","group":"Group2","condition":"3_Rep","full_date":"2026-03-11T00:45:22.947Z","date":"2026-03-11","time":"00:45:22"},{"rt":null,"stimulus":"<p style=\"font-size: 50px; margin: 0; text-align: center;\">+</p>","response":null,"trial_type":"html-keyboard-response","trial_index":9,"plugin_version":"2.1.0","time_elapsed":74753,"subject_id":"92518","group":"Group2","condition":"3_Rep","full_date":"2026-03-11T00:45:22.947Z","date":"2026-03-11","time":"00:45:22"},{"task":"memory_phase","broad_category":"M","image_png":"M_Quartzite_07.png","image_id":279,"category_name":"Quartzite","category":18,"distinct_rating":1.97,"distinct_type":"Bottom","rt":null,"stimulus":"Stimuli_Rocks480/M_Quartzite_07.png","response":null,"trial_type":"image-keyboard-response","trial_index":10,"plugin_version":"2.1.0","time_elapsed":77317,"subject_id":"92518","group":"Group2","condition":"3_Rep","full_date":"2026-03-11T00:45:22.947Z","date":"2026-03-11","time":"00:45:22"},{"rt":null,"stimulus":"<p style=\"font-size: 50px; margin: 0; text-align: center;\">+</p>","response":null,"trial_type":"html-keyboard-response","trial_index":11,"plugin_version":"2.1.0","time_elapsed":78329,"subject_id":"92518","group":"Group2","condition":"3_Rep","full_date":"2026-03-11T00:45:22.947Z","date":"2026-03-11","time":"00:45:22"},{"task":"memory_phase","broad_category":"S","image_png":"S_Conglomerate_14.png","image_id":382,"category_name":"Conglomerate","category":24,"distinct_rating":6.86,"distinct_type":"Top","rt":null,"stimulus":"Stimuli_Rocks480/S_Conglomerate_14.png","response":null,"trial_type":"image-keyboard-response","trial_index":12,"plugin_version":"2.1.0","time_elapsed":80909,"subject_id":"92518","group":"Group2","condition":"3_Rep","full_date":"2026-03-11T00:45:22.947Z","date":"2026-03-11","time":"00:45:22"},{"rt":null,"stimulus":"<p style=\"font-size: 50px; margin: 0; text-align: center;\">+</p>","response":null,"trial_type":"html-keyboard-response","trial_index":13,"plugin_version":"2.1.0","time_elapsed":81913,"subject_id":"92518","group":"Group2","condition":"3_Rep","full_date":"2026-03-11T00:45:22.947Z","date":"2026-03-11","time":"00:45:22"},{"task":"memory_phase","broad_category":"M","image_png":"M_Slate_04.png","image_id":308,"category_name":"Slate","category":20,"distinct_rating":2.2,"distinct_type":"Bottom","rt":null,"stimulus":"Stimuli_Rocks480/M_Slate_04.png","response":null,"trial_type":"image-keyboard-response","trial_index":14,"plugin_version":"2.1.0","time_elapsed":84476,"subject_id":"92518","group":"Group2","condition":"3_Rep","full_date":"2026-03-11T00:45:22.947Z","date":"2026-03-11","time":"00:45:22"},{"rt":null,"stimulus":"<p style=\"font-size: 50px; margin: 0; text-align: center;\">+</p>","response":null,"trial_type":"html-keyboard-response","trial_index":15,"plugin_version":"2.1.0","time_elapsed":85486,"subject_id":"92518","group":"Group2","condition":"3_Rep","full_date":"2026-03-11T00:45:22.947Z","date":"2026-03-11","time":"00:45:22"},{"task":"memory_phase","broad_category":"S","image_png":"S_Dolomite_16.png","image_id":400,"category_name":"Dolomite","category":25,"distinct_rating":1.71,"distinct_type":"Bottom","rt":null,"stimulus":"Stimuli_Rocks480/S_Dolomite_16.png","response":null,"trial_type":"image-keyboard-response","trial_index":16,"plugin_version":"2.1.0","time_elapsed":88039,"subject_id":"92518","group":"Group2","condition":"3_Rep","full_date":"2026-03-11T00:45:22.947Z","date":"2026-03-11","time":"00:45:22"},{"rt":null,"stimulus":"<p style=\"font-size: 50px; margin: 0; text-align: center;\">+</p>","response":null,"trial_type":"html-keyboard-response","trial_index":17,"plugin_version":"2.1.0","time_elapsed":89049,"subject_id":"92518","group":"Group2","condition":"3_Rep","full_date":"2026-03-11T00:45:22.947Z","date":"2026-03-11","time":"00:45:22"},{"task":"memory_phase","broad_category":"M","image_png":"M_Marble_02.png","image_id":226,"category_name":"Marble","category":15,"distinct_rating":3.2,"distinct_type":"Bottom","rt":null,"stimulus":"Stimuli_Rocks480/M_Marble_02.png","response":null,"trial_type":"image-keyboard-response","trial_index":18,"plugin_version":"2.1.0","time_elapsed":91659,"subject_id":"92518","group":"Group2","condition":"3_Rep","full_date":"2026-03-11T00:45:22.947Z","date":"2026-03-11","time":"00:45:22"},{"rt":null,"stimulus":"<p style=\"font-size: 50px; margin: 0; text-align: center;\">+</p>","response":null,"trial_type":"html-keyboard-response","trial_index":19,"plugin_version":"2.1.0","time_elapsed":92666,"subject_id":"92518","group":"Group2","condition":"3_Rep","full_date":"2026-03-11T00:45:22.947Z","date":"2026-03-11","time":"00:45:22"},{"task":"memory_phase","broad_category":"M","image_png":"M_Quartzite_15.png","image_id":287,"category_name":"Quartzite","category":18,"distinct_rating":2.19,"distinct_type":"Bottom","rt":null,"stimulus":"Stimuli_Rocks480/M_Quartzite_15.png","response":null,"trial_type":"image-keyboard-response","trial_index":20,"plugin_version":"2.1.0","time_elapsed":95231,"subject_id":"92518","group":"Group2","condition":"3_Rep","full_date":"2026-03-11T00:45:22.947Z","date":"2026-03-11","time":"00:45:22"},{"rt":null,"stimulus":"<p style=\"font-size: 50px; margin: 0; text-align: center;\">+</p>","response":null,"trial_type":"html-keyboard-response","trial_index":21,"plugin_version":"2.1.0","time_elapsed":96243,"subject_id":"92518","group":"Group2","condition":"3_Rep","full_date":"2026-03-11T00:45:22.947Z","date":"2026-03-11","time":"00:45:22"},{"task":"memory_phase","broad_category":"I","image_png":"I_Peridotite_13.png","image_id":125,"category_name":"Peridotite","category":8,"distinct_rating":7.28,"distinct_type":"Top","rt":null,"stimulus":"Stimuli_Rocks480/I_Peridotite_13.png","response":null,"trial_type":"image-keyboard-response","trial_index":22,"plugin_version":"2.1.0","time_elapsed":98800,"subject_id":"92518","group":"Group2","condition":"3_Rep","full_date":"2026-03-11T00:45:22.947Z","date":"2026-03-11","time":"00:45:22"},{"rt":null,"stimulus":"<p style=\"font-size: 50px; margin: 0; text-align: center;\">+</p>","response":null,"trial_type":"html-keyboard-response","trial_index":23,"plugin_version":"2.1.0","time_elapsed":99812,"subject_id":"92518","group":"Group2","condition":"3_Rep","full_date":"2026-03-11T00:45:22.947Z","date":"2026-03-11","time":"00:45:22"},{"task":"memory_phase","broad_category":"M","image_png":"M_Marble_14.png","image_id":238,"category_name":"Marble","category":15,"distinct_rating":3.31,"distinct_type":"Bottom","rt":null,"stimulus":"Stimuli_Rocks480/M_Marble_14.png","response":null,"trial_type":"image-keyboard-response","trial_index":24,"plugin_version":"2.1.0","time_elapsed":102367,"subject_id":"92518","group":"Group2","condition":"3_Rep","full_date":"2026-03-11T00:45:22.947Z","date":"2026-03-11","time":"00:45:22"},{"rt":null,"stimulus":"<p style=\"font-size: 50px; margin: 0; text-align: center;\">+</p>","response":null,"trial_type":"html-keyboard-response","trial_index":25,"plugin_version":"2.1.0","time_elapsed":103375,"subject_id":"92518","group":"Group2","condition":"3_Rep","full_date":"2026-03-11T00:45:22.947Z","date":"2026-03-11","time":"00:45:22"},{"task":"memory_phase","broad_category":"S","image_png":"S_Rock Salt_15.png","image_id":447,"category_name":"Rock Salt","category":28,"distinct_rating":7.79,"distinct_type":"Top","rt":null,"stimulus":"Stimuli_Rocks480/S_Rock Salt_15.png","response":null,"trial_type":"image-keyboard-response","trial_index":26,"plugin_version":"2.1.0","time_elapsed":105922,"subject_id":"92518","group":"Group2","condition":"3_Rep","full_date":"2026-03-11T00:45:22.947Z","date":"2026-03-11","time":"00:45:22"},{"rt":null,"stimulus":"<p style=\"font-size: 50px; margin: 0; text-align: center;\">+</p>","response":null,"trial_type":"html-keyboard-response","trial_index":27,"plugin_version":"2.1.0","time_elapsed":106928,"subject_id":"92518","group":"Group2","condition":"3_Rep","full_date":"2026-03-11T00:45:22.947Z","date":"2026-03-11","time":"00:45:22"},{"task":"memory_phase","broad_category":"I","image_png":"I_Diorite_15.png","image_id":47,"category_name":"Diorite","category":3,"distinct_rating":3.05,"distinct_type":"Bottom","rt":null,"stimulus":"Stimuli_Rocks480/I_Diorite_15.png","response":null,"trial_type":"image-keyboard-response","trial_index":28,"plugin_version":"2.1.0","time_elapsed":109500,"subject_id":"92518","group":"Group2","condition":"3_Rep","full_date":"2026-03-11T00:45:22.947Z","date":"2026-03-11","time":"00:45:22"},{"rt":null,"stimulus":"<p style=\"font-size: 50px; margin: 0; text-align: center;\">+</p>","response":null,"trial_type":"html-keyboard-response","trial_index":29,"plugin_version":"2.1.0","time_elapsed":110511,"subject_id":"92518","group":"Group2","condition":"3_Rep","full_date":"2026-03-11T00:45:22.947Z","date":"2026-03-11","time":"00:45:22"},{"task":"memory_phase","broad_category":"I","image_png":"I_Basalt_08.png","image_id":24,"category_name":"Basalt","category":2,"distinct_rating":2.31,"distinct_type":"Bottom","rt":null,"stimulus":"Stimuli_Rocks480/I_Basalt_08.png","response":null,"trial_type":"image-keyboard-response","trial_index":30,"plugin_version":"2.1.0","time_elapsed":113094,"subject_id":"92518","group":"Group2","condition":"3_Rep","full_date":"2026-03-11T00:45:22.947Z","date":"2026-03-11","time":"00:45:22"},{"rt":null,"stimulus":"<p style=\"font-size: 50px; margin: 0; text-align: center;\">+</p>","response":null,"trial_type":"html-keyboard-response","trial_index":31,"plugin_version":"2.1.0","time_elapsed":114101,"subject_id":"92518","group":"Group2","condition":"3_Rep","full_date":"2026-03-11T00:45:22.947Z","date":"2026-03-11","time":"00:45:22"},{"task":"memory_phase","broad_category":"S","image_png":"S_Shale_02.png","image_id":466,"category_name":"Shale","category":30,"distinct_rating":2.9,"distinct_type":"Bottom","rt":null,"stimulus":"Stimuli_Rocks480/S_Shale_02.png","response":null,"trial_type":"image-keyboard-response","trial_index":32,"plugin_version":"2.1.0","time_elapsed":116653,"subject_id":"92518","group":"Group2","condition":"3_Rep","full_date":"2026-03-11T00:45:22.947Z","date":"2026-03-11","time":"00:45:22"},{"rt":null,"stimulus":"<p style=\"font-size: 50px; margin: 0; text-align: center;\">+</p>","response":null,"trial_type":"html-keyboard-response","trial_index":33,"plugin_version":"2.1.0","time_elapsed":117670,"subject_id":"92518","group":"Group2","condition":"3_Rep","full_date":"2026-03-11T00:45:22.947Z","date":"2026-03-11","time":"00:45:22"},{"task":"memory_phase","broad_category":"I","image_png":"I_Andesite_03.png","image_id":3,"category_name":"Andesite","category":1,"distinct_rating":3.17,"distinct_type":"Bottom","rt":null,"stimulus":"Stimuli_Rocks480/I_Andesite_03.png","response":null,"trial_type":"image-keyboard-response","trial_index":34,"plugin_version":"2.1.0","time_elapsed":120232,"subject_id":"92518","group":"Group2","condition":"3_Rep","full_date":"2026-03-11T00:45:22.947Z","date":"2026-03-11","time":"00:45:22"},{"rt":null,"stimulus":"<p style=\"font-size: 50px; margin: 0; text-align: center;\">+</p>","response":null,"trial_type":"html-keyboard-response","trial_index":35,"plugin_version":"2.1.0","time_elapsed":121241,"subject_id":"92518","group":"Group2","condition":"3_Rep","full_date":"2026-03-11T00:45:22.947Z","date":"2026-03-11","time":"00:45:22"},{"task":"memory_phase","broad_category":"S","image_png":"S_Sandstone_04.png","image_id":452,"category_name":"Sandstone","category":29,"distinct_rating":1.8,"distinct_type":"Bottom","rt":null,"stimulus":"Stimuli_Rocks480/S_Sandstone_04.png","response":null,"trial_type":"image-keyboard-response","trial_index":36,"plugin_version":"2.1.0","time_elapsed":123796,"subject_id":"92518","group":"Group2","condition":"3_Rep","full_date":"2026-03-11T00:45:22.947Z","date":"2026-03-11","time":"00:45:22"},{"rt":null,"stimulus":"<p style=\"font-size: 50px; margin: 0; text-align: center;\">+</p>","response":null,"trial_type":"html-keyboard-response","trial_index":37,"plugin_version":"2.1.0","time_elapsed":124807,"subject_id":"92518","group":"Group2","condition":"3_Rep","full_date":"2026-03-11T00:45:22.947Z","date":"2026-03-11","time":"00:45:22"},{"task":"memory_phase","broad_category":"S","image_png":"S_Rock Salt_13.png","image_id":445,"category_name":"Rock Salt","category":28,"distinct_rating":7.58,"distinct_type":"Top","rt":null,"stimulus":"Stimuli_Rocks480/S_Rock Salt_13.png","response":null,"trial_type":"image-keyboard-response","trial_index":38,"plugin_version":"2.1.0","time_elapsed":127362,"subject_id":"92518","group":"Group2","condition":"3_Rep","full_date":"2026-03-11T00:45:22.947Z","date":"2026-03-11","time":"00:45:22"},{"rt":null,"stimulus":"<p style=\"font-size: 50px; margin: 0; text-align: center;\">+</p>","response":null,"trial_type":"html-keyboard-response","trial_index":39,"plugin_version":"2.1.0","time_elapsed":128375,"subject_id":"92518","group":"Group2","condition":"3_Rep","full_date":"2026-03-11T00:45:22.947Z","date":"2026-03-11","time":"00:45:22"},{"task":"memory_phase","broad_category":"I","image_png":"I_Rhyolite_05.png","image_id":149,"category_name":"Rhyolite","category":10,"distinct_rating":3.02,"distinct_type":"Bottom","rt":null,"stimulus":"Stimuli_Rocks480/I_Rhyolite_05.png","response":null,"trial_type":"image-keyboard-response","trial_index":40,"plugin_version":"2.1.0","time_elapsed":130959,"subject_id":"92518","group":"Group2","condition":"3_Rep","full_date":"2026-03-11T00:45:22.947Z","date":"2026-03-11","time":"00:45:22"},{"rt":null,"stimulus":"<p style=\"font-size: 50px; margin: 0; text-align: center;\">+</p>","response":null,"trial_type":"html-keyboard-response","trial_index":41,"plugin_version":"2.1.0","time_elapsed":131971,"subject_id":"92518","group":"Group2","condition":"3_Rep","full_date":"2026-03-11T00:45:22.947Z","date":"2026-03-11","time":"00:45:22"},{"task":"memory_phase","broad_category":"M","image_png":"M_Slate_10.png","image_id":314,"category_name":"Slate","category":20,"distinct_rating":1.94,"distinct_type":"Bottom","rt":null,"stimulus":"Stimuli_Rocks480/M_Slate_10.png","response":null,"trial_type":"image-keyboard-response","trial_index":42,"plugin_version":"2.1.0","time_elapsed":134535,"subject_id":"92518","group":"Group2","condition":"3_Rep","full_date":"2026-03-11T00:45:22.947Z","date":"2026-03-11","time":"00:45:22"},{"rt":null,"stimulus":"<p style=\"font-size: 50px; margin: 0; text-align: center;\">+</p>","response":null,"trial_type":"html-keyboard-response","trial_index":43,"plugin_version":"2.1.0","time_elapsed":135545,"subject_id":"92518","group":"Group2","condition":"3_Rep","full_date":"2026-03-11T00:45:22.947Z","date":"2026-03-11","time":"00:45:22"},{"task":"memory_phase","broad_category":"M","image_png":"M_Gneiss_10.png","image_id":202,"category_name":"Gneiss","category":13,"distinct_rating":3.09,"distinct_type":"Bottom","rt":null,"stimulus":"Stimuli_Rocks480/M_Gneiss_10.png","response":null,"trial_type":"image-keyboard-response","trial_index":44,"plugin_version":"2.1.0","time_elapsed":138194,"subject_id":"92518","group":"Group2","condition":"3_Rep","full_date":"2026-03-11T00:45:22.947Z","date":"2026-03-11","time":"00:45:22"},{"rt":null,"stimulus":"<p style=\"font-size: 50px; margin: 0; text-align: center;\">+</p>","response":null,"trial_type":"html-keyboard-response","trial_index":45,"plugin_version":"2.1.0","time_elapsed":139203,"subject_id":"92518","group":"Group2","condition":"3_Rep","full_date":"2026-03-11T00:45:22.947Z","date":"2026-03-11","time":"00:45:22"},{"task":"memory_phase","broad_category":"I","image_png":"I_Obsidian_06.png","image_id":86,"category_name":"Obsidian","category":6,"distinct_rating":8.01,"distinct_type":"Top","rt":null,"stimulus":"Stimuli_Rocks480/I_Obsidian_06.png","response":null,"trial_type":"image-keyboard-response","trial_index":46,"plugin_version":"2.1.0","time_elapsed":141761,"subject_id":"92518","group":"Group2","condition":"3_Rep","full_date":"2026-03-11T00:45:22.947Z","date":"2026-03-11","time":"00:45:22"},{"rt":null,"stimulus":"<p style=\"font-size: 50px; margin: 0; text-align: center;\">+</p>","response":null,"trial_type":"html-keyboard-response","trial_index":47,"plugin_version":"2.1.0","time_elapsed":142767,"subject_id":"92518","group":"Group2","condition":"3_Rep","full_date":"2026-03-11T00:45:22.947Z","date":"2026-03-11","time":"00:45:22"},{"task":"memory_phase","broad_category":"I","image_png":"I_Andesite_09.png","image_id":9,"category_name":"Andesite","category":1,"distinct_rating":2.49,"distinct_type":"Bottom","rt":null,"stimulus":"Stimuli_Rocks480/I_Andesite_09.png","response":null,"trial_type":"image-keyboard-response","trial_index":48,"plugin_version":"2.1.0","time_elapsed":145328,"subject_id":"92518","group":"Group2","condition":"3_Rep","full_date":"2026-03-11T00:45:22.947Z","date":"2026-03-11","time":"00:45:22"},{"rt":null,"stimulus":"<p style=\"font-size: 50px; margin: 0; text-align: center;\">+</p>","response":null,"trial_type":"html-keyboard-response","trial_index":49,"plugin_version":"2.1.0","time_elapsed":146335,"subject_id":"92518","group":"Group2","condition":"3_Rep","full_date":"2026-03-11T00:45:22.947Z","date":"2026-03-11","time":"00:45:22"},{"task":"memory_phase","broad_category":"M","image_png":"M_Slate_14.png","image_id":318,"category_name":"Slate","category":20,"distinct_rating":2.58,"distinct_type":"Bottom","rt":null,"stimulus":"Stimuli_Rocks480/M_Slate_14.png","response":null,"trial_type":"image-keyboard-response","trial_index":50,"plugin_version":"2.1.0","time_elapsed":148877,"subject_id":"92518","group":"Group2","condition":"3_Rep","full_date":"2026-03-11T00:45:22.947Z","date":"2026-03-11","time":"00:45:22"},{"rt":null,"stimulus":"<p style=\"font-size: 50px; margin: 0; text-align: center;\">+</p>","response":null,"trial_type":"html-keyboard-response","trial_index":51,"plugin_version":"2.1.0","time_elapsed":149884,"subject_id":"92518","group":"Group2","condition":"3_Rep","full_date":"2026-03-11T00:45:22.947Z","date":"2026-03-11","time":"00:45:22"},{"task":"memory_phase","broad_category":"M","image_png":"M_Marble_03.png","image_id":227,"category_name":"Marble","category":15,"distinct_rating":2.67,"distinct_type":"Bottom","rt":null,"stimulus":"Stimuli_Rocks480/M_Marble_03.png","response":null,"trial_type":"image-keyboard-response","trial_index":52,"plugin_version":"2.1.0","time_elapsed":152461,"subject_id":"92518","group":"Group2","condition":"3_Rep","full_date":"2026-03-11T00:45:22.947Z","date":"2026-03-11","time":"00:45:22"},{"rt":null,"stimulus":"<p style=\"font-size: 50px; margin: 0; text-align: center;\">+</p>","response":null,"trial_type":"html-keyboard-response","trial_index":53,"plugin_version":"2.1.0","time_elapsed":153471,"subject_id":"92518","group":"Group2","condition":"3_Rep","full_date":"2026-03-11T00:45:22.947Z","date":"2026-03-11","time":"00:45:22"},{"task":"memory_phase","broad_category":"M","image_png":"M_Phyllite_13.png","image_id":269,"category_name":"Phyllite","category":17,"distinct_rating":2.8,"distinct_type":"Bottom","rt":null,"stimulus":"Stimuli_Rocks480/M_Phyllite_13.png","response":null,"trial_type":"image-keyboard-response","trial_index":54,"plugin_version":"2.1.0","time_elapsed":156025,"subject_id":"92518","group":"Group2","condition":"3_Rep","full_date":"2026-03-11T00:45:22.947Z","date":"2026-03-11","time":"00:45:22"},{"rt":548391,"stimulus":"<p style=\"max-width: 760px; margin: auto; font-size: 35px; line-height: 1.5;\">\n                Press SPACE to continue study phase\n              </p>","response":" ","trial_type":"html-keyboard-response","trial_index":55,"plugin_version":"2.1.0","time_elapsed":704420,"subject_id":"92518","group":"Group2","condition":"3_Rep","full_date":"2026-03-11T00:45:22.947Z","date":"2026-03-11","time":"00:45:22"},{"rt":null,"stimulus":"<p style=\"font-size: 50px; margin: 0; text-align: center;\">+</p>","response":null,"trial_type":"html-keyboard-response","trial_index":56,"plugin_version":"2.1.0","time_elapsed":705431,"subject_id":"92518","group":"Group2","condition":"3_Rep","full_date":"2026-03-11T00:45:22.947Z","date":"2026-03-11","time":"00:45:22"},{"task":"memory_phase","broad_category":"M","image_png":"M_Phyllite_05.png","image_id":261,"category_name":"Phyllite","category":17,"distinct_rating":2.14,"distinct_type":"Bottom","rt":null,"stimulus":"Stimuli_Rocks480/M_Phyllite_05.png","response":null,"trial_type":"image-keyboard-response","trial_index":57,"plugin_version":"2.1.0","time_elapsed":708001,"subject_id":"92518","group":"Group2","condition":"3_Rep","full_date":"2026-03-11T00:45:22.947Z","date":"2026-03-11","time":"00:45:22"},{"rt":null,"stimulus":"<p style=\"font-size: 50px; margin: 0; text-align: center;\">+</p>","response":null,"trial_type":"html-keyboard-response","trial_index":58,"plugin_version":"2.1.0","time_elapsed":709007,"subject_id":"92518","group":"Group2","condition":"3_Rep","full_date":"2026-03-11T00:45:22.947Z","date":"2026-03-11","time":"00:45:22"},{"task":"memory_phase","broad_category":"I","image_png":"I_Basalt_13.png","image_id":29,"category_name":"Basalt","category":2,"distinct_rating":2.68,"distinct_type":"Bottom","rt":null,"stimulus":"Stimuli_Rocks480/I_Basalt_13.png","response":null,"trial_type":"image-keyboard-response","trial_index":59,"plugin_version":"2.1.0","time_elapsed":711575,"subject_id":"92518","group":"Group2","condition":"3_Rep","full_date":"2026-03-11T00:45:22.947Z","date":"2026-03-11","time":"00:45:22"},{"rt":null,"stimulus":"<p style=\"font-size: 50px; margin: 0; text-align: center;\">+</p>","response":null,"trial_type":"html-keyboard-response","trial_index":60,"plugin_version":"2.1.0","time_elapsed":712581,"subject_id":"92518","group":"Group2","condition":"3_Rep","full_date":"2026-03-11T00:45:22.947Z","date":"2026-03-11","time":"00:45:22"},{"task":"memory_phase","broad_category":"I","image_png":"I_Andesite_04.png","image_id":4,"category_name":"Andesite","category":1,"distinct_rating":3.18,"distinct_type":"Bottom","rt":null,"stimulus":"Stimuli_Rocks480/I_Andesite_04.png","response":null,"trial_type":"image-keyboard-response","trial_index":61,"plugin_version":"2.1.0","time_elapsed":715153,"subject_id":"92518","group":"Group2","condition":"3_Rep","full_date":"2026-03-11T00:45:22.947Z","date":"2026-03-11","time":"00:45:22"},{"rt":null,"stimulus":"<p style=\"font-size: 50px; margin: 0; text-align: center;\">+</p>","response":null,"trial_type":"html-keyboard-response","trial_index":62,"plugin_version":"2.1.0","time_elapsed":716159,"subject_id":"92518","group":"Group2","condition":"3_Rep","full_date":"2026-03-11T00:45:22.947Z","date":"2026-03-11","time":"00:45:22"},{"task":"memory_phase","broad_category":"I","image_png":"I_Rhyolite_10.png","image_id":154,"category_name":"Rhyolite","category":10,"distinct_rating":2.88,"distinct_type":"Bottom","rt":null,"stimulus":"Stimuli_Rocks480/I_Rhyolite_10.png","response":null,"trial_type":"image-keyboard-response","trial_index":63,"plugin_version":"2.1.0","time_elapsed":718744,"subject_id":"92518","group":"Group2","condition":"3_Rep","full_date":"2026-03-11T00:45:22.947Z","date":"2026-03-11","time":"00:45:22"},{"rt":null,"stimulus":"<p style=\"font-size: 50px; margin: 0; text-align: center;\">+</p>","response":null,"trial_type":"html-keyboard-response","trial_index":64,"plugin_version":"2.1.0","time_elapsed":719746,"subject_id":"92518","group":"Group2","condition":"3_Rep","full_date":"2026-03-11T00:45:22.947Z","date":"2026-03-11","time":"00:45:22"},{"task":"memory_phase","broad_category":"S","image_png":"S_Dolomite_01.png","image_id":385,"category_name":"Dolomite","category":25,"distinct_rating":1.43,"distinct_type":"Bottom","rt":null,"stimulus":"Stimuli_Rocks480/S_Dolomite_01.png","response":null,"trial_type":"image-keyboard-response","trial_index":65,"plugin_version":"2.1.0","time_elapsed":722320,"subject_id":"92518","group":"Group2","condition":"3_Rep","full_date":"2026-03-11T00:45:22.947Z","date":"2026-03-11","time":"00:45:22"},{"rt":null,"stimulus":"<p style=\"font-size: 50px; margin: 0; text-align: center;\">+</p>","response":null,"trial_type":"html-keyboard-response","trial_index":66,"plugin_version":"2.1.0","time_elapsed":723326,"subject_id":"92518","group":"Group2","condition":"3_Rep","full_date":"2026-03-11T00:45:22.947Z","date":"2026-03-11","time":"00:45:22"},{"task":"memory_phase","broad_category":"M","image_png":"M_Quartzite_12.png","image_id":284,"category_name":"Quartzite","category":18,"distinct_rating":1.92,"distinct_type":"Bottom","rt":null,"stimulus":"Stimuli_Rocks480/M_Quartzite_12.png","response":null,"trial_type":"image-keyboard-response","trial_index":67,"plugin_version":"2.1.0","time_elapsed":725881,"subject_id":"92518","group":"Group2","condition":"3_Rep","full_date":"2026-03-11T00:45:22.947Z","date":"2026-03-11","time":"00:45:22"},{"rt":null,"stimulus":"<p style=\"font-size: 50px; margin: 0; text-align: center;\">+</p>","response":null,"trial_type":"html-keyboard-response","trial_index":68,"plugin_version":"2.1.0","time_elapsed":726888,"subject_id":"92518","group":"Group2","condition":"3_Rep","full_date":"2026-03-11T00:45:22.947Z","date":"2026-03-11","time":"00:45:22"},{"task":"memory_phase","broad_category":"I","image_png":"I_Gabbro_14.png","image_id":62,"category_name":"Gabbro","category":4,"distinct_rating":2.95,"distinct_type":"Bottom","rt":null,"stimulus":"Stimuli_Rocks480/I_Gabbro_14.png","response":null,"trial_type":"image-keyboard-response","trial_index":69,"plugin_version":"2.1.0","time_elapsed":729478,"subject_id":"92518","group":"Group2","condition":"3_Rep","full_date":"2026-03-11T00:45:22.947Z","date":"2026-03-11","time":"00:45:22"},{"rt":null,"stimulus":"<p style=\"font-size: 50px; margin: 0; text-align: center;\">+</p>","response":null,"trial_type":"html-keyboard-response","trial_index":70,"plugin_version":"2.1.0","time_elapsed":730486,"subject_id":"92518","group":"Group2","condition":"3_Rep","full_date":"2026-03-11T00:45:22.947Z","date":"2026-03-11","time":"00:45:22"},{"task":"memory_phase","broad_category":"S","image_png":"S_Shale_07.png","image_id":471,"category_name":"Shale","category":30,"distinct_rating":2.73,"distinct_type":"Bottom","rt":null,"stimulus":"Stimuli_Rocks480/S_Shale_07.png","response":null,"trial_type":"image-keyboard-response","trial_index":71,"plugin_version":"2.1.0","time_elapsed":733048,"subject_id":"92518","group":"Group2","condition":"3_Rep","full_date":"2026-03-11T00:45:22.947Z","date":"2026-03-11","time":"00:45:22"},{"rt":null,"stimulus":"<p style=\"font-size: 50px; margin: 0; text-align: center;\">+</p>","response":null,"trial_type":"html-keyboard-response","trial_index":72,"plugin_version":"2.1.0","time_elapsed":734064,"subject_id":"92518","group":"Group2","condition":"3_Rep","full_date":"2026-03-11T00:45:22.947Z","date":"2026-03-11","time":"00:45:22"},{"task":"memory_phase","broad_category":"I","image_png":"I_Gabbro_02.png","image_id":50,"category_name":"Gabbro","category":4,"distinct_rating":2.73,"distinct_type":"Bottom","rt":null,"stimulus":"Stimuli_Rocks480/I_Gabbro_02.png","response":null,"trial_type":"image-keyboard-response","trial_index":73,"plugin_version":"2.1.0","time_elapsed":736629,"subject_id":"92518","group":"Group2","condition":"3_Rep","full_date":"2026-03-11T00:45:22.947Z","date":"2026-03-11","time":"00:45:22"},{"rt":null,"stimulus":"<p style=\"font-size: 50px; margin: 0; text-align: center;\">+</p>","response":null,"trial_type":"html-keyboard-response","trial_index":74,"plugin_version":"2.1.0","time_elapsed":737632,"subject_id":"92518","group":"Group2","condition":"3_Rep","full_date":"2026-03-11T00:45:22.947Z","date":"2026-03-11","time":"00:45:22"},{"task":"memory_phase","broad_category":"M","image_png":"M_Gneiss_15.png","image_id":207,"category_name":"Gneiss","category":13,"distinct_rating":3.11,"distinct_type":"Bottom","rt":null,"stimulus":"Stimuli_Rocks480/M_Gneiss_15.png","response":null,"trial_type":"image-keyboard-response","trial_index":75,"plugin_version":"2.1.0","time_elapsed":740187,"subject_id":"92518","group":"Group2","condition":"3_Rep","full_date":"2026-03-11T00:45:22.947Z","date":"2026-03-11","time":"00:45:22"},{"rt":null,"stimulus":"<p style=\"font-size: 50px; margin: 0; text-align: center;\">+</p>","response":null,"trial_type":"html-keyboard-response","trial_index":76,"plugin_version":"2.1.0","time_elapsed":741189,"subject_id":"92518","group":"Group2","condition":"3_Rep","full_date":"2026-03-11T00:45:22.947Z","date":"2026-03-11","time":"00:45:22"},{"task":"memory_phase","broad_category":"M","image_png":"M_Gneiss_14.png","image_id":206,"category_name":"Gneiss","category":13,"distinct_rating":3.41,"distinct_type":"Bottom","rt":null,"stimulus":"Stimuli_Rocks480/M_Gneiss_14.png","response":null,"trial_type":"image-keyboard-response","trial_index":77,"plugin_version":"2.1.0","time_elapsed":743749,"subject_id":"92518","group":"Group2","condition":"3_Rep","full_date":"2026-03-11T00:45:22.947Z","date":"2026-03-11","time":"00:45:22"},{"rt":null,"stimulus":"<p style=\"font-size: 50px; margin: 0; text-align: center;\">+</p>","response":null,"trial_type":"html-keyboard-response","trial_index":78,"plugin_version":"2.1.0","time_elapsed":744757,"subject_id":"92518","group":"Group2","condition":"3_Rep","full_date":"2026-03-11T00:45:22.947Z","date":"2026-03-11","time":"00:45:22"},{"task":"memory_phase","broad_category":"I","image_png":"I_Pumice_14.png","image_id":142,"category_name":"Pumice","category":9,"distinct_rating":3.22,"distinct_type":"Bottom","rt":null,"stimulus":"Stimuli_Rocks480/I_Pumice_14.png","response":null,"trial_type":"image-keyboard-response","trial_index":79,"plugin_version":"2.1.0","time_elapsed":747331,"subject_id":"92518","group":"Group2","condition":"3_Rep","full_date":"2026-03-11T00:45:22.947Z","date":"2026-03-11","time":"00:45:22"},{"rt":null,"stimulus":"<p style=\"font-size: 50px; margin: 0; text-align: center;\">+</p>","response":null,"trial_type":"html-keyboard-response","trial_index":80,"plugin_version":"2.1.0","time_elapsed":748340,"subject_id":"92518","group":"Group2","condition":"3_Rep","full_date":"2026-03-11T00:45:22.947Z","date":"2026-03-11","time":"00:45:22"},{"task":"memory_phase","broad_category":"S","image_png":"S_Sandstone_11.png","image_id":459,"category_name":"Sandstone","category":29,"distinct_rating":1.82,"distinct_type":"Bottom","rt":null,"stimulus":"Stimuli_Rocks480/S_Sandstone_11.png","response":null,"trial_type":"image-keyboard-response","trial_index":81,"plugin_version":"2.1.0","time_elapsed":750926,"subject_id":"92518","group":"Group2","condition":"3_Rep","full_date":"2026-03-11T00:45:22.947Z","date":"2026-03-11","time":"00:45:22"},{"rt":null,"stimulus":"<p style=\"font-size: 50px; margin: 0; text-align: center;\">+</p>","response":null,"trial_type":"html-keyboard-response","trial_index":82,"plugin_version":"2.1.0","time_elapsed":751932,"subject_id":"92518","group":"Group2","condition":"3_Rep","full_date":"2026-03-11T00:45:22.947Z","date":"2026-03-11","time":"00:45:22"},{"task":"memory_phase","broad_category":"S","image_png":"S_Chert_13.png","image_id":365,"category_name":"Chert","category":23,"distinct_rating":6.57,"distinct_type":"Top","rt":null,"stimulus":"Stimuli_Rocks480/S_Chert_13.png","response":null,"trial_type":"image-keyboard-response","trial_index":83,"plugin_version":"2.1.0","time_elapsed":754464,"subject_id":"92518","group":"Group2","condition":"3_Rep","full_date":"2026-03-11T00:45:22.947Z","date":"2026-03-11","time":"00:45:22"},{"rt":null,"stimulus":"<p style=\"font-size: 50px; margin: 0; text-align: center;\">+</p>","response":null,"trial_type":"html-keyboard-response","trial_index":84,"plugin_version":"2.1.0","time_elapsed":755485,"subject_id":"92518","group":"Group2","condition":"3_Rep","full_date":"2026-03-11T00:45:22.947Z","date":"2026-03-11","time":"00:45:22"},{"task":"memory_phase","broad_category":"I","image_png":"I_Diorite_10.png","image_id":42,"category_name":"Diorite","category":3,"distinct_rating":2.84,"distinct_type":"Bottom","rt":null,"stimulus":"Stimuli_Rocks480/I_Diorite_10.png","response":null,"trial_type":"image-keyboard-response","trial_index":85,"plugin_version":"2.1.0","time_elapsed":758052,"subject_id":"92518","group":"Group2","condition":"3_Rep","full_date":"2026-03-11T00:45:22.947Z","date":"2026-03-11","time":"00:45:22"},{"rt":null,"stimulus":"<p style=\"font-size: 50px; margin: 0; text-align: center;\">+</p>","response":null,"trial_type":"html-keyboard-response","trial_index":86,"plugin_version":"2.1.0","time_elapsed":759059,"subject_id":"92518","group":"Group2","condition":"3_Rep","full_date":"2026-03-11T00:45:22.947Z","date":"2026-03-11","time":"00:45:22"},{"task":"memory_phase","broad_category":"I","image_png":"I_Basalt_10.png","image_id":26,"category_name":"Basalt","category":2,"distinct_rating":2.76,"distinct_type":"Bottom","rt":null,"stimulus":"Stimuli_Rocks480/I_Basalt_10.png","response":null,"trial_type":"image-keyboard-response","trial_index":87,"plugin_version":"2.1.0","time_elapsed":761631,"subject_id":"92518","group":"Group2","condition":"3_Rep","full_date":"2026-03-11T00:45:22.947Z","date":"2026-03-11","time":"00:45:22"},{"rt":null,"stimulus":"<p style=\"font-size: 50px; margin: 0; text-align: center;\">+</p>","response":null,"trial_type":"html-keyboard-response","trial_index":88,"plugin_version":"2.1.0","time_elapsed":762639,"subject_id":"92518","group":"Group2","condition":"3_Rep","full_date":"2026-03-11T00:45:22.947Z","date":"2026-03-11","time":"00:45:22"},{"task":"memory_phase","broad_category":"S","image_png":"S_Sandstone_08.png","image_id":456,"category_name":"Sandstone","category":29,"distinct_rating":1.5,"distinct_type":"Bottom","rt":null,"stimulus":"Stimuli_Rocks480/S_Sandstone_08.png","response":null,"trial_type":"image-keyboard-response","trial_index":89,"plugin_version":"2.1.0","time_elapsed":765190,"subject_id":"92518","group":"Group2","condition":"3_Rep","full_date":"2026-03-11T00:45:22.947Z","date":"2026-03-11","time":"00:45:22"},{"rt":null,"stimulus":"<p style=\"font-size: 50px; margin: 0; text-align: center;\">+</p>","response":null,"trial_type":"html-keyboard-response","trial_index":90,"plugin_version":"2.1.0","time_elapsed":766198,"subject_id":"92518","group":"Group2","condition":"3_Rep","full_date":"2026-03-11T00:45:22.947Z","date":"2026-03-11","time":"00:45:22"},{"task":"memory_phase","broad_category":"S","image_png":"S_Shale_03.png","image_id":467,"category_name":"Shale","category":30,"distinct_rating":1.95,"distinct_type":"Bottom","rt":null,"stimulus":"Stimuli_Rocks480/S_Shale_03.png","response":null,"trial_type":"image-keyboard-response","trial_index":91,"plugin_version":"2.1.0","time_elapsed":768785,"subject_id":"92518","group":"Group2","condition":"3_Rep","full_date":"2026-03-11T00:45:22.947Z","date":"2026-03-11","time":"00:45:22"},{"rt":null,"stimulus":"<p style=\"font-size: 50px; margin: 0; text-align: center;\">+</p>","response":null,"trial_type":"html-keyboard-response","trial_index":92,"plugin_version":"2.1.0","time_elapsed":769790,"subject_id":"92518","group":"Group2","condition":"3_Rep","full_date":"2026-03-11T00:45:22.947Z","date":"2026-03-11","time":"00:45:22"},{"task":"memory_phase","broad_category":"S","image_png":"S_Dolomite_07.png","image_id":391,"category_name":"Dolomite","category":25,"distinct_rating":1.73,"distinct_type":"Bottom","rt":null,"stimulus":"Stimuli_Rocks480/S_Dolomite_07.png","response":null,"trial_type":"image-keyboard-response","trial_index":93,"plugin_version":"2.1.0","time_elapsed":772329,"subject_id":"92518","group":"Group2","condition":"3_Rep","full_date":"2026-03-11T00:45:22.947Z","date":"2026-03-11","time":"00:45:22"},{"rt":null,"stimulus":"<p style=\"font-size: 50px; margin: 0; text-align: center;\">+</p>","response":null,"trial_type":"html-keyboard-response","trial_index":94,"plugin_version":"2.1.0","time_elapsed":773332,"subject_id":"92518","group":"Group2","condition":"3_Rep","full_date":"2026-03-11T00:45:22.947Z","date":"2026-03-11","time":"00:45:22"},{"task":"memory_phase","broad_category":"I","image_png":"I_Pegmatite_03.png","image_id":99,"category_name":"Pegmatite","category":7,"distinct_rating":7.24,"distinct_type":"Top","rt":null,"stimulus":"Stimuli_Rocks480/I_Pegmatite_03.png","response":null,"trial_type":"image-keyboard-response","trial_index":95,"plugin_version":"2.1.0","time_elapsed":775892,"subject_id":"92518","group":"Group2","condition":"3_Rep","full_date":"2026-03-11T00:45:22.947Z","date":"2026-03-11","time":"00:45:22"},{"rt":null,"stimulus":"<p style=\"font-size: 50px; margin: 0; text-align: center;\">+</p>","response":null,"trial_type":"html-keyboard-response","trial_index":96,"plugin_version":"2.1.0","time_elapsed":776901,"subject_id":"92518","group":"Group2","condition":"3_Rep","full_date":"2026-03-11T00:45:22.947Z","date":"2026-03-11","time":"00:45:22"},{"task":"memory_phase","broad_category":"I","image_png":"I_Pumice_13.png","image_id":141,"category_name":"Pumice","category":9,"distinct_rating":3.12,"distinct_type":"Bottom","rt":null,"stimulus":"Stimuli_Rocks480/I_Pumice_13.png","response":null,"trial_type":"image-keyboard-response","trial_index":97,"plugin_version":"2.1.0","time_elapsed":779477,"subject_id":"92518","group":"Group2","condition":"3_Rep","full_date":"2026-03-11T00:45:22.947Z","date":"2026-03-11","time":"00:45:22"},{"rt":null,"stimulus":"<p style=\"font-size: 50px; margin: 0; text-align: center;\">+</p>","response":null,"trial_type":"html-keyboard-response","trial_index":98,"plugin_version":"2.1.0","time_elapsed":780484,"subject_id":"92518","group":"Group2","condition":"3_Rep","full_date":"2026-03-11T00:45:22.947Z","date":"2026-03-11","time":"00:45:22"},{"task":"memory_phase","broad_category":"M","image_png":"M_Phyllite_02.png","image_id":258,"category_name":"Phyllite","category":17,"distinct_rating":2.89,"distinct_type":"Bottom","rt":null,"stimulus":"Stimuli_Rocks480/M_Phyllite_02.png","response":null,"trial_type":"image-keyboard-response","trial_index":99,"plugin_version":"2.1.0","time_elapsed":783059,"subject_id":"92518","group":"Group2","condition":"3_Rep","full_date":"2026-03-11T00:45:22.947Z","date":"2026-03-11","time":"00:45:22"},{"rt":null,"stimulus":"<p style=\"font-size: 50px; margin: 0; text-align: center;\">+</p>","response":null,"trial_type":"html-keyboard-response","trial_index":100,"plugin_version":"2.1.0","time_elapsed":784065,"subject_id":"92518","group":"Group2","condition":"3_Rep","full_date":"2026-03-11T00:45:22.947Z","date":"2026-03-11","time":"00:45:22"},{"task":"memory_phase","broad_category":"I","image_png":"I_Pumice_01.png","image_id":129,"category_name":"Pumice","category":9,"distinct_rating":3.25,"distinct_type":"Bottom","rt":null,"stimulus":"Stimuli_Rocks480/I_Pumice_01.png","response":null,"trial_type":"image-keyboard-response","trial_index":101,"plugin_version":"2.1.0","time_elapsed":786715,"subject_id":"92518","group":"Group2","condition":"3_Rep","full_date":"2026-03-11T00:45:22.947Z","date":"2026-03-11","time":"00:45:22"},{"rt":null,"stimulus":"<p style=\"font-size: 50px; margin: 0; text-align: center;\">+</p>","response":null,"trial_type":"html-keyboard-response","trial_index":102,"plugin_version":"2.1.0","time_elapsed":787737,"subject_id":"92518","group":"Group2","condition":"3_Rep","full_date":"2026-03-11T00:45:22.947Z","date":"2026-03-11","time":"00:45:22"},{"task":"memory_phase","broad_category":"I","image_png":"I_Pegmatite_11.png","image_id":107,"category_name":"Pegmatite","category":7,"distinct_rating":7.11,"distinct_type":"Top","rt":null,"stimulus":"Stimuli_Rocks480/I_Pegmatite_11.png","response":null,"trial_type":"image-keyboard-response","trial_index":103,"plugin_version":"2.1.0","time_elapsed":790325,"subject_id":"92518","group":"Group2","condition":"3_Rep","full_date":"2026-03-11T00:45:22.947Z","date":"2026-03-11","time":"00:45:22"},{"rt":null,"stimulus":"<p style=\"font-size: 50px; margin: 0; text-align: center;\">+</p>","response":null,"trial_type":"html-keyboard-response","trial_index":104,"plugin_version":"2.1.0","time_elapsed":791331,"subject_id":"92518","group":"Group2","condition":"3_Rep","full_date":"2026-03-11T00:45:22.947Z","date":"2026-03-11","time":"00:45:22"},{"task":"memory_phase","broad_category":"I","image_png":"I_Diorite_01.png","image_id":33,"category_name":"Diorite","category":3,"distinct_rating":2.97,"distinct_type":"Bottom","rt":null,"stimulus":"Stimuli_Rocks480/I_Diorite_01.png","response":null,"trial_type":"image-keyboard-response","trial_index":105,"plugin_version":"2.1.0","time_elapsed":793909,"subject_id":"92518","group":"Group2","condition":"3_Rep","full_date":"2026-03-11T00:45:22.947Z","date":"2026-03-11","time":"00:45:22"},{"rt":4073,"stimulus":"<p style=\"max-width: 760px; margin: auto; font-size: 35px; line-height: 1.5;\">\n                You have completed 1 study phase. \n                Now, we'll show you all the images again 2 more times.\n                <br><br>Press SPACE to continue\n              </p>","response":" ","trial_type":"html-keyboard-response","trial_index":106,"plugin_version":"2.1.0","time_elapsed":797985,"subject_id":"92518","group":"Group2","condition":"3_Rep","full_date":"2026-03-11T00:45:22.947Z","date":"2026-03-11","time":"00:45:22"},{"rt":null,"stimulus":"<p style=\"font-size: 50px; margin: 0; text-align: center;\">+</p>","response":null,"trial_type":"html-keyboard-response","trial_index":107,"plugin_version":"2.1.0","time_elapsed":798989,"subject_id":"92518","group":"Group2","condition":"3_Rep","full_date":"2026-03-11T00:45:22.947Z","date":"2026-03-11","time":"00:45:22"},{"task":"memory_phase","broad_category":"S","image_png":"S_Conglomerate_14.png","image_id":382,"category_name":"Conglomerate","category":24,"distinct_rating":6.86,"distinct_type":"Top","rt":null,"stimulus":"Stimuli_Rocks480/S_Conglomerate_14.png","response":null,"trial_type":"image-keyboard-response","trial_index":108,"plugin_version":"2.1.0","time_elapsed":801559,"subject_id":"92518","group":"Group2","condition":"3_Rep","full_date":"2026-03-11T00:45:22.947Z","date":"2026-03-11","time":"00:45:22"},{"rt":null,"stimulus":"<p style=\"font-size: 50px; margin: 0; text-align: center;\">+</p>","response":null,"trial_type":"html-keyboard-response","trial_index":109,"plugin_version":"2.1.0","time_elapsed":802568,"subject_id":"92518","group":"Group2","condition":"3_Rep","full_date":"2026-03-11T00:45:22.947Z","date":"2026-03-11","time":"00:45:22"},{"task":"memory_phase","broad_category":"I","image_png":"I_Basalt_08.png","image_id":24,"category_name":"Basalt","category":2,"distinct_rating":2.31,"distinct_type":"Bottom","rt":null,"stimulus":"Stimuli_Rocks480/I_Basalt_08.png","response":null,"trial_type":"image-keyboard-response","trial_index":110,"plugin_version":"2.1.0","time_elapsed":805170,"subject_id":"92518","group":"Group2","condition":"3_Rep","full_date":"2026-03-11T00:45:22.947Z","date":"2026-03-11","time":"00:45:22"},{"rt":null,"stimulus":"<p style=\"font-size: 50px; margin: 0; text-align: center;\">+</p>","response":null,"trial_type":"html-keyboard-response","trial_index":111,"plugin_version":"2.1.0","time_elapsed":806174,"subject_id":"92518","group":"Group2","condition":"3_Rep","full_date":"2026-03-11T00:45:22.947Z","date":"2026-03-11","time":"00:45:22"},{"task":"memory_phase","broad_category":"M","image_png":"M_Slate_10.png","image_id":314,"category_name":"Slate","category":20,"distinct_rating":1.94,"distinct_type":"Bottom","rt":null,"stimulus":"Stimuli_Rocks480/M_Slate_10.png","response":null,"trial_type":"image-keyboard-response","trial_index":112,"plugin_version":"2.1.0","time_elapsed":808717,"subject_id":"92518","group":"Group2","condition":"3_Rep","full_date":"2026-03-11T00:45:22.947Z","date":"2026-03-11","time":"00:45:22"},{"rt":null,"stimulus":"<p style=\"font-size: 50px; margin: 0; text-align: center;\">+</p>","response":null,"trial_type":"html-keyboard-response","trial_index":113,"plugin_version":"2.1.0","time_elapsed":809723,"subject_id":"92518","group":"Group2","condition":"3_Rep","full_date":"2026-03-11T00:45:22.947Z","date":"2026-03-11","time":"00:45:22"},{"task":"memory_phase","broad_category":"I","image_png":"I_Pegmatite_03.png","image_id":99,"category_name":"Pegmatite","category":7,"distinct_rating":7.24,"distinct_type":"Top","rt":null,"stimulus":"Stimuli_Rocks480/I_Pegmatite_03.png","response":null,"trial_type":"image-keyboard-response","trial_index":114,"plugin_version":"2.1.0","time_elapsed":812264,"subject_id":"92518","group":"Group2","condition":"3_Rep","full_date":"2026-03-11T00:45:22.947Z","date":"2026-03-11","time":"00:45:22"},{"rt":null,"stimulus":"<p style=\"font-size: 50px; margin: 0; text-align: center;\">+</p>","response":null,"trial_type":"html-keyboard-response","trial_index":115,"plugin_version":"2.1.0","time_elapsed":813272,"subject_id":"92518","group":"Group2","condition":"3_Rep","full_date":"2026-03-11T00:45:22.947Z","date":"2026-03-11","time":"00:45:22"},{"task":"memory_phase","broad_category":"S","image_png":"S_Shale_03.png","image_id":467,"category_name":"Shale","category":30,"distinct_rating":1.95,"distinct_type":"Bottom","rt":null,"stimulus":"Stimuli_Rocks480/S_Shale_03.png","response":null,"trial_type":"image-keyboard-response","trial_index":116,"plugin_version":"2.1.0","time_elapsed":815787,"subject_id":"92518","group":"Group2","condition":"3_Rep","full_date":"2026-03-11T00:45:22.947Z","date":"2026-03-11","time":"00:45:22"},{"rt":null,"stimulus":"<p style=\"font-size: 50px; margin: 0; text-align: center;\">+</p>","response":null,"trial_type":"html-keyboard-response","trial_index":117,"plugin_version":"2.1.0","time_elapsed":816794,"subject_id":"92518","group":"Group2","condition":"3_Rep","full_date":"2026-03-11T00:45:22.947Z","date":"2026-03-11","time":"00:45:22"},{"task":"memory_phase","broad_category":"I","image_png":"I_Pumice_13.png","image_id":141,"category_name":"Pumice","category":9,"distinct_rating":3.12,"distinct_type":"Bottom","rt":null,"stimulus":"Stimuli_Rocks480/I_Pumice_13.png","response":null,"trial_type":"image-keyboard-response","trial_index":118,"plugin_version":"2.1.0","time_elapsed":819299,"subject_id":"92518","group":"Group2","condition":"3_Rep","full_date":"2026-03-11T00:45:22.947Z","date":"2026-03-11","time":"00:45:22"},{"rt":null,"stimulus":"<p style=\"font-size: 50px; margin: 0; text-align: center;\">+</p>","response":null,"trial_type":"html-keyboard-response","trial_index":119,"plugin_version":"2.1.0","time_elapsed":820307,"subject_id":"92518","group":"Group2","condition":"3_Rep","full_date":"2026-03-11T00:45:22.947Z","date":"2026-03-11","time":"00:45:22"},{"task":"memory_phase","broad_category":"S","image_png":"S_Dolomite_16.png","image_id":400,"category_name":"Dolomite","category":25,"distinct_rating":1.71,"distinct_type":"Bottom","rt":null,"stimulus":"Stimuli_Rocks480/S_Dolomite_16.png","response":null,"trial_type":"image-keyboard-response","trial_index":120,"plugin_version":"2.1.0","time_elapsed":822846,"subject_id":"92518","group":"Group2","condition":"3_Rep","full_date":"2026-03-11T00:45:22.947Z","date":"2026-03-11","time":"00:45:22"},{"rt":null,"stimulus":"<p style=\"font-size: 50px; margin: 0; text-align: center;\">+</p>","response":null,"trial_type":"html-keyboard-response","trial_index":121,"plugin_version":"2.1.0","time_elapsed":823851,"subject_id":"92518","group":"Group2","condition":"3_Rep","full_date":"2026-03-11T00:45:22.947Z","date":"2026-03-11","time":"00:45:22"},{"task":"memory_phase","broad_category":"I","image_png":"I_Gabbro_14.png","image_id":62,"category_name":"Gabbro","category":4,"distinct_rating":2.95,"distinct_type":"Bottom","rt":null,"stimulus":"Stimuli_Rocks480/I_Gabbro_14.png","response":null,"trial_type":"image-keyboard-response","trial_index":122,"plugin_version":"2.1.0","time_elapsed":826365,"subject_id":"92518","group":"Group2","condition":"3_Rep","full_date":"2026-03-11T00:45:22.947Z","date":"2026-03-11","time":"00:45:22"},{"rt":null,"stimulus":"<p style=\"font-size: 50px; margin: 0; text-align: center;\">+</p>","response":null,"trial_type":"html-keyboard-response","trial_index":123,"plugin_version":"2.1.0","time_elapsed":827402,"subject_id":"92518","group":"Group2","condition":"3_Rep","full_date":"2026-03-11T00:45:22.947Z","date":"2026-03-11","time":"00:45:22"},{"task":"memory_phase","broad_category":"I","image_png":"I_Diorite_01.png","image_id":33,"category_name":"Diorite","category":3,"distinct_rating":2.97,"distinct_type":"Bottom","rt":null,"stimulus":"Stimuli_Rocks480/I_Diorite_01.png","response":null,"trial_type":"image-keyboard-response","trial_index":124,"plugin_version":"2.1.0","time_elapsed":829905,"subject_id":"92518","group":"Group2","condition":"3_Rep","full_date":"2026-03-11T00:45:22.947Z","date":"2026-03-11","time":"00:45:22"},{"rt":null,"stimulus":"<p style=\"font-size: 50px; margin: 0; text-align: center;\">+</p>","response":null,"trial_type":"html-keyboard-response","trial_index":125,"plugin_version":"2.1.0","time_elapsed":830912,"subject_id":"92518","group":"Group2","condition":"3_Rep","full_date":"2026-03-11T00:45:22.947Z","date":"2026-03-11","time":"00:45:22"},{"task":"memory_phase","broad_category":"S","image_png":"S_Rock Salt_13.png","image_id":445,"category_name":"Rock Salt","category":28,"distinct_rating":7.58,"distinct_type":"Top","rt":null,"stimulus":"Stimuli_Rocks480/S_Rock Salt_13.png","response":null,"trial_type":"image-keyboard-response","trial_index":126,"plugin_version":"2.1.0","time_elapsed":833469,"subject_id":"92518","group":"Group2","condition":"3_Rep","full_date":"2026-03-11T00:45:22.947Z","date":"2026-03-11","time":"00:45:22"},{"rt":null,"stimulus":"<p style=\"font-size: 50px; margin: 0; text-align: center;\">+</p>","response":null,"trial_type":"html-keyboard-response","trial_index":127,"plugin_version":"2.1.0","time_elapsed":834473,"subject_id":"92518","group":"Group2","condition":"3_Rep","full_date":"2026-03-11T00:45:22.947Z","date":"2026-03-11","time":"00:45:22"},{"task":"memory_phase","broad_category":"S","image_png":"S_Rock Salt_15.png","image_id":447,"category_name":"Rock Salt","category":28,"distinct_rating":7.79,"distinct_type":"Top","rt":null,"stimulus":"Stimuli_Rocks480/S_Rock Salt_15.png","response":null,"trial_type":"image-keyboard-response","trial_index":128,"plugin_version":"2.1.0","time_elapsed":837018,"subject_id":"92518","group":"Group2","condition":"3_Rep","full_date":"2026-03-11T00:45:22.947Z","date":"2026-03-11","time":"00:45:22"},{"rt":null,"stimulus":"<p style=\"font-size: 50px; margin: 0; text-align: center;\">+</p>","response":null,"trial_type":"html-keyboard-response","trial_index":129,"plugin_version":"2.1.0","time_elapsed":838022,"subject_id":"92518","group":"Group2","condition":"3_Rep","full_date":"2026-03-11T00:45:22.947Z","date":"2026-03-11","time":"00:45:22"},{"task":"memory_phase","broad_category":"I","image_png":"I_Rhyolite_05.png","image_id":149,"category_name":"Rhyolite","category":10,"distinct_rating":3.02,"distinct_type":"Bottom","rt":null,"stimulus":"Stimuli_Rocks480/I_Rhyolite_05.png","response":null,"trial_type":"image-keyboard-response","trial_index":130,"plugin_version":"2.1.0","time_elapsed":840596,"subject_id":"92518","group":"Group2","condition":"3_Rep","full_date":"2026-03-11T00:45:22.947Z","date":"2026-03-11","time":"00:45:22"},{"rt":null,"stimulus":"<p style=\"font-size: 50px; margin: 0; text-align: center;\">+</p>","response":null,"trial_type":"html-keyboard-response","trial_index":131,"plugin_version":"2.1.0","time_elapsed":841603,"subject_id":"92518","group":"Group2","condition":"3_Rep","full_date":"2026-03-11T00:45:22.947Z","date":"2026-03-11","time":"00:45:22"},{"task":"memory_phase","broad_category":"I","image_png":"I_Diorite_15.png","image_id":47,"category_name":"Diorite","category":3,"distinct_rating":3.05,"distinct_type":"Bottom","rt":null,"stimulus":"Stimuli_Rocks480/I_Diorite_15.png","response":null,"trial_type":"image-keyboard-response","trial_index":132,"plugin_version":"2.1.0","time_elapsed":844160,"subject_id":"92518","group":"Group2","condition":"3_Rep","full_date":"2026-03-11T00:45:22.947Z","date":"2026-03-11","time":"00:45:22"},{"rt":null,"stimulus":"<p style=\"font-size: 50px; margin: 0; text-align: center;\">+</p>","response":null,"trial_type":"html-keyboard-response","trial_index":133,"plugin_version":"2.1.0","time_elapsed":845165,"subject_id":"92518","group":"Group2","condition":"3_Rep","full_date":"2026-03-11T00:45:22.947Z","date":"2026-03-11","time":"00:45:22"},{"task":"memory_phase","broad_category":"I","image_png":"I_Andesite_04.png","image_id":4,"category_name":"Andesite","category":1,"distinct_rating":3.18,"distinct_type":"Bottom","rt":null,"stimulus":"Stimuli_Rocks480/I_Andesite_04.png","response":null,"trial_type":"image-keyboard-response","trial_index":134,"plugin_version":"2.1.0","time_elapsed":847739,"subject_id":"92518","group":"Group2","condition":"3_Rep","full_date":"2026-03-11T00:45:22.947Z","date":"2026-03-11","time":"00:45:22"},{"rt":null,"stimulus":"<p style=\"font-size: 50px; margin: 0; text-align: center;\">+</p>","response":null,"trial_type":"html-keyboard-response","trial_index":135,"plugin_version":"2.1.0","time_elapsed":848750,"subject_id":"92518","group":"Group2","condition":"3_Rep","full_date":"2026-03-11T00:45:22.947Z","date":"2026-03-11","time":"00:45:22"},{"task":"memory_phase","broad_category":"I","image_png":"I_Andesite_03.png","image_id":3,"category_name":"Andesite","category":1,"distinct_rating":3.17,"distinct_type":"Bottom","rt":null,"stimulus":"Stimuli_Rocks480/I_Andesite_03.png","response":null,"trial_type":"image-keyboard-response","trial_index":136,"plugin_version":"2.1.0","time_elapsed":851318,"subject_id":"92518","group":"Group2","condition":"3_Rep","full_date":"2026-03-11T00:45:22.947Z","date":"2026-03-11","time":"00:45:22"},{"rt":null,"stimulus":"<p style=\"font-size: 50px; margin: 0; text-align: center;\">+</p>","response":null,"trial_type":"html-keyboard-response","trial_index":137,"plugin_version":"2.1.0","time_elapsed":852327,"subject_id":"92518","group":"Group2","condition":"3_Rep","full_date":"2026-03-11T00:45:22.947Z","date":"2026-03-11","time":"00:45:22"},{"task":"memory_phase","broad_category":"M","image_png":"M_Gneiss_15.png","image_id":207,"category_name":"Gneiss","category":13,"distinct_rating":3.11,"distinct_type":"Bottom","rt":null,"stimulus":"Stimuli_Rocks480/M_Gneiss_15.png","response":null,"trial_type":"image-keyboard-response","trial_index":138,"plugin_version":"2.1.0","time_elapsed":854883,"subject_id":"92518","group":"Group2","condition":"3_Rep","full_date":"2026-03-11T00:45:22.947Z","date":"2026-03-11","time":"00:45:22"},{"rt":null,"stimulus":"<p style=\"font-size: 50px; margin: 0; text-align: center;\">+</p>","response":null,"trial_type":"html-keyboard-response","trial_index":139,"plugin_version":"2.1.0","time_elapsed":855888,"subject_id":"92518","group":"Group2","condition":"3_Rep","full_date":"2026-03-11T00:45:22.947Z","date":"2026-03-11","time":"00:45:22"},{"task":"memory_phase","broad_category":"I","image_png":"I_Pegmatite_11.png","image_id":107,"category_name":"Pegmatite","category":7,"distinct_rating":7.11,"distinct_type":"Top","rt":null,"stimulus":"Stimuli_Rocks480/I_Pegmatite_11.png","response":null,"trial_type":"image-keyboard-response","trial_index":140,"plugin_version":"2.1.0","time_elapsed":858393,"subject_id":"92518","group":"Group2","condition":"3_Rep","full_date":"2026-03-11T00:45:22.947Z","date":"2026-03-11","time":"00:45:22"},{"rt":null,"stimulus":"<p style=\"font-size: 50px; margin: 0; text-align: center;\">+</p>","response":null,"trial_type":"html-keyboard-response","trial_index":141,"plugin_version":"2.1.0","time_elapsed":859396,"subject_id":"92518","group":"Group2","condition":"3_Rep","full_date":"2026-03-11T00:45:22.947Z","date":"2026-03-11","time":"00:45:22"},{"task":"memory_phase","broad_category":"M","image_png":"M_Slate_04.png","image_id":308,"category_name":"Slate","category":20,"distinct_rating":2.2,"distinct_type":"Bottom","rt":null,"stimulus":"Stimuli_Rocks480/M_Slate_04.png","response":null,"trial_type":"image-keyboard-response","trial_index":142,"plugin_version":"2.1.0","time_elapsed":861954,"subject_id":"92518","group":"Group2","condition":"3_Rep","full_date":"2026-03-11T00:45:22.947Z","date":"2026-03-11","time":"00:45:22"},{"rt":null,"stimulus":"<p style=\"font-size: 50px; margin: 0; text-align: center;\">+</p>","response":null,"trial_type":"html-keyboard-response","trial_index":143,"plugin_version":"2.1.0","time_elapsed":862965,"subject_id":"92518","group":"Group2","condition":"3_Rep","full_date":"2026-03-11T00:45:22.947Z","date":"2026-03-11","time":"00:45:22"},{"task":"memory_phase","broad_category":"S","image_png":"S_Chert_13.png","image_id":365,"category_name":"Chert","category":23,"distinct_rating":6.57,"distinct_type":"Top","rt":null,"stimulus":"Stimuli_Rocks480/S_Chert_13.png","response":null,"trial_type":"image-keyboard-response","trial_index":144,"plugin_version":"2.1.0","time_elapsed":865505,"subject_id":"92518","group":"Group2","condition":"3_Rep","full_date":"2026-03-11T00:45:22.947Z","date":"2026-03-11","time":"00:45:22"},{"rt":null,"stimulus":"<p style=\"font-size: 50px; margin: 0; text-align: center;\">+</p>","response":null,"trial_type":"html-keyboard-response","trial_index":145,"plugin_version":"2.1.0","time_elapsed":866509,"subject_id":"92518","group":"Group2","condition":"3_Rep","full_date":"2026-03-11T00:45:22.947Z","date":"2026-03-11","time":"00:45:22"},{"task":"memory_phase","broad_category":"M","image_png":"M_Gneiss_14.png","image_id":206,"category_name":"Gneiss","category":13,"distinct_rating":3.41,"distinct_type":"Bottom","rt":null,"stimulus":"Stimuli_Rocks480/M_Gneiss_14.png","response":null,"trial_type":"image-keyboard-response","trial_index":146,"plugin_version":"2.1.0","time_elapsed":869067,"subject_id":"92518","group":"Group2","condition":"3_Rep","full_date":"2026-03-11T00:45:22.947Z","date":"2026-03-11","time":"00:45:22"},{"rt":null,"stimulus":"<p style=\"font-size: 50px; margin: 0; text-align: center;\">+</p>","response":null,"trial_type":"html-keyboard-response","trial_index":147,"plugin_version":"2.1.0","time_elapsed":870073,"subject_id":"92518","group":"Group2","condition":"3_Rep","full_date":"2026-03-11T00:45:22.947Z","date":"2026-03-11","time":"00:45:22"},{"task":"memory_phase","broad_category":"I","image_png":"I_Rhyolite_08.png","image_id":152,"category_name":"Rhyolite","category":10,"distinct_rating":1.38,"distinct_type":"Bottom","rt":null,"stimulus":"Stimuli_Rocks480/I_Rhyolite_08.png","response":null,"trial_type":"image-keyboard-response","trial_index":148,"plugin_version":"2.1.0","time_elapsed":872644,"subject_id":"92518","group":"Group2","condition":"3_Rep","full_date":"2026-03-11T00:45:22.947Z","date":"2026-03-11","time":"00:45:22"},{"rt":null,"stimulus":"<p style=\"font-size: 50px; margin: 0; text-align: center;\">+</p>","response":null,"trial_type":"html-keyboard-response","trial_index":149,"plugin_version":"2.1.0","time_elapsed":873647,"subject_id":"92518","group":"Group2","condition":"3_Rep","full_date":"2026-03-11T00:45:22.947Z","date":"2026-03-11","time":"00:45:22"},{"task":"memory_phase","broad_category":"I","image_png":"I_Basalt_13.png","image_id":29,"category_name":"Basalt","category":2,"distinct_rating":2.68,"distinct_type":"Bottom","rt":null,"stimulus":"Stimuli_Rocks480/I_Basalt_13.png","response":null,"trial_type":"image-keyboard-response","trial_index":150,"plugin_version":"2.1.0","time_elapsed":876223,"subject_id":"92518","group":"Group2","condition":"3_Rep","full_date":"2026-03-11T00:45:22.947Z","date":"2026-03-11","time":"00:45:22"},{"rt":null,"stimulus":"<p style=\"font-size: 50px; margin: 0; text-align: center;\">+</p>","response":null,"trial_type":"html-keyboard-response","trial_index":151,"plugin_version":"2.1.0","time_elapsed":877234,"subject_id":"92518","group":"Group2","condition":"3_Rep","full_date":"2026-03-11T00:45:22.947Z","date":"2026-03-11","time":"00:45:22"},{"task":"memory_phase","broad_category":"M","image_png":"M_Marble_14.png","image_id":238,"category_name":"Marble","category":15,"distinct_rating":3.31,"distinct_type":"Bottom","rt":null,"stimulus":"Stimuli_Rocks480/M_Marble_14.png","response":null,"trial_type":"image-keyboard-response","trial_index":152,"plugin_version":"2.1.0","time_elapsed":879784,"subject_id":"92518","group":"Group2","condition":"3_Rep","full_date":"2026-03-11T00:45:22.947Z","date":"2026-03-11","time":"00:45:22"},{"rt":null,"stimulus":"<p style=\"font-size: 50px; margin: 0; text-align: center;\">+</p>","response":null,"trial_type":"html-keyboard-response","trial_index":153,"plugin_version":"2.1.0","time_elapsed":880794,"subject_id":"92518","group":"Group2","condition":"3_Rep","full_date":"2026-03-11T00:45:22.947Z","date":"2026-03-11","time":"00:45:22"},{"task":"memory_phase","broad_category":"I","image_png":"I_Basalt_10.png","image_id":26,"category_name":"Basalt","category":2,"distinct_rating":2.76,"distinct_type":"Bottom","rt":null,"stimulus":"Stimuli_Rocks480/I_Basalt_10.png","response":null,"trial_type":"image-keyboard-response","trial_index":154,"plugin_version":"2.1.0","time_elapsed":883362,"subject_id":"92518","group":"Group2","condition":"3_Rep","full_date":"2026-03-11T00:45:22.947Z","date":"2026-03-11","time":"00:45:22"},{"rt":null,"stimulus":"<p style=\"font-size: 50px; margin: 0; text-align: center;\">+</p>","response":null,"trial_type":"html-keyboard-response","trial_index":155,"plugin_version":"2.1.0","time_elapsed":884371,"subject_id":"92518","group":"Group2","condition":"3_Rep","full_date":"2026-03-11T00:45:22.947Z","date":"2026-03-11","time":"00:45:22"},{"task":"memory_phase","broad_category":"I","image_png":"I_Peridotite_13.png","image_id":125,"category_name":"Peridotite","category":8,"distinct_rating":7.28,"distinct_type":"Top","rt":null,"stimulus":"Stimuli_Rocks480/I_Peridotite_13.png","response":null,"trial_type":"image-keyboard-response","trial_index":156,"plugin_version":"2.1.0","time_elapsed":886940,"subject_id":"92518","group":"Group2","condition":"3_Rep","full_date":"2026-03-11T00:45:22.947Z","date":"2026-03-11","time":"00:45:22"},{"rt":92361,"stimulus":"<p style=\"max-width: 760px; margin: auto; font-size: 35px; line-height: 1.5;\">\n                Press SPACE to continue study phase\n              </p>","response":" ","trial_type":"html-keyboard-response","trial_index":157,"plugin_version":"2.1.0","time_elapsed":979302,"subject_id":"92518","group":"Group2","condition":"3_Rep","full_date":"2026-03-11T00:45:22.947Z","date":"2026-03-11","time":"00:45:22"},{"rt":null,"stimulus":"<p style=\"font-size: 50px; margin: 0; text-align: center;\">+</p>","response":null,"trial_type":"html-keyboard-response","trial_index":158,"plugin_version":"2.1.0","time_elapsed":980315,"subject_id":"92518","group":"Group2","condition":"3_Rep","full_date":"2026-03-11T00:45:22.947Z","date":"2026-03-11","time":"00:45:22"},{"task":"memory_phase","broad_category":"M","image_png":"M_Slate_14.png","image_id":318,"category_name":"Slate","category":20,"distinct_rating":2.58,"distinct_type":"Bottom","rt":null,"stimulus":"Stimuli_Rocks480/M_Slate_14.png","response":null,"trial_type":"image-keyboard-response","trial_index":159,"plugin_version":"2.1.0","time_elapsed":982857,"subject_id":"92518","group":"Group2","condition":"3_Rep","full_date":"2026-03-11T00:45:22.947Z","date":"2026-03-11","time":"00:45:22"},{"rt":null,"stimulus":"<p style=\"font-size: 50px; margin: 0; text-align: center;\">+</p>","response":null,"trial_type":"html-keyboard-response","trial_index":160,"plugin_version":"2.1.0","time_elapsed":983862,"subject_id":"92518","group":"Group2","condition":"3_Rep","full_date":"2026-03-11T00:45:22.947Z","date":"2026-03-11","time":"00:45:22"},{"task":"memory_phase","broad_category":"M","image_png":"M_Marble_03.png","image_id":227,"category_name":"Marble","category":15,"distinct_rating":2.67,"distinct_type":"Bottom","rt":null,"stimulus":"Stimuli_Rocks480/M_Marble_03.png","response":null,"trial_type":"image-keyboard-response","trial_index":161,"plugin_version":"2.1.0","time_elapsed":986437,"subject_id":"92518","group":"Group2","condition":"3_Rep","full_date":"2026-03-11T00:45:22.947Z","date":"2026-03-11","time":"00:45:22"},{"rt":null,"stimulus":"<p style=\"font-size: 50px; margin: 0; text-align: center;\">+</p>","response":null,"trial_type":"html-keyboard-response","trial_index":162,"plugin_version":"2.1.0","time_elapsed":987443,"subject_id":"92518","group":"Group2","condition":"3_Rep","full_date":"2026-03-11T00:45:22.947Z","date":"2026-03-11","time":"00:45:22"},{"task":"memory_phase","broad_category":"S","image_png":"S_Sandstone_11.png","image_id":459,"category_name":"Sandstone","category":29,"distinct_rating":1.82,"distinct_type":"Bottom","rt":null,"stimulus":"Stimuli_Rocks480/S_Sandstone_11.png","response":null,"trial_type":"image-keyboard-response","trial_index":163,"plugin_version":"2.1.0","time_elapsed":990047,"subject_id":"92518","group":"Group2","condition":"3_Rep","full_date":"2026-03-11T00:45:22.947Z","date":"2026-03-11","time":"00:45:22"},{"rt":null,"stimulus":"<p style=\"font-size: 50px; margin: 0; text-align: center;\">+</p>","response":null,"trial_type":"html-keyboard-response","trial_index":164,"plugin_version":"2.1.0","time_elapsed":991049,"subject_id":"92518","group":"Group2","condition":"3_Rep","full_date":"2026-03-11T00:45:22.947Z","date":"2026-03-11","time":"00:45:22"},{"task":"memory_phase","broad_category":"M","image_png":"M_Phyllite_02.png","image_id":258,"category_name":"Phyllite","category":17,"distinct_rating":2.89,"distinct_type":"Bottom","rt":null,"stimulus":"Stimuli_Rocks480/M_Phyllite_02.png","response":null,"trial_type":"image-keyboard-response","trial_index":165,"plugin_version":"2.1.0","time_elapsed":993622,"subject_id":"92518","group":"Group2","condition":"3_Rep","full_date":"2026-03-11T00:45:22.947Z","date":"2026-03-11","time":"00:45:22"},{"rt":null,"stimulus":"<p style=\"font-size: 50px; margin: 0; text-align: center;\">+</p>","response":null,"trial_type":"html-keyboard-response","trial_index":166,"plugin_version":"2.1.0","time_elapsed":994627,"subject_id":"92518","group":"Group2","condition":"3_Rep","full_date":"2026-03-11T00:45:22.947Z","date":"2026-03-11","time":"00:45:22"},{"task":"memory_phase","broad_category":"I","image_png":"I_Obsidian_06.png","image_id":86,"category_name":"Obsidian","category":6,"distinct_rating":8.01,"distinct_type":"Top","rt":null,"stimulus":"Stimuli_Rocks480/I_Obsidian_06.png","response":null,"trial_type":"image-keyboard-response","trial_index":167,"plugin_version":"2.1.0","time_elapsed":997188,"subject_id":"92518","group":"Group2","condition":"3_Rep","full_date":"2026-03-11T00:45:22.947Z","date":"2026-03-11","time":"00:45:22"},{"rt":null,"stimulus":"<p style=\"font-size: 50px; margin: 0; text-align: center;\">+</p>","response":null,"trial_type":"html-keyboard-response","trial_index":168,"plugin_version":"2.1.0","time_elapsed":998205,"subject_id":"92518","group":"Group2","condition":"3_Rep","full_date":"2026-03-11T00:45:22.947Z","date":"2026-03-11","time":"00:45:22"},{"task":"memory_phase","broad_category":"M","image_png":"M_Phyllite_13.png","image_id":269,"category_name":"Phyllite","category":17,"distinct_rating":2.8,"distinct_type":"Bottom","rt":null,"stimulus":"Stimuli_Rocks480/M_Phyllite_13.png","response":null,"trial_type":"image-keyboard-response","trial_index":169,"plugin_version":"2.1.0","time_elapsed":1000751,"subject_id":"92518","group":"Group2","condition":"3_Rep","full_date":"2026-03-11T00:45:22.947Z","date":"2026-03-11","time":"00:45:22"},{"rt":null,"stimulus":"<p style=\"font-size: 50px; margin: 0; text-align: center;\">+</p>","response":null,"trial_type":"html-keyboard-response","trial_index":170,"plugin_version":"2.1.0","time_elapsed":1001759,"subject_id":"92518","group":"Group2","condition":"3_Rep","full_date":"2026-03-11T00:45:22.947Z","date":"2026-03-11","time":"00:45:22"},{"task":"memory_phase","broad_category":"S","image_png":"S_Sandstone_04.png","image_id":452,"category_name":"Sandstone","category":29,"distinct_rating":1.8,"distinct_type":"Bottom","rt":null,"stimulus":"Stimuli_Rocks480/S_Sandstone_04.png","response":null,"trial_type":"image-keyboard-response","trial_index":171,"plugin_version":"2.1.0","time_elapsed":1004319,"subject_id":"92518","group":"Group2","condition":"3_Rep","full_date":"2026-03-11T00:45:22.947Z","date":"2026-03-11","time":"00:45:22"},{"rt":null,"stimulus":"<p style=\"font-size: 50px; margin: 0; text-align: center;\">+</p>","response":null,"trial_type":"html-keyboard-response","trial_index":172,"plugin_version":"2.1.0","time_elapsed":1005336,"subject_id":"92518","group":"Group2","condition":"3_Rep","full_date":"2026-03-11T00:45:22.947Z","date":"2026-03-11","time":"00:45:22"},{"task":"memory_phase","broad_category":"M","image_png":"M_Gneiss_10.png","image_id":202,"category_name":"Gneiss","category":13,"distinct_rating":3.09,"distinct_type":"Bottom","rt":null,"stimulus":"Stimuli_Rocks480/M_Gneiss_10.png","response":null,"trial_type":"image-keyboard-response","trial_index":173,"plugin_version":"2.1.0","time_elapsed":1007921,"subject_id":"92518","group":"Group2","condition":"3_Rep","full_date":"2026-03-11T00:45:22.947Z","date":"2026-03-11","time":"00:45:22"},{"rt":null,"stimulus":"<p style=\"font-size: 50px; margin: 0; text-align: center;\">+</p>","response":null,"trial_type":"html-keyboard-response","trial_index":174,"plugin_version":"2.1.0","time_elapsed":1008929,"subject_id":"92518","group":"Group2","condition":"3_Rep","full_date":"2026-03-11T00:45:22.947Z","date":"2026-03-11","time":"00:45:22"},{"task":"memory_phase","broad_category":"I","image_png":"I_Pumice_01.png","image_id":129,"category_name":"Pumice","category":9,"distinct_rating":3.25,"distinct_type":"Bottom","rt":null,"stimulus":"Stimuli_Rocks480/I_Pumice_01.png","response":null,"trial_type":"image-keyboard-response","trial_index":175,"plugin_version":"2.1.0","time_elapsed":1011506,"subject_id":"92518","group":"Group2","condition":"3_Rep","full_date":"2026-03-11T00:45:22.947Z","date":"2026-03-11","time":"00:45:22"},{"rt":null,"stimulus":"<p style=\"font-size: 50px; margin: 0; text-align: center;\">+</p>","response":null,"trial_type":"html-keyboard-response","trial_index":176,"plugin_version":"2.1.0","time_elapsed":1012512,"subject_id":"92518","group":"Group2","condition":"3_Rep","full_date":"2026-03-11T00:45:22.947Z","date":"2026-03-11","time":"00:45:22"},{"task":"memory_phase","broad_category":"I","image_png":"I_Gabbro_12.png","image_id":60,"category_name":"Gabbro","category":4,"distinct_rating":2.6,"distinct_type":"Bottom","rt":null,"stimulus":"Stimuli_Rocks480/I_Gabbro_12.png","response":null,"trial_type":"image-keyboard-response","trial_index":177,"plugin_version":"2.1.0","time_elapsed":1015084,"subject_id":"92518","group":"Group2","condition":"3_Rep","full_date":"2026-03-11T00:45:22.947Z","date":"2026-03-11","time":"00:45:22"},{"rt":null,"stimulus":"<p style=\"font-size: 50px; margin: 0; text-align: center;\">+</p>","response":null,"trial_type":"html-keyboard-response","trial_index":178,"plugin_version":"2.1.0","time_elapsed":1016088,"subject_id":"92518","group":"Group2","condition":"3_Rep","full_date":"2026-03-11T00:45:22.947Z","date":"2026-03-11","time":"00:45:22"},{"task":"memory_phase","broad_category":"M","image_png":"M_Marble_02.png","image_id":226,"category_name":"Marble","category":15,"distinct_rating":3.2,"distinct_type":"Bottom","rt":null,"stimulus":"Stimuli_Rocks480/M_Marble_02.png","response":null,"trial_type":"image-keyboard-response","trial_index":179,"plugin_version":"2.1.0","time_elapsed":1018628,"subject_id":"92518","group":"Group2","condition":"3_Rep","full_date":"2026-03-11T00:45:22.947Z","date":"2026-03-11","time":"00:45:22"},{"rt":null,"stimulus":"<p style=\"font-size: 50px; margin: 0; text-align: center;\">+</p>","response":null,"trial_type":"html-keyboard-response","trial_index":180,"plugin_version":"2.1.0","time_elapsed":1019637,"subject_id":"92518","group":"Group2","condition":"3_Rep","full_date":"2026-03-11T00:45:22.947Z","date":"2026-03-11","time":"00:45:22"},{"task":"memory_phase","broad_category":"I","image_png":"I_Andesite_09.png","image_id":9,"category_name":"Andesite","category":1,"distinct_rating":2.49,"distinct_type":"Bottom","rt":null,"stimulus":"Stimuli_Rocks480/I_Andesite_09.png","response":null,"trial_type":"image-keyboard-response","trial_index":181,"plugin_version":"2.1.0","time_elapsed":1022211,"subject_id":"92518","group":"Group2","condition":"3_Rep","full_date":"2026-03-11T00:45:22.947Z","date":"2026-03-11","time":"00:45:22"},{"rt":null,"stimulus":"<p style=\"font-size: 50px; margin: 0; text-align: center;\">+</p>","response":null,"trial_type":"html-keyboard-response","trial_index":182,"plugin_version":"2.1.0","time_elapsed":1023218,"subject_id":"92518","group":"Group2","condition":"3_Rep","full_date":"2026-03-11T00:45:22.947Z","date":"2026-03-11","time":"00:45:22"},{"task":"memory_phase","broad_category":"I","image_png":"I_Diorite_10.png","image_id":42,"category_name":"Diorite","category":3,"distinct_rating":2.84,"distinct_type":"Bottom","rt":null,"stimulus":"Stimuli_Rocks480/I_Diorite_10.png","response":null,"trial_type":"image-keyboard-response","trial_index":183,"plugin_version":"2.1.0","time_elapsed":1025777,"subject_id":"92518","group":"Group2","condition":"3_Rep","full_date":"2026-03-11T00:45:22.947Z","date":"2026-03-11","time":"00:45:22"},{"rt":null,"stimulus":"<p style=\"font-size: 50px; margin: 0; text-align: center;\">+</p>","response":null,"trial_type":"html-keyboard-response","trial_index":184,"plugin_version":"2.1.0","time_elapsed":1026783,"subject_id":"92518","group":"Group2","condition":"3_Rep","full_date":"2026-03-11T00:45:22.947Z","date":"2026-03-11","time":"00:45:22"},{"task":"memory_phase","broad_category":"S","image_png":"S_Dolomite_01.png","image_id":385,"category_name":"Dolomite","category":25,"distinct_rating":1.43,"distinct_type":"Bottom","rt":null,"stimulus":"Stimuli_Rocks480/S_Dolomite_01.png","response":null,"trial_type":"image-keyboard-response","trial_index":185,"plugin_version":"2.1.0","time_elapsed":1029354,"subject_id":"92518","group":"Group2","condition":"3_Rep","full_date":"2026-03-11T00:45:22.947Z","date":"2026-03-11","time":"00:45:22"},{"rt":null,"stimulus":"<p style=\"font-size: 50px; margin: 0; text-align: center;\">+</p>","response":null,"trial_type":"html-keyboard-response","trial_index":186,"plugin_version":"2.1.0","time_elapsed":1030362,"subject_id":"92518","group":"Group2","condition":"3_Rep","full_date":"2026-03-11T00:45:22.947Z","date":"2026-03-11","time":"00:45:22"},{"task":"memory_phase","broad_category":"I","image_png":"I_Rhyolite_10.png","image_id":154,"category_name":"Rhyolite","category":10,"distinct_rating":2.88,"distinct_type":"Bottom","rt":null,"stimulus":"Stimuli_Rocks480/I_Rhyolite_10.png","response":null,"trial_type":"image-keyboard-response","trial_index":187,"plugin_version":"2.1.0","time_elapsed":1032953,"subject_id":"92518","group":"Group2","condition":"3_Rep","full_date":"2026-03-11T00:45:22.947Z","date":"2026-03-11","time":"00:45:22"},{"rt":null,"stimulus":"<p style=\"font-size: 50px; margin: 0; text-align: center;\">+</p>","response":null,"trial_type":"html-keyboard-response","trial_index":188,"plugin_version":"2.1.0","time_elapsed":1033958,"subject_id":"92518","group":"Group2","condition":"3_Rep","full_date":"2026-03-11T00:45:22.947Z","date":"2026-03-11","time":"00:45:22"},{"task":"memory_phase","broad_category":"S","image_png":"S_Dolomite_07.png","image_id":391,"category_name":"Dolomite","category":25,"distinct_rating":1.73,"distinct_type":"Bottom","rt":null,"stimulus":"Stimuli_Rocks480/S_Dolomite_07.png","response":null,"trial_type":"image-keyboard-response","trial_index":189,"plugin_version":"2.1.0","time_elapsed":1036518,"subject_id":"92518","group":"Group2","condition":"3_Rep","full_date":"2026-03-11T00:45:22.947Z","date":"2026-03-11","time":"00:45:22"},{"rt":null,"stimulus":"<p style=\"font-size: 50px; margin: 0; text-align: center;\">+</p>","response":null,"trial_type":"html-keyboard-response","trial_index":190,"plugin_version":"2.1.0","time_elapsed":1037521,"subject_id":"92518","group":"Group2","condition":"3_Rep","full_date":"2026-03-11T00:45:22.947Z","date":"2026-03-11","time":"00:45:22"},{"task":"memory_phase","broad_category":"S","image_png":"S_Shale_02.png","image_id":466,"category_name":"Shale","category":30,"distinct_rating":2.9,"distinct_type":"Bottom","rt":null,"stimulus":"Stimuli_Rocks480/S_Shale_02.png","response":null,"trial_type":"image-keyboard-response","trial_index":191,"plugin_version":"2.1.0","time_elapsed":1040076,"subject_id":"92518","group":"Group2","condition":"3_Rep","full_date":"2026-03-11T00:45:22.947Z","date":"2026-03-11","time":"00:45:22"},{"rt":null,"stimulus":"<p style=\"font-size: 50px; margin: 0; text-align: center;\">+</p>","response":null,"trial_type":"html-keyboard-response","trial_index":192,"plugin_version":"2.1.0","time_elapsed":1041090,"subject_id":"92518","group":"Group2","condition":"3_Rep","full_date":"2026-03-11T00:45:22.947Z","date":"2026-03-11","time":"00:45:22"},{"task":"memory_phase","broad_category":"I","image_png":"I_Gabbro_02.png","image_id":50,"category_name":"Gabbro","category":4,"distinct_rating":2.73,"distinct_type":"Bottom","rt":null,"stimulus":"Stimuli_Rocks480/I_Gabbro_02.png","response":null,"trial_type":"image-keyboard-response","trial_index":193,"plugin_version":"2.1.0","time_elapsed":1043643,"subject_id":"92518","group":"Group2","condition":"3_Rep","full_date":"2026-03-11T00:45:22.947Z","date":"2026-03-11","time":"00:45:22"},{"rt":null,"stimulus":"<p style=\"font-size: 50px; margin: 0; text-align: center;\">+</p>","response":null,"trial_type":"html-keyboard-response","trial_index":194,"plugin_version":"2.1.0","time_elapsed":1044647,"subject_id":"92518","group":"Group2","condition":"3_Rep","full_date":"2026-03-11T00:45:22.947Z","date":"2026-03-11","time":"00:45:22"},{"task":"memory_phase","broad_category":"M","image_png":"M_Phyllite_05.png","image_id":261,"category_name":"Phyllite","category":17,"distinct_rating":2.14,"distinct_type":"Bottom","rt":null,"stimulus":"Stimuli_Rocks480/M_Phyllite_05.png","response":null,"trial_type":"image-keyboard-response","trial_index":195,"plugin_version":"2.1.0","time_elapsed":1047219,"subject_id":"92518","group":"Group2","condition":"3_Rep","full_date":"2026-03-11T00:45:22.947Z","date":"2026-03-11","time":"00:45:22"},{"rt":null,"stimulus":"<p style=\"font-size: 50px; margin: 0; text-align: center;\">+</p>","response":null,"trial_type":"html-keyboard-response","trial_index":196,"plugin_version":"2.1.0","time_elapsed":1048225,"subject_id":"92518","group":"Group2","condition":"3_Rep","full_date":"2026-03-11T00:45:22.947Z","date":"2026-03-11","time":"00:45:22"},{"task":"memory_phase","broad_category":"M","image_png":"M_Quartzite_07.png","image_id":279,"category_name":"Quartzite","category":18,"distinct_rating":1.97,"distinct_type":"Bottom","rt":null,"stimulus":"Stimuli_Rocks480/M_Quartzite_07.png","response":null,"trial_type":"image-keyboard-response","trial_index":197,"plugin_version":"2.1.0","time_elapsed":1050799,"subject_id":"92518","group":"Group2","condition":"3_Rep","full_date":"2026-03-11T00:45:22.947Z","date":"2026-03-11","time":"00:45:22"},{"rt":null,"stimulus":"<p style=\"font-size: 50px; margin: 0; text-align: center;\">+</p>","response":null,"trial_type":"html-keyboard-response","trial_index":198,"plugin_version":"2.1.0","time_elapsed":1051806,"subject_id":"92518","group":"Group2","condition":"3_Rep","full_date":"2026-03-11T00:45:22.947Z","date":"2026-03-11","time":"00:45:22"},{"task":"memory_phase","broad_category":"M","image_png":"M_Quartzite_12.png","image_id":284,"category_name":"Quartzite","category":18,"distinct_rating":1.92,"distinct_type":"Bottom","rt":null,"stimulus":"Stimuli_Rocks480/M_Quartzite_12.png","response":null,"trial_type":"image-keyboard-response","trial_index":199,"plugin_version":"2.1.0","time_elapsed":1054377,"subject_id":"92518","group":"Group2","condition":"3_Rep","full_date":"2026-03-11T00:45:22.947Z","date":"2026-03-11","time":"00:45:22"},{"rt":null,"stimulus":"<p style=\"font-size: 50px; margin: 0; text-align: center;\">+</p>","response":null,"trial_type":"html-keyboard-response","trial_index":200,"plugin_version":"2.1.0","time_elapsed":1055385,"subject_id":"92518","group":"Group2","condition":"3_Rep","full_date":"2026-03-11T00:45:22.947Z","date":"2026-03-11","time":"00:45:22"},{"task":"memory_phase","broad_category":"S","image_png":"S_Shale_07.png","image_id":471,"category_name":"Shale","category":30,"distinct_rating":2.73,"distinct_type":"Bottom","rt":null,"stimulus":"Stimuli_Rocks480/S_Shale_07.png","response":null,"trial_type":"image-keyboard-response","trial_index":201,"plugin_version":"2.1.0","time_elapsed":1057936,"subject_id":"92518","group":"Group2","condition":"3_Rep","full_date":"2026-03-11T00:45:22.947Z","date":"2026-03-11","time":"00:45:22"},{"rt":null,"stimulus":"<p style=\"font-size: 50px; margin: 0; text-align: center;\">+</p>","response":null,"trial_type":"html-keyboard-response","trial_index":202,"plugin_version":"2.1.0","time_elapsed":1058944,"subject_id":"92518","group":"Group2","condition":"3_Rep","full_date":"2026-03-11T00:45:22.947Z","date":"2026-03-11","time":"00:45:22"},{"task":"memory_phase","broad_category":"M","image_png":"M_Quartzite_15.png","image_id":287,"category_name":"Quartzite","category":18,"distinct_rating":2.19,"distinct_type":"Bottom","rt":null,"stimulus":"Stimuli_Rocks480/M_Quartzite_15.png","response":null,"trial_type":"image-keyboard-response","trial_index":203,"plugin_version":"2.1.0","time_elapsed":1061516,"subject_id":"92518","group":"Group2","condition":"3_Rep","full_date":"2026-03-11T00:45:22.947Z","date":"2026-03-11","time":"00:45:22"},{"rt":null,"stimulus":"<p style=\"font-size: 50px; margin: 0; text-align: center;\">+</p>","response":null,"trial_type":"html-keyboard-response","trial_index":204,"plugin_version":"2.1.0","time_elapsed":1062525,"subject_id":"92518","group":"Group2","condition":"3_Rep","full_date":"2026-03-11T00:45:22.947Z","date":"2026-03-11","time":"00:45:22"},{"task":"memory_phase","broad_category":"I","image_png":"I_Pumice_14.png","image_id":142,"category_name":"Pumice","category":9,"distinct_rating":3.22,"distinct_type":"Bottom","rt":null,"stimulus":"Stimuli_Rocks480/I_Pumice_14.png","response":null,"trial_type":"image-keyboard-response","trial_index":205,"plugin_version":"2.1.0","time_elapsed":1065080,"subject_id":"92518","group":"Group2","condition":"3_Rep","full_date":"2026-03-11T00:45:22.947Z","date":"2026-03-11","time":"00:45:22"},{"rt":null,"stimulus":"<p style=\"font-size: 50px; margin: 0; text-align: center;\">+</p>","response":null,"trial_type":"html-keyboard-response","trial_index":206,"plugin_version":"2.1.0","time_elapsed":1066086,"subject_id":"92518","group":"Group2","condition":"3_Rep","full_date":"2026-03-11T00:45:22.947Z","date":"2026-03-11","time":"00:45:22"},{"task":"memory_phase","broad_category":"S","image_png":"S_Sandstone_08.png","image_id":456,"category_name":"Sandstone","category":29,"distinct_rating":1.5,"distinct_type":"Bottom","rt":null,"stimulus":"Stimuli_Rocks480/S_Sandstone_08.png","response":null,"trial_type":"image-keyboard-response","trial_index":207,"plugin_version":"2.1.0","time_elapsed":1068640,"subject_id":"92518","group":"Group2","condition":"3_Rep","full_date":"2026-03-11T00:45:22.947Z","date":"2026-03-11","time":"00:45:22"},{"rt":134658,"stimulus":"<p style=\"max-width: 760px; margin: auto; font-size: 35px; line-height: 1.5;\">\n                You have completed 2 study phases. \n                Now, we'll show you all the images again 1 more time.\n                <br><br>Press SPACE to continue\n              </p>","response":" ","trial_type":"html-keyboard-response","trial_index":208,"plugin_version":"2.1.0","time_elapsed":1203299,"subject_id":"92518","group":"Group2","condition":"3_Rep","full_date":"2026-03-11T00:45:22.947Z","date":"2026-03-11","time":"00:45:22"},{"rt":null,"stimulus":"<p style=\"font-size: 50px; margin: 0; text-align: center;\">+</p>","response":null,"trial_type":"html-keyboard-response","trial_index":209,"plugin_version":"2.1.0","time_elapsed":1204313,"subject_id":"92518","group":"Group2","condition":"3_Rep","full_date":"2026-03-11T00:45:22.947Z","date":"2026-03-11","time":"00:45:22"},{"task":"memory_phase","broad_category":"M","image_png":"M_Marble_02.png","image_id":226,"category_name":"Marble","category":15,"distinct_rating":3.2,"distinct_type":"Bottom","rt":null,"stimulus":"Stimuli_Rocks480/M_Marble_02.png","response":null,"trial_type":"image-keyboard-response","trial_index":210,"plugin_version":"2.1.0","time_elapsed":1206875,"subject_id":"92518","group":"Group2","condition":"3_Rep","full_date":"2026-03-11T00:45:22.947Z","date":"2026-03-11","time":"00:45:22"},{"rt":null,"stimulus":"<p style=\"font-size: 50px; margin: 0; text-align: center;\">+</p>","response":null,"trial_type":"html-keyboard-response","trial_index":211,"plugin_version":"2.1.0","time_elapsed":1207883,"subject_id":"92518","group":"Group2","condition":"3_Rep","full_date":"2026-03-11T00:45:22.947Z","date":"2026-03-11","time":"00:45:22"},{"task":"memory_phase","broad_category":"I","image_png":"I_Diorite_15.png","image_id":47,"category_name":"Diorite","category":3,"distinct_rating":3.05,"distinct_type":"Bottom","rt":null,"stimulus":"Stimuli_Rocks480/I_Diorite_15.png","response":null,"trial_type":"image-keyboard-response","trial_index":212,"plugin_version":"2.1.0","time_elapsed":1210450,"subject_id":"92518","group":"Group2","condition":"3_Rep","full_date":"2026-03-11T00:45:22.947Z","date":"2026-03-11","time":"00:45:22"},{"rt":null,"stimulus":"<p style=\"font-size: 50px; margin: 0; text-align: center;\">+</p>","response":null,"trial_type":"html-keyboard-response","trial_index":213,"plugin_version":"2.1.0","time_elapsed":1211457,"subject_id":"92518","group":"Group2","condition":"3_Rep","full_date":"2026-03-11T00:45:22.947Z","date":"2026-03-11","time":"00:45:22"},{"task":"memory_phase","broad_category":"M","image_png":"M_Marble_03.png","image_id":227,"category_name":"Marble","category":15,"distinct_rating":2.67,"distinct_type":"Bottom","rt":null,"stimulus":"Stimuli_Rocks480/M_Marble_03.png","response":null,"trial_type":"image-keyboard-response","trial_index":214,"plugin_version":"2.1.0","time_elapsed":1214031,"subject_id":"92518","group":"Group2","condition":"3_Rep","full_date":"2026-03-11T00:45:22.947Z","date":"2026-03-11","time":"00:45:22"},{"rt":null,"stimulus":"<p style=\"font-size: 50px; margin: 0; text-align: center;\">+</p>","response":null,"trial_type":"html-keyboard-response","trial_index":215,"plugin_version":"2.1.0","time_elapsed":1215037,"subject_id":"92518","group":"Group2","condition":"3_Rep","full_date":"2026-03-11T00:45:22.947Z","date":"2026-03-11","time":"00:45:22"},{"task":"memory_phase","broad_category":"M","image_png":"M_Slate_04.png","image_id":308,"category_name":"Slate","category":20,"distinct_rating":2.2,"distinct_type":"Bottom","rt":null,"stimulus":"Stimuli_Rocks480/M_Slate_04.png","response":null,"trial_type":"image-keyboard-response","trial_index":216,"plugin_version":"2.1.0","time_elapsed":1217592,"subject_id":"92518","group":"Group2","condition":"3_Rep","full_date":"2026-03-11T00:45:22.947Z","date":"2026-03-11","time":"00:45:22"},{"rt":null,"stimulus":"<p style=\"font-size: 50px; margin: 0; text-align: center;\">+</p>","response":null,"trial_type":"html-keyboard-response","trial_index":217,"plugin_version":"2.1.0","time_elapsed":1218600,"subject_id":"92518","group":"Group2","condition":"3_Rep","full_date":"2026-03-11T00:45:22.947Z","date":"2026-03-11","time":"00:45:22"},{"task":"memory_phase","broad_category":"I","image_png":"I_Diorite_01.png","image_id":33,"category_name":"Diorite","category":3,"distinct_rating":2.97,"distinct_type":"Bottom","rt":null,"stimulus":"Stimuli_Rocks480/I_Diorite_01.png","response":null,"trial_type":"image-keyboard-response","trial_index":218,"plugin_version":"2.1.0","time_elapsed":1221190,"subject_id":"92518","group":"Group2","condition":"3_Rep","full_date":"2026-03-11T00:45:22.947Z","date":"2026-03-11","time":"00:45:22"},{"rt":null,"stimulus":"<p style=\"font-size: 50px; margin: 0; text-align: center;\">+</p>","response":null,"trial_type":"html-keyboard-response","trial_index":219,"plugin_version":"2.1.0","time_elapsed":1222198,"subject_id":"92518","group":"Group2","condition":"3_Rep","full_date":"2026-03-11T00:45:22.947Z","date":"2026-03-11","time":"00:45:22"},{"task":"memory_phase","broad_category":"M","image_png":"M_Slate_10.png","image_id":314,"category_name":"Slate","category":20,"distinct_rating":1.94,"distinct_type":"Bottom","rt":null,"stimulus":"Stimuli_Rocks480/M_Slate_10.png","response":null,"trial_type":"image-keyboard-response","trial_index":220,"plugin_version":"2.1.0","time_elapsed":1224751,"subject_id":"92518","group":"Group2","condition":"3_Rep","full_date":"2026-03-11T00:45:22.947Z","date":"2026-03-11","time":"00:45:22"},{"rt":null,"stimulus":"<p style=\"font-size: 50px; margin: 0; text-align: center;\">+</p>","response":null,"trial_type":"html-keyboard-response","trial_index":221,"plugin_version":"2.1.0","time_elapsed":1225754,"subject_id":"92518","group":"Group2","condition":"3_Rep","full_date":"2026-03-11T00:45:22.947Z","date":"2026-03-11","time":"00:45:22"},{"task":"memory_phase","broad_category":"M","image_png":"M_Quartzite_12.png","image_id":284,"category_name":"Quartzite","category":18,"distinct_rating":1.92,"distinct_type":"Bottom","rt":null,"stimulus":"Stimuli_Rocks480/M_Quartzite_12.png","response":null,"trial_type":"image-keyboard-response","trial_index":222,"plugin_version":"2.1.0","time_elapsed":1228312,"subject_id":"92518","group":"Group2","condition":"3_Rep","full_date":"2026-03-11T00:45:22.947Z","date":"2026-03-11","time":"00:45:22"},{"rt":null,"stimulus":"<p style=\"font-size: 50px; margin: 0; text-align: center;\">+</p>","response":null,"trial_type":"html-keyboard-response","trial_index":223,"plugin_version":"2.1.0","time_elapsed":1229320,"subject_id":"92518","group":"Group2","condition":"3_Rep","full_date":"2026-03-11T00:45:22.947Z","date":"2026-03-11","time":"00:45:22"},{"task":"memory_phase","broad_category":"M","image_png":"M_Marble_14.png","image_id":238,"category_name":"Marble","category":15,"distinct_rating":3.31,"distinct_type":"Bottom","rt":null,"stimulus":"Stimuli_Rocks480/M_Marble_14.png","response":null,"trial_type":"image-keyboard-response","trial_index":224,"plugin_version":"2.1.0","time_elapsed":1231878,"subject_id":"92518","group":"Group2","condition":"3_Rep","full_date":"2026-03-11T00:45:22.947Z","date":"2026-03-11","time":"00:45:22"},{"rt":null,"stimulus":"<p style=\"font-size: 50px; margin: 0; text-align: center;\">+</p>","response":null,"trial_type":"html-keyboard-response","trial_index":225,"plugin_version":"2.1.0","time_elapsed":1232885,"subject_id":"92518","group":"Group2","condition":"3_Rep","full_date":"2026-03-11T00:45:22.947Z","date":"2026-03-11","time":"00:45:22"},{"task":"memory_phase","broad_category":"M","image_png":"M_Phyllite_05.png","image_id":261,"category_name":"Phyllite","category":17,"distinct_rating":2.14,"distinct_type":"Bottom","rt":null,"stimulus":"Stimuli_Rocks480/M_Phyllite_05.png","response":null,"trial_type":"image-keyboard-response","trial_index":226,"plugin_version":"2.1.0","time_elapsed":1235461,"subject_id":"92518","group":"Group2","condition":"3_Rep","full_date":"2026-03-11T00:45:22.947Z","date":"2026-03-11","time":"00:45:22"},{"rt":null,"stimulus":"<p style=\"font-size: 50px; margin: 0; text-align: center;\">+</p>","response":null,"trial_type":"html-keyboard-response","trial_index":227,"plugin_version":"2.1.0","time_elapsed":1236468,"subject_id":"92518","group":"Group2","condition":"3_Rep","full_date":"2026-03-11T00:45:22.947Z","date":"2026-03-11","time":"00:45:22"},{"task":"memory_phase","broad_category":"I","image_png":"I_Rhyolite_05.png","image_id":149,"category_name":"Rhyolite","category":10,"distinct_rating":3.02,"distinct_type":"Bottom","rt":null,"stimulus":"Stimuli_Rocks480/I_Rhyolite_05.png","response":null,"trial_type":"image-keyboard-response","trial_index":228,"plugin_version":"2.1.0","time_elapsed":1239027,"subject_id":"92518","group":"Group2","condition":"3_Rep","full_date":"2026-03-11T00:45:22.947Z","date":"2026-03-11","time":"00:45:22"},{"rt":null,"stimulus":"<p style=\"font-size: 50px; margin: 0; text-align: center;\">+</p>","response":null,"trial_type":"html-keyboard-response","trial_index":229,"plugin_version":"2.1.0","time_elapsed":1240038,"subject_id":"92518","group":"Group2","condition":"3_Rep","full_date":"2026-03-11T00:45:22.947Z","date":"2026-03-11","time":"00:45:22"},{"task":"memory_phase","broad_category":"S","image_png":"S_Dolomite_01.png","image_id":385,"category_name":"Dolomite","category":25,"distinct_rating":1.43,"distinct_type":"Bottom","rt":null,"stimulus":"Stimuli_Rocks480/S_Dolomite_01.png","response":null,"trial_type":"image-keyboard-response","trial_index":230,"plugin_version":"2.1.0","time_elapsed":1242610,"subject_id":"92518","group":"Group2","condition":"3_Rep","full_date":"2026-03-11T00:45:22.947Z","date":"2026-03-11","time":"00:45:22"},{"rt":null,"stimulus":"<p style=\"font-size: 50px; margin: 0; text-align: center;\">+</p>","response":null,"trial_type":"html-keyboard-response","trial_index":231,"plugin_version":"2.1.0","time_elapsed":1243617,"subject_id":"92518","group":"Group2","condition":"3_Rep","full_date":"2026-03-11T00:45:22.947Z","date":"2026-03-11","time":"00:45:22"},{"task":"memory_phase","broad_category":"M","image_png":"M_Slate_14.png","image_id":318,"category_name":"Slate","category":20,"distinct_rating":2.58,"distinct_type":"Bottom","rt":null,"stimulus":"Stimuli_Rocks480/M_Slate_14.png","response":null,"trial_type":"image-keyboard-response","trial_index":232,"plugin_version":"2.1.0","time_elapsed":1246152,"subject_id":"92518","group":"Group2","condition":"3_Rep","full_date":"2026-03-11T00:45:22.947Z","date":"2026-03-11","time":"00:45:22"},{"rt":null,"stimulus":"<p style=\"font-size: 50px; margin: 0; text-align: center;\">+</p>","response":null,"trial_type":"html-keyboard-response","trial_index":233,"plugin_version":"2.1.0","time_elapsed":1247162,"subject_id":"92518","group":"Group2","condition":"3_Rep","full_date":"2026-03-11T00:45:22.947Z","date":"2026-03-11","time":"00:45:22"},{"task":"memory_phase","broad_category":"I","image_png":"I_Peridotite_13.png","image_id":125,"category_name":"Peridotite","category":8,"distinct_rating":7.28,"distinct_type":"Top","rt":null,"stimulus":"Stimuli_Rocks480/I_Peridotite_13.png","response":null,"trial_type":"image-keyboard-response","trial_index":234,"plugin_version":"2.1.0","time_elapsed":1249727,"subject_id":"92518","group":"Group2","condition":"3_Rep","full_date":"2026-03-11T00:45:22.947Z","date":"2026-03-11","time":"00:45:22"},{"rt":null,"stimulus":"<p style=\"font-size: 50px; margin: 0; text-align: center;\">+</p>","response":null,"trial_type":"html-keyboard-response","trial_index":235,"plugin_version":"2.1.0","time_elapsed":1250736,"subject_id":"92518","group":"Group2","condition":"3_Rep","full_date":"2026-03-11T00:45:22.947Z","date":"2026-03-11","time":"00:45:22"},{"task":"memory_phase","broad_category":"S","image_png":"S_Shale_03.png","image_id":467,"category_name":"Shale","category":30,"distinct_rat