[{"width":1359,"height":768,"webaudio":true,"browser":"safari","browser_version":"26.3.0","mobile":false,"os":"Mac OS","fullscreen":true,"vsync_rate":60.3,"webcam":true,"microphone":true,"trial_type":"browser-check","trial_index":0,"plugin_version":"2.1.0","time_elapsed":1008,"subject_id":"93082","group":"Group2","condition":"1_Rep","full_date":"2026-02-26T00:45:56.077Z","date":"2026-02-26","time":"00:45:56"},{"success":true,"timeout":false,"failed_images":[],"failed_audio":[],"failed_video":[],"trial_type":"preload","trial_index":1,"plugin_version":"2.1.0","time_elapsed":22415,"subject_id":"93082","group":"Group2","condition":"1_Rep","full_date":"2026-02-26T00:45:56.077Z","date":"2026-02-26","time":"00:45:56"},{"rt":55603,"url":"SONA_consent_memorability.html","trial_type":"external-html","trial_index":2,"plugin_version":"2.1.0","time_elapsed":78093,"subject_id":"93082","group":"Group2","condition":"1_Rep","full_date":"2026-02-26T00:45:56.077Z","date":"2026-02-26","time":"00:45:56"},{"success":true,"rt":5146,"trial_type":"fullscreen","trial_index":3,"plugin_version":"2.1.0","time_elapsed":84245,"subject_id":"93082","group":"Group2","condition":"1_Rep","full_date":"2026-02-26T00:45:56.077Z","date":"2026-02-26","time":"00:45:56"},{"rt":32945,"stimulus":"<div style=\"max-width: 760px; margin: auto; font-size: 20px; line-height: 1.5;\">\n      <h1 style=\"text-align:center; font-size: 30px;\">Instructions</h1>\n      <p>\n        Welcome to the study on <b>visual memory</b>. This experiment consists of <b>two phases</b>: \n        a <b>study phase</b> and a <b>test phase</b>.\n      </p>\n      <p>\n        In the study phase, you will see a series of rock images along with their category labels.\n        The images will appear one at a time.\n        <b>Your task</b> is to learn the categories to which the rock images belong \n        and to remember each image as accurately as possible.\n      </p> \n      <p>\n        Note that you will see each image only <b>once</b> during the study phase. \n          So, please pay close attention and try to remember each image carefully.\n      </p>\n      <p>\n        After the study phase, <b>your memory will be tested</b>. \n        Additional instructions for the test phase will be provided at that time.\n      </p>\n      <p>\n        If your computer has multiple <b>language settings</b> (e.g., English and another language),\n        please make sure it is set to English before starting.\n      </p>\n      <p>\n        You can track your progress using the <b>completion bar</b> at the top of the screen. \n        Please note that the bar will refresh when the test phase begins \n        to give you an accurate sense of your progress in both phases.\n      </p> \n      <p>\n        Press the button below when you are ready to begin.\n      </p>\n    </div>","response":0,"trial_type":"html-button-response","trial_index":4,"plugin_version":"2.1.0","time_elapsed":117192,"subject_id":"93082","group":"Group2","condition":"1_Rep","full_date":"2026-02-26T00:45:56.077Z","date":"2026-02-26","time":"00:45:56"},{"rt":null,"stimulus":"<p style=\"font-size: 50px; margin: 0; text-align: center;\">+</p>","response":null,"trial_type":"html-keyboard-response","trial_index":5,"plugin_version":"2.1.0","time_elapsed":118196,"subject_id":"93082","group":"Group2","condition":"1_Rep","full_date":"2026-02-26T00:45:56.077Z","date":"2026-02-26","time":"00:45:56"},{"task":"memory_phase","broad_category":"S","image_png":"S_Dolomite_07.png","image_id":391,"category_name":"Dolomite","category":25,"distinct_rating":1.73,"distinct_type":"Bottom","rt":null,"stimulus":"Stimuli_Rocks480/S_Dolomite_07.png","response":null,"trial_type":"image-keyboard-response","trial_index":6,"plugin_version":"2.1.0","time_elapsed":120712,"subject_id":"93082","group":"Group2","condition":"1_Rep","full_date":"2026-02-26T00:45:56.077Z","date":"2026-02-26","time":"00:45:56"},{"rt":null,"stimulus":"<p style=\"font-size: 50px; margin: 0; text-align: center;\">+</p>","response":null,"trial_type":"html-keyboard-response","trial_index":7,"plugin_version":"2.1.0","time_elapsed":121714,"subject_id":"93082","group":"Group2","condition":"1_Rep","full_date":"2026-02-26T00:45:56.077Z","date":"2026-02-26","time":"00:45:56"},{"task":"memory_phase","broad_category":"I","image_png":"I_Pumice_01.png","image_id":129,"category_name":"Pumice","category":9,"distinct_rating":3.25,"distinct_type":"Bottom","rt":null,"stimulus":"Stimuli_Rocks480/I_Pumice_01.png","response":null,"trial_type":"image-keyboard-response","trial_index":8,"plugin_version":"2.1.0","time_elapsed":124229,"subject_id":"93082","group":"Group2","condition":"1_Rep","full_date":"2026-02-26T00:45:56.077Z","date":"2026-02-26","time":"00:45:56"},{"rt":null,"stimulus":"<p style=\"font-size: 50px; margin: 0; text-align: center;\">+</p>","response":null,"trial_type":"html-keyboard-response","trial_index":9,"plugin_version":"2.1.0","time_elapsed":125231,"subject_id":"93082","group":"Group2","condition":"1_Rep","full_date":"2026-02-26T00:45:56.077Z","date":"2026-02-26","time":"00:45:56"},{"task":"memory_phase","broad_category":"I","image_png":"I_Rhyolite_10.png","image_id":154,"category_name":"Rhyolite","category":10,"distinct_rating":2.88,"distinct_type":"Bottom","rt":null,"stimulus":"Stimuli_Rocks480/I_Rhyolite_10.png","response":null,"trial_type":"image-keyboard-response","trial_index":10,"plugin_version":"2.1.0","time_elapsed":127751,"subject_id":"93082","group":"Group2","condition":"1_Rep","full_date":"2026-02-26T00:45:56.077Z","date":"2026-02-26","time":"00:45:56"},{"rt":null,"stimulus":"<p style=\"font-size: 50px; margin: 0; text-align: center;\">+</p>","response":null,"trial_type":"html-keyboard-response","trial_index":11,"plugin_version":"2.1.0","time_elapsed":128753,"subject_id":"93082","group":"Group2","condition":"1_Rep","full_date":"2026-02-26T00:45:56.077Z","date":"2026-02-26","time":"00:45:56"},{"task":"memory_phase","broad_category":"M","image_png":"M_Quartzite_07.png","image_id":279,"category_name":"Quartzite","category":18,"distinct_rating":1.97,"distinct_type":"Bottom","rt":null,"stimulus":"Stimuli_Rocks480/M_Quartzite_07.png","response":null,"trial_type":"image-keyboard-response","trial_index":12,"plugin_version":"2.1.0","time_elapsed":131270,"subject_id":"93082","group":"Group2","condition":"1_Rep","full_date":"2026-02-26T00:45:56.077Z","date":"2026-02-26","time":"00:45:56"},{"rt":null,"stimulus":"<p style=\"font-size: 50px; margin: 0; text-align: center;\">+</p>","response":null,"trial_type":"html-keyboard-response","trial_index":13,"plugin_version":"2.1.0","time_elapsed":132272,"subject_id":"93082","group":"Group2","condition":"1_Rep","full_date":"2026-02-26T00:45:56.077Z","date":"2026-02-26","time":"00:45:56"},{"task":"memory_phase","broad_category":"M","image_png":"M_Phyllite_13.png","image_id":269,"category_name":"Phyllite","category":17,"distinct_rating":2.8,"distinct_type":"Bottom","rt":null,"stimulus":"Stimuli_Rocks480/M_Phyllite_13.png","response":null,"trial_type":"image-keyboard-response","trial_index":14,"plugin_version":"2.1.0","time_elapsed":134786,"subject_id":"93082","group":"Group2","condition":"1_Rep","full_date":"2026-02-26T00:45:56.077Z","date":"2026-02-26","time":"00:45:56"},{"rt":null,"stimulus":"<p style=\"font-size: 50px; margin: 0; text-align: center;\">+</p>","response":null,"trial_type":"html-keyboard-response","trial_index":15,"plugin_version":"2.1.0","time_elapsed":135788,"subject_id":"93082","group":"Group2","condition":"1_Rep","full_date":"2026-02-26T00:45:56.077Z","date":"2026-02-26","time":"00:45:56"},{"task":"memory_phase","broad_category":"S","image_png":"S_Sandstone_04.png","image_id":452,"category_name":"Sandstone","category":29,"distinct_rating":1.8,"distinct_type":"Bottom","rt":null,"stimulus":"Stimuli_Rocks480/S_Sandstone_04.png","response":null,"trial_type":"image-keyboard-response","trial_index":16,"plugin_version":"2.1.0","time_elapsed":138304,"subject_id":"93082","group":"Group2","condition":"1_Rep","full_date":"2026-02-26T00:45:56.077Z","date":"2026-02-26","time":"00:45:56"},{"rt":null,"stimulus":"<p style=\"font-size: 50px; margin: 0; text-align: center;\">+</p>","response":null,"trial_type":"html-keyboard-response","trial_index":17,"plugin_version":"2.1.0","time_elapsed":139306,"subject_id":"93082","group":"Group2","condition":"1_Rep","full_date":"2026-02-26T00:45:56.077Z","date":"2026-02-26","time":"00:45:56"},{"task":"memory_phase","broad_category":"M","image_png":"M_Marble_02.png","image_id":226,"category_name":"Marble","category":15,"distinct_rating":3.2,"distinct_type":"Bottom","rt":null,"stimulus":"Stimuli_Rocks480/M_Marble_02.png","response":null,"trial_type":"image-keyboard-response","trial_index":18,"plugin_version":"2.1.0","time_elapsed":141818,"subject_id":"93082","group":"Group2","condition":"1_Rep","full_date":"2026-02-26T00:45:56.077Z","date":"2026-02-26","time":"00:45:56"},{"rt":null,"stimulus":"<p style=\"font-size: 50px; margin: 0; text-align: center;\">+</p>","response":null,"trial_type":"html-keyboard-response","trial_index":19,"plugin_version":"2.1.0","time_elapsed":142821,"subject_id":"93082","group":"Group2","condition":"1_Rep","full_date":"2026-02-26T00:45:56.077Z","date":"2026-02-26","time":"00:45:56"},{"task":"memory_phase","broad_category":"I","image_png":"I_Basalt_10.png","image_id":26,"category_name":"Basalt","category":2,"distinct_rating":2.76,"distinct_type":"Bottom","rt":null,"stimulus":"Stimuli_Rocks480/I_Basalt_10.png","response":null,"trial_type":"image-keyboard-response","trial_index":20,"plugin_version":"2.1.0","time_elapsed":145335,"subject_id":"93082","group":"Group2","condition":"1_Rep","full_date":"2026-02-26T00:45:56.077Z","date":"2026-02-26","time":"00:45:56"},{"rt":null,"stimulus":"<p style=\"font-size: 50px; margin: 0; text-align: center;\">+</p>","response":null,"trial_type":"html-keyboard-response","trial_index":21,"plugin_version":"2.1.0","time_elapsed":146337,"subject_id":"93082","group":"Group2","condition":"1_Rep","full_date":"2026-02-26T00:45:56.077Z","date":"2026-02-26","time":"00:45:56"},{"task":"memory_phase","broad_category":"I","image_png":"I_Basalt_08.png","image_id":24,"category_name":"Basalt","category":2,"distinct_rating":2.31,"distinct_type":"Bottom","rt":null,"stimulus":"Stimuli_Rocks480/I_Basalt_08.png","response":null,"trial_type":"image-keyboard-response","trial_index":22,"plugin_version":"2.1.0","time_elapsed":148857,"subject_id":"93082","group":"Group2","condition":"1_Rep","full_date":"2026-02-26T00:45:56.077Z","date":"2026-02-26","time":"00:45:56"},{"rt":null,"stimulus":"<p style=\"font-size: 50px; margin: 0; text-align: center;\">+</p>","response":null,"trial_type":"html-keyboard-response","trial_index":23,"plugin_version":"2.1.0","time_elapsed":149858,"subject_id":"93082","group":"Group2","condition":"1_Rep","full_date":"2026-02-26T00:45:56.077Z","date":"2026-02-26","time":"00:45:56"},{"task":"memory_phase","broad_category":"S","image_png":"S_Rock Salt_13.png","image_id":445,"category_name":"Rock Salt","category":28,"distinct_rating":7.58,"distinct_type":"Top","rt":null,"stimulus":"Stimuli_Rocks480/S_Rock Salt_13.png","response":null,"trial_type":"image-keyboard-response","trial_index":24,"plugin_version":"2.1.0","time_elapsed":152375,"subject_id":"93082","group":"Group2","condition":"1_Rep","full_date":"2026-02-26T00:45:56.077Z","date":"2026-02-26","time":"00:45:56"},{"rt":null,"stimulus":"<p style=\"font-size: 50px; margin: 0; text-align: center;\">+</p>","response":null,"trial_type":"html-keyboard-response","trial_index":25,"plugin_version":"2.1.0","time_elapsed":153378,"subject_id":"93082","group":"Group2","condition":"1_Rep","full_date":"2026-02-26T00:45:56.077Z","date":"2026-02-26","time":"00:45:56"},{"task":"memory_phase","broad_category":"I","image_png":"I_Diorite_15.png","image_id":47,"category_name":"Diorite","category":3,"distinct_rating":3.05,"distinct_type":"Bottom","rt":null,"stimulus":"Stimuli_Rocks480/I_Diorite_15.png","response":null,"trial_type":"image-keyboard-response","trial_index":26,"plugin_version":"2.1.0","time_elapsed":155891,"subject_id":"93082","group":"Group2","condition":"1_Rep","full_date":"2026-02-26T00:45:56.077Z","date":"2026-02-26","time":"00:45:56"},{"rt":null,"stimulus":"<p style=\"font-size: 50px; margin: 0; text-align: center;\">+</p>","response":null,"trial_type":"html-keyboard-response","trial_index":27,"plugin_version":"2.1.0","time_elapsed":156893,"subject_id":"93082","group":"Group2","condition":"1_Rep","full_date":"2026-02-26T00:45:56.077Z","date":"2026-02-26","time":"00:45:56"},{"task":"memory_phase","broad_category":"I","image_png":"I_Andesite_04.png","image_id":4,"category_name":"Andesite","category":1,"distinct_rating":3.18,"distinct_type":"Bottom","rt":null,"stimulus":"Stimuli_Rocks480/I_Andesite_04.png","response":null,"trial_type":"image-keyboard-response","trial_index":28,"plugin_version":"2.1.0","time_elapsed":159409,"subject_id":"93082","group":"Group2","condition":"1_Rep","full_date":"2026-02-26T00:45:56.077Z","date":"2026-02-26","time":"00:45:56"},{"rt":null,"stimulus":"<p style=\"font-size: 50px; margin: 0; text-align: center;\">+</p>","response":null,"trial_type":"html-keyboard-response","trial_index":29,"plugin_version":"2.1.0","time_elapsed":160412,"subject_id":"93082","group":"Group2","condition":"1_Rep","full_date":"2026-02-26T00:45:56.077Z","date":"2026-02-26","time":"00:45:56"},{"task":"memory_phase","broad_category":"S","image_png":"S_Shale_03.png","image_id":467,"category_name":"Shale","category":30,"distinct_rating":1.95,"distinct_type":"Bottom","rt":null,"stimulus":"Stimuli_Rocks480/S_Shale_03.png","response":null,"trial_type":"image-keyboard-response","trial_index":30,"plugin_version":"2.1.0","time_elapsed":162928,"subject_id":"93082","group":"Group2","condition":"1_Rep","full_date":"2026-02-26T00:45:56.077Z","date":"2026-02-26","time":"00:45:56"},{"rt":null,"stimulus":"<p style=\"font-size: 50px; margin: 0; text-align: center;\">+</p>","response":null,"trial_type":"html-keyboard-response","trial_index":31,"plugin_version":"2.1.0","time_elapsed":163931,"subject_id":"93082","group":"Group2","condition":"1_Rep","full_date":"2026-02-26T00:45:56.077Z","date":"2026-02-26","time":"00:45:56"},{"task":"memory_phase","broad_category":"I","image_png":"I_Pumice_13.png","image_id":141,"category_name":"Pumice","category":9,"distinct_rating":3.12,"distinct_type":"Bottom","rt":null,"stimulus":"Stimuli_Rocks480/I_Pumice_13.png","response":null,"trial_type":"image-keyboard-response","trial_index":32,"plugin_version":"2.1.0","time_elapsed":166446,"subject_id":"93082","group":"Group2","condition":"1_Rep","full_date":"2026-02-26T00:45:56.077Z","date":"2026-02-26","time":"00:45:56"},{"rt":null,"stimulus":"<p style=\"font-size: 50px; margin: 0; text-align: center;\">+</p>","response":null,"trial_type":"html-keyboard-response","trial_index":33,"plugin_version":"2.1.0","time_elapsed":167448,"subject_id":"93082","group":"Group2","condition":"1_Rep","full_date":"2026-02-26T00:45:56.077Z","date":"2026-02-26","time":"00:45:56"},{"task":"memory_phase","broad_category":"I","image_png":"I_Peridotite_13.png","image_id":125,"category_name":"Peridotite","category":8,"distinct_rating":7.28,"distinct_type":"Top","rt":null,"stimulus":"Stimuli_Rocks480/I_Peridotite_13.png","response":null,"trial_type":"image-keyboard-response","trial_index":34,"plugin_version":"2.1.0","time_elapsed":169965,"subject_id":"93082","group":"Group2","condition":"1_Rep","full_date":"2026-02-26T00:45:56.077Z","date":"2026-02-26","time":"00:45:56"},{"rt":null,"stimulus":"<p style=\"font-size: 50px; margin: 0; text-align: center;\">+</p>","response":null,"trial_type":"html-keyboard-response","trial_index":35,"plugin_version":"2.1.0","time_elapsed":170967,"subject_id":"93082","group":"Group2","condition":"1_Rep","full_date":"2026-02-26T00:45:56.077Z","date":"2026-02-26","time":"00:45:56"},{"task":"memory_phase","broad_category":"S","image_png":"S_Rock Salt_15.png","image_id":447,"category_name":"Rock Salt","category":28,"distinct_rating":7.79,"distinct_type":"Top","rt":null,"stimulus":"Stimuli_Rocks480/S_Rock Salt_15.png","response":null,"trial_type":"image-keyboard-response","trial_index":36,"plugin_version":"2.1.0","time_elapsed":173481,"subject_id":"93082","group":"Group2","condition":"1_Rep","full_date":"2026-02-26T00:45:56.077Z","date":"2026-02-26","time":"00:45:56"},{"rt":null,"stimulus":"<p style=\"font-size: 50px; margin: 0; text-align: center;\">+</p>","response":null,"trial_type":"html-keyboard-response","trial_index":37,"plugin_version":"2.1.0","time_elapsed":174483,"subject_id":"93082","group":"Group2","condition":"1_Rep","full_date":"2026-02-26T00:45:56.077Z","date":"2026-02-26","time":"00:45:56"},{"task":"memory_phase","broad_category":"M","image_png":"M_Slate_10.png","image_id":314,"category_name":"Slate","category":20,"distinct_rating":1.94,"distinct_type":"Bottom","rt":null,"stimulus":"Stimuli_Rocks480/M_Slate_10.png","response":null,"trial_type":"image-keyboard-response","trial_index":38,"plugin_version":"2.1.0","time_elapsed":176994,"subject_id":"93082","group":"Group2","condition":"1_Rep","full_date":"2026-02-26T00:45:56.077Z","date":"2026-02-26","time":"00:45:56"},{"rt":null,"stimulus":"<p style=\"font-size: 50px; margin: 0; text-align: center;\">+</p>","response":null,"trial_type":"html-keyboard-response","trial_index":39,"plugin_version":"2.1.0","time_elapsed":177996,"subject_id":"93082","group":"Group2","condition":"1_Rep","full_date":"2026-02-26T00:45:56.077Z","date":"2026-02-26","time":"00:45:56"},{"task":"memory_phase","broad_category":"M","image_png":"M_Slate_14.png","image_id":318,"category_name":"Slate","category":20,"distinct_rating":2.58,"distinct_type":"Bottom","rt":null,"stimulus":"Stimuli_Rocks480/M_Slate_14.png","response":null,"trial_type":"image-keyboard-response","trial_index":40,"plugin_version":"2.1.0","time_elapsed":180507,"subject_id":"93082","group":"Group2","condition":"1_Rep","full_date":"2026-02-26T00:45:56.077Z","date":"2026-02-26","time":"00:45:56"},{"rt":null,"stimulus":"<p style=\"font-size: 50px; margin: 0; text-align: center;\">+</p>","response":null,"trial_type":"html-keyboard-response","trial_index":41,"plugin_version":"2.1.0","time_elapsed":181509,"subject_id":"93082","group":"Group2","condition":"1_Rep","full_date":"2026-02-26T00:45:56.077Z","date":"2026-02-26","time":"00:45:56"},{"task":"memory_phase","broad_category":"I","image_png":"I_Gabbro_14.png","image_id":62,"category_name":"Gabbro","category":4,"distinct_rating":2.95,"distinct_type":"Bottom","rt":null,"stimulus":"Stimuli_Rocks480/I_Gabbro_14.png","response":null,"trial_type":"image-keyboard-response","trial_index":42,"plugin_version":"2.1.0","time_elapsed":184026,"subject_id":"93082","group":"Group2","condition":"1_Rep","full_date":"2026-02-26T00:45:56.077Z","date":"2026-02-26","time":"00:45:56"},{"rt":null,"stimulus":"<p style=\"font-size: 50px; margin: 0; text-align: center;\">+</p>","response":null,"trial_type":"html-keyboard-response","trial_index":43,"plugin_version":"2.1.0","time_elapsed":185028,"subject_id":"93082","group":"Group2","condition":"1_Rep","full_date":"2026-02-26T00:45:56.077Z","date":"2026-02-26","time":"00:45:56"},{"task":"memory_phase","broad_category":"S","image_png":"S_Chert_13.png","image_id":365,"category_name":"Chert","category":23,"distinct_rating":6.57,"distinct_type":"Top","rt":null,"stimulus":"Stimuli_Rocks480/S_Chert_13.png","response":null,"trial_type":"image-keyboard-response","trial_index":44,"plugin_version":"2.1.0","time_elapsed":187538,"subject_id":"93082","group":"Group2","condition":"1_Rep","full_date":"2026-02-26T00:45:56.077Z","date":"2026-02-26","time":"00:45:56"},{"rt":null,"stimulus":"<p style=\"font-size: 50px; margin: 0; text-align: center;\">+</p>","response":null,"trial_type":"html-keyboard-response","trial_index":45,"plugin_version":"2.1.0","time_elapsed":188540,"subject_id":"93082","group":"Group2","condition":"1_Rep","full_date":"2026-02-26T00:45:56.077Z","date":"2026-02-26","time":"00:45:56"},{"task":"memory_phase","broad_category":"M","image_png":"M_Quartzite_15.png","image_id":287,"category_name":"Quartzite","category":18,"distinct_rating":2.19,"distinct_type":"Bottom","rt":null,"stimulus":"Stimuli_Rocks480/M_Quartzite_15.png","response":null,"trial_type":"image-keyboard-response","trial_index":46,"plugin_version":"2.1.0","time_elapsed":191057,"subject_id":"93082","group":"Group2","condition":"1_Rep","full_date":"2026-02-26T00:45:56.077Z","date":"2026-02-26","time":"00:45:56"},{"rt":null,"stimulus":"<p style=\"font-size: 50px; margin: 0; text-align: center;\">+</p>","response":null,"trial_type":"html-keyboard-response","trial_index":47,"plugin_version":"2.1.0","time_elapsed":192059,"subject_id":"93082","group":"Group2","condition":"1_Rep","full_date":"2026-02-26T00:45:56.077Z","date":"2026-02-26","time":"00:45:56"},{"task":"memory_phase","broad_category":"I","image_png":"I_Andesite_09.png","image_id":9,"category_name":"Andesite","category":1,"distinct_rating":2.49,"distinct_type":"Bottom","rt":null,"stimulus":"Stimuli_Rocks480/I_Andesite_09.png","response":null,"trial_type":"image-keyboard-response","trial_index":48,"plugin_version":"2.1.0","time_elapsed":194572,"subject_id":"93082","group":"Group2","condition":"1_Rep","full_date":"2026-02-26T00:45:56.077Z","date":"2026-02-26","time":"00:45:56"},{"rt":null,"stimulus":"<p style=\"font-size: 50px; margin: 0; text-align: center;\">+</p>","response":null,"trial_type":"html-keyboard-response","trial_index":49,"plugin_version":"2.1.0","time_elapsed":195574,"subject_id":"93082","group":"Group2","condition":"1_Rep","full_date":"2026-02-26T00:45:56.077Z","date":"2026-02-26","time":"00:45:56"},{"task":"memory_phase","broad_category":"I","image_png":"I_Obsidian_06.png","image_id":86,"category_name":"Obsidian","category":6,"distinct_rating":8.01,"distinct_type":"Top","rt":null,"stimulus":"Stimuli_Rocks480/I_Obsidian_06.png","response":null,"trial_type":"image-keyboard-response","trial_index":50,"plugin_version":"2.1.0","time_elapsed":198092,"subject_id":"93082","group":"Group2","condition":"1_Rep","full_date":"2026-02-26T00:45:56.077Z","date":"2026-02-26","time":"00:45:56"},{"rt":null,"stimulus":"<p style=\"font-size: 50px; margin: 0; text-align: center;\">+</p>","response":null,"trial_type":"html-keyboard-response","trial_index":51,"plugin_version":"2.1.0","time_elapsed":199094,"subject_id":"93082","group":"Group2","condition":"1_Rep","full_date":"2026-02-26T00:45:56.077Z","date":"2026-02-26","time":"00:45:56"},{"task":"memory_phase","broad_category":"M","image_png":"M_Phyllite_02.png","image_id":258,"category_name":"Phyllite","category":17,"distinct_rating":2.89,"distinct_type":"Bottom","rt":null,"stimulus":"Stimuli_Rocks480/M_Phyllite_02.png","response":null,"trial_type":"image-keyboard-response","trial_index":52,"plugin_version":"2.1.0","time_elapsed":201611,"subject_id":"93082","group":"Group2","condition":"1_Rep","full_date":"2026-02-26T00:45:56.077Z","date":"2026-02-26","time":"00:45:56"},{"rt":null,"stimulus":"<p style=\"font-size: 50px; margin: 0; text-align: center;\">+</p>","response":null,"trial_type":"html-keyboard-response","trial_index":53,"plugin_version":"2.1.0","time_elapsed":202613,"subject_id":"93082","group":"Group2","condition":"1_Rep","full_date":"2026-02-26T00:45:56.077Z","date":"2026-02-26","time":"00:45:56"},{"task":"memory_phase","broad_category":"I","image_png":"I_Diorite_10.png","image_id":42,"category_name":"Diorite","category":3,"distinct_rating":2.84,"distinct_type":"Bottom","rt":null,"stimulus":"Stimuli_Rocks480/I_Diorite_10.png","response":null,"trial_type":"image-keyboard-response","trial_index":54,"plugin_version":"2.1.0","time_elapsed":205128,"subject_id":"93082","group":"Group2","condition":"1_Rep","full_date":"2026-02-26T00:45:56.077Z","date":"2026-02-26","time":"00:45:56"},{"rt":1578,"stimulus":"<p style=\"max-width: 760px; margin: auto; font-size: 35px; line-height: 1.5;\">\n                Press SPACE to continue study phase\n              </p>","response":" ","trial_type":"html-keyboard-response","trial_index":55,"plugin_version":"2.1.0","time_elapsed":206709,"subject_id":"93082","group":"Group2","condition":"1_Rep","full_date":"2026-02-26T00:45:56.077Z","date":"2026-02-26","time":"00:45:56"},{"rt":null,"stimulus":"<p style=\"font-size: 50px; margin: 0; text-align: center;\">+</p>","response":null,"trial_type":"html-keyboard-response","trial_index":56,"plugin_version":"2.1.0","time_elapsed":207711,"subject_id":"93082","group":"Group2","condition":"1_Rep","full_date":"2026-02-26T00:45:56.077Z","date":"2026-02-26","time":"00:45:56"},{"task":"memory_phase","broad_category":"S","image_png":"S_Shale_02.png","image_id":466,"category_name":"Shale","category":30,"distinct_rating":2.9,"distinct_type":"Bottom","rt":null,"stimulus":"Stimuli_Rocks480/S_Shale_02.png","response":null,"trial_type":"image-keyboard-response","trial_index":57,"plugin_version":"2.1.0","time_elapsed":210225,"subject_id":"93082","group":"Group2","condition":"1_Rep","full_date":"2026-02-26T00:45:56.077Z","date":"2026-02-26","time":"00:45:56"},{"rt":null,"stimulus":"<p style=\"font-size: 50px; margin: 0; text-align: center;\">+</p>","response":null,"trial_type":"html-keyboard-response","trial_index":58,"plugin_version":"2.1.0","time_elapsed":211228,"subject_id":"93082","group":"Group2","condition":"1_Rep","full_date":"2026-02-26T00:45:56.077Z","date":"2026-02-26","time":"00:45:56"},{"task":"memory_phase","broad_category":"M","image_png":"M_Marble_03.png","image_id":227,"category_name":"Marble","category":15,"distinct_rating":2.67,"distinct_type":"Bottom","rt":null,"stimulus":"Stimuli_Rocks480/M_Marble_03.png","response":null,"trial_type":"image-keyboard-response","trial_index":59,"plugin_version":"2.1.0","time_elapsed":213743,"subject_id":"93082","group":"Group2","condition":"1_Rep","full_date":"2026-02-26T00:45:56.077Z","date":"2026-02-26","time":"00:45:56"},{"rt":null,"stimulus":"<p style=\"font-size: 50px; margin: 0; text-align: center;\">+</p>","response":null,"trial_type":"html-keyboard-response","trial_index":60,"plugin_version":"2.1.0","time_elapsed":214745,"subject_id":"93082","group":"Group2","condition":"1_Rep","full_date":"2026-02-26T00:45:56.077Z","date":"2026-02-26","time":"00:45:56"},{"task":"memory_phase","broad_category":"S","image_png":"S_Conglomerate_14.png","image_id":382,"category_name":"Conglomerate","category":24,"distinct_rating":6.86,"distinct_type":"Top","rt":null,"stimulus":"Stimuli_Rocks480/S_Conglomerate_14.png","response":null,"trial_type":"image-keyboard-response","trial_index":61,"plugin_version":"2.1.0","time_elapsed":217260,"subject_id":"93082","group":"Group2","condition":"1_Rep","full_date":"2026-02-26T00:45:56.077Z","date":"2026-02-26","time":"00:45:56"},{"rt":null,"stimulus":"<p style=\"font-size: 50px; margin: 0; text-align: center;\">+</p>","response":null,"trial_type":"html-keyboard-response","trial_index":62,"plugin_version":"2.1.0","time_elapsed":218263,"subject_id":"93082","group":"Group2","condition":"1_Rep","full_date":"2026-02-26T00:45:56.077Z","date":"2026-02-26","time":"00:45:56"},{"task":"memory_phase","broad_category":"I","image_png":"I_Pegmatite_11.png","image_id":107,"category_name":"Pegmatite","category":7,"distinct_rating":7.11,"distinct_type":"Top","rt":null,"stimulus":"Stimuli_Rocks480/I_Pegmatite_11.png","response":null,"trial_type":"image-keyboard-response","trial_index":63,"plugin_version":"2.1.0","time_elapsed":220780,"subject_id":"93082","group":"Group2","condition":"1_Rep","full_date":"2026-02-26T00:45:56.077Z","date":"2026-02-26","time":"00:45:56"},{"rt":null,"stimulus":"<p style=\"font-size: 50px; margin: 0; text-align: center;\">+</p>","response":null,"trial_type":"html-keyboard-response","trial_index":64,"plugin_version":"2.1.0","time_elapsed":221783,"subject_id":"93082","group":"Group2","condition":"1_Rep","full_date":"2026-02-26T00:45:56.077Z","date":"2026-02-26","time":"00:45:56"},{"task":"memory_phase","broad_category":"S","image_png":"S_Dolomite_16.png","image_id":400,"category_name":"Dolomite","category":25,"distinct_rating":1.71,"distinct_type":"Bottom","rt":null,"stimulus":"Stimuli_Rocks480/S_Dolomite_16.png","response":null,"trial_type":"image-keyboard-response","trial_index":65,"plugin_version":"2.1.0","time_elapsed":224296,"subject_id":"93082","group":"Group2","condition":"1_Rep","full_date":"2026-02-26T00:45:56.077Z","date":"2026-02-26","time":"00:45:56"},{"rt":null,"stimulus":"<p style=\"font-size: 50px; margin: 0; text-align: center;\">+</p>","response":null,"trial_type":"html-keyboard-response","trial_index":66,"plugin_version":"2.1.0","time_elapsed":225298,"subject_id":"93082","group":"Group2","condition":"1_Rep","full_date":"2026-02-26T00:45:56.077Z","date":"2026-02-26","time":"00:45:56"},{"task":"memory_phase","broad_category":"I","image_png":"I_Pegmatite_03.png","image_id":99,"category_name":"Pegmatite","category":7,"distinct_rating":7.24,"distinct_type":"Top","rt":null,"stimulus":"Stimuli_Rocks480/I_Pegmatite_03.png","response":null,"trial_type":"image-keyboard-response","trial_index":67,"plugin_version":"2.1.0","time_elapsed":227812,"subject_id":"93082","group":"Group2","condition":"1_Rep","full_date":"2026-02-26T00:45:56.077Z","date":"2026-02-26","time":"00:45:56"},{"rt":null,"stimulus":"<p style=\"font-size: 50px; margin: 0; text-align: center;\">+</p>","response":null,"trial_type":"html-keyboard-response","trial_index":68,"plugin_version":"2.1.0","time_elapsed":228815,"subject_id":"93082","group":"Group2","condition":"1_Rep","full_date":"2026-02-26T00:45:56.077Z","date":"2026-02-26","time":"00:45:56"},{"task":"memory_phase","broad_category":"I","image_png":"I_Diorite_01.png","image_id":33,"category_name":"Diorite","category":3,"distinct_rating":2.97,"distinct_type":"Bottom","rt":null,"stimulus":"Stimuli_Rocks480/I_Diorite_01.png","response":null,"trial_type":"image-keyboard-response","trial_index":69,"plugin_version":"2.1.0","time_elapsed":231332,"subject_id":"93082","group":"Group2","condition":"1_Rep","full_date":"2026-02-26T00:45:56.077Z","date":"2026-02-26","time":"00:45:56"},{"rt":null,"stimulus":"<p style=\"font-size: 50px; margin: 0; text-align: center;\">+</p>","response":null,"trial_type":"html-keyboard-response","trial_index":70,"plugin_version":"2.1.0","time_elapsed":232335,"subject_id":"93082","group":"Group2","condition":"1_Rep","full_date":"2026-02-26T00:45:56.077Z","date":"2026-02-26","time":"00:45:56"},{"task":"memory_phase","broad_category":"M","image_png":"M_Gneiss_10.png","image_id":202,"category_name":"Gneiss","category":13,"distinct_rating":3.09,"distinct_type":"Bottom","rt":null,"stimulus":"Stimuli_Rocks480/M_Gneiss_10.png","response":null,"trial_type":"image-keyboard-response","trial_index":71,"plugin_version":"2.1.0","time_elapsed":234850,"subject_id":"93082","group":"Group2","condition":"1_Rep","full_date":"2026-02-26T00:45:56.077Z","date":"2026-02-26","time":"00:45:56"},{"rt":null,"stimulus":"<p style=\"font-size: 50px; margin: 0; text-align: center;\">+</p>","response":null,"trial_type":"html-keyboard-response","trial_index":72,"plugin_version":"2.1.0","time_elapsed":235852,"subject_id":"93082","group":"Group2","condition":"1_Rep","full_date":"2026-02-26T00:45:56.077Z","date":"2026-02-26","time":"00:45:56"},{"task":"memory_phase","broad_category":"I","image_png":"I_Gabbro_12.png","image_id":60,"category_name":"Gabbro","category":4,"distinct_rating":2.6,"distinct_type":"Bottom","rt":null,"stimulus":"Stimuli_Rocks480/I_Gabbro_12.png","response":null,"trial_type":"image-keyboard-response","trial_index":73,"plugin_version":"2.1.0","time_elapsed":238370,"subject_id":"93082","group":"Group2","condition":"1_Rep","full_date":"2026-02-26T00:45:56.077Z","date":"2026-02-26","time":"00:45:56"},{"rt":null,"stimulus":"<p style=\"font-size: 50px; margin: 0; text-align: center;\">+</p>","response":null,"trial_type":"html-keyboard-response","trial_index":74,"plugin_version":"2.1.0","time_elapsed":239372,"subject_id":"93082","group":"Group2","condition":"1_Rep","full_date":"2026-02-26T00:45:56.077Z","date":"2026-02-26","time":"00:45:56"},{"task":"memory_phase","broad_category":"S","image_png":"S_Shale_07.png","image_id":471,"category_name":"Shale","category":30,"distinct_rating":2.73,"distinct_type":"Bottom","rt":null,"stimulus":"Stimuli_Rocks480/S_Shale_07.png","response":null,"trial_type":"image-keyboard-response","trial_index":75,"plugin_version":"2.1.0","time_elapsed":241888,"subject_id":"93082","group":"Group2","condition":"1_Rep","full_date":"2026-02-26T00:45:56.077Z","date":"2026-02-26","time":"00:45:56"},{"rt":null,"stimulus":"<p style=\"font-size: 50px; margin: 0; text-align: center;\">+</p>","response":null,"trial_type":"html-keyboard-response","trial_index":76,"plugin_version":"2.1.0","time_elapsed":242890,"subject_id":"93082","group":"Group2","condition":"1_Rep","full_date":"2026-02-26T00:45:56.077Z","date":"2026-02-26","time":"00:45:56"},{"task":"memory_phase","broad_category":"S","image_png":"S_Dolomite_01.png","image_id":385,"category_name":"Dolomite","category":25,"distinct_rating":1.43,"distinct_type":"Bottom","rt":null,"stimulus":"Stimuli_Rocks480/S_Dolomite_01.png","response":null,"trial_type":"image-keyboard-response","trial_index":77,"plugin_version":"2.1.0","time_elapsed":245409,"subject_id":"93082","group":"Group2","condition":"1_Rep","full_date":"2026-02-26T00:45:56.077Z","date":"2026-02-26","time":"00:45:56"},{"rt":null,"stimulus":"<p style=\"font-size: 50px; margin: 0; text-align: center;\">+</p>","response":null,"trial_type":"html-keyboard-response","trial_index":78,"plugin_version":"2.1.0","time_elapsed":246411,"subject_id":"93082","group":"Group2","condition":"1_Rep","full_date":"2026-02-26T00:45:56.077Z","date":"2026-02-26","time":"00:45:56"},{"task":"memory_phase","broad_category":"S","image_png":"S_Sandstone_08.png","image_id":456,"category_name":"Sandstone","category":29,"distinct_rating":1.5,"distinct_type":"Bottom","rt":null,"stimulus":"Stimuli_Rocks480/S_Sandstone_08.png","response":null,"trial_type":"image-keyboard-response","trial_index":79,"plugin_version":"2.1.0","time_elapsed":248925,"subject_id":"93082","group":"Group2","condition":"1_Rep","full_date":"2026-02-26T00:45:56.077Z","date":"2026-02-26","time":"00:45:56"},{"rt":null,"stimulus":"<p style=\"font-size: 50px; margin: 0; text-align: center;\">+</p>","response":null,"trial_type":"html-keyboard-response","trial_index":80,"plugin_version":"2.1.0","time_elapsed":249927,"subject_id":"93082","group":"Group2","condition":"1_Rep","full_date":"2026-02-26T00:45:56.077Z","date":"2026-02-26","time":"00:45:56"},{"task":"memory_phase","broad_category":"M","image_png":"M_Gneiss_14.png","image_id":206,"category_name":"Gneiss","category":13,"distinct_rating":3.41,"distinct_type":"Bottom","rt":null,"stimulus":"Stimuli_Rocks480/M_Gneiss_14.png","response":null,"trial_type":"image-keyboard-response","trial_index":81,"plugin_version":"2.1.0","time_elapsed":252444,"subject_id":"93082","group":"Group2","condition":"1_Rep","full_date":"2026-02-26T00:45:56.077Z","date":"2026-02-26","time":"00:45:56"},{"rt":null,"stimulus":"<p style=\"font-size: 50px; margin: 0; text-align: center;\">+</p>","response":null,"trial_type":"html-keyboard-response","trial_index":82,"plugin_version":"2.1.0","time_elapsed":253446,"subject_id":"93082","group":"Group2","condition":"1_Rep","full_date":"2026-02-26T00:45:56.077Z","date":"2026-02-26","time":"00:45:56"},{"task":"memory_phase","broad_category":"M","image_png":"M_Marble_14.png","image_id":238,"category_name":"Marble","category":15,"distinct_rating":3.31,"distinct_type":"Bottom","rt":null,"stimulus":"Stimuli_Rocks480/M_Marble_14.png","response":null,"trial_type":"image-keyboard-response","trial_index":83,"plugin_version":"2.1.0","time_elapsed":255959,"subject_id":"93082","group":"Group2","condition":"1_Rep","full_date":"2026-02-26T00:45:56.077Z","date":"2026-02-26","time":"00:45:56"},{"rt":null,"stimulus":"<p style=\"font-size: 50px; margin: 0; text-align: center;\">+</p>","response":null,"trial_type":"html-keyboard-response","trial_index":84,"plugin_version":"2.1.0","time_elapsed":256961,"subject_id":"93082","group":"Group2","condition":"1_Rep","full_date":"2026-02-26T00:45:56.077Z","date":"2026-02-26","time":"00:45:56"},{"task":"memory_phase","broad_category":"I","image_png":"I_Basalt_13.png","image_id":29,"category_name":"Basalt","category":2,"distinct_rating":2.68,"distinct_type":"Bottom","rt":null,"stimulus":"Stimuli_Rocks480/I_Basalt_13.png","response":null,"trial_type":"image-keyboard-response","trial_index":85,"plugin_version":"2.1.0","time_elapsed":259475,"subject_id":"93082","group":"Group2","condition":"1_Rep","full_date":"2026-02-26T00:45:56.077Z","date":"2026-02-26","time":"00:45:56"},{"rt":null,"stimulus":"<p style=\"font-size: 50px; margin: 0; text-align: center;\">+</p>","response":null,"trial_type":"html-keyboard-response","trial_index":86,"plugin_version":"2.1.0","time_elapsed":260477,"subject_id":"93082","group":"Group2","condition":"1_Rep","full_date":"2026-02-26T00:45:56.077Z","date":"2026-02-26","time":"00:45:56"},{"task":"memory_phase","broad_category":"M","image_png":"M_Gneiss_15.png","image_id":207,"category_name":"Gneiss","category":13,"distinct_rating":3.11,"distinct_type":"Bottom","rt":null,"stimulus":"Stimuli_Rocks480/M_Gneiss_15.png","response":null,"trial_type":"image-keyboard-response","trial_index":87,"plugin_version":"2.1.0","time_elapsed":262989,"subject_id":"93082","group":"Group2","condition":"1_Rep","full_date":"2026-02-26T00:45:56.077Z","date":"2026-02-26","time":"00:45:56"},{"rt":null,"stimulus":"<p style=\"font-size: 50px; margin: 0; text-align: center;\">+</p>","response":null,"trial_type":"html-keyboard-response","trial_index":88,"plugin_version":"2.1.0","time_elapsed":263991,"subject_id":"93082","group":"Group2","condition":"1_Rep","full_date":"2026-02-26T00:45:56.077Z","date":"2026-02-26","time":"00:45:56"},{"task":"memory_phase","broad_category":"I","image_png":"I_Pumice_14.png","image_id":142,"category_name":"Pumice","category":9,"distinct_rating":3.22,"distinct_type":"Bottom","rt":null,"stimulus":"Stimuli_Rocks480/I_Pumice_14.png","response":null,"trial_type":"image-keyboard-response","trial_index":89,"plugin_version":"2.1.0","time_elapsed":266507,"subject_id":"93082","group":"Group2","condition":"1_Rep","full_date":"2026-02-26T00:45:56.077Z","date":"2026-02-26","time":"00:45:56"},{"rt":null,"stimulus":"<p style=\"font-size: 50px; margin: 0; text-align: center;\">+</p>","response":null,"trial_type":"html-keyboard-response","trial_index":90,"plugin_version":"2.1.0","time_elapsed":267509,"subject_id":"93082","group":"Group2","condition":"1_Rep","full_date":"2026-02-26T00:45:56.077Z","date":"2026-02-26","time":"00:45:56"},{"task":"memory_phase","broad_category":"I","image_png":"I_Andesite_03.png","image_id":3,"category_name":"Andesite","category":1,"distinct_rating":3.17,"distinct_type":"Bottom","rt":null,"stimulus":"Stimuli_Rocks480/I_Andesite_03.png","response":null,"trial_type":"image-keyboard-response","trial_index":91,"plugin_version":"2.1.0","time_elapsed":270020,"subject_id":"93082","group":"Group2","condition":"1_Rep","full_date":"2026-02-26T00:45:56.077Z","date":"2026-02-26","time":"00:45:56"},{"rt":null,"stimulus":"<p style=\"font-size: 50px; margin: 0; text-align: center;\">+</p>","response":null,"trial_type":"html-keyboard-response","trial_index":92,"plugin_version":"2.1.0","time_elapsed":271022,"subject_id":"93082","group":"Group2","condition":"1_Rep","full_date":"2026-02-26T00:45:56.077Z","date":"2026-02-26","time":"00:45:56"},{"task":"memory_phase","broad_category":"I","image_png":"I_Gabbro_02.png","image_id":50,"category_name":"Gabbro","category":4,"distinct_rating":2.73,"distinct_type":"Bottom","rt":null,"stimulus":"Stimuli_Rocks480/I_Gabbro_02.png","response":null,"trial_type":"image-keyboard-response","trial_index":93,"plugin_version":"2.1.0","time_elapsed":273536,"subject_id":"93082","group":"Group2","condition":"1_Rep","full_date":"2026-02-26T00:45:56.077Z","date":"2026-02-26","time":"00:45:56"},{"rt":null,"stimulus":"<p style=\"font-size: 50px; margin: 0; text-align: center;\">+</p>","response":null,"trial_type":"html-keyboard-response","trial_index":94,"plugin_version":"2.1.0","time_elapsed":274540,"subject_id":"93082","group":"Group2","condition":"1_Rep","full_date":"2026-02-26T00:45:56.077Z","date":"2026-02-26","time":"00:45:56"},{"task":"memory_phase","broad_category":"I","image_png":"I_Rhyolite_05.png","image_id":149,"category_name":"Rhyolite","category":10,"distinct_rating":3.02,"distinct_type":"Bottom","rt":null,"stimulus":"Stimuli_Rocks480/I_Rhyolite_05.png","response":null,"trial_type":"image-keyboard-response","trial_index":95,"plugin_version":"2.1.0","time_elapsed":277060,"subject_id":"93082","group":"Group2","condition":"1_Rep","full_date":"2026-02-26T00:45:56.077Z","date":"2026-02-26","time":"00:45:56"},{"rt":null,"stimulus":"<p style=\"font-size: 50px; margin: 0; text-align: center;\">+</p>","response":null,"trial_type":"html-keyboard-response","trial_index":96,"plugin_version":"2.1.0","time_elapsed":278063,"subject_id":"93082","group":"Group2","condition":"1_Rep","full_date":"2026-02-26T00:45:56.077Z","date":"2026-02-26","time":"00:45:56"},{"task":"memory_phase","broad_category":"I","image_png":"I_Rhyolite_08.png","image_id":152,"category_name":"Rhyolite","category":10,"distinct_rating":1.38,"distinct_type":"Bottom","rt":null,"stimulus":"Stimuli_Rocks480/I_Rhyolite_08.png","response":null,"trial_type":"image-keyboard-response","trial_index":97,"plugin_version":"2.1.0","time_elapsed":280576,"subject_id":"93082","group":"Group2","condition":"1_Rep","full_date":"2026-02-26T00:45:56.077Z","date":"2026-02-26","time":"00:45:56"},{"rt":null,"stimulus":"<p style=\"font-size: 50px; margin: 0; text-align: center;\">+</p>","response":null,"trial_type":"html-keyboard-response","trial_index":98,"plugin_version":"2.1.0","time_elapsed":281578,"subject_id":"93082","group":"Group2","condition":"1_Rep","full_date":"2026-02-26T00:45:56.077Z","date":"2026-02-26","time":"00:45:56"},{"task":"memory_phase","broad_category":"M","image_png":"M_Phyllite_05.png","image_id":261,"category_name":"Phyllite","category":17,"distinct_rating":2.14,"distinct_type":"Bottom","rt":null,"stimulus":"Stimuli_Rocks480/M_Phyllite_05.png","response":null,"trial_type":"image-keyboard-response","trial_index":99,"plugin_version":"2.1.0","time_elapsed":284091,"subject_id":"93082","group":"Group2","condition":"1_Rep","full_date":"2026-02-26T00:45:56.077Z","date":"2026-02-26","time":"00:45:56"},{"rt":null,"stimulus":"<p style=\"font-size: 50px; margin: 0; text-align: center;\">+</p>","response":null,"trial_type":"html-keyboard-response","trial_index":100,"plugin_version":"2.1.0","time_elapsed":285093,"subject_id":"93082","group":"Group2","condition":"1_Rep","full_date":"2026-02-26T00:45:56.077Z","date":"2026-02-26","time":"00:45:56"},{"task":"memory_phase","broad_category":"M","image_png":"M_Slate_04.png","image_id":308,"category_name":"Slate","category":20,"distinct_rating":2.2,"distinct_type":"Bottom","rt":null,"stimulus":"Stimuli_Rocks480/M_Slate_04.png","response":null,"trial_type":"image-keyboard-response","trial_index":101,"plugin_version":"2.1.0","time_elapsed":287606,"subject_id":"93082","group":"Group2","condition":"1_Rep","full_date":"2026-02-26T00:45:56.077Z","date":"2026-02-26","time":"00:45:56"},{"rt":null,"stimulus":"<p style=\"font-size: 50px; margin: 0; text-align: center;\">+</p>","response":null,"trial_type":"html-keyboard-response","trial_index":102,"plugin_version":"2.1.0","time_elapsed":288609,"subject_id":"93082","group":"Group2","condition":"1_Rep","full_date":"2026-02-26T00:45:56.077Z","date":"2026-02-26","time":"00:45:56"},{"task":"memory_phase","broad_category":"M","image_png":"M_Quartzite_12.png","image_id":284,"category_name":"Quartzite","category":18,"distinct_rating":1.92,"distinct_type":"Bottom","rt":null,"stimulus":"Stimuli_Rocks480/M_Quartzite_12.png","response":null,"trial_type":"image-keyboard-response","trial_index":103,"plugin_version":"2.1.0","time_elapsed":291124,"subject_id":"93082","group":"Group2","condition":"1_Rep","full_date":"2026-02-26T00:45:56.077Z","date":"2026-02-26","time":"00:45:56"},{"rt":null,"stimulus":"<p style=\"font-size: 50px; margin: 0; text-align: center;\">+</p>","response":null,"trial_type":"html-keyboard-response","trial_index":104,"plugin_version":"2.1.0","time_elapsed":292126,"subject_id":"93082","group":"Group2","condition":"1_Rep","full_date":"2026-02-26T00:45:56.077Z","date":"2026-02-26","time":"00:45:56"},{"task":"memory_phase","broad_category":"S","image_png":"S_Sandstone_11.png","image_id":459,"category_name":"Sandstone","category":29,"distinct_rating":1.82,"distinct_type":"Bottom","rt":null,"stimulus":"Stimuli_Rocks480/S_Sandstone_11.png","response":null,"trial_type":"image-keyboard-response","trial_index":105,"plugin_version":"2.1.0","time_elapsed":294645,"subject_id":"93082","group":"Group2","condition":"1_Rep","full_date":"2026-02-26T00:45:56.077Z","date":"2026-02-26","time":"00:45:56"},{"rt":23368,"stimulus":"<div style=\"max-width: 760px; margin: auto; font-size: 20px; line-height: 1.5;\">\n      <h1 style=\"text-align:center; font-size: 30px;\">Instructions for the Test Phase</h1>\n      <p>\n        The study phase is now complete.\n      </p>\n      <p>\n        In the test phase, you will again see a series of rock images. \n        Some will be ones you saw before - during the study phase, while others will be new.  \n        <b>Your task</b> is to decide whether you have seen each image before by pressing the corresponding key on your keyboard:<br><br>\n          <b>A</b> - NO (you did not see this image before)<br>\n          <b>L</b> - YES (you saw this image before)<br><br>\n        The test will proceed at your own pace. You will receive feedback after each response.  \n        Please try to respond <b>as accurately as possible</b>.\n      </p>\n      <p>\n        <b>Reminder:</b> If your computer has multiple language settings (e.g., English and another language),\n        please ensure it is set to English during the test phase.\n      </p>\n      <p>\n        You can track your progress using the <b>completion bar</b> at the top of the screen.  \n        Note that it has been refreshed to reflect your progress during this final phase.\n      </p>\n      <p>\n        Press the button below when you are ready to continue.\n      </p>\n    </div>","response":0,"trial_type":"html-button-response","trial_index":106,"plugin_version":"2.1.0","time_elapsed":318016,"subject_id":"93082","group":"Group2","condition":"1_Rep","full_date":"2026-02-26T00:45:56.077Z","date":"2026-02-26","time":"00:45:56"},{"correct_response":"l","task":"test_phase","broad_category":"I","image_png":"I_Basalt_10.png","image_id":26,"category_name":"Basalt","category":2,"distinct_rating":2.76,"distinct_type":"Bottom","item_type":"Target","rt":2732,"stimulus":"Stimuli_Rocks480/I_Basalt_10.png","response":"l","trial_type":"image-keyboard-response","trial_index":107,"plugin_version":"2.1.0","time_elapsed":320762,"subject_id":"93082","group":"Group2","condition":"1_Rep","full_date":"2026-02-26T00:45:56.077Z","date":"2026-02-26","time":"00:45:56","cor_ans":true},{"trial_type":"html-keyboard-response","rt":null,"stimulus":"<p style=\"color: green; font-size: 50px; font-weight: bold;\">Correct</p>","response":null,"trial_index":108,"plugin_version":"2.1.0","time_elapsed":321265,"subject_id":"93082","group":"Group2","condition":"1_Rep","full_date":"2026-02-26T00:45:56.077Z","date":"2026-02-26","time":"00:45:56"},{"correct_response":"l","task":"test_phase","broad_category":"M","image_png":"M_Gneiss_10.png","image_id":202,"category_name":"Gneiss","category":13,"distinct_rating":3.09,"distinct_type":"Bottom","item_type":"Target","rt":1783,"stimulus":"Stimuli_Rocks480/M_Gneiss_10.png","response":"l","trial_type":"image-keyboard-response","trial_index":109,"plugin_version":"2.1.0","time_elapsed":323062,"subject_id":"93082","group":"Group2","condition":"1_Rep","full_date":"2026-02-26T00:45:56.077Z","date":"2026-02-26","time":"00:45:56","cor_ans":true},{"trial_type":"html-keyboard-response","rt":null,"stimulus":"<p style=\"color: green; font-size: 50px; font-weight: bold;\">Correct</p>","response":null,"trial_index":110,"plugin_version":"2.1.0","time_elapsed":323564,"subject_id":"93082","group":"Group2","condition":"1_Rep","full_date":"2026-02-26T00:45:56.077Z","date":"2026-02-26","time":"00:45:56"},{"correct_response":"a","task":"test_phase","broad_category":"I","image_png":"I_Diorite_04.png","image_id":36,"category_name":"Diorite","category":3,"distinct_rating":2.98,"distinct_type":"Bottom","item_type":"Foil","rt":2671,"stimulus":"Stimuli_Rocks480/I_Diorite_04.png","response":"l","trial_type":"image-keyboard-response","trial_index":111,"plugin_version":"2.1.0","time_elapsed":326250,"subject_id":"93082","group":"Group2","condition":"1_Rep","full_date":"2026-02-26T00:45:56.077Z","date":"2026-02-26","time":"00:45:56","cor_ans":false},{"trial_type":"html-keyboard-response","rt":null,"stimulus":"<p style=\"color: red; font-size: 50px; font-weight: bold;\">Incorrect</p>","response":null,"trial_index":112,"plugin_version":"2.1.0","time_elapsed":326752,"subject_id":"93082","group":"Group2","condition":"1_Rep","full_date":"2026-02-26T00:45:56.077Z","date":"2026-02-26","time":"00:45:56"},{"correct_response":"l","task":"test_phase","broad_category":"I","image_png":"I_Andesite_03.png","image_id":3,"category_name":"Andesite","category":1,"distinct_rating":3.17,"distinct_type":"Bottom","item_type":"Target","rt":2608,"stimulus":"Stimuli_Rocks480/I_Andesite_03.png","response":"l","trial_type":"image-keyboard-response","trial_index":113,"plugin_version":"2.1.0","time_elapsed":329362,"subject_id":"93082","group":"Group2","condition":"1_Rep","full_date":"2026-02-26T00:45:56.077Z","date":"2026-02-26","time":"00:45:56","cor_ans":true},{"trial_type":"html-keyboard-response","rt":null,"stimulus":"<p style=\"color: green; font-size: 50px; font-weight: bold;\">Correct</p>","response":null,"trial_index":114,"plugin_version":"2.1.0","time_elapsed":329864,"subject_id":"93082","group":"Group2","condition":"1_Rep","full_date":"2026-02-26T00:45:56.077Z","date":"2026-02-26","time":"00:45:56"},{"correct_response":"l","task":"test_phase","broad_category":"M","image_png":"M_Slate_04.png","image_id":308,"category_name":"Slate","category":20,"distinct_rating":2.2,"distinct_type":"Bottom","item_type":"Target","rt":1582,"stimulus":"Stimuli_Rocks480/M_Slate_04.png","response":"l","trial_type":"image-keyboard-response","trial_index":115,"plugin_version":"2.1.0","time_elapsed":331448,"subject_id":"93082","group":"Group2","condition":"1_Rep","full_date":"2026-02-26T00:45:56.077Z","date":"2026-02-26","time":"00:45:56","cor_ans":true},{"trial_type":"html-keyboard-response","rt":null,"stimulus":"<p style=\"color: green; font-size: 50px; font-weight: bold;\">Correct</p>","response":null,"trial_index":116,"plugin_version":"2.1.0","time_elapsed":331950,"subject_id":"93082","group":"Group2","condition":"1_Rep","full_date":"2026-02-26T00:45:56.077Z","date":"2026-02-26","time":"00:45:56"},{"correct_response":"a","task":"test_phase","broad_category":"I","image_png":"I_Gabbro_08.png","image_id":56,"category_name":"Gabbro","category":4,"distinct_rating":3.02,"distinct_type":"Bottom","item_type":"Foil","rt":4576,"stimulus":"Stimuli_Rocks480/I_Gabbro_08.png","response":"a","trial_type":"image-keyboard-response","trial_index":117,"plugin_version":"2.1.0","time_elapsed":336537,"subject_id":"93082","group":"Group2","condition":"1_Rep","full_date":"2026-02-26T00:45:56.077Z","date":"2026-02-26","time":"00:45:56","cor_ans":true},{"trial_type":"html-keyboard-response","rt":null,"stimulus":"<p style=\"color: green; font-size: 50px; font-weight: bold;\">Correct</p>","response":null,"trial_index":118,"plugin_version":"2.1.0","time_elapsed":337039,"subject_id":"93082","group":"Group2","condition":"1_Rep","full_date":"2026-02-26T00:45:56.077Z","date":"2026-02-26","time":"00:45:56"},{"correct_response":"a","task":"test_phase","broad_category":"I","image_png":"I_Diorite_03.png","image_id":35,"category_name":"Diorite","category":3,"distinct_rating":3.14,"distinct_type":"Bottom","item_type":"Foil","rt":2843,"stimulus":"Stimuli_Rocks480/I_Diorite_03.png","response":"l","trial_type":"image-keyboard-response","trial_index":119,"plugin_version":"2.1.0","time_elapsed":339899,"subject_id":"93082","group":"Group2","condition":"1_Rep","full_date":"2026-02-26T00:45:56.077Z","date":"2026-02-26","time":"00:45:56","cor_ans":false},{"trial_type":"html-keyboard-response","rt":null,"stimulus":"<p style=\"color: red; font-size: 50px; font-weight: bold;\">Incorrect</p>","response":null,"trial_index":120,"plugin_version":"2.1.0","time_elapsed":340401,"subject_id":"93082","group":"Group2","condition":"1_Rep","full_date":"2026-02-26T00:45:56.077Z","date":"2026-02-26","time":"00:45:56"},{"correct_response":"l","task":"test_phase","broad_category":"M","image_png":"M_Quartzite_07.png","image_id":279,"category_name":"Quartzite","category":18,"distinct_rating":1.97,"distinct_type":"Bottom","item_type":"Target","rt":1166,"stimulus":"Stimuli_Rocks480/M_Quartzite_07.png","response":"l","trial_type":"image-keyboard-response","trial_index":121,"plugin_version":"2.1.0","time_elapsed":341583,"subject_id":"93082","group":"Group2","condition":"1_Rep","full_date":"2026-02-26T00:45:56.077Z","date":"2026-02-26","time":"00:45:56","cor_ans":true},{"trial_type":"html-keyboard-response","rt":null,"stimulus":"<p style=\"color: green; font-size: 50px; font-weight: bold;\">Correct</p>","response":null,"trial_index":122,"plugin_version":"2.1.0","time_elapsed":342085,"subject_id":"93082","group":"Group2","condition":"1_Rep","full_date":"2026-02-26T00:45:56.077Z","date":"2026-02-26","time":"00:45:56"},{"correct_response":"l","task":"test_phase","broad_category":"M","image_png":"M_Marble_14.png","image_id":238,"category_name":"Marble","category":15,"distinct_rating":3.31,"distinct_type":"Bottom","item_type":"Target","rt":1044,"stimulus":"Stimuli_Rocks480/M_Marble_14.png","response":"l","trial_type":"image-keyboard-response","trial_index":123,"plugin_version":"2.1.0","time_elapsed":343143,"subject_id":"93082","group":"Group2","condition":"1_Rep","full_date":"2026-02-26T00:45:56.077Z","date":"2026-02-26","time":"00:45:56","cor_ans":true},{"trial_type":"html-keyboard-response","rt":null,"stimulus":"<p style=\"color: green; font-size: 50px; font-weight: bold;\">Correct</p>","response":null,"trial_index":124,"plugin_version":"2.1.0","time_elapsed":343645,"subject_id":"93082","group":"Group2","condition":"1_Rep","full_date":"2026-02-26T00:45:56.077Z","date":"2026-02-26","time":"00:45:56"},{"correct_response":"l","task":"test_phase","broad_category":"S","image_png":"S_Chert_13.png","image_id":365,"category_name":"Chert","category":23,"distinct_rating":6.57,"distinct_type":"Top","item_type":"Target","rt":1436,"stimulus":"Stimuli_Rocks480/S_Chert_13.png","response":"l","trial_type":"image-keyboard-response","trial_index":125,"plugin_version":"2.1.0","time_elapsed":345092,"subject_id":"93082","group":"Group2","condition":"1_Rep","full_date":"2026-02-26T00:45:56.077Z","date":"2026-02-26","time":"00:45:56","cor_ans":true},{"trial_type":"html-keyboard-response","rt":null,"stimulus":"<p style=\"color: green; font-size: 50px; font-weight: bold;\">Correct</p>","response":null,"trial_index":126,"plugin_version":"2.1.0","time_elapsed":345594,"subject_id":"93082","group":"Group2","condition":"1_Rep","full_date":"2026-02-26T00:45:56.077Z","date":"2026-02-26","time":"00:45:56"},{"correct_response":"a","task":"test_phase","broad_category":"M","image_png":"M_Phyllite_10.png","image_id":266,"category_name":"Phyllite","category":17,"distinct_rating":2.6,"distinct_type":"Bottom","item_type":"Foil","rt":1660,"stimulus":"Stimuli_Rocks480/M_Phyllite_10.png","response":"a","trial_type":"image-keyboard-response","trial_index":127,"plugin_version":"2.1.0","time_elapsed":347267,"subject_id":"93082","group":"Group2","condition":"1_Rep","full_date":"2026-02-26T00:45:56.077Z","date":"2026-02-26","time":"00:45:56","cor_ans":true},{"trial_type":"html-keyboard-response","rt":null,"stimulus":"<p style=\"color: green; font-size: 50px; font-weight: bold;\">Correct</p>","response":null,"trial_index":128,"plugin_version":"2.1.0","time_elapsed":347769,"subject_id":"93082","group":"Group2","condition":"1_Rep","full_date":"2026-02-26T00:45:56.077Z","date":"2026-02-26","time":"00:45:56"},{"correct_response":"a","task":"test_phase","broad_category":"I","image_png":"I_Andesite_10.png","image_id":10,"category_name":"Andesite","category":1,"distinct_rating":3.15,"distinct_type":"Bottom","item_type":"Foil","rt":2848,"stimulus":"Stimuli_Rocks480/I_Andesite_10.png","response":"a","trial_type":"image-keyboard-response","trial_index":129,"plugin_version":"2.1.0","time_elapsed":350627,"subject_id":"93082","group":"Group2","condition":"1_Rep","full_date":"2026-02-26T00:45:56.077Z","date":"2026-02-26","time":"00:45:56","cor_ans":true},{"trial_type":"html-keyboard-response","rt":null,"stimulus":"<p style=\"color: green; font-size: 50px; font-weight: bold;\">Correct</p>","response":null,"trial_index":130,"plugin_version":"2.1.0","time_elapsed":351129,"subject_id":"93082","group":"Group2","condition":"1_Rep","full_date":"2026-02-26T00:45:56.077Z","date":"2026-02-26","time":"00:45:56"},{"correct_response":"l","task":"test_phase","broad_category":"M","image_png":"M_Quartzite_12.png","image_id":284,"category_name":"Quartzite","category":18,"distinct_rating":1.92,"distinct_type":"Bottom","item_type":"Target","rt":4368,"stimulus":"Stimuli_Rocks480/M_Quartzite_12.png","response":"a","trial_type":"image-keyboard-response","trial_index":131,"plugin_version":"2.1.0","time_elapsed":355499,"subject_id":"93082","group":"Group2","condition":"1_Rep","full_date":"2026-02-26T00:45:56.077Z","date":"2026-02-26","time":"00:45:56","cor_ans":false},{"trial_type":"html-keyboard-response","rt":null,"stimulus":"<p style=\"color: red; font-size: 50px; font-weight: bold;\">Incorrect</p>","response":null,"trial_index":132,"plugin_version":"2.1.0","time_elapsed":356001,"subject_id":"93082","group":"Group2","condition":"1_Rep","full_date":"2026-02-26T00:45:56.077Z","date":"2026-02-26","time":"00:45:56"},{"correct_response":"l","task":"test_phase","broad_category":"I","image_png":"I_Gabbro_12.png","image_id":60,"category_name":"Gabbro","category":4,"distinct_rating":2.6,"distinct_type":"Bottom","item_type":"Target","rt":1991,"stimulus":"Stimuli_Rocks480/I_Gabbro_12.png","response":"l","trial_type":"image-keyboard-response","trial_index":133,"plugin_version":"2.1.0","time_elapsed":358009,"subject_id":"93082","group":"Group2","condition":"1_Rep","full_date":"2026-02-26T00:45:56.077Z","date":"2026-02-26","time":"00:45:56","cor_ans":true},{"trial_type":"html-keyboard-response","rt":null,"stimulus":"<p style=\"color: green; font-size: 50px; font-weight: bold;\">Correct</p>","response":null,"trial_index":134,"plugin_version":"2.1.0","time_elapsed":358511,"subject_id":"93082","group":"Group2","condition":"1_Rep","full_date":"2026-02-26T00:45:56.077Z","date":"2026-02-26","time":"00:45:56"},{"correct_response":"a","task":"test_phase","broad_category":"S","image_png":"S_Dolomite_14.png","image_id":398,"category_name":"Dolomite","category":25,"distinct_rating":1.43,"distinct_type":"Bottom","item_type":"Foil","rt":1453,"stimulus":"Stimuli_Rocks480/S_Dolomite_14.png","response":"l","trial_type":"image-keyboard-response","trial_index":135,"plugin_version":"2.1.0","time_elapsed":359977,"subject_id":"93082","group":"Group2","condition":"1_Rep","full_date":"2026-02-26T00:45:56.077Z","date":"2026-02-26","time":"00:45:56","cor_ans":false},{"trial_type":"html-keyboard-response","rt":null,"stimulus":"<p style=\"color: red; font-size: 50px; font-weight: bold;\">Incorrect</p>","response":null,"trial_index":136,"plugin_version":"2.1.0","time_elapsed":360479,"subject_id":"93082","group":"Group2","condition":"1_Rep","full_date":"2026-02-26T00:45:56.077Z","date":"2026-02-26","time":"00:45:56"},{"correct_response":"l","task":"test_phase","broad_category":"I","image_png":"I_Rhyolite_08.png","image_id":152,"category_name":"Rhyolite","category":10,"distinct_rating":1.38,"distinct_type":"Bottom","item_type":"Target","rt":1060,"stimulus":"Stimuli_Rocks480/I_Rhyolite_08.png","response":"l","trial_type":"image-keyboard-response","trial_index":137,"plugin_version":"2.1.0","time_elapsed":361541,"subject_id":"93082","group":"Group2","condition":"1_Rep","full_date":"2026-02-26T00:45:56.077Z","date":"2026-02-26","time":"00:45:56","cor_ans":true},{"trial_type":"html-keyboard-response","rt":null,"stimulus":"<p style=\"color: green; font-size: 50px; font-weight: bold;\">Correct</p>","response":null,"trial_index":138,"plugin_version":"2.1.0","time_elapsed":362043,"subject_id":"93082","group":"Group2","condition":"1_Rep","full_date":"2026-02-26T00:45:56.077Z","date":"2026-02-26","time":"00:45:56"},{"correct_response":"a","task":"test_phase","broad_category":"M","image_png":"M_Marble_06.png","image_id":230,"category_name":"Marble","category":15,"distinct_rating":3.4,"distinct_type":"Bottom","item_type":"Foil","rt":1221,"stimulus":"Stimuli_Rocks480/M_Marble_06.png","response":"a","trial_type":"image-keyboard-response","trial_index":139,"plugin_version":"2.1.0","time_elapsed":363277,"subject_id":"93082","group":"Group2","condition":"1_Rep","full_date":"2026-02-26T00:45:56.077Z","date":"2026-02-26","time":"00:45:56","cor_ans":true},{"trial_type":"html-keyboard-response","rt":null,"stimulus":"<p style=\"color: green; font-size: 50px; font-weight: bold;\">Correct</p>","response":null,"trial_index":140,"plugin_version":"2.1.0","time_elapsed":363779,"subject_id":"93082","group":"Group2","condition":"1_Rep","full_date":"2026-02-26T00:45:56.077Z","date":"2026-02-26","time":"00:45:56"},{"correct_response":"l","task":"test_phase","broad_category":"M","image_png":"M_Gneiss_15.png","image_id":207,"category_name":"Gneiss","category":13,"distinct_rating":3.11,"distinct_type":"Bottom","item_type":"Target","rt":1350,"stimulus":"Stimuli_Rocks480/M_Gneiss_15.png","response":"l","trial_type":"image-keyboard-response","trial_index":141,"plugin_version":"2.1.0","time_elapsed":365132,"subject_id":"93082","group":"Group2","condition":"1_Rep","full_date":"2026-02-26T00:45:56.077Z","date":"2026-02-26","time":"00:45:56","cor_ans":true},{"trial_type":"html-keyboard-response","rt":null,"stimulus":"<p style=\"color: green; font-size: 50px; font-weight: bold;\">Correct</p>","response":null,"trial_index":142,"plugin_version":"2.1.0","time_elapsed":365634,"subject_id":"93082","group":"Group2","condition":"1_Rep","full_date":"2026-02-26T00:45:56.077Z","date":"2026-02-26","time":"00:45:56"},{"correct_response":"a","task":"test_phase","broad_category":"S","image_png":"S_Rock Salt_01.png","image_id":433,"category_name":"Rock Salt","category":28,"distinct_rating":7.18,"distinct_type":"Top","item_type":"Foil","rt":2148,"stimulus":"Stimuli_Rocks480/S_Rock Salt_01.png","response":"l","trial_type":"image-keyboard-response","trial_index":143,"plugin_version":"2.1.0","time_elapsed":367797,"subject_id":"93082","group":"Group2","condition":"1_Rep","full_date":"2026-02-26T00:45:56.077Z","date":"2026-02-26","time":"00:45:56","cor_ans":false},{"trial_type":"html-keyboard-response","rt":null,"stimulus":"<p style=\"color: red; font-size: 50px; font-weight: bold;\">Incorrect</p>","response":null,"trial_index":144,"plugin_version":"2.1.0","time_elapsed":368299,"subject_id":"93082","group":"Group2","condition":"1_Rep","full_date":"2026-02-26T00:45:56.077Z","date":"2026-02-26","time":"00:45:56"},{"correct_response":"a","task":"test_phase","broad_category":"M","image_png":"M_Slate_15.png","image_id":319,"category_name":"Slate","category":20,"distinct_rating":2.13,"distinct_type":"Bottom","item_type":"Foil","rt":1824,"stimulus":"Stimuli_Rocks480/M_Slate_15.png","response":"l","trial_type":"image-keyboard-response","trial_index":145,"plugin_version":"2.1.0","time_elapsed":370136,"subject_id":"93082","group":"Group2","condition":"1_Rep","full_date":"2026-02-26T00:45:56.077Z","date":"2026-02-26","time":"00:45:56","cor_ans":false},{"trial_type":"html-keyboard-response","rt":null,"stimulus":"<p style=\"color: red; font-size: 50px; font-weight: bold;\">Incorrect</p>","response":null,"trial_index":146,"plugin_version":"2.1.0","time_elapsed":370639,"subject_id":"93082","group":"Group2","condition":"1_Rep","full_date":"2026-02-26T00:45:56.077Z","date":"2026-02-26","time":"00:45:56"},{"correct_response":"a","task":"test_phase","broad_category":"M","image_png":"M_Gneiss_05.png","image_id":197,"category_name":"Gneiss","category":13,"distinct_rating":2.97,"distinct_type":"Bottom","item_type":"Foil","rt":2573,"stimulus":"Stimuli_Rocks480/M_Gneiss_05.png","response":"l","trial_type":"image-keyboard-response","trial_index":147,"plugin_version":"2.1.0","time_elapsed":373231,"subject_id":"93082","group":"Group2","condition":"1_Rep","full_date":"2026-02-26T00:45:56.077Z","date":"2026-02-26","time":"00:45:56","cor_ans":false},{"trial_type":"html-keyboard-response","rt":null,"stimulus":"<p style=\"color: red; font-size: 50px; font-weight: bold;\">Incorrect</p>","response":null,"trial_index":148,"plugin_version":"2.1.0","time_elapsed":373733,"subject_id":"93082","group":"Group2","condition":"1_Rep","full_date":"2026-02-26T00:45:56.077Z","date":"2026-02-26","time":"00:45:56"},{"correct_response":"a","task":"test_phase","broad_category":"S","image_png":"S_Dolomite_13.png","image_id":397,"category_name":"Dolomite","category":25,"distinct_rating":1.77,"distinct_type":"Bottom","item_type":"Foil","rt":1284,"stimulus":"Stimuli_Rocks480/S_Dolomite_13.png","response":"a","trial_type":"image-keyboard-response","trial_index":149,"plugin_version":"2.1.0","time_elapsed":375031,"subject_id":"93082","group":"Group2","condition":"1_Rep","full_date":"2026-02-26T00:45:56.077Z","date":"2026-02-26","time":"00:45:56","cor_ans":true},{"trial_type":"html-keyboard-response","rt":null,"stimulus":"<p style=\"color: green; font-size: 50px; font-weight: bold;\">Correct</p>","response":null,"trial_index":150,"plugin_version":"2.1.0","time_elapsed":375534,"subject_id":"93082","group":"Group2","condition":"1_Rep","full_date":"2026-02-26T00:45:56.077Z","date":"2026-02-26","time":"00:45:56"},{"correct_response":"a","task":"test_phase","broad_category":"I","image_png":"I_Rhyolite_16.png","image_id":160,"category_name":"Rhyolite","category":10,"distinct_rating":2.19,"distinct_type":"Bottom","item_type":"Foil","rt":1529,"stimulus":"Stimuli_Rocks480/I_Rhyolite_16.png","response":"a","trial_type":"image-keyboard-response","trial_index":151,"plugin_version":"2.1.0","time_elapsed":377075,"subject_id":"93082","group":"Group2","condition":"1_Rep","full_date":"2026-02-26T00:45:56.077Z","date":"2026-02-26","time":"00:45:56","cor_ans":true},{"trial_type":"html-keyboard-response","rt":null,"stimulus":"<p style=\"color: green; font-size: 50px; font-weight: bold;\">Correct</p>","response":null,"trial_index":152,"plugin_version":"2.1.0","time_elapsed":377577,"subject_id":"93082","group":"Group2","condition":"1_Rep","full_date":"2026-02-26T00:45:56.077Z","date":"2026-02-26","time":"00:45:56"},{"correct_response":"l","task":"test_phase","broad_category":"I","image_png":"I_Pumice_13.png","image_id":141,"category_name":"Pumice","category":9,"distinct_rating":3.12,"distinct_type":"Bottom","item_type":"Target","rt":1298,"stimulus":"Stimuli_Rocks480/I_Pumice_13.png","response":"l","trial_type":"image-keyboard-response","trial_index":153,"plugin_version":"2.1.0","time_elapsed":378891,"subject_id":"93082","group":"Group2","condition":"1_Rep","full_date":"2026-02-26T00:45:56.077Z","date":"2026-02-26","time":"00:45:56","cor_ans":true},{"trial_type":"html-keyboard-response","rt":null,"stimulus":"<p style=\"color: green; font-size: 50px; font-weight: bold;\">Correct</p>","response":null,"trial_index":154,"plugin_version":"2.1.0","time_elapsed":379393,"subject_id":"93082","group":"Group2","condition":"1_Rep","full_date":"2026-02-26T00:45:56.077Z","date":"2026-02-26","time":"00:45:56"},{"correct_response":"l","task":"test_phase","broad_category":"M","image_png":"M_Marble_03.png","image_id":227,"category_name":"Marble","category":15,"distinct_rating":2.67,"distinct_type":"Bottom","item_type":"Target","rt":1404,"stimulus":"Stimuli_Rocks480/M_Marble_03.png","response":"l","trial_type":"image-keyboard-response","trial_index":155,"plugin_version":"2.1.0","time_elapsed":380811,"subject_id":"93082","group":"Group2","condition":"1_Rep","full_date":"2026-02-26T00:45:56.077Z","date":"2026-02-26","time":"00:45:56","cor_ans":true},{"trial_type":"html-keyboard-response","rt":null,"stimulus":"<p style=\"color: green; font-size: 50px; font-weight: bold;\">Correct</p>","response":null,"trial_index":156,"plugin_version":"2.1.0","time_elapsed":381313,"subject_id":"93082","group":"Group2","condition":"1_Rep","full_date":"2026-02-26T00:45:56.077Z","date":"2026-02-26","time":"00:45:56"},{"correct_response":"a","task":"test_phase","broad_category":"I","image_png":"I_Rhyolite_14.png","image_id":158,"category_name":"Rhyolite","category":10,"distinct_rating":2.59,"distinct_type":"Bottom","item_type":"Foil","rt":1635,"stimulus":"Stimuli_Rocks480/I_Rhyolite_14.png","response":"a","trial_type":"image-keyboard-response","trial_index":157,"plugin_version":"2.1.0","time_elapsed":382961,"subject_id":"93082","group":"Group2","condition":"1_Rep","full_date":"2026-02-26T00:45:56.077Z","date":"2026-02-26","time":"00:45:56","cor_ans":true},{"trial_type":"html-keyboard-response","rt":null,"stimulus":"<p style=\"color: green; font-size: 50px; font-weight: bold;\">Correct</p>","response":null,"trial_index":158,"plugin_version":"2.1.0","time_elapsed":383463,"subject_id":"93082","group":"Group2","condition":"1_Rep","full_date":"2026-02-26T00:45:56.077Z","date":"2026-02-26","time":"00:45:56"},{"correct_response":"a","task":"test_phase","broad_category":"M","image_png":"M_Gneiss_13.png","image_id":205,"category_name":"Gneiss","category":13,"distinct_rating":3.26,"distinct_type":"Bottom","item_type":"Foil","rt":2204,"stimulus":"Stimuli_Rocks480/M_Gneiss_13.png","response":"l","trial_type":"image-keyboard-response","trial_index":159,"plugin_version":"2.1.0","time_elapsed":385677,"subject_id":"93082","group":"Group2","condition":"1_Rep","full_date":"2026-02-26T00:45:56.077Z","date":"2026-02-26","time":"00:45:56","cor_ans":false},{"trial_type":"html-keyboard-response","rt":null,"stimulus":"<p style=\"color: red; font-size: 50px; font-weight: bold;\">Incorrect</p>","response":null,"trial_index":160,"plugin_version":"2.1.0","time_elapsed":386179,"subject_id":"93082","group":"Group2","condition":"1_Rep","full_date":"2026-02-26T00:45:56.077Z","date":"2026-02-26","time":"00:45:56"},{"correct_response":"l","task":"test_phase","broad_category":"I","image_png":"I_Basalt_13.png","image_id":29,"category_name":"Basalt","category":2,"distinct_rating":2.68,"distinct_type":"Bottom","item_type":"Target","rt":1073,"stimulus":"Stimuli_Rocks480/I_Basalt_13.png","response":"l","trial_type":"image-keyboard-response","trial_index":161,"plugin_version":"2.1.0","time_elapsed":387265,"subject_id":"93082","group":"Group2","condition":"1_Rep","full_date":"2026-02-26T00:45:56.077Z","date":"2026-02-26","time":"00:45:56","cor_ans":true},{"trial_type":"html-keyboard-response","rt":null,"stimulus":"<p style=\"color: green; font-size: 50px; font-weight: bold;\">Correct</p>","response":null,"trial_index":162,"plugin_version":"2.1.0","time_elapsed":387767,"subject_id":"93082","group":"Group2","condition":"1_Rep","full_date":"2026-02-26T00:45:56.077Z","date":"2026-02-26","time":"00:45:56"},{"correct_response":"a","task":"test_phase","broad_category":"S","image_png":"S_Dolomite_12.png","image_id":396,"category_name":"Dolomite","category":25,"distinct_rating":1.85,"distinct_type":"Bottom","item_type":"Foil","rt":1003,"stimulus":"Stimuli_Rocks480/S_Dolomite_12.png","response":"a","trial_type":"image-keyboard-response","trial_index":163,"plugin_version":"2.1.0","time_elapsed":388783,"subject_id":"93082","group":"Group2","condition":"1_Rep","full_date":"2026-02-26T00:45:56.077Z","date":"2026-02-26","time":"00:45:56","cor_ans":true},{"trial_type":"html-keyboard-response","rt":null,"stimulus":"<p style=\"color: green; font-size: 50px; font-weight: bold;\">Correct</p>","response":null,"trial_index":164,"plugin_version":"2.1.0","time_elapsed":389286,"subject_id":"93082","group":"Group2","condition":"1_Rep","full_date":"2026-02-26T00:45:56.077Z","date":"2026-02-26","time":"00:45:56"},{"correct_response":"a","task":"test_phase","broad_category":"S","image_png":"S_Shale_01.png","image_id":465,"category_name":"Shale","category":30,"distinct_rating":2.7,"distinct_type":"Bottom","item_type":"Foil","rt":1271,"stimulus":"Stimuli_Rocks480/S_Shale_01.png","response":"a","trial_type":"image-keyboard-response","trial_index":165,"plugin_version":"2.1.0","time_elapsed":390571,"subject_id":"93082","group":"Group2","condition":"1_Rep","full_date":"2026-02-26T00:45:56.077Z","date":"2026-02-26","time":"00:45:56","cor_ans":true},{"trial_type":"html-keyboard-response","rt":null,"stimulus":"<p style=\"color: green; font-size: 50px; font-weight: bold;\">Correct</p>","response":null,"trial_index":166,"plugin_version":"2.1.0","time_elapsed":391074,"subject_id":"93082","group":"Group2","condition":"1_Rep","full_date":"2026-02-26T00:45:56.077Z","date":"2026-02-26","time":"00:45:56"},{"correct_response":"l","task":"test_phase","broad_category":"I","image_png":"I_Pegmatite_03.png","image_id":99,"category_name":"Pegmatite","category":7,"distinct_rating":7.24,"distinct_type":"Top","item_type":"Target","rt":1207,"stimulus":"Stimuli_Rocks480/I_Pegmatite_03.png","response":"l","trial_type":"image-keyboard-response","trial_index":167,"plugin_version":"2.1.0","time_elapsed":392293,"subject_id":"93082","group":"Group2","condition":"1_Rep","full_date":"2026-02-26T00:45:56.077Z","date":"2026-02-26","time":"00:45:56","cor_ans":true},{"trial_type":"html-keyboard-response","rt":null,"stimulus":"<p style=\"color: green; font-size: 50px; font-weight: bold;\">Correct</p>","response":null,"trial_index":168,"plugin_version":"2.1.0","time_elapsed":392795,"subject_id":"93082","group":"Group2","condition":"1_Rep","full_date":"2026-02-26T00:45:56.077Z","date":"2026-02-26","time":"00:45:56"},{"correct_response":"l","task":"test_phase","broad_category":"M","image_png":"M_Slate_10.png","image_id":314,"category_name":"Slate","category":20,"distinct_rating":1.94,"distinct_type":"Bottom","item_type":"Target","rt":1680,"stimulus":"Stimuli_Rocks480/M_Slate_10.png","response":"a","trial_type":"image-keyboard-response","trial_index":169,"plugin_version":"2.1.0","time_elapsed":394484,"subject_id":"93082","group":"Group2","condition":"1_Rep","full_date":"2026-02-26T00:45:56.077Z","date":"2026-02-26","time":"00:45:56","cor_ans":false},{"trial_type":"html-keyboard-response","rt":null,"stimulus":"<p style=\"color: red; font-size: 50px; font-weight: bold;\">Incorrect</p>","response":null,"trial_index":170,"plugin_version":"2.1.0","time_elapsed":394986,"subject_id":"93082","group":"Group2","condition":"1_Rep","full_date":"2026-02-26T00:45:56.077Z","date":"2026-02-26","time":"00:45:56"},{"correct_response":"l","task":"test_phase","broad_category":"I","image_png":"I_Rhyolite_10.png","image_id":154,"category_name":"Rhyolite","category":10,"distinct_rating":2.88,"distinct_type":"Bottom","item_type":"Target","rt":1609,"stimulus":"Stimuli_Rocks480/I_Rhyolite_10.png","response":"l","trial_type":"image-keyboard-response","trial_index":171,"plugin_version":"2.1.0","time_elapsed":396611,"subject_id":"93082","group":"Group2","condition":"1_Rep","full_date":"2026-02-26T00:45:56.077Z","date":"2026-02-26","time":"00:45:56","cor_ans":true},{"trial_type":"html-keyboard-response","rt":null,"stimulus":"<p style=\"color: green; font-size: 50px; font-weight: bold;\">Correct</p>","response":null,"trial_index":172,"plugin_version":"2.1.0","time_elapsed":397113,"subject_id":"93082","group":"Group2","condition":"1_Rep","full_date":"2026-02-26T00:45:56.077Z","date":"2026-02-26","time":"00:45:56"},{"correct_response":"l","task":"test_phase","broad_category":"S","image_png":"S_Conglomerate_14.png","image_id":382,"category_name":"Conglomerate","category":24,"distinct_rating":6.86,"distinct_type":"Top","item_type":"Target","rt":955,"stimulus":"Stimuli_Rocks480/S_Conglomerate_14.png","response":"l","trial_type":"image-keyboard-response","trial_index":173,"plugin_version":"2.1.0","time_elapsed":398079,"subject_id":"93082","group":"Group2","condition":"1_Rep","full_date":"2026-02-26T00:45:56.077Z","date":"2026-02-26","time":"00:45:56","cor_ans":true},{"trial_type":"html-keyboard-response","rt":null,"stimulus":"<p style=\"color: green; font-size: 50px; font-weight: bold;\">Correct</p>","response":null,"trial_index":174,"plugin_version":"2.1.0","time_elapsed":398581,"subject_id":"93082","group":"Group2","condition":"1_Rep","full_date":"2026-02-26T00:45:56.077Z","date":"2026-02-26","time":"00:45:56"},{"correct_response":"a","task":"test_phase","broad_category":"I","image_png":"I_Basalt_01.png","image_id":17,"category_name":"Basalt","category":2,"distinct_rating":1.92,"distinct_type":"Bottom","item_type":"Foil","rt":2590,"stimulus":"Stimuli_Rocks480/I_Basalt_01.png","response":"a","trial_type":"image-keyboard-response","trial_index":175,"plugin_version":"2.1.0","time_elapsed":401188,"subject_id":"93082","group":"Group2","condition":"1_Rep","full_date":"2026-02-26T00:45:56.077Z","date":"2026-02-26","time":"00:45:56","cor_ans":true},{"trial_type":"html-keyboard-response","rt":null,"stimulus":"<p style=\"color: green; font-size: 50px; font-weight: bold;\">Correct</p>","response":null,"trial_index":176,"plugin_version":"2.1.0","time_elapsed":401690,"subject_id":"93082","group":"Group2","condition":"1_Rep","full_date":"2026-02-26T00:45:56.077Z","date":"2026-02-26","time":"00:45:56"},{"correct_response":"l","task":"test_phase","broad_category":"S","image_png":"S_Sandstone_08.png","image_id":456,"category_name":"Sandstone","category":29,"distinct_rating":1.5,"distinct_type":"Bottom","item_type":"Target","rt":1114,"stimulus":"Stimuli_Rocks480/S_Sandstone_08.png","response":"l","trial_type":"image-keyboard-response","trial_index":177,"plugin_version":"2.1.0","time_elapsed":402818,"subject_id":"93082","group":"Group2","condition":"1_Rep","full_date":"2026-02-26T00:45:56.077Z","date":"2026-02-26","time":"00:45:56","cor_ans":true},{"trial_type":"html-keyboard-response","rt":null,"stimulus":"<p style=\"color: green; font-size: 50px; font-weight: bold;\">Correct</p>","response":null,"trial_index":178,"plugin_version":"2.1.0","time_elapsed":403320,"subject_id":"93082","group":"Group2","condition":"1_Rep","full_date":"2026-02-26T00:45:56.077Z","date":"2026-02-26","time":"00:45:56"},{"correct_response":"a","task":"test_phase","broad_category":"M","image_png":"M_Quartzite_05.png","image_id":277,"category_name":"Quartzite","category":18,"distinct_rating":2.23,"distinct_type":"Bottom","item_type":"Foil","rt":1636,"stimulus":"Stimuli_Rocks480/M_Quartzite_05.png","response":"a","trial_type":"image-keyboard-response","trial_index":179,"plugin_version":"2.1.0","time_elapsed":404971,"subject_id":"93082","group":"Group2","condition":"1_Rep","full_date":"2026-02-26T00:45:56.077Z","date":"2026-02-26","time":"00:45:56","cor_ans":true},{"trial_type":"html-keyboard-response","rt":null,"stimulus":"<p style=\"color: green; font-size: 50px; font-weight: bold;\">Correct</p>","response":null,"trial_index":180,"plugin_version":"2.1.0","time_elapsed":405473,"subject_id":"93082","group":"Group2","condition":"1_Rep","full_date":"2026-02-26T00:45:56.077Z","date":"2026-02-26","time":"00:45:56"},{"correct_response":"a","task":"test_phase","broad_category":"I","image_png":"I_Basalt_09.png","image_id":25,"category_name":"Basalt","category":2,"distinct_rating":1.89,"distinct_type":"Bottom","item_type":"Foil","rt":2587,"stimulus":"Stimuli_Rocks480/I_Basalt_09.png","response":"l","trial_type":"image-keyboard-response","trial_index":181,"plugin_version":"2.1.0","time_elapsed":408069,"subject_id":"93082","group":"Group2","condition":"1_Rep","full_date":"2026-02-26T00:45:56.077Z","date":"2026-02-26","time":"00:45:56","cor_ans":false},{"trial_type":"html-keyboard-response","rt":null,"stimulus":"<p style=\"color: red; font-size: 50px; font-weight: bold;\">Incorrect</p>","response":null,"trial_index":182,"plugin_version":"2.1.0","time_elapsed":408570,"subject_id":"93082","group":"Group2","condition":"1_Rep","full_date":"2026-02-26T00:45:56.077Z","date":"2026-02-26","time":"00:45:56"},{"correct_response":"a","task":"test_phase","broad_category":"I","image_png":"I_Obsidian_05.png","image_id":85,"category_name":"Obsidian","category":6,"distinct_rating":7.32,"distinct_type":"Top","item_type":"Foil","rt":1887,"stimulus":"Stimuli_Rocks480/I_Obsidian_05.png","response":"l","trial_type":"image-keyboard-response","trial_index":183,"plugin_version":"2.1.0","time_elapsed":410468,"subject_id":"93082","group":"Group2","condition":"1_Rep","full_date":"2026-02-26T00:45:56.077Z","date":"2026-02-26","time":"00:45:56","cor_ans":false},{"trial_type":"html-keyboard-response","rt":null,"stimulus":"<p style=\"color: red; font-size: 50px; font-weight: bold;\">Incorrect</p>","response":null,"trial_index":184,"plugin_version":"2.1.0","time_elapsed":410970,"subject_id":"93082","group":"Group2","condition":"1_Rep","full_date":"2026-02-26T00:45:56.077Z","date":"2026-02-26","time":"00:45:56"},{"correct_response":"l","task":"test_phase","broad_category":"S","image_png":"S_Dolomite_01.png","image_id":385,"category_name":"Dolomite","category":25,"distinct_rating":1.43,"distinct_type":"Bottom","item_type":"Target","rt":1421,"stimulus":"Stimuli_Rocks480/S_Dolomite_01.png","response":"a","trial_type":"image-keyboard-response","trial_index":185,"plugin_version":"2.1.0","time_elapsed":412408,"subject_id":"93082","group":"Group2","condition":"1_Rep","full_date":"2026-02-26T00:45:56.077Z","date":"2026-02-26","time":"00:45:56","cor_ans":false},{"trial_type":"html-keyboard-response","rt":null,"stimulus":"<p style=\"color: red; font-size: 50px; font-weight: bold;\">Incorrect</p>","response":null,"trial_index":186,"plugin_version":"2.1.0","time_elapsed":412910,"subject_id":"93082","group":"Group2","condition":"1_Rep","full_date":"2026-02-26T00:45:56.077Z","date":"2026-02-26","time":"00:45:56"},{"correct_response":"a","task":"test_phase","broad_category":"I","image_png":"I_Gabbro_16.png","image_id":64,"category_name":"Gabbro","category":4,"distinct_rating":2.52,"distinct_type":"Bottom","item_type":"Foil","rt":1974,"stimulus":"Stimuli_Rocks480/I_Gabbro_16.png","response":"l","trial_type":"image-keyboard-response","trial_index":187,"plugin_version":"2.1.0","time_elapsed":414897,"subject_id":"93082","group":"Group2","condition":"1_Rep","full_date":"2026-02-26T00:45:56.077Z","date":"2026-02-26","time":"00:45:56","cor_ans":false},{"trial_type":"html-keyboard-response","rt":null,"stimulus":"<p style=\"color: red; font-size: 50px; font-weight: bold;\">Incorrect</p>","response":null,"trial_index":188,"plugin_version":"2.1.0","time_elapsed":415400,"subject_id":"93082","group":"Group2","condition":"1_Rep","full_date":"2026-02-26T00:45:56.077Z","date":"2026-02-26","time":"00:45:56"},{"correct_response":"l","task":"test_phase","broad_category":"M","image_png":"M_Marble_02.png","image_id":226,"category_name":"Marble","category":15,"distinct_rating":3.2,"distinct_type":"Bottom","item_type":"Target","rt":1009,"stimulus":"Stimuli_Rocks480/M_Marble_02.png","response":"l","trial_type":"image-keyboard-response","trial_index":189,"plugin_version":"2.1.0","time_elapsed":416422,"subject_id":"93082","group":"Group2","condition":"1_Rep","full_date":"2026-02-26T00:45:56.077Z","date":"2026-02-26","time":"00:45:56","cor_ans":true},{"trial_type":"html-keyboard-response","rt":null,"stimulus":"<p style=\"color: green; font-size: 50px; font-weight: bold;\">Correct</p>","response":null,"trial_index":190,"plugin_version":"2.1.0","time_elapsed":416925,"subject_id":"93082","group":"Group2","condition":"1_Rep","full_date":"2026-02-26T00:45:56.077Z","date":"2026-02-26","time":"00:45:56"},{"correct_response":"l","task":"test_phase","broad_category":"M","image_png":"M_Phyllite_05.png","image_id":261,"category_name":"Phyllite","category":17,"distinct_rating":2.14,"distinct_type":"Bottom","item_type":"Target","rt":1895,"stimulus":"Stimuli_Rocks480/M_Phyllite_05.png","response":"a","trial_type":"image-keyboard-response","trial_index":191,"plugin_version":"2.1.0","time_elapsed":418833,"subject_id":"93082","group":"Group2","condition":"1_Rep","full_date":"2026-02-26T00:45:56.077Z","date":"2026-02-26","time":"00:45:56","cor_ans":false},{"trial_type":"html-keyboard-response","rt":null,"stimulus":"<p style=\"color: red; font-size: 50px; font-weight: bold;\">Incorrect</p>","response":null,"trial_index":192,"plugin_version":"2.1.0","time_elapsed":419336,"subject_id":"93082","group":"Group2","condition":"1_Rep","full_date":"2026-02-26T00:45:56.077Z","date":"2026-02-26","time":"00:45:56"},{"correct_response":"a","task":"test_phase","broad_category":"M","image_png":"M_Quartzite_13.png","image_id":285,"category_name":"Quartzite","category":18,"distinct_rating":2.27,"distinct_type":"Bottom","item_type":"Foil","rt":3348,"stimulus":"Stimuli_Rocks480/M_Quartzite_13.png","response":"a","trial_type":"image-keyboard-response","trial_index":193,"plugin_version":"2.1.0","time_elapsed":422698,"subject_id":"93082","group":"Group2","condition":"1_Rep","full_date":"2026-02-26T00:45:56.077Z","date":"2026-02-26","time":"00:45:56","cor_ans":true},{"trial_type":"html-keyboard-response","rt":null,"stimulus":"<p style=\"color: green; font-size: 50px; font-weight: bold;\">Correct</p>","response":null,"trial_index":194,"plugin_version":"2.1.0","time_elapsed":423201,"subject_id":"93082","group":"Group2","condition":"1_Rep","full_date":"2026-02-26T00:45:56.077Z","date":"2026-02-26","time":"00:45:56"},{"correct_response":"l","task":"test_phase","broad_category":"I","image_png":"I_Obsidian_06.png","image_id":86,"category_name":"Obsidian","category":6,"distinct_rating":8.01,"distinct_type":"Top","item_type":"Target","rt":847,"stimulus":"Stimuli_Rocks480/I_Obsidian_06.png","response":"l","trial_type":"image-keyboard-response","trial_index":195,"plugin_version":"2.1.0","time_elapsed":424065,"subject_id":"93082","group":"Group2","condition":"1_Rep","full_date":"2026-02-26T00:45:56.077Z","date":"2026-02-26","time":"00:45:56","cor_ans":true},{"trial_type":"html-keyboard-response","rt":null,"stimulus":"<p style=\"color: green; font-size: 50px; font-weight: bold;\">Correct</p>","response":null,"trial_index":196,"plugin_version":"2.1.0","time_elapsed":424567,"subject_id":"93082","group":"Group2","condition":"1_Rep","full_date":"2026-02-26T00:45:56.077Z","date":"2026-02-26","time":"00:45:56"},{"correct_response":"l","task":"test_phase","broad_category":"S","image_png":"S_Shale_07.png","image_id":471,"category_name":"Shale","category":30,"distinct_rating":2.73,"distinct_type":"Bottom","item_type":"Target","rt":1390,"stimulus":"Stimuli_Rocks480/S_Shale_07.png","response":"a","trial_type":"image-keyboard-response","trial_index":197,"plugin_version":"2.1.0","time_elapsed":425971,"subject_id":"93082","group":"Group2","condition":"1_Rep","full_date":"2026-02-26T00:45:56.077Z","date":"2026-02-26","time":"00:45:56","cor_ans":false},{"trial_type":"html-keyboard-response","rt":null,"stimulus":"<p style=\"color: red; font-size: 50px; font-weight: bold;\">Incorrect</p>","response":null,"trial_index":198,"plugin_version":"2.1.0","time_elapsed":426474,"subject_id":"93082","group":"Group2","condition":"1_Rep","full_date":"2026-02-26T00:45:56.077Z","date":"2026-02-26","time":"00:45:56"},{"correct_response":"l","task":"test_phase","broad_category":"I","image_png":"I_Rhyolite_05.png","image_id":149,"category_name":"Rhyolite","category":10,"distinct_rating":3.02,"distinct_type":"Bottom","item_type":"Target","rt":1315,"stimulus":"Stimuli_Rocks480/I_Rhyolite_05.png","response":"l","trial_type":"image-keyboard-response","trial_index":199,"plugin_version":"2.1.0","time_elapsed":427806,"subject_id":"93082","group":"Group2","condition":"1_Rep","full_date":"2026-02-26T00:45:56.077Z","date":"2026-02-26","time":"00:45:56","cor_ans":true},{"trial_type":"html-keyboard-response","rt":null,"stimulus":"<p style=\"color: green; font-size: 50px; font-weight: bold;\">Correct</p>","response":null,"trial_index":200,"plugin_version":"2.1.0","time_elapsed":428308,"subject_id":"93082","group":"Group2","condition":"1_Rep","full_date":"2026-02-26T00:45:56.077Z","date":"2026-02-26","time":"00:45:56"},{"correct_response":"l","task":"test_phase","broad_category":"I","image_png":"I_Diorite_10.png","image_id":42,"category_name":"Diorite","category":3,"distinct_rating":2.84,"distinct_type":"Bottom","item_type":"Target","rt":2954,"stimulus":"Stimuli_Rocks480/I_Diorite_10.png","response":"a","trial_type":"image-keyboard-response","trial_index":201,"plugin_version":"2.1.0","time_elapsed":431276,"subject_id":"93082","group":"Group2","condition":"1_Rep","full_date":"2026-02-26T00:45:56.077Z","date":"2026-02-26","time":"00:45:56","cor_ans":false},{"trial_type":"html-keyboard-response","rt":null,"stimulus":"<p style=\"color: red; font-size: 50px; font-weight: bold;\">Incorrect</p>","response":null,"trial_index":202,"plugin_version":"2.1.0","time_elapsed":431778,"subject_id":"93082","group":"Group2","condition":"1_Rep","full_date":"2026-02-26T00:45:56.077Z","date":"2026-02-26","time":"00:45:56"},{"correct_response":"l","task":"test_phase","broad_category":"I","image_png":"I_Pegmatite_11.png","image_id":107,"category_name":"Pegmatite","category":7,"distinct_rating":7.11,"distinct_type":"Top","item_type":"Target","rt":1050,"stimulus":"Stimuli_Rocks480/I_Pegmatite_11.png","response":"l","trial_type":"image-keyboard-response","trial_index":203,"plugin_version":"2.1.0","time_elapsed":432845,"subject_id":"93082","group":"Group2","condition":"1_Rep","full_date":"2026-02-26T00:45:56.077Z","date":"2026-02-26","time":"00:45:56","cor_ans":true},{"trial_type":"html-keyboard-response","rt":null,"stimulus":"<p style=\"color: green; font-size: 50px; font-weight: bold;\">Correct</p>","response":null,"trial_index":204,"plugin_version":"2.1.0","time_elapsed":433348,"subject_id":"93082","group":"Group2","condition":"1_Rep","full_date":"2026-02-26T00:45:56.077Z","date":"2026-02-26","time":"00:45:56"},{"correct_response":"a","task":"test_phase","broad_category":"I","image_png":"I_Gabbro_11.png","image_id":59,"category_name":"Gabbro","category":4,"distinct_rating":1.99,"distinct_type":"Bottom","item_type":"Foil","rt":1267,"stimulus":"Stimuli_Rocks480/I_Gabbro_11.png","response":"a","trial_type":"image-keyboard-response","trial_index":205,"plugin_version":"2.1.0","time_elapsed":434627,"subject_id":"93082","group":"Group2","condition":"1_Rep","full_date":"2026-02-26T00:45:56.077Z","date":"2026-02-26","time":"00:45:56","cor_ans":true},{"trial_type":"html-keyboard-response","rt":null,"stimulus":"<p style=\"color: green; font-size: 50px; font-weight: bold;\">Correct</p>","response":null,"trial_index":206,"plugin_version":"2.1.0","time_elapsed":435129,"subject_id":"93082","group":"Group2","condition":"1_Rep","full_date":"2026-02-26T00:45:56.077Z","date":"2026-02-26","time":"00:45:56"},{"correct_response":"l","task":"test_phase","broad_category":"I","image_png":"I_Pumice_14.png","image_id":142,"category_name":"Pumice","category":9,"distinct_rating":3.22,"distinct_type":"Bottom","item_type":"Target","rt":936,"stimulus":"Stimuli_Rocks480/I_Pumice_14.png","response":"l","trial_type":"image-keyboard-response","trial_index":207,"plugin_version":"2.1.0","time_elapsed":436080,"subject_id":"93082","group":"Group2","condition":"1_Rep","full_date":"2026-02-26T00:45:56.077Z","date":"2026-02-26","time":"00:45:56","cor_ans":true},{"trial_type":"html-keyboard-response","rt":null,"stimulus":"<p style=\"color: green; font-size: 50px; font-weight: bold;\">Correct</p>","response":null,"trial_index":208,"plugin_version":"2.1.0","time_elapsed":436582,"subject_id":"93082","group":"Group2","condition":"1_Rep","full_date":"2026-02-26T00:45:56.077Z","date":"2026-02-26","time":"00:45:56"},{"correct_response":"l","task":"test_phase","broad_category":"I","image_png":"I_Peridotite_13.png","image_id":125,"category_name":"Peridotite","category":8,"distinct_rating":7.28,"distinct_type":"Top","item_type":"Target","rt":1419,"stimulus":"Stimuli_Rocks480/I_Peridotite_13.png","response":"l","trial_type":"image-keyboard-response","trial_index":209,"plugin_version":"2.1.0","time_elapsed":438017,"subject_id":"93082","group":"Group2","condition":"1_Rep","full_date":"2026-02-26T00:45:56.077Z","date":"2026-02-26","time":"00:45:56","cor_ans":true},{"trial_type":"html-keyboard-response","rt":null,"stimulus":"<p style=\"color: green; font-size: 50px; font-weight: bold;\">Correct</p>","response":null,"trial_index":210,"plugin_version":"2.1.0","time_elapsed":438519,"subject_id":"93082","group":"Group2","condition":"1_Rep","full_date":"2026-02-26T00:45:56.077Z","date":"2026-02-26","time":"00:45:56"},{"correct_response":"a","task":"test_phase","broad_category":"S","image_png":"S_Conglomerate_05.png","image_id":373,"category_name":"Conglomerate","category":24,"distinct_rating":7.32,"distinct_type":"Top","item_type":"Foil","rt":1668,"stimulus":"Stimuli_Rocks480/S_Conglomerate_05.png","response":"l","trial_type":"image-keyboard-response","trial_index":211,"plugin_version":"2.1.0","time_elapsed":440201,"subject_id":"93082","group":"Group2","condition":"1_Rep","full_date":"2026-02-26T00:45:56.077Z","date":"2026-02-26","time":"00:45:56","cor_ans":false},{"trial_type":"html-keyboard-response","rt":null,"stimulus":"<p style=\"color: red; font-size: 50px; font-weight: bold;\">Incorrect</p>","response":null,"trial_index":212,"plugin_version":"2.1.0","time_elapsed":440703,"subject_id":"93082","group":"Group2","condition":"1_Rep","full_date":"2026-02-26T00:45:56.077Z","date":"2026-02-26","time":"00:45:56"},{"correct_response":"a","task":"test_phase","broad_category":"S","image_png":"S_Shale_12.png","image_id":476,"category_name":"Shale","category":30,"distinct_rating":2.48,"distinct_type":"Bottom","item_type":"Foil","rt":1525,"stimulus":"Stimuli_Rocks480/S_Shale_12.png","response":"a","trial_type":"image-keyboard-response","trial_index":213,"plugin_version":"2.1.0","time_elapsed":442244,"subject_id":"93082","group":"Group2","condition":"1_Rep","full_date":"2026-02-26T00:45:56.077Z","date":"2026-02-26","time":"00:45:56","cor_ans":true},{"trial_type":"html-keyboard-response","rt":null,"stimulus":"<p style=\"color: green; font-size: 50px; font-weight: bold;\">Correct</p>","response":null,"trial_index":214,"plugin_version":"2.1.0","time_elapsed":442746,"subject_id":"93082","group":"Group2","condition":"1_Rep","full_date":"2026-02-26T00:45:56.077Z","date":"2026-02-26","time":"00:45:56"},{"correct_response":"a","task":"test_phase","broad_category":"I","image_png":"I_Rhyolite_11.png","image_id":155,"category_name":"Rhyolite","category":10,"distinct_rating":1.73,"distinct_type":"Bottom","item_type":"Foil","rt":1753,"stimulus":"Stimuli_Rocks480/I_Rhyolite_11.png","response":"l","trial_type":"image-keyboard-response","trial_index":215,"plugin_version":"2.1.0","time_elapsed":444511,"subject_id":"93082","group":"Group2","condition":"1_Rep","full_date":"2026-02-26T00:45:56.077Z","date":"2026-02-26","time":"00:45:56","cor_ans":false},{"trial_type":"html-keyboard-response","rt":null,"stimulus":"<p style=\"color: red; font-size: 50px; font-weight: bold;\">Incorrect</p>","response":null,"trial_index":216,"plugin_version":"2.1.0","time_elapsed":445013,"subject_id":"93082","group":"Group2","condition":"1_Rep","full_date":"2026-02-26T00:45:56.077Z","date":"2026-02-26","time":"00:45:56"},{"correct_response":"l","task":"test_phase","broad_category":"M","image_png":"M_Quartzite_15.png","image_id":287,"category_name":"Quartzite","category":18,"distinct_rating":2.19,"distinct_type":"Bottom","item_type":"Target","rt":2566,"stimulus":"Stimuli_Rocks480/M_Quartzite_15.png","response":"a","trial_type":"image-keyboard-response","trial_index":217,"plugin_version":"2.1.0","time_elapsed":447595,"subject_id":"93082","group":"Group2","condition":"1_Rep","full_date":"2026-02-26T00:45:56.077Z","date":"2026-02-26","time":"00:45:56","cor_ans":false},{"trial_type":"html-keyboard-response","rt":null,"stimulus":"<p style=\"color: red; font-size: 50px; font-weight: bold;\">Incorrect</p>","response":null,"trial_index":218,"plugin_version":"2.1.0","time_elapsed":448097,"subject_id":"93082","group":"Group2","condition":"1_Rep","full_date":"2026-02-26T00:45:56.077Z","date":"2026-02-26","time":"00:45:56"},{"correct_response":"l","task":"test_phase","broad_category":"I","image_png":"I_Diorite_15.png","image_id":47,"category_name":"Diorite","category":3,"distinct_rating":3.05,"distinct_type":"Bottom","item_type":"Target","rt":733,"stimulus":"Stimuli_Rocks480/I_Diorite_15.png","response":"l","trial_type":"image-keyboard-response","trial_index":219,"plugin_version":"2.1.0","time_elapsed":448843,"subject_id":"93082","group":"Group2","condition":"1_Rep","full_date":"2026-02-26T00:45:56.077Z","date":"2026-02-26","time":"00:45:56","cor_ans":true},{"trial_type":"html-keyboard-response","rt":null,"stimulus":"<p style=\"color: green; font-size: 50px; font-weight: bold;\">Correct</p>","response":null,"trial_index":220,"plugin_version":"2.1.0","time_elapsed":449346,"subject_id":"93082","group":"Group2","condition":"1_Rep","full_date":"2026-02-26T00:45:56.077Z","date":"2026-02-26","time":"00:45:56"},{"correct_response":"a","task":"test_phase","broad_category":"M","image_png":"M_Slate_11.png","image_id":315,"category_name":"Slate","category":20,"distinct_rating":2.75,"distinct_type":"Bottom","item_type":"Foil","rt":1126,"stimulus":"Stimuli_Rocks480/M_Slate_11.png","response":"a","trial_type":"image-keyboard-response","trial_index":221,"plugin_version":"2.1.0","time_elapsed":450482,"subject_id":"93082","group":"Group2","condition":"1_Rep","full_date":"2026-02-26T00:45:56.077Z","date":"2026-02-26","time":"00:45:56","cor_ans":true},{"trial_type":"html-keyboard-response","rt":null,"stimulus":"<p style=\"color: green; font-size: 50px; font-weight: bold;\">Correct</p>","response":null,"trial_index":222,"plugin_version":"2.1.0","time_elapsed":450984,"subject_id":"93082","group":"Group2","condition":"1_Rep","full_date":"2026-02-26T00:45:56.077Z","date":"2026-02-26","time":"00:45:56"},{"correct_response":"a","task":"test_phase","broad_category":"S","image_png":"S_Sandstone_03.png","image_id":451,"category_name":"Sandstone","category":29,"distinct_rating":1.86,"distinct_type":"Bottom","item_type":"Foil","rt":1311,"stimulus":"Stimuli_Rocks480/S_Sandstone_03.png","response":"a","trial_type":"image-keyboard-response","trial_index":223,"plugin_version":"2.1.0","time_elapsed":452310,"subject_id":"93082","group":"Group2","condition":"1_Rep","full_date":"2026-02-26T00:45:56.077Z","date":"2026-02-26","time":"00:45:56","cor_ans":true},{"trial_type":"html-keyboard-response","rt":null,"stimulus":"<p style=\"color: green; font-size: 50px; font-weight: bold;\">Correct</p>","response":null,"trial_index":224,"plugin_version":"2.1.0","time_elapsed":452812,"subject_id":"93082","group":"Group2","condition":"1_Rep","full_date":"2026-02-26T00:45:56.077Z","date":"2026-02-26","time":"00:45:56"},{"correct_