[{"width":1536,"height":695,"webaudio":true,"browser":"chrome","browser_version":"143.0.0","mobile":false,"os":"Windows 10","fullscreen":true,"vsync_rate":60.66,"webcam":true,"microphone":true,"trial_type":"browser-check","trial_index":0,"plugin_version":"2.1.0","time_elapsed":1012,"subject_id":"92298","group":"Group1","condition":"1_Rep","full_date":"2026-01-23T15:34:12.473Z","date":"2026-01-23","time":"15:34:12"},{"success":true,"timeout":false,"failed_images":[],"failed_audio":[],"failed_video":[],"trial_type":"preload","trial_index":1,"plugin_version":"2.1.0","time_elapsed":4622,"subject_id":"92298","group":"Group1","condition":"1_Rep","full_date":"2026-01-23T15:34:12.473Z","date":"2026-01-23","time":"15:34:12"},{"rt":20058,"url":"SONA_consent_memorability.html","trial_type":"external-html","trial_index":2,"plugin_version":"2.1.0","time_elapsed":24731,"subject_id":"92298","group":"Group1","condition":"1_Rep","full_date":"2026-01-23T15:34:12.473Z","date":"2026-01-23","time":"15:34:12"},{"success":true,"rt":1733,"trial_type":"fullscreen","trial_index":3,"plugin_version":"2.1.0","time_elapsed":27504,"subject_id":"92298","group":"Group1","condition":"1_Rep","full_date":"2026-01-23T15:34:12.473Z","date":"2026-01-23","time":"15:34:12"},{"rt":22050,"stimulus":"<div style=\"max-width: 760px; margin: auto; font-size: 20px; line-height: 1.5;\">\n      <h1 style=\"text-align:center; font-size: 30px;\">Instructions</h1>\n      <p>\n        Welcome to the study on <b>visual memory</b>. This experiment consists of <b>two phases</b>: \n        a <b>study phase</b> and a <b>test phase</b>.\n      </p>\n      <p>\n        In the study phase, you will see a series of rock images along with their category labels.\n        The images will appear one at a time.\n        <b>Your task</b> is to learn the categories to which the rock images belong \n        and to remember each image as accurately as possible.\n      </p> \n      <p>\n        Note that you will see each image only <b>once</b> during the study phase. \n          So, please pay close attention and try to remember each image carefully.\n      </p>\n      <p>\n        After the study phase, <b>your memory will be tested</b>. \n        Additional instructions for the test phase will be provided at that time.\n      </p>\n      <p>\n        If your computer has multiple <b>language settings</b> (e.g., English and another language),\n        please make sure it is set to English before starting.\n      </p>\n      <p>\n        You can track your progress using the <b>completion bar</b> at the top of the screen. \n        Please note that the bar will refresh when the test phase begins \n        to give you an accurate sense of your progress in both phases.\n      </p> \n      <p>\n        Press the button below when you are ready to begin.\n      </p>\n    </div>","response":0,"trial_type":"html-button-response","trial_index":4,"plugin_version":"2.1.0","time_elapsed":49559,"subject_id":"92298","group":"Group1","condition":"1_Rep","full_date":"2026-01-23T15:34:12.473Z","date":"2026-01-23","time":"15:34:12"},{"rt":null,"stimulus":"<p style=\"font-size: 50px; margin: 0; text-align: center;\">+</p>","response":null,"trial_type":"html-keyboard-response","trial_index":5,"plugin_version":"2.1.0","time_elapsed":50569,"subject_id":"92298","group":"Group1","condition":"1_Rep","full_date":"2026-01-23T15:34:12.473Z","date":"2026-01-23","time":"15:34:12"},{"task":"memory_phase","broad_category":"S","image_png":"S_Rock Gypsum_04.png","image_id":420,"category_name":"Rock Gypsum","category":27,"distinct_rating":7.61,"distinct_type":"Top","rt":null,"stimulus":"Stimuli_Rocks480/S_Rock Gypsum_04.png","response":null,"trial_type":"image-keyboard-response","trial_index":6,"plugin_version":"2.1.0","time_elapsed":53089,"subject_id":"92298","group":"Group1","condition":"1_Rep","full_date":"2026-01-23T15:34:12.473Z","date":"2026-01-23","time":"15:34:12"},{"rt":null,"stimulus":"<p style=\"font-size: 50px; margin: 0; text-align: center;\">+</p>","response":null,"trial_type":"html-keyboard-response","trial_index":7,"plugin_version":"2.1.0","time_elapsed":54095,"subject_id":"92298","group":"Group1","condition":"1_Rep","full_date":"2026-01-23T15:34:12.473Z","date":"2026-01-23","time":"15:34:12"},{"task":"memory_phase","broad_category":"M","image_png":"M_Quartzite_13.png","image_id":285,"category_name":"Quartzite","category":18,"distinct_rating":2.27,"distinct_type":"Bottom","rt":null,"stimulus":"Stimuli_Rocks480/M_Quartzite_13.png","response":null,"trial_type":"image-keyboard-response","trial_index":8,"plugin_version":"2.1.0","time_elapsed":56607,"subject_id":"92298","group":"Group1","condition":"1_Rep","full_date":"2026-01-23T15:34:12.473Z","date":"2026-01-23","time":"15:34:12"},{"rt":null,"stimulus":"<p style=\"font-size: 50px; margin: 0; text-align: center;\">+</p>","response":null,"trial_type":"html-keyboard-response","trial_index":9,"plugin_version":"2.1.0","time_elapsed":57614,"subject_id":"92298","group":"Group1","condition":"1_Rep","full_date":"2026-01-23T15:34:12.473Z","date":"2026-01-23","time":"15:34:12"},{"task":"memory_phase","broad_category":"S","image_png":"S_Dolomite_13.png","image_id":397,"category_name":"Dolomite","category":25,"distinct_rating":1.77,"distinct_type":"Bottom","rt":null,"stimulus":"Stimuli_Rocks480/S_Dolomite_13.png","response":null,"trial_type":"image-keyboard-response","trial_index":10,"plugin_version":"2.1.0","time_elapsed":60128,"subject_id":"92298","group":"Group1","condition":"1_Rep","full_date":"2026-01-23T15:34:12.473Z","date":"2026-01-23","time":"15:34:12"},{"rt":null,"stimulus":"<p style=\"font-size: 50px; margin: 0; text-align: center;\">+</p>","response":null,"trial_type":"html-keyboard-response","trial_index":11,"plugin_version":"2.1.0","time_elapsed":61133,"subject_id":"92298","group":"Group1","condition":"1_Rep","full_date":"2026-01-23T15:34:12.473Z","date":"2026-01-23","time":"15:34:12"},{"task":"memory_phase","broad_category":"M","image_png":"M_Quartzite_05.png","image_id":277,"category_name":"Quartzite","category":18,"distinct_rating":2.23,"distinct_type":"Bottom","rt":null,"stimulus":"Stimuli_Rocks480/M_Quartzite_05.png","response":null,"trial_type":"image-keyboard-response","trial_index":12,"plugin_version":"2.1.0","time_elapsed":63647,"subject_id":"92298","group":"Group1","condition":"1_Rep","full_date":"2026-01-23T15:34:12.473Z","date":"2026-01-23","time":"15:34:12"},{"rt":null,"stimulus":"<p style=\"font-size: 50px; margin: 0; text-align: center;\">+</p>","response":null,"trial_type":"html-keyboard-response","trial_index":13,"plugin_version":"2.1.0","time_elapsed":64653,"subject_id":"92298","group":"Group1","condition":"1_Rep","full_date":"2026-01-23T15:34:12.473Z","date":"2026-01-23","time":"15:34:12"},{"task":"memory_phase","broad_category":"M","image_png":"M_Slate_11.png","image_id":315,"category_name":"Slate","category":20,"distinct_rating":2.75,"distinct_type":"Bottom","rt":null,"stimulus":"Stimuli_Rocks480/M_Slate_11.png","response":null,"trial_type":"image-keyboard-response","trial_index":14,"plugin_version":"2.1.0","time_elapsed":67170,"subject_id":"92298","group":"Group1","condition":"1_Rep","full_date":"2026-01-23T15:34:12.473Z","date":"2026-01-23","time":"15:34:12"},{"rt":null,"stimulus":"<p style=\"font-size: 50px; margin: 0; text-align: center;\">+</p>","response":null,"trial_type":"html-keyboard-response","trial_index":15,"plugin_version":"2.1.0","time_elapsed":68176,"subject_id":"92298","group":"Group1","condition":"1_Rep","full_date":"2026-01-23T15:34:12.473Z","date":"2026-01-23","time":"15:34:12"},{"task":"memory_phase","broad_category":"I","image_png":"I_Pumice_08.png","image_id":136,"category_name":"Pumice","category":9,"distinct_rating":3.1,"distinct_type":"Bottom","rt":null,"stimulus":"Stimuli_Rocks480/I_Pumice_08.png","response":null,"trial_type":"image-keyboard-response","trial_index":16,"plugin_version":"2.1.0","time_elapsed":70686,"subject_id":"92298","group":"Group1","condition":"1_Rep","full_date":"2026-01-23T15:34:12.473Z","date":"2026-01-23","time":"15:34:12"},{"rt":null,"stimulus":"<p style=\"font-size: 50px; margin: 0; text-align: center;\">+</p>","response":null,"trial_type":"html-keyboard-response","trial_index":17,"plugin_version":"2.1.0","time_elapsed":71690,"subject_id":"92298","group":"Group1","condition":"1_Rep","full_date":"2026-01-23T15:34:12.473Z","date":"2026-01-23","time":"15:34:12"},{"task":"memory_phase","broad_category":"M","image_png":"M_Gneiss_13.png","image_id":205,"category_name":"Gneiss","category":13,"distinct_rating":3.26,"distinct_type":"Bottom","rt":null,"stimulus":"Stimuli_Rocks480/M_Gneiss_13.png","response":null,"trial_type":"image-keyboard-response","trial_index":18,"plugin_version":"2.1.0","time_elapsed":74209,"subject_id":"92298","group":"Group1","condition":"1_Rep","full_date":"2026-01-23T15:34:12.473Z","date":"2026-01-23","time":"15:34:12"},{"rt":null,"stimulus":"<p style=\"font-size: 50px; margin: 0; text-align: center;\">+</p>","response":null,"trial_type":"html-keyboard-response","trial_index":19,"plugin_version":"2.1.0","time_elapsed":75218,"subject_id":"92298","group":"Group1","condition":"1_Rep","full_date":"2026-01-23T15:34:12.473Z","date":"2026-01-23","time":"15:34:12"},{"task":"memory_phase","broad_category":"M","image_png":"M_Slate_15.png","image_id":319,"category_name":"Slate","category":20,"distinct_rating":2.13,"distinct_type":"Bottom","rt":null,"stimulus":"Stimuli_Rocks480/M_Slate_15.png","response":null,"trial_type":"image-keyboard-response","trial_index":20,"plugin_version":"2.1.0","time_elapsed":77730,"subject_id":"92298","group":"Group1","condition":"1_Rep","full_date":"2026-01-23T15:34:12.473Z","date":"2026-01-23","time":"15:34:12"},{"rt":null,"stimulus":"<p style=\"font-size: 50px; margin: 0; text-align: center;\">+</p>","response":null,"trial_type":"html-keyboard-response","trial_index":21,"plugin_version":"2.1.0","time_elapsed":78741,"subject_id":"92298","group":"Group1","condition":"1_Rep","full_date":"2026-01-23T15:34:12.473Z","date":"2026-01-23","time":"15:34:12"},{"task":"memory_phase","broad_category":"M","image_png":"M_Phyllite_07.png","image_id":263,"category_name":"Phyllite","category":17,"distinct_rating":2.59,"distinct_type":"Bottom","rt":null,"stimulus":"Stimuli_Rocks480/M_Phyllite_07.png","response":null,"trial_type":"image-keyboard-response","trial_index":22,"plugin_version":"2.1.0","time_elapsed":81252,"subject_id":"92298","group":"Group1","condition":"1_Rep","full_date":"2026-01-23T15:34:12.473Z","date":"2026-01-23","time":"15:34:12"},{"rt":null,"stimulus":"<p style=\"font-size: 50px; margin: 0; text-align: center;\">+</p>","response":null,"trial_type":"html-keyboard-response","trial_index":23,"plugin_version":"2.1.0","time_elapsed":82258,"subject_id":"92298","group":"Group1","condition":"1_Rep","full_date":"2026-01-23T15:34:12.473Z","date":"2026-01-23","time":"15:34:12"},{"task":"memory_phase","broad_category":"I","image_png":"I_Rhyolite_16.png","image_id":160,"category_name":"Rhyolite","category":10,"distinct_rating":2.19,"distinct_type":"Bottom","rt":null,"stimulus":"Stimuli_Rocks480/I_Rhyolite_16.png","response":null,"trial_type":"image-keyboard-response","trial_index":24,"plugin_version":"2.1.0","time_elapsed":84761,"subject_id":"92298","group":"Group1","condition":"1_Rep","full_date":"2026-01-23T15:34:12.473Z","date":"2026-01-23","time":"15:34:12"},{"rt":null,"stimulus":"<p style=\"font-size: 50px; margin: 0; text-align: center;\">+</p>","response":null,"trial_type":"html-keyboard-response","trial_index":25,"plugin_version":"2.1.0","time_elapsed":85774,"subject_id":"92298","group":"Group1","condition":"1_Rep","full_date":"2026-01-23T15:34:12.473Z","date":"2026-01-23","time":"15:34:12"},{"task":"memory_phase","broad_category":"I","image_png":"I_Andesite_10.png","image_id":10,"category_name":"Andesite","category":1,"distinct_rating":3.15,"distinct_type":"Bottom","rt":null,"stimulus":"Stimuli_Rocks480/I_Andesite_10.png","response":null,"trial_type":"image-keyboard-response","trial_index":26,"plugin_version":"2.1.0","time_elapsed":88278,"subject_id":"92298","group":"Group1","condition":"1_Rep","full_date":"2026-01-23T15:34:12.473Z","date":"2026-01-23","time":"15:34:12"},{"rt":null,"stimulus":"<p style=\"font-size: 50px; margin: 0; text-align: center;\">+</p>","response":null,"trial_type":"html-keyboard-response","trial_index":27,"plugin_version":"2.1.0","time_elapsed":89285,"subject_id":"92298","group":"Group1","condition":"1_Rep","full_date":"2026-01-23T15:34:12.473Z","date":"2026-01-23","time":"15:34:12"},{"task":"memory_phase","broad_category":"I","image_png":"I_Andesite_08.png","image_id":8,"category_name":"Andesite","category":1,"distinct_rating":1.95,"distinct_type":"Bottom","rt":null,"stimulus":"Stimuli_Rocks480/I_Andesite_08.png","response":null,"trial_type":"image-keyboard-response","trial_index":28,"plugin_version":"2.1.0","time_elapsed":91789,"subject_id":"92298","group":"Group1","condition":"1_Rep","full_date":"2026-01-23T15:34:12.473Z","date":"2026-01-23","time":"15:34:12"},{"rt":null,"stimulus":"<p style=\"font-size: 50px; margin: 0; text-align: center;\">+</p>","response":null,"trial_type":"html-keyboard-response","trial_index":29,"plugin_version":"2.1.0","time_elapsed":92796,"subject_id":"92298","group":"Group1","condition":"1_Rep","full_date":"2026-01-23T15:34:12.473Z","date":"2026-01-23","time":"15:34:12"},{"task":"memory_phase","broad_category":"M","image_png":"M_Gneiss_05.png","image_id":197,"category_name":"Gneiss","category":13,"distinct_rating":2.97,"distinct_type":"Bottom","rt":null,"stimulus":"Stimuli_Rocks480/M_Gneiss_05.png","response":null,"trial_type":"image-keyboard-response","trial_index":30,"plugin_version":"2.1.0","time_elapsed":95301,"subject_id":"92298","group":"Group1","condition":"1_Rep","full_date":"2026-01-23T15:34:12.473Z","date":"2026-01-23","time":"15:34:12"},{"rt":null,"stimulus":"<p style=\"font-size: 50px; margin: 0; text-align: center;\">+</p>","response":null,"trial_type":"html-keyboard-response","trial_index":31,"plugin_version":"2.1.0","time_elapsed":96306,"subject_id":"92298","group":"Group1","condition":"1_Rep","full_date":"2026-01-23T15:34:12.473Z","date":"2026-01-23","time":"15:34:12"},{"task":"memory_phase","broad_category":"I","image_png":"I_Gabbro_08.png","image_id":56,"category_name":"Gabbro","category":4,"distinct_rating":3.02,"distinct_type":"Bottom","rt":null,"stimulus":"Stimuli_Rocks480/I_Gabbro_08.png","response":null,"trial_type":"image-keyboard-response","trial_index":32,"plugin_version":"2.1.0","time_elapsed":98812,"subject_id":"92298","group":"Group1","condition":"1_Rep","full_date":"2026-01-23T15:34:12.473Z","date":"2026-01-23","time":"15:34:12"},{"rt":null,"stimulus":"<p style=\"font-size: 50px; margin: 0; text-align: center;\">+</p>","response":null,"trial_type":"html-keyboard-response","trial_index":33,"plugin_version":"2.1.0","time_elapsed":99825,"subject_id":"92298","group":"Group1","condition":"1_Rep","full_date":"2026-01-23T15:34:12.473Z","date":"2026-01-23","time":"15:34:12"},{"task":"memory_phase","broad_category":"S","image_png":"S_Breccia_11.png","image_id":347,"category_name":"Breccia","category":22,"distinct_rating":6.7,"distinct_type":"Top","rt":null,"stimulus":"Stimuli_Rocks480/S_Breccia_11.png","response":null,"trial_type":"image-keyboard-response","trial_index":34,"plugin_version":"2.1.0","time_elapsed":102332,"subject_id":"92298","group":"Group1","condition":"1_Rep","full_date":"2026-01-23T15:34:12.473Z","date":"2026-01-23","time":"15:34:12"},{"rt":null,"stimulus":"<p style=\"font-size: 50px; margin: 0; text-align: center;\">+</p>","response":null,"trial_type":"html-keyboard-response","trial_index":35,"plugin_version":"2.1.0","time_elapsed":103343,"subject_id":"92298","group":"Group1","condition":"1_Rep","full_date":"2026-01-23T15:34:12.473Z","date":"2026-01-23","time":"15:34:12"},{"task":"memory_phase","broad_category":"I","image_png":"I_Gabbro_16.png","image_id":64,"category_name":"Gabbro","category":4,"distinct_rating":2.52,"distinct_type":"Bottom","rt":null,"stimulus":"Stimuli_Rocks480/I_Gabbro_16.png","response":null,"trial_type":"image-keyboard-response","trial_index":36,"plugin_version":"2.1.0","time_elapsed":105853,"subject_id":"92298","group":"Group1","condition":"1_Rep","full_date":"2026-01-23T15:34:12.473Z","date":"2026-01-23","time":"15:34:12"},{"rt":null,"stimulus":"<p style=\"font-size: 50px; margin: 0; text-align: center;\">+</p>","response":null,"trial_type":"html-keyboard-response","trial_index":37,"plugin_version":"2.1.0","time_elapsed":106862,"subject_id":"92298","group":"Group1","condition":"1_Rep","full_date":"2026-01-23T15:34:12.473Z","date":"2026-01-23","time":"15:34:12"},{"task":"memory_phase","broad_category":"I","image_png":"I_Andesite_06.png","image_id":6,"category_name":"Andesite","category":1,"distinct_rating":3.17,"distinct_type":"Bottom","rt":null,"stimulus":"Stimuli_Rocks480/I_Andesite_06.png","response":null,"trial_type":"image-keyboard-response","trial_index":38,"plugin_version":"2.1.0","time_elapsed":109369,"subject_id":"92298","group":"Group1","condition":"1_Rep","full_date":"2026-01-23T15:34:12.473Z","date":"2026-01-23","time":"15:34:12"},{"rt":null,"stimulus":"<p style=\"font-size: 50px; margin: 0; text-align: center;\">+</p>","response":null,"trial_type":"html-keyboard-response","trial_index":39,"plugin_version":"2.1.0","time_elapsed":110373,"subject_id":"92298","group":"Group1","condition":"1_Rep","full_date":"2026-01-23T15:34:12.473Z","date":"2026-01-23","time":"15:34:12"},{"task":"memory_phase","broad_category":"I","image_png":"I_Basalt_09.png","image_id":25,"category_name":"Basalt","category":2,"distinct_rating":1.89,"distinct_type":"Bottom","rt":null,"stimulus":"Stimuli_Rocks480/I_Basalt_09.png","response":null,"trial_type":"image-keyboard-response","trial_index":40,"plugin_version":"2.1.0","time_elapsed":112890,"subject_id":"92298","group":"Group1","condition":"1_Rep","full_date":"2026-01-23T15:34:12.473Z","date":"2026-01-23","time":"15:34:12"},{"rt":null,"stimulus":"<p style=\"font-size: 50px; margin: 0; text-align: center;\">+</p>","response":null,"trial_type":"html-keyboard-response","trial_index":41,"plugin_version":"2.1.0","time_elapsed":113898,"subject_id":"92298","group":"Group1","condition":"1_Rep","full_date":"2026-01-23T15:34:12.473Z","date":"2026-01-23","time":"15:34:12"},{"task":"memory_phase","broad_category":"I","image_png":"I_Rhyolite_14.png","image_id":158,"category_name":"Rhyolite","category":10,"distinct_rating":2.59,"distinct_type":"Bottom","rt":null,"stimulus":"Stimuli_Rocks480/I_Rhyolite_14.png","response":null,"trial_type":"image-keyboard-response","trial_index":42,"plugin_version":"2.1.0","time_elapsed":116412,"subject_id":"92298","group":"Group1","condition":"1_Rep","full_date":"2026-01-23T15:34:12.473Z","date":"2026-01-23","time":"15:34:12"},{"rt":null,"stimulus":"<p style=\"font-size: 50px; margin: 0; text-align: center;\">+</p>","response":null,"trial_type":"html-keyboard-response","trial_index":43,"plugin_version":"2.1.0","time_elapsed":117417,"subject_id":"92298","group":"Group1","condition":"1_Rep","full_date":"2026-01-23T15:34:12.473Z","date":"2026-01-23","time":"15:34:12"},{"task":"memory_phase","broad_category":"M","image_png":"M_Marble_04.png","image_id":228,"category_name":"Marble","category":15,"distinct_rating":3.15,"distinct_type":"Bottom","rt":null,"stimulus":"Stimuli_Rocks480/M_Marble_04.png","response":null,"trial_type":"image-keyboard-response","trial_index":44,"plugin_version":"2.1.0","time_elapsed":119928,"subject_id":"92298","group":"Group1","condition":"1_Rep","full_date":"2026-01-23T15:34:12.473Z","date":"2026-01-23","time":"15:34:12"},{"rt":null,"stimulus":"<p style=\"font-size: 50px; margin: 0; text-align: center;\">+</p>","response":null,"trial_type":"html-keyboard-response","trial_index":45,"plugin_version":"2.1.0","time_elapsed":120932,"subject_id":"92298","group":"Group1","condition":"1_Rep","full_date":"2026-01-23T15:34:12.473Z","date":"2026-01-23","time":"15:34:12"},{"task":"memory_phase","broad_category":"M","image_png":"M_Phyllite_10.png","image_id":266,"category_name":"Phyllite","category":17,"distinct_rating":2.6,"distinct_type":"Bottom","rt":null,"stimulus":"Stimuli_Rocks480/M_Phyllite_10.png","response":null,"trial_type":"image-keyboard-response","trial_index":46,"plugin_version":"2.1.0","time_elapsed":123444,"subject_id":"92298","group":"Group1","condition":"1_Rep","full_date":"2026-01-23T15:34:12.473Z","date":"2026-01-23","time":"15:34:12"},{"rt":null,"stimulus":"<p style=\"font-size: 50px; margin: 0; text-align: center;\">+</p>","response":null,"trial_type":"html-keyboard-response","trial_index":47,"plugin_version":"2.1.0","time_elapsed":124452,"subject_id":"92298","group":"Group1","condition":"1_Rep","full_date":"2026-01-23T15:34:12.473Z","date":"2026-01-23","time":"15:34:12"},{"task":"memory_phase","broad_category":"I","image_png":"I_Basalt_02.png","image_id":18,"category_name":"Basalt","category":2,"distinct_rating":1.84,"distinct_type":"Bottom","rt":null,"stimulus":"Stimuli_Rocks480/I_Basalt_02.png","response":null,"trial_type":"image-keyboard-response","trial_index":48,"plugin_version":"2.1.0","time_elapsed":126956,"subject_id":"92298","group":"Group1","condition":"1_Rep","full_date":"2026-01-23T15:34:12.473Z","date":"2026-01-23","time":"15:34:12"},{"rt":null,"stimulus":"<p style=\"font-size: 50px; margin: 0; text-align: center;\">+</p>","response":null,"trial_type":"html-keyboard-response","trial_index":49,"plugin_version":"2.1.0","time_elapsed":127959,"subject_id":"92298","group":"Group1","condition":"1_Rep","full_date":"2026-01-23T15:34:12.473Z","date":"2026-01-23","time":"15:34:12"},{"task":"memory_phase","broad_category":"I","image_png":"I_Pumice_12.png","image_id":140,"category_name":"Pumice","category":9,"distinct_rating":2.97,"distinct_type":"Bottom","rt":null,"stimulus":"Stimuli_Rocks480/I_Pumice_12.png","response":null,"trial_type":"image-keyboard-response","trial_index":50,"plugin_version":"2.1.0","time_elapsed":130468,"subject_id":"92298","group":"Group1","condition":"1_Rep","full_date":"2026-01-23T15:34:12.473Z","date":"2026-01-23","time":"15:34:12"},{"rt":null,"stimulus":"<p style=\"font-size: 50px; margin: 0; text-align: center;\">+</p>","response":null,"trial_type":"html-keyboard-response","trial_index":51,"plugin_version":"2.1.0","time_elapsed":131476,"subject_id":"92298","group":"Group1","condition":"1_Rep","full_date":"2026-01-23T15:34:12.473Z","date":"2026-01-23","time":"15:34:12"},{"task":"memory_phase","broad_category":"S","image_png":"S_Rock Salt_01.png","image_id":433,"category_name":"Rock Salt","category":28,"distinct_rating":7.18,"distinct_type":"Top","rt":null,"stimulus":"Stimuli_Rocks480/S_Rock Salt_01.png","response":null,"trial_type":"image-keyboard-response","trial_index":52,"plugin_version":"2.1.0","time_elapsed":133988,"subject_id":"92298","group":"Group1","condition":"1_Rep","full_date":"2026-01-23T15:34:12.473Z","date":"2026-01-23","time":"15:34:12"},{"rt":null,"stimulus":"<p style=\"font-size: 50px; margin: 0; text-align: center;\">+</p>","response":null,"trial_type":"html-keyboard-response","trial_index":53,"plugin_version":"2.1.0","time_elapsed":134995,"subject_id":"92298","group":"Group1","condition":"1_Rep","full_date":"2026-01-23T15:34:12.473Z","date":"2026-01-23","time":"15:34:12"},{"task":"memory_phase","broad_category":"I","image_png":"I_Pumice_11.png","image_id":139,"category_name":"Pumice","category":9,"distinct_rating":1.74,"distinct_type":"Bottom","rt":null,"stimulus":"Stimuli_Rocks480/I_Pumice_11.png","response":null,"trial_type":"image-keyboard-response","trial_index":54,"plugin_version":"2.1.0","time_elapsed":137507,"subject_id":"92298","group":"Group1","condition":"1_Rep","full_date":"2026-01-23T15:34:12.473Z","date":"2026-01-23","time":"15:34:12"},{"rt":1584,"stimulus":"<p style=\"max-width: 760px; margin: auto; font-size: 35px; line-height: 1.5;\">\n                Press SPACE to continue study phase\n              </p>","response":" ","trial_type":"html-keyboard-response","trial_index":55,"plugin_version":"2.1.0","time_elapsed":139092,"subject_id":"92298","group":"Group1","condition":"1_Rep","full_date":"2026-01-23T15:34:12.473Z","date":"2026-01-23","time":"15:34:12"},{"rt":null,"stimulus":"<p style=\"font-size: 50px; margin: 0; text-align: center;\">+</p>","response":null,"trial_type":"html-keyboard-response","trial_index":56,"plugin_version":"2.1.0","time_elapsed":140099,"subject_id":"92298","group":"Group1","condition":"1_Rep","full_date":"2026-01-23T15:34:12.473Z","date":"2026-01-23","time":"15:34:12"},{"task":"memory_phase","broad_category":"I","image_png":"I_Rhyolite_11.png","image_id":155,"category_name":"Rhyolite","category":10,"distinct_rating":1.73,"distinct_type":"Bottom","rt":null,"stimulus":"Stimuli_Rocks480/I_Rhyolite_11.png","response":null,"trial_type":"image-keyboard-response","trial_index":57,"plugin_version":"2.1.0","time_elapsed":142614,"subject_id":"92298","group":"Group1","condition":"1_Rep","full_date":"2026-01-23T15:34:12.473Z","date":"2026-01-23","time":"15:34:12"},{"rt":null,"stimulus":"<p style=\"font-size: 50px; margin: 0; text-align: center;\">+</p>","response":null,"trial_type":"html-keyboard-response","trial_index":58,"plugin_version":"2.1.0","time_elapsed":143617,"subject_id":"92298","group":"Group1","condition":"1_Rep","full_date":"2026-01-23T15:34:12.473Z","date":"2026-01-23","time":"15:34:12"},{"task":"memory_phase","broad_category":"M","image_png":"M_Slate_03.png","image_id":307,"category_name":"Slate","category":20,"distinct_rating":1.87,"distinct_type":"Bottom","rt":null,"stimulus":"Stimuli_Rocks480/M_Slate_03.png","response":null,"trial_type":"image-keyboard-response","trial_index":59,"plugin_version":"2.1.0","time_elapsed":146130,"subject_id":"92298","group":"Group1","condition":"1_Rep","full_date":"2026-01-23T15:34:12.473Z","date":"2026-01-23","time":"15:34:12"},{"rt":null,"stimulus":"<p style=\"font-size: 50px; margin: 0; text-align: center;\">+</p>","response":null,"trial_type":"html-keyboard-response","trial_index":60,"plugin_version":"2.1.0","time_elapsed":147139,"subject_id":"92298","group":"Group1","condition":"1_Rep","full_date":"2026-01-23T15:34:12.473Z","date":"2026-01-23","time":"15:34:12"},{"task":"memory_phase","broad_category":"S","image_png":"S_Sandstone_03.png","image_id":451,"category_name":"Sandstone","category":29,"distinct_rating":1.86,"distinct_type":"Bottom","rt":null,"stimulus":"Stimuli_Rocks480/S_Sandstone_03.png","response":null,"trial_type":"image-keyboard-response","trial_index":61,"plugin_version":"2.1.0","time_elapsed":149653,"subject_id":"92298","group":"Group1","condition":"1_Rep","full_date":"2026-01-23T15:34:12.473Z","date":"2026-01-23","time":"15:34:12"},{"rt":null,"stimulus":"<p style=\"font-size: 50px; margin: 0; text-align: center;\">+</p>","response":null,"trial_type":"html-keyboard-response","trial_index":62,"plugin_version":"2.1.0","time_elapsed":150666,"subject_id":"92298","group":"Group1","condition":"1_Rep","full_date":"2026-01-23T15:34:12.473Z","date":"2026-01-23","time":"15:34:12"},{"task":"memory_phase","broad_category":"M","image_png":"M_Quartzite_08.png","image_id":280,"category_name":"Quartzite","category":18,"distinct_rating":2.15,"distinct_type":"Bottom","rt":null,"stimulus":"Stimuli_Rocks480/M_Quartzite_08.png","response":null,"trial_type":"image-keyboard-response","trial_index":63,"plugin_version":"2.1.0","time_elapsed":153177,"subject_id":"92298","group":"Group1","condition":"1_Rep","full_date":"2026-01-23T15:34:12.473Z","date":"2026-01-23","time":"15:34:12"},{"rt":null,"stimulus":"<p style=\"font-size: 50px; margin: 0; text-align: center;\">+</p>","response":null,"trial_type":"html-keyboard-response","trial_index":64,"plugin_version":"2.1.0","time_elapsed":154189,"subject_id":"92298","group":"Group1","condition":"1_Rep","full_date":"2026-01-23T15:34:12.473Z","date":"2026-01-23","time":"15:34:12"},{"task":"memory_phase","broad_category":"S","image_png":"S_Shale_08.png","image_id":472,"category_name":"Shale","category":30,"distinct_rating":2.55,"distinct_type":"Bottom","rt":null,"stimulus":"Stimuli_Rocks480/S_Shale_08.png","response":null,"trial_type":"image-keyboard-response","trial_index":65,"plugin_version":"2.1.0","time_elapsed":156695,"subject_id":"92298","group":"Group1","condition":"1_Rep","full_date":"2026-01-23T15:34:12.473Z","date":"2026-01-23","time":"15:34:12"},{"rt":null,"stimulus":"<p style=\"font-size: 50px; margin: 0; text-align: center;\">+</p>","response":null,"trial_type":"html-keyboard-response","trial_index":66,"plugin_version":"2.1.0","time_elapsed":157703,"subject_id":"92298","group":"Group1","condition":"1_Rep","full_date":"2026-01-23T15:34:12.473Z","date":"2026-01-23","time":"15:34:12"},{"task":"memory_phase","broad_category":"S","image_png":"S_Shale_12.png","image_id":476,"category_name":"Shale","category":30,"distinct_rating":2.48,"distinct_type":"Bottom","rt":null,"stimulus":"Stimuli_Rocks480/S_Shale_12.png","response":null,"trial_type":"image-keyboard-response","trial_index":67,"plugin_version":"2.1.0","time_elapsed":160218,"subject_id":"92298","group":"Group1","condition":"1_Rep","full_date":"2026-01-23T15:34:12.473Z","date":"2026-01-23","time":"15:34:12"},{"rt":null,"stimulus":"<p style=\"font-size: 50px; margin: 0; text-align: center;\">+</p>","response":null,"trial_type":"html-keyboard-response","trial_index":68,"plugin_version":"2.1.0","time_elapsed":161221,"subject_id":"92298","group":"Group1","condition":"1_Rep","full_date":"2026-01-23T15:34:12.473Z","date":"2026-01-23","time":"15:34:12"},{"task":"memory_phase","broad_category":"I","image_png":"I_Diorite_05.png","image_id":37,"category_name":"Diorite","category":3,"distinct_rating":3.08,"distinct_type":"Bottom","rt":null,"stimulus":"Stimuli_Rocks480/I_Diorite_05.png","response":null,"trial_type":"image-keyboard-response","trial_index":69,"plugin_version":"2.1.0","time_elapsed":163740,"subject_id":"92298","group":"Group1","condition":"1_Rep","full_date":"2026-01-23T15:34:12.473Z","date":"2026-01-23","time":"15:34:12"},{"rt":null,"stimulus":"<p style=\"font-size: 50px; margin: 0; text-align: center;\">+</p>","response":null,"trial_type":"html-keyboard-response","trial_index":70,"plugin_version":"2.1.0","time_elapsed":164747,"subject_id":"92298","group":"Group1","condition":"1_Rep","full_date":"2026-01-23T15:34:12.473Z","date":"2026-01-23","time":"15:34:12"},{"task":"memory_phase","broad_category":"I","image_png":"I_Diorite_03.png","image_id":35,"category_name":"Diorite","category":3,"distinct_rating":3.14,"distinct_type":"Bottom","rt":null,"stimulus":"Stimuli_Rocks480/I_Diorite_03.png","response":null,"trial_type":"image-keyboard-response","trial_index":71,"plugin_version":"2.1.0","time_elapsed":167261,"subject_id":"92298","group":"Group1","condition":"1_Rep","full_date":"2026-01-23T15:34:12.473Z","date":"2026-01-23","time":"15:34:12"},{"rt":null,"stimulus":"<p style=\"font-size: 50px; margin: 0; text-align: center;\">+</p>","response":null,"trial_type":"html-keyboard-response","trial_index":72,"plugin_version":"2.1.0","time_elapsed":168269,"subject_id":"92298","group":"Group1","condition":"1_Rep","full_date":"2026-01-23T15:34:12.473Z","date":"2026-01-23","time":"15:34:12"},{"task":"memory_phase","broad_category":"S","image_png":"S_Sandstone_15.png","image_id":463,"category_name":"Sandstone","category":29,"distinct_rating":2,"distinct_type":"Bottom","rt":null,"stimulus":"Stimuli_Rocks480/S_Sandstone_15.png","response":null,"trial_type":"image-keyboard-response","trial_index":73,"plugin_version":"2.1.0","time_elapsed":170782,"subject_id":"92298","group":"Group1","condition":"1_Rep","full_date":"2026-01-23T15:34:12.473Z","date":"2026-01-23","time":"15:34:12"},{"rt":null,"stimulus":"<p style=\"font-size: 50px; margin: 0; text-align: center;\">+</p>","response":null,"trial_type":"html-keyboard-response","trial_index":74,"plugin_version":"2.1.0","time_elapsed":171789,"subject_id":"92298","group":"Group1","condition":"1_Rep","full_date":"2026-01-23T15:34:12.473Z","date":"2026-01-23","time":"15:34:12"},{"task":"memory_phase","broad_category":"M","image_png":"M_Gneiss_06.png","image_id":198,"category_name":"Gneiss","category":13,"distinct_rating":2.65,"distinct_type":"Bottom","rt":null,"stimulus":"Stimuli_Rocks480/M_Gneiss_06.png","response":null,"trial_type":"image-keyboard-response","trial_index":75,"plugin_version":"2.1.0","time_elapsed":174291,"subject_id":"92298","group":"Group1","condition":"1_Rep","full_date":"2026-01-23T15:34:12.473Z","date":"2026-01-23","time":"15:34:12"},{"rt":null,"stimulus":"<p style=\"font-size: 50px; margin: 0; text-align: center;\">+</p>","response":null,"trial_type":"html-keyboard-response","trial_index":76,"plugin_version":"2.1.0","time_elapsed":175296,"subject_id":"92298","group":"Group1","condition":"1_Rep","full_date":"2026-01-23T15:34:12.473Z","date":"2026-01-23","time":"15:34:12"},{"task":"memory_phase","broad_category":"S","image_png":"S_Sandstone_16.png","image_id":464,"category_name":"Sandstone","category":29,"distinct_rating":1.93,"distinct_type":"Bottom","rt":null,"stimulus":"Stimuli_Rocks480/S_Sandstone_16.png","response":null,"trial_type":"image-keyboard-response","trial_index":77,"plugin_version":"2.1.0","time_elapsed":177805,"subject_id":"92298","group":"Group1","condition":"1_Rep","full_date":"2026-01-23T15:34:12.473Z","date":"2026-01-23","time":"15:34:12"},{"rt":null,"stimulus":"<p style=\"font-size: 50px; margin: 0; text-align: center;\">+</p>","response":null,"trial_type":"html-keyboard-response","trial_index":78,"plugin_version":"2.1.0","time_elapsed":178809,"subject_id":"92298","group":"Group1","condition":"1_Rep","full_date":"2026-01-23T15:34:12.473Z","date":"2026-01-23","time":"15:34:12"},{"task":"memory_phase","broad_category":"S","image_png":"S_Dolomite_12.png","image_id":396,"category_name":"Dolomite","category":25,"distinct_rating":1.85,"distinct_type":"Bottom","rt":null,"stimulus":"Stimuli_Rocks480/S_Dolomite_12.png","response":null,"trial_type":"image-keyboard-response","trial_index":79,"plugin_version":"2.1.0","time_elapsed":181322,"subject_id":"92298","group":"Group1","condition":"1_Rep","full_date":"2026-01-23T15:34:12.473Z","date":"2026-01-23","time":"15:34:12"},{"rt":null,"stimulus":"<p style=\"font-size: 50px; margin: 0; text-align: center;\">+</p>","response":null,"trial_type":"html-keyboard-response","trial_index":80,"plugin_version":"2.1.0","time_elapsed":182338,"subject_id":"92298","group":"Group1","condition":"1_Rep","full_date":"2026-01-23T15:34:12.473Z","date":"2026-01-23","time":"15:34:12"},{"task":"memory_phase","broad_category":"I","image_png":"I_Obsidian_05.png","image_id":85,"category_name":"Obsidian","category":6,"distinct_rating":7.32,"distinct_type":"Top","rt":null,"stimulus":"Stimuli_Rocks480/I_Obsidian_05.png","response":null,"trial_type":"image-keyboard-response","trial_index":81,"plugin_version":"2.1.0","time_elapsed":184849,"subject_id":"92298","group":"Group1","condition":"1_Rep","full_date":"2026-01-23T15:34:12.473Z","date":"2026-01-23","time":"15:34:12"},{"rt":null,"stimulus":"<p style=\"font-size: 50px; margin: 0; text-align: center;\">+</p>","response":null,"trial_type":"html-keyboard-response","trial_index":82,"plugin_version":"2.1.0","time_elapsed":185856,"subject_id":"92298","group":"Group1","condition":"1_Rep","full_date":"2026-01-23T15:34:12.473Z","date":"2026-01-23","time":"15:34:12"},{"task":"memory_phase","broad_category":"S","image_png":"S_Conglomerate_05.png","image_id":373,"category_name":"Conglomerate","category":24,"distinct_rating":7.32,"distinct_type":"Top","rt":null,"stimulus":"Stimuli_Rocks480/S_Conglomerate_05.png","response":null,"trial_type":"image-keyboard-response","trial_index":83,"plugin_version":"2.1.0","time_elapsed":188373,"subject_id":"92298","group":"Group1","condition":"1_Rep","full_date":"2026-01-23T15:34:12.473Z","date":"2026-01-23","time":"15:34:12"},{"rt":null,"stimulus":"<p style=\"font-size: 50px; margin: 0; text-align: center;\">+</p>","response":null,"trial_type":"html-keyboard-response","trial_index":84,"plugin_version":"2.1.0","time_elapsed":189380,"subject_id":"92298","group":"Group1","condition":"1_Rep","full_date":"2026-01-23T15:34:12.473Z","date":"2026-01-23","time":"15:34:12"},{"task":"memory_phase","broad_category":"S","image_png":"S_Shale_01.png","image_id":465,"category_name":"Shale","category":30,"distinct_rating":2.7,"distinct_type":"Bottom","rt":null,"stimulus":"Stimuli_Rocks480/S_Shale_01.png","response":null,"trial_type":"image-keyboard-response","trial_index":85,"plugin_version":"2.1.0","time_elapsed":191888,"subject_id":"92298","group":"Group1","condition":"1_Rep","full_date":"2026-01-23T15:34:12.473Z","date":"2026-01-23","time":"15:34:12"},{"rt":null,"stimulus":"<p style=\"font-size: 50px; margin: 0; text-align: center;\">+</p>","response":null,"trial_type":"html-keyboard-response","trial_index":86,"plugin_version":"2.1.0","time_elapsed":192893,"subject_id":"92298","group":"Group1","condition":"1_Rep","full_date":"2026-01-23T15:34:12.473Z","date":"2026-01-23","time":"15:34:12"},{"task":"memory_phase","broad_category":"M","image_png":"M_Marble_16.png","image_id":240,"category_name":"Marble","category":15,"distinct_rating":2.57,"distinct_type":"Bottom","rt":null,"stimulus":"Stimuli_Rocks480/M_Marble_16.png","response":null,"trial_type":"image-keyboard-response","trial_index":87,"plugin_version":"2.1.0","time_elapsed":195400,"subject_id":"92298","group":"Group1","condition":"1_Rep","full_date":"2026-01-23T15:34:12.473Z","date":"2026-01-23","time":"15:34:12"},{"rt":null,"stimulus":"<p style=\"font-size: 50px; margin: 0; text-align: center;\">+</p>","response":null,"trial_type":"html-keyboard-response","trial_index":88,"plugin_version":"2.1.0","time_elapsed":196416,"subject_id":"92298","group":"Group1","condition":"1_Rep","full_date":"2026-01-23T15:34:12.473Z","date":"2026-01-23","time":"15:34:12"},{"task":"memory_phase","broad_category":"I","image_png":"I_Gabbro_11.png","image_id":59,"category_name":"Gabbro","category":4,"distinct_rating":1.99,"distinct_type":"Bottom","rt":null,"stimulus":"Stimuli_Rocks480/I_Gabbro_11.png","response":null,"trial_type":"image-keyboard-response","trial_index":89,"plugin_version":"2.1.0","time_elapsed":198933,"subject_id":"92298","group":"Group1","condition":"1_Rep","full_date":"2026-01-23T15:34:12.473Z","date":"2026-01-23","time":"15:34:12"},{"rt":null,"stimulus":"<p style=\"font-size: 50px; margin: 0; text-align: center;\">+</p>","response":null,"trial_type":"html-keyboard-response","trial_index":90,"plugin_version":"2.1.0","time_elapsed":199947,"subject_id":"92298","group":"Group1","condition":"1_Rep","full_date":"2026-01-23T15:34:12.473Z","date":"2026-01-23","time":"15:34:12"},{"task":"memory_phase","broad_category":"I","image_png":"I_Basalt_01.png","image_id":17,"category_name":"Basalt","category":2,"distinct_rating":1.92,"distinct_type":"Bottom","rt":null,"stimulus":"Stimuli_Rocks480/I_Basalt_01.png","response":null,"trial_type":"image-keyboard-response","trial_index":91,"plugin_version":"2.1.0","time_elapsed":202459,"subject_id":"92298","group":"Group1","condition":"1_Rep","full_date":"2026-01-23T15:34:12.473Z","date":"2026-01-23","time":"15:34:12"},{"rt":null,"stimulus":"<p style=\"font-size: 50px; margin: 0; text-align: center;\">+</p>","response":null,"trial_type":"html-keyboard-response","trial_index":92,"plugin_version":"2.1.0","time_elapsed":203465,"subject_id":"92298","group":"Group1","condition":"1_Rep","full_date":"2026-01-23T15:34:12.473Z","date":"2026-01-23","time":"15:34:12"},{"task":"memory_phase","broad_category":"M","image_png":"M_Marble_06.png","image_id":230,"category_name":"Marble","category":15,"distinct_rating":3.4,"distinct_type":"Bottom","rt":null,"stimulus":"Stimuli_Rocks480/M_Marble_06.png","response":null,"trial_type":"image-keyboard-response","trial_index":93,"plugin_version":"2.1.0","time_elapsed":205981,"subject_id":"92298","group":"Group1","condition":"1_Rep","full_date":"2026-01-23T15:34:12.473Z","date":"2026-01-23","time":"15:34:12"},{"rt":null,"stimulus":"<p style=\"font-size: 50px; margin: 0; text-align: center;\">+</p>","response":null,"trial_type":"html-keyboard-response","trial_index":94,"plugin_version":"2.1.0","time_elapsed":206990,"subject_id":"92298","group":"Group1","condition":"1_Rep","full_date":"2026-01-23T15:34:12.473Z","date":"2026-01-23","time":"15:34:12"},{"task":"memory_phase","broad_category":"S","image_png":"S_Chert_10.png","image_id":362,"category_name":"Chert","category":23,"distinct_rating":7.17,"distinct_type":"Top","rt":null,"stimulus":"Stimuli_Rocks480/S_Chert_10.png","response":null,"trial_type":"image-keyboard-response","trial_index":95,"plugin_version":"2.1.0","time_elapsed":209505,"subject_id":"92298","group":"Group1","condition":"1_Rep","full_date":"2026-01-23T15:34:12.473Z","date":"2026-01-23","time":"15:34:12"},{"rt":null,"stimulus":"<p style=\"font-size: 50px; margin: 0; text-align: center;\">+</p>","response":null,"trial_type":"html-keyboard-response","trial_index":96,"plugin_version":"2.1.0","time_elapsed":210513,"subject_id":"92298","group":"Group1","condition":"1_Rep","full_date":"2026-01-23T15:34:12.473Z","date":"2026-01-23","time":"15:34:12"},{"task":"memory_phase","broad_category":"S","image_png":"S_Dolomite_14.png","image_id":398,"category_name":"Dolomite","category":25,"distinct_rating":1.43,"distinct_type":"Bottom","rt":null,"stimulus":"Stimuli_Rocks480/S_Dolomite_14.png","response":null,"trial_type":"image-keyboard-response","trial_index":97,"plugin_version":"2.1.0","time_elapsed":213018,"subject_id":"92298","group":"Group1","condition":"1_Rep","full_date":"2026-01-23T15:34:12.473Z","date":"2026-01-23","time":"15:34:12"},{"rt":null,"stimulus":"<p style=\"font-size: 50px; margin: 0; text-align: center;\">+</p>","response":null,"trial_type":"html-keyboard-response","trial_index":98,"plugin_version":"2.1.0","time_elapsed":214022,"subject_id":"92298","group":"Group1","condition":"1_Rep","full_date":"2026-01-23T15:34:12.473Z","date":"2026-01-23","time":"15:34:12"},{"task":"memory_phase","broad_category":"I","image_png":"I_Pegmatite_10.png","image_id":106,"category_name":"Pegmatite","category":7,"distinct_rating":7.66,"distinct_type":"Top","rt":null,"stimulus":"Stimuli_Rocks480/I_Pegmatite_10.png","response":null,"trial_type":"image-keyboard-response","trial_index":99,"plugin_version":"2.1.0","time_elapsed":216535,"subject_id":"92298","group":"Group1","condition":"1_Rep","full_date":"2026-01-23T15:34:12.473Z","date":"2026-01-23","time":"15:34:12"},{"rt":null,"stimulus":"<p style=\"font-size: 50px; margin: 0; text-align: center;\">+</p>","response":null,"trial_type":"html-keyboard-response","trial_index":100,"plugin_version":"2.1.0","time_elapsed":217537,"subject_id":"92298","group":"Group1","condition":"1_Rep","full_date":"2026-01-23T15:34:12.473Z","date":"2026-01-23","time":"15:34:12"},{"task":"memory_phase","broad_category":"I","image_png":"I_Diorite_04.png","image_id":36,"category_name":"Diorite","category":3,"distinct_rating":2.98,"distinct_type":"Bottom","rt":null,"stimulus":"Stimuli_Rocks480/I_Diorite_04.png","response":null,"trial_type":"image-keyboard-response","trial_index":101,"plugin_version":"2.1.0","time_elapsed":220047,"subject_id":"92298","group":"Group1","condition":"1_Rep","full_date":"2026-01-23T15:34:12.473Z","date":"2026-01-23","time":"15:34:12"},{"rt":null,"stimulus":"<p style=\"font-size: 50px; margin: 0; text-align: center;\">+</p>","response":null,"trial_type":"html-keyboard-response","trial_index":102,"plugin_version":"2.1.0","time_elapsed":221053,"subject_id":"92298","group":"Group1","condition":"1_Rep","full_date":"2026-01-23T15:34:12.473Z","date":"2026-01-23","time":"15:34:12"},{"task":"memory_phase","broad_category":"M","image_png":"M_Phyllite_03.png","image_id":259,"category_name":"Phyllite","category":17,"distinct_rating":2.5,"distinct_type":"Bottom","rt":null,"stimulus":"Stimuli_Rocks480/M_Phyllite_03.png","response":null,"trial_type":"image-keyboard-response","trial_index":103,"plugin_version":"2.1.0","time_elapsed":223567,"subject_id":"92298","group":"Group1","condition":"1_Rep","full_date":"2026-01-23T15:34:12.473Z","date":"2026-01-23","time":"15:34:12"},{"rt":null,"stimulus":"<p style=\"font-size: 50px; margin: 0; text-align: center;\">+</p>","response":null,"trial_type":"html-keyboard-response","trial_index":104,"plugin_version":"2.1.0","time_elapsed":224571,"subject_id":"92298","group":"Group1","condition":"1_Rep","full_date":"2026-01-23T15:34:12.473Z","date":"2026-01-23","time":"15:34:12"},{"task":"memory_phase","broad_category":"I","image_png":"I_Pegmatite_16.png","image_id":112,"category_name":"Pegmatite","category":7,"distinct_rating":7.03,"distinct_type":"Top","rt":null,"stimulus":"Stimuli_Rocks480/I_Pegmatite_16.png","response":null,"trial_type":"image-keyboard-response","trial_index":105,"plugin_version":"2.1.0","time_elapsed":227086,"subject_id":"92298","group":"Group1","condition":"1_Rep","full_date":"2026-01-23T15:34:12.473Z","date":"2026-01-23","time":"15:34:12"},{"rt":10279,"stimulus":"<div style=\"max-width: 760px; margin: auto; font-size: 20px; line-height: 1.5;\">\n      <h1 style=\"text-align:center; font-size: 30px;\">Instructions for the Test Phase</h1>\n      <p>\n        The study phase is now complete.\n      </p>\n      <p>\n        In the test phase, you will again see a series of rock images. \n        Some will be ones you saw before - during the study phase, while others will be new.  \n        <b>Your task</b> is to decide whether you have seen each image before by pressing the corresponding key on your keyboard:<br><br>\n          <b>A</b> - NO (you did not see this image before)<br>\n          <b>L</b> - YES (you saw this image before)<br><br>\n        The test will proceed at your own pace. You will receive feedback after each response.  \n        Please try to respond <b>as accurately as possible</b>.\n      </p>\n      <p>\n        <b>Reminder:</b> If your computer has multiple language settings (e.g., English and another language),\n        please ensure it is set to English during the test phase.\n      </p>\n      <p>\n        You can track your progress using the <b>completion bar</b> at the top of the screen.  \n        Note that it has been refreshed to reflect your progress during this final phase.\n      </p>\n      <p>\n        Press the button below when you are ready to continue.\n      </p>\n    </div>","response":0,"trial_type":"html-button-response","trial_index":106,"plugin_version":"2.1.0","time_elapsed":237367,"subject_id":"92298","group":"Group1","condition":"1_Rep","full_date":"2026-01-23T15:34:12.473Z","date":"2026-01-23","time":"15:34:12"},{"correct_response":"a","task":"test_phase","broad_category":"I","image_png":"I_Andesite_04.png","image_id":4,"category_name":"Andesite","category":1,"distinct_rating":3.18,"distinct_type":"Bottom","item_type":"Foil","rt":7718,"stimulus":"Stimuli_Rocks480/I_Andesite_04.png","response":"l","trial_type":"image-keyboard-response","trial_index":107,"plugin_version":"2.1.0","time_elapsed":245089,"subject_id":"92298","group":"Group1","condition":"1_Rep","full_date":"2026-01-23T15:34:12.473Z","date":"2026-01-23","time":"15:34:12","cor_ans":false},{"trial_type":"html-keyboard-response","rt":null,"stimulus":"<p style=\"color: red; font-size: 50px; font-weight: bold;\">Incorrect</p>","response":null,"trial_index":108,"plugin_version":"2.1.0","time_elapsed":245606,"subject_id":"92298","group":"Group1","condition":"1_Rep","full_date":"2026-01-23T15:34:12.473Z","date":"2026-01-23","time":"15:34:12"},{"correct_response":"a","task":"test_phase","broad_category":"I","image_png":"I_Diorite_10.png","image_id":42,"category_name":"Diorite","category":3,"distinct_rating":2.84,"distinct_type":"Bottom","item_type":"Foil","rt":1997,"stimulus":"Stimuli_Rocks480/I_Diorite_10.png","response":"l","trial_type":"image-keyboard-response","trial_index":109,"plugin_version":"2.1.0","time_elapsed":247605,"subject_id":"92298","group":"Group1","condition":"1_Rep","full_date":"2026-01-23T15:34:12.473Z","date":"2026-01-23","time":"15:34:12","cor_ans":false},{"trial_type":"html-keyboard-response","rt":null,"stimulus":"<p style=\"color: red; font-size: 50px; font-weight: bold;\">Incorrect</p>","response":null,"trial_index":110,"plugin_version":"2.1.0","time_elapsed":248117,"subject_id":"92298","group":"Group1","condition":"1_Rep","full_date":"2026-01-23T15:34:12.473Z","date":"2026-01-23","time":"15:34:12"},{"correct_response":"l","task":"test_phase","broad_category":"I","image_png":"I_Diorite_03.png","image_id":35,"category_name":"Diorite","category":3,"distinct_rating":3.14,"distinct_type":"Bottom","item_type":"Target","rt":1086,"stimulus":"Stimuli_Rocks480/I_Diorite_03.png","response":"l","trial_type":"image-keyboard-response","trial_index":111,"plugin_version":"2.1.0","time_elapsed":249204,"subject_id":"92298","group":"Group1","condition":"1_Rep","full_date":"2026-01-23T15:34:12.473Z","date":"2026-01-23","time":"15:34:12","cor_ans":true},{"trial_type":"html-keyboard-response","rt":null,"stimulus":"<p style=\"color: green; font-size: 50px; font-weight: bold;\">Correct</p>","response":null,"trial_index":112,"plugin_version":"2.1.0","time_elapsed":249721,"subject_id":"92298","group":"Group1","condition":"1_Rep","full_date":"2026-01-23T15:34:12.473Z","date":"2026-01-23","time":"15:34:12"},{"correct_response":"a","task":"test_phase","broad_category":"M","image_png":"M_Quartzite_07.png","image_id":279,"category_name":"Quartzite","category":18,"distinct_rating":1.97,"distinct_type":"Bottom","item_type":"Foil","rt":1038,"stimulus":"Stimuli_Rocks480/M_Quartzite_07.png","response":"l","trial_type":"image-keyboard-response","trial_index":113,"plugin_version":"2.1.0","time_elapsed":250761,"subject_id":"92298","group":"Group1","condition":"1_Rep","full_date":"2026-01-23T15:34:12.473Z","date":"2026-01-23","time":"15:34:12","cor_ans":false},{"trial_type":"html-keyboard-response","rt":null,"stimulus":"<p style=\"color: red; font-size: 50px; font-weight: bold;\">Incorrect</p>","response":null,"trial_index":114,"plugin_version":"2.1.0","time_elapsed":251278,"subject_id":"92298","group":"Group1","condition":"1_Rep","full_date":"2026-01-23T15:34:12.473Z","date":"2026-01-23","time":"15:34:12"},{"correct_response":"l","task":"test_phase","broad_category":"M","image_png":"M_Marble_06.png","image_id":230,"category_name":"Marble","category":15,"distinct_rating":3.4,"distinct_type":"Bottom","item_type":"Target","rt":2411,"stimulus":"Stimuli_Rocks480/M_Marble_06.png","response":"a","trial_type":"image-keyboard-response","trial_index":115,"plugin_version":"2.1.0","time_elapsed":253691,"subject_id":"92298","group":"Group1","condition":"1_Rep","full_date":"2026-01-23T15:34:12.473Z","date":"2026-01-23","time":"15:34:12","cor_ans":false},{"trial_type":"html-keyboard-response","rt":null,"stimulus":"<p style=\"color: red; font-size: 50px; font-weight: bold;\">Incorrect</p>","response":null,"trial_index":116,"plugin_version":"2.1.0","time_elapsed":254205,"subject_id":"92298","group":"Group1","condition":"1_Rep","full_date":"2026-01-23T15:34:12.473Z","date":"2026-01-23","time":"15:34:12"},{"correct_response":"a","task":"test_phase","broad_category":"M","image_png":"M_Quartzite_15.png","image_id":287,"category_name":"Quartzite","category":18,"distinct_rating":2.19,"distinct_type":"Bottom","item_type":"Foil","rt":921,"stimulus":"Stimuli_Rocks480/M_Quartzite_15.png","response":"l","trial_type":"image-keyboard-response","trial_index":117,"plugin_version":"2.1.0","time_elapsed":255128,"subject_id":"92298","group":"Group1","condition":"1_Rep","full_date":"2026-01-23T15:34:12.473Z","date":"2026-01-23","time":"15:34:12","cor_ans":false},{"trial_type":"html-keyboard-response","rt":null,"stimulus":"<p style=\"color: red; font-size: 50px; font-weight: bold;\">Incorrect</p>","response":null,"trial_index":118,"plugin_version":"2.1.0","time_elapsed":255637,"subject_id":"92298","group":"Group1","condition":"1_Rep","full_date":"2026-01-23T15:34:12.473Z","date":"2026-01-23","time":"15:34:12"},{"correct_response":"l","task":"test_phase","broad_category":"M","image_png":"M_Slate_11.png","image_id":315,"category_name":"Slate","category":20,"distinct_rating":2.75,"distinct_type":"Bottom","item_type":"Target","rt":1534,"stimulus":"Stimuli_Rocks480/M_Slate_11.png","response":"l","trial_type":"image-keyboard-response","trial_index":119,"plugin_version":"2.1.0","time_elapsed":257173,"subject_id":"92298","group":"Group1","condition":"1_Rep","full_date":"2026-01-23T15:34:12.473Z","date":"2026-01-23","time":"15:34:12","cor_ans":true},{"trial_type":"html-keyboard-response","rt":null,"stimulus":"<p style=\"color: green; font-size: 50px; font-weight: bold;\">Correct</p>","response":null,"trial_index":120,"plugin_version":"2.1.0","time_elapsed":257677,"subject_id":"92298","group":"Group1","condition":"1_Rep","full_date":"2026-01-23T15:34:12.473Z","date":"2026-01-23","time":"15:34:12"},{"correct_response":"l","task":"test_phase","broad_category":"I","image_png":"I_Rhyolite_11.png","image_id":155,"category_name":"Rhyolite","category":10,"distinct_rating":1.73,"distinct_type":"Bottom","item_type":"Target","rt":1096,"stimulus":"Stimuli_Rocks480/I_Rhyolite_11.png","response":"l","trial_type":"image-keyboard-response","trial_index":121,"plugin_version":"2.1.0","time_elapsed":258775,"subject_id":"92298","group":"Group1","condition":"1_Rep","full_date":"2026-01-23T15:34:12.473Z","date":"2026-01-23","time":"15:34:12","cor_ans":true},{"trial_type":"html-keyboard-response","rt":null,"stimulus":"<p style=\"color: green; font-size: 50px; font-weight: bold;\">Correct</p>","response":null,"trial_index":122,"plugin_version":"2.1.0","time_elapsed":259282,"subject_id":"92298","group":"Group1","condition":"1_Rep","full_date":"2026-01-23T15:34:12.473Z","date":"2026-01-23","time":"15:34:12"},{"correct_response":"a","task":"test_phase","broad_category":"I","image_png":"I_Diorite_15.png","image_id":47,"category_name":"Diorite","category":3,"distinct_rating":3.05,"distinct_type":"Bottom","item_type":"Foil","rt":1750,"stimulus":"Stimuli_Rocks480/I_Diorite_15.png","response":"a","trial_type":"image-keyboard-response","trial_index":123,"plugin_version":"2.1.0","time_elapsed":261034,"subject_id":"92298","group":"Group1","condition":"1_Rep","full_date":"2026-01-23T15:34:12.473Z","date":"2026-01-23","time":"15:34:12","cor_ans":true},{"trial_type":"html-keyboard-response","rt":null,"stimulus":"<p style=\"color: green; font-size: 50px; font-weight: bold;\">Correct</p>","response":null,"trial_index":124,"plugin_version":"2.1.0","time_elapsed":261539,"subject_id":"92298","group":"Group1","condition":"1_Rep","full_date":"2026-01-23T15:34:12.473Z","date":"2026-01-23","time":"15:34:12"},{"correct_response":"l","task":"test_phase","broad_category":"I","image_png":"I_Diorite_05.png","image_id":37,"category_name":"Diorite","category":3,"distinct_rating":3.08,"distinct_type":"Bottom","item_type":"Target","rt":1153,"stimulus":"Stimuli_Rocks480/I_Diorite_05.png","response":"l","trial_type":"image-keyboard-response","trial_index":125,"plugin_version":"2.1.0","time_elapsed":262693,"subject_id":"92298","group":"Group1","condition":"1_Rep","full_date":"2026-01-23T15:34:12.473Z","date":"2026-01-23","time":"15:34:12","cor_ans":true},{"trial_type":"html-keyboard-response","rt":null,"stimulus":"<p style=\"color: green; font-size: 50px; font-weight: bold;\">Correct</p>","response":null,"trial_index":126,"plugin_version":"2.1.0","time_elapsed":263208,"subject_id":"92298","group":"Group1","condition":"1_Rep","full_date":"2026-01-23T15:34:12.473Z","date":"2026-01-23","time":"15:34:12"},{"correct_response":"a","task":"test_phase","broad_category":"M","image_png":"M_Gneiss_15.png","image_id":207,"category_name":"Gneiss","category":13,"distinct_rating":3.11,"distinct_type":"Bottom","item_type":"Foil","rt":3439,"stimulus":"Stimuli_Rocks480/M_Gneiss_15.png","response":"l","trial_type":"image-keyboard-response","trial_index":127,"plugin_version":"2.1.0","time_elapsed":266648,"subject_id":"92298","group":"Group1","condition":"1_Rep","full_date":"2026-01-23T15:34:12.473Z","date":"2026-01-23","time":"15:34:12","cor_ans":false},{"trial_type":"html-keyboard-response","rt":null,"stimulus":"<p style=\"color: red; font-size: 50px; font-weight: bold;\">Incorrect</p>","response":null,"trial_index":128,"plugin_version":"2.1.0","time_elapsed":267153,"subject_id":"92298","group":"Group1","condition":"1_Rep","full_date":"2026-01-23T15:34:12.473Z","date":"2026-01-23","time":"15:34:12"},{"correct_response":"l","task":"test_phase","broad_category":"S","image_png":"S_Rock Salt_01.png","image_id":433,"category_name":"Rock Salt","category":28,"distinct_rating":7.18,"distinct_type":"Top","item_type":"Target","rt":861,"stimulus":"Stimuli_Rocks480/S_Rock Salt_01.png","response":"l","trial_type":"image-keyboard-response","trial_index":129,"plugin_version":"2.1.0","time_elapsed":268016,"subject_id":"92298","group":"Group1","condition":"1_Rep","full_date":"2026-01-23T15:34:12.473Z","date":"2026-01-23","time":"15:34:12","cor_ans":true},{"trial_type":"html-keyboard-response","rt":null,"stimulus":"<p style=\"color: green; font-size: 50px; font-weight: bold;\">Correct</p>","response":null,"trial_index":130,"plugin_version":"2.1.0","time_elapsed":268524,"subject_id":"92298","group":"Group1","condition":"1_Rep","full_date":"2026-01-23T15:34:12.473Z","date":"2026-01-23","time":"15:34:12"},{"correct_response":"a","task":"test_phase","broad_category":"M","image_png":"M_Phyllite_05.png","image_id":261,"category_name":"Phyllite","category":17,"distinct_rating":2.14,"distinct_type":"Bottom","item_type":"Foil","rt":2557,"stimulus":"Stimuli_Rocks480/M_Phyllite_05.png","response":"a","trial_type":"image-keyboard-response","trial_index":131,"plugin_version":"2.1.0","time_elapsed":271083,"subject_id":"92298","group":"Group1","condition":"1_Rep","full_date":"2026-01-23T15:34:12.473Z","date":"2026-01-23","time":"15:34:12","cor_ans":true},{"trial_type":"html-keyboard-response","rt":null,"stimulus":"<p style=\"color: green; font-size: 50px; font-weight: bold;\">Correct</p>","response":null,"trial_index":132,"plugin_version":"2.1.0","time_elapsed":271590,"subject_id":"92298","group":"Group1","condition":"1_Rep","full_date":"2026-01-23T15:34:12.473Z","date":"2026-01-23","time":"15:34:12"},{"correct_response":"l","task":"test_phase","broad_category":"M","image_png":"M_Gneiss_13.png","image_id":205,"category_name":"Gneiss","category":13,"distinct_rating":3.26,"distinct_type":"Bottom","item_type":"Target","rt":1073,"stimulus":"Stimuli_Rocks480/M_Gneiss_13.png","response":"l","trial_type":"image-keyboard-response","trial_index":133,"plugin_version":"2.1.0","time_elapsed":272665,"subject_id":"92298","group":"Group1","condition":"1_Rep","full_date":"2026-01-23T15:34:12.473Z","date":"2026-01-23","time":"15:34:12","cor_ans":true},{"trial_type":"html-keyboard-response","rt":null,"stimulus":"<p style=\"color: green; font-size: 50px; font-weight: bold;\">Correct</p>","response":null,"trial_index":134,"plugin_version":"2.1.0","time_elapsed":273180,"subject_id":"92298","group":"Group1","condition":"1_Rep","full_date":"2026-01-23T15:34:12.473Z","date":"2026-01-23","time":"15:34:12"},{"correct_response":"l","task":"test_phase","broad_category":"I","image_png":"I_Pumice_11.png","image_id":139,"category_name":"Pumice","category":9,"distinct_rating":1.74,"distinct_type":"Bottom","item_type":"Target","rt":991,"stimulus":"Stimuli_Rocks480/I_Pumice_11.png","response":"l","trial_type":"image-keyboard-response","trial_index":135,"plugin_version":"2.1.0","time_elapsed":274174,"subject_id":"92298","group":"Group1","condition":"1_Rep","full_date":"2026-01-23T15:34:12.473Z","date":"2026-01-23","time":"15:34:12","cor_ans":true},{"trial_type":"html-keyboard-response","rt":null,"stimulus":"<p style=\"color: green; font-size: 50px; font-weight: bold;\">Correct</p>","response":null,"trial_index":136,"plugin_version":"2.1.0","time_elapsed":274677,"subject_id":"92298","group":"Group1","condition":"1_Rep","full_date":"2026-01-23T15:34:12.473Z","date":"2026-01-23","time":"15:34:12"},{"correct_response":"l","task":"test_phase","broad_category":"I","image_png":"I_Pumice_12.png","image_id":140,"category_name":"Pumice","category":9,"distinct_rating":2.97,"distinct_type":"Bottom","item_type":"Target","rt":1496,"stimulus":"Stimuli_Rocks480/I_Pumice_12.png","response":"a","trial_type":"image-keyboard-response","trial_index":137,"plugin_version":"2.1.0","time_elapsed":276175,"subject_id":"92298","group":"Group1","condition":"1_Rep","full_date":"2026-01-23T15:34:12.473Z","date":"2026-01-23","time":"15:34:12","cor_ans":false},{"trial_type":"html-keyboard-response","rt":null,"stimulus":"<p style=\"color: red; font-size: 50px; font-weight: bold;\">Incorrect</p>","response":null,"trial_index":138,"plugin_version":"2.1.0","time_elapsed":276683,"subject_id":"92298","group":"Group1","condition":"1_Rep","full_date":"2026-01-23T15:34:12.473Z","date":"2026-01-23","time":"15:34:12"},{"correct_response":"l","task":"test_phase","broad_category":"M","image_png":"M_Phyllite_03.png","image_id":259,"category_name":"Phyllite","category":17,"distinct_rating":2.5,"distinct_type":"Bottom","item_type":"Target","rt":1611,"stimulus":"Stimuli_Rocks480/M_Phyllite_03.png","response":"l","trial_type":"image-keyboard-response","trial_index":139,"plugin_version":"2.1.0","time_elapsed":278295,"subject_id":"92298","group":"Group1","condition":"1_Rep","full_date":"2026-01-23T15:34:12.473Z","date":"2026-01-23","time":"15:34:12","cor_ans":true},{"trial_type":"html-keyboard-response","rt":null,"stimulus":"<p style=\"color: green; font-size: 50px; font-weight: bold;\">Correct</p>","response":null,"trial_index":140,"plugin_version":"2.1.0","time_elapsed":278805,"subject_id":"92298","group":"Group1","condition":"1_Rep","full_date":"2026-01-23T15:34:12.473Z","date":"2026-01-23","time":"15:34:12"},{"correct_response":"a","task":"test_phase","broad_category":"S","image_png":"S_Shale_03.png","image_id":467,"category_name":"Shale","category":30,"distinct_rating":1.95,"distinct_type":"Bottom","item_type":"Foil","rt":1177,"stimulus":"Stimuli_Rocks480/S_Shale_03.png","response":"a","trial_type":"image-keyboard-response","trial_index":141,"plugin_version":"2.1.0","time_elapsed":279985,"subject_id":"92298","group":"Group1","condition":"1_Rep","full_date":"2026-01-23T15:34:12.473Z","date":"2026-01-23","time":"15:34:12","cor_ans":true},{"trial_type":"html-keyboard-response","rt":null,"stimulus":"<p style=\"color: green; font-size: 50px; font-weight: bold;\">Correct</p>","response":null,"trial_index":142,"plugin_version":"2.1.0","time_elapsed":280492,"subject_id":"92298","group":"Group1","condition":"1_Rep","full_date":"2026-01-23T15:34:12.473Z","date":"2026-01-23","time":"15:34:12"},{"correct_response":"a","task":"test_phase","broad_category":"I","image_png":"I_Pegmatite_03.png","image_id":99,"category_name":"Pegmatite","category":7,"distinct_rating":7.24,"distinct_type":"Top","item_type":"Foil","rt":1252,"stimulus":"Stimuli_Rocks480/I_Pegmatite_03.png","response":"a","trial_type":"image-keyboard-response","trial_index":143,"plugin_version":"2.1.0","time_elapsed":281746,"subject_id":"92298","group":"Group1","condition":"1_Rep","full_date":"2026-01-23T15:34:12.473Z","date":"2026-01-23","time":"15:34:12","cor_ans":true},{"trial_type":"html-keyboard-response","rt":null,"stimulus":"<p style=\"color: green; font-size: 50px; font-weight: bold;\">Correct</p>","response":null,"trial_index":144,"plugin_version":"2.1.0","time_elapsed":282253,"subject_id":"92298","group":"Group1","condition":"1_Rep","full_date":"2026-01-23T15:34:12.473Z","date":"2026-01-23","time":"15:34:12"},{"correct_response":"l","task":"test_phase","broad_category":"S","image_png":"S_Shale_08.png","image_id":472,"category_name":"Shale","category":30,"distinct_rating":2.55,"distinct_type":"Bottom","item_type":"Target","rt":926,"stimulus":"Stimuli_Rocks480/S_Shale_08.png","response":"l","trial_type":"image-keyboard-response","trial_index":145,"plugin_version":"2.1.0","time_elapsed":283181,"subject_id":"92298","group":"Group1","condition":"1_Rep","full_date":"2026-01-23T15:34:12.473Z","date":"2026-01-23","time":"15:34:12","cor_ans":true},{"trial_type":"html-keyboard-response","rt":null,"stimulus":"<p style=\"color: green; font-size: 50px; font-weight: bold;\">Correct</p>","response":null,"trial_index":146,"plugin_version":"2.1.0","time_elapsed":283683,"subject_id":"92298","group":"Group1","condition":"1_Rep","full_date":"2026-01-23T15:34:12.473Z","date":"2026-01-23","time":"15:34:12"},{"correct_response":"a","task":"test_phase","broad_category":"M","image_png":"M_Quartzite_12.png","image_id":284,"category_name":"Quartzite","category":18,"distinct_rating":1.92,"distinct_type":"Bottom","item_type":"Foil","rt":4180,"stimulus":"Stimuli_Rocks480/M_Quartzite_12.png","response":"l","trial_type":"image-keyboard-response","trial_index":147,"plugin_version":"2.1.0","time_elapsed":287865,"subject_id":"92298","group":"Group1","condition":"1_Rep","full_date":"2026-01-23T15:34:12.473Z","date":"2026-01-23","time":"15:34:12","cor_ans":false},{"trial_type":"html-keyboard-response","rt":null,"stimulus":"<p style=\"color: red; font-size: 50px; font-weight: bold;\">Incorrect</p>","response":null,"trial_index":148,"plugin_version":"2.1.0","time_elapsed":288367,"subject_id":"92298","group":"Group1","condition":"1_Rep","full_date":"2026-01-23T15:34:12.473Z","date":"2026-01-23","time":"15:34:12"},{"correct_response":"l","task":"test_phase","broad_category":"I","image_png":"I_Pegmatite_10.png","image_id":106,"category_name":"Pegmatite","category":7,"distinct_rating":7.66,"distinct_type":"Top","item_type":"Target","rt":737,"stimulus":"Stimuli_Rocks480/I_Pegmatite_10.png","response":"l","trial_type":"image-keyboard-response","trial_index":149,"plugin_version":"2.1.0","time_elapsed":289106,"subject_id":"92298","group":"Group1","condition":"1_Rep","full_date":"2026-01-23T15:34:12.473Z","date":"2026-01-23","time":"15:34:12","cor_ans":true},{"trial_type":"html-keyboard-response","rt":null,"stimulus":"<p style=\"color: green; font-size: 50px; font-weight: bold;\">Correct</p>","response":null,"trial_index":150,"plugin_version":"2.1.0","time_elapsed":289612,"subject_id":"92298","group":"Group1","condition":"1_Rep","full_date":"2026-01-23T15:34:12.473Z","date":"2026-01-23","time":"15:34:12"},{"correct_response":"l","task":"test_phase","broad_category":"S","image_png":"S_Shale_01.png","image_id":465,"category_name":"Shale","category":30,"distinct_rating":2.7,"distinct_type":"Bottom","item_type":"Target","rt":821,"stimulus":"Stimuli_Rocks480/S_Shale_01.png","response":"l","trial_type":"image-keyboard-response","trial_index":151,"plugin_version":"2.1.0","time_elapsed":290436,"subject_id":"92298","group":"Group1","condition":"1_Rep","full_date":"2026-01-23T15:34:12.473Z","date":"2026-01-23","time":"15:34:12","cor_ans":true},{"trial_type":"html-keyboard-response","rt":null,"stimulus":"<p style=\"color: green; font-size: 50px; font-weight: bold;\">Correct</p>","response":null,"trial_index":152,"plugin_version":"2.1.0","time_elapsed":290939,"subject_id":"92298","group":"Group1","condition":"1_Rep","full_date":"2026-01-23T15:34:12.473Z","date":"2026-01-23","time":"15:34:12"},{"correct_response":"l","task":"test_phase","broad_category":"S","image_png":"S_Dolomite_12.png","image_id":396,"category_name":"Dolomite","category":25,"distinct_rating":1.85,"distinct_type":"Bottom","item_type":"Target","rt":2997,"stimulus":"Stimuli_Rocks480/S_Dolomite_12.png","response":"a","trial_type":"image-keyboard-response","trial_index":153,"plugin_version":"2.1.0","time_elapsed":293938,"subject_id":"92298","group":"Group1","condition":"1_Rep","full_date":"2026-01-23T15:34:12.473Z","date":"2026-01-23","time":"15:34:12","cor_ans":false},{"trial_type":"html-keyboard-response","rt":null,"stimulus":"<p style=\"color: red; font-size: 50px; font-weight: bold;\">Incorrect</p>","response":null,"trial_index":154,"plugin_version":"2.1.0","time_elapsed":294445,"subject_id":"92298","group":"Group1","condition":"1_Rep","full_date":"2026-01-23T15:34:12.473Z","date":"2026-01-23","time":"15:34:12"},{"correct_response":"a","task":"test_phase","broad_category":"M","image_png":"M_Phyllite_13.png","image_id":269,"category_name":"Phyllite","category":17,"distinct_rating":2.8,"distinct_type":"Bottom","item_type":"Foil","rt":2626,"stimulus":"Stimuli_Rocks480/M_Phyllite_13.png","response":"a","trial_type":"image-keyboard-response","trial_index":155,"plugin_version":"2.1.0","time_elapsed":297073,"subject_id":"92298","group":"Group1","condition":"1_Rep","full_date":"2026-01-23T15:34:12.473Z","date":"2026-01-23","time":"15:34:12","cor_ans":true},{"trial_type":"html-keyboard-response","rt":null,"stimulus":"<p style=\"color: green; font-size: 50px; font-weight: bold;\">Correct</p>","response":null,"trial_index":156,"plugin_version":"2.1.0","time_elapsed":297579,"subject_id":"92298","group":"Group1","condition":"1_Rep","full_date":"2026-01-23T15:34:12.473Z","date":"2026-01-23","time":"15:34:12"},{"correct_response":"l","task":"test_phase","broad_category":"M","image_png":"M_Quartzite_13.png","image_id":285,"category_name":"Quartzite","category":18,"distinct_rating":2.27,"distinct_type":"Bottom","item_type":"Target","rt":736,"stimulus":"Stimuli_Rocks480/M_Quartzite_13.png","response":"l","trial_type":"image-keyboard-response","trial_index":157,"plugin_version":"2.1.0","time_elapsed":298317,"subject_id":"92298","group":"Group1","condition":"1_Rep","full_date":"2026-01-23T15:34:12.473Z","date":"2026-01-23","time":"15:34:12","cor_ans":true},{"trial_type":"html-keyboard-response","rt":null,"stimulus":"<p style=\"color: green; font-size: 50px; font-weight: bold;\">Correct</p>","response":null,"trial_index":158,"plugin_version":"2.1.0","time_elapsed":298833,"subject_id":"92298","group":"Group1","condition":"1_Rep","full_date":"2026-01-23T15:34:12.473Z","date":"2026-01-23","time":"15:34:12"},{"correct_response":"a","task":"test_phase","broad_category":"M","image_png":"M_Phyllite_02.png","image_id":258,"category_name":"Phyllite","category":17,"distinct_rating":2.89,"distinct_type":"Bottom","item_type":"Foil","rt":1055,"stimulus":"Stimuli_Rocks480/M_Phyllite_02.png","response":"l","trial_type":"image-keyboard-response","trial_index":159,"plugin_version":"2.1.0","time_elapsed":299890,"subject_id":"92298","group":"Group1","condition":"1_Rep","full_date":"2026-01-23T15:34:12.473Z","date":"2026-01-23","time":"15:34:12","cor_ans":false},{"trial_type":"html-keyboard-response","rt":null,"stimulus":"<p style=\"color: red; font-size: 50px; font-weight: bold;\">Incorrect</p>","response":null,"trial_index":160,"plugin_version":"2.1.0","time_elapsed":300407,"subject_id":"92298","group":"Group1","condition":"1_Rep","full_date":"2026-01-23T15:34:12.473Z","date":"2026-01-23","time":"15:34:12"},{"correct_response":"l","task":"test_phase","broad_category":"M","image_png":"M_Slate_03.png","image_id":307,"category_name":"Slate","category":20,"distinct_rating":1.87,"distinct_type":"Bottom","item_type":"Target","rt":1351,"stimulus":"Stimuli_Rocks480/M_Slate_03.png","response":"l","trial_type":"image-keyboard-response","trial_index":161,"plugin_version":"2.1.0","time_elapsed":301760,"subject_id":"92298","group":"Group1","condition":"1_Rep","full_date":"2026-01-23T15:34:12.473Z","date":"2026-01-23","time":"15:34:12","cor_ans":true},{"trial_type":"html-keyboard-response","rt":null,"stimulus":"<p style=\"color: green; font-size: 50px; font-weight: bold;\">Correct</p>","response":null,"trial_index":162,"plugin_version":"2.1.0","time_elapsed":302275,"subject_id":"92298","group":"Group1","condition":"1_Rep","full_date":"2026-01-23T15:34:12.473Z","date":"2026-01-23","time":"15:34:12"},{"correct_response":"l","task":"test_phase","broad_category":"S","image_png":"S_Rock Gypsum_04.png","image_id":420,"category_name":"Rock Gypsum","category":27,"distinct_rating":7.61,"distinct_type":"Top","item_type":"Target","rt":2035,"stimulus":"Stimuli_Rocks480/S_Rock Gypsum_04.png","response":"a","trial_type":"image-keyboard-response","trial_index":163,"plugin_version":"2.1.0","time_elapsed":304312,"subject_id":"92298","group":"Group1","condition":"1_Rep","full_date":"2026-01-23T15:34:12.473Z","date":"2026-01-23","time":"15:34:12","cor_ans":false},{"trial_type":"html-keyboard-response","rt":null,"stimulus":"<p style=\"color: red; font-size: 50px; font-weight: bold;\">Incorrect</p>","response":null,"trial_index":164,"plugin_version":"2.1.0","time_elapsed":304814,"subject_id":"92298","group":"Group1","condition":"1_Rep","full_date":"2026-01-23T15:34:12.473Z","date":"2026-01-23","time":"15:34:12"},{"correct_response":"a","task":"test_phase","broad_category":"M","image_png":"M_Slate_14.png","image_id":318,"category_name":"Slate","category":20,"distinct_rating":2.58,"distinct_type":"Bottom","item_type":"Foil","rt":1170,"stimulus":"Stimuli_Rocks480/M_Slate_14.png","response":"l","trial_type":"image-keyboard-response","trial_index":165,"plugin_version":"2.1.0","time_elapsed":305987,"subject_id":"92298","group":"Group1","condition":"1_Rep","full_date":"2026-01-23T15:34:12.473Z","date":"2026-01-23","time":"15:34:12","cor_ans":false},{"trial_type":"html-keyboard-response","rt":null,"stimulus":"<p style=\"color: red; font-size: 50px; font-weight: bold;\">Incorrect</p>","response":null,"trial_index":166,"plugin_version":"2.1.0","time_elapsed":306494,"subject_id":"92298","group":"Group1","condition":"1_Rep","full_date":"2026-01-23T15:34:12.473Z","date":"2026-01-23","time":"15:34:12"},{"correct_response":"a","task":"test_phase","broad_category":"M","image_png":"M_Slate_10.png","image_id":314,"category_name":"Slate","category":20,"distinct_rating":1.94,"distinct_type":"Bottom","item_type":"Foil","rt":1924,"stimulus":"Stimuli_Rocks480/M_Slate_10.png","response":"l","trial_type":"image-keyboard-response","trial_index":167,"plugin_version":"2.1.0","time_elapsed":308421,"subject_id":"92298","group":"Group1","condition":"1_Rep","full_date":"2026-01-23T15:34:12.473Z","date":"2026-01-23","time":"15:34:12","cor_ans":false},{"trial_type":"html-keyboard-response","rt":null,"stimulus":"<p style=\"color: red; font-size: 50px; font-weight: bold;\">Incorrect</p>","response":null,"trial_index":168,"plugin_version":"2.1.0","time_elapsed":308923,"subject_id":"92298","group":"Group1","condition":"1_Rep","full_date":"2026-01-23T15:34:12.473Z","date":"2026-01-23","time":"15:34:12"},{"correct_response":"l","task":"test_phase","broad_category":"I","image_png":"I_Basalt_01.png","image_id":17,"category_name":"Basalt","category":2,"distinct_rating":1.92,"distinct_type":"Bottom","item_type":"Target","rt":1029,"stimulus":"Stimuli_Rocks480/I_Basalt_01.png","response":"l","trial_type":"image-keyboard-response","trial_index":169,"plugin_version":"2.1.0","time_elapsed":309954,"subject_id":"92298","group":"Group1","condition":"1_Rep","full_date":"2026-01-23T15:34:12.473Z","date":"2026-01-23","time":"15:34:12","cor_ans":true},{"trial_type":"html-keyboard-response","rt":null,"stimulus":"<p style=\"color: green; font-size: 50px; font-weight: bold;\">Correct</p>","response":null,"trial_index":170,"plugin_version":"2.1.0","time_elapsed":310463,"subject_id":"92298","group":"Group1","condition":"1_Rep","full_date":"2026-01-23T15:34:12.473Z","date":"2026-01-23","time":"15:34:12"},{"correct_response":"l","task":"test_phase","broad_category":"M","image_png":"M_Marble_16.png","image_id":240,"category_name":"Marble","category":15,"distinct_rating":2.57,"distinct_type":"Bottom","item_type":"Target","rt":2554,"stimulus":"Stimuli_Rocks480/M_Marble_16.png","response":"l","trial_type":"image-keyboard-response","trial_index":171,"plugin_version":"2.1.0","time_elapsed":313019,"subject_id":"92298","group":"Group1","condition":"1_Rep","full_date":"2026-01-23T15:34:12.473Z","date":"2026-01-23","time":"15:34:12","cor_ans":true},{"trial_type":"html-keyboard-response","rt":null,"stimulus":"<p style=\"color: green; font-size: 50px; font-weight: bold;\">Correct</p>","response":null,"trial_index":172,"plugin_version":"2.1.0","time_elapsed":313526,"subject_id":"92298","group":"Group1","condition":"1_Rep","full_date":"2026-01-23T15:34:12.473Z","date":"2026-01-23","time":"15:34:12"},{"correct_response":"l","task":"test_phase","broad_category":"S","image_png":"S_Sandstone_15.png","image_id":463,"category_name":"Sandstone","category":29,"distinct_rating":2,"distinct_type":"Bottom","item_type":"Target","rt":987,"stimulus":"Stimuli_Rocks480/S_Sandstone_15.png","response":"l","trial_type":"image-keyboard-response","trial_index":173,"plugin_version":"2.1.0","time_elapsed":314515,"subject_id":"92298","group":"Group1","condition":"1_Rep","full_date":"2026-01-23T15:34:12.473Z","date":"2026-01-23","time":"15:34:12","cor_ans":true},{"trial_type":"html-keyboard-response","rt":null,"stimulus":"<p style=\"color: green; font-size: 50px; font-weight: bold;\">Correct</p>","response":null,"trial_index":174,"plugin_version":"2.1.0","time_elapsed":315021,"subject_id":"92298","group":"Group1","condition":"1_Rep","full_date":"2026-01-23T15:34:12.473Z","date":"2026-01-23","time":"15:34:12"},{"correct_response":"a","task":"test_phase","broad_category":"I","image_png":"I_Pumice_13.png","image_id":141,"category_name":"Pumice","category":9,"distinct_rating":3.12,"distinct_type":"Bottom","item_type":"Foil","rt":771,"stimulus":"Stimuli_Rocks480/I_Pumice_13.png","response":"a","trial_type":"image-keyboard-response","trial_index":175,"plugin_version":"2.1.0","time_elapsed":315795,"subject_id":"92298","group":"Group1","condition":"1_Rep","full_date":"2026-01-23T15:34:12.473Z","date":"2026-01-23","time":"15:34:12","cor_ans":true},{"trial_type":"html-keyboard-response","rt":null,"stimulus":"<p style=\"color: green; font-size: 50px; font-weight: bold;\">Correct</p>","response":null,"trial_index":176,"plugin_version":"2.1.0","time_elapsed":316304,"subject_id":"92298","group":"Group1","condition":"1_Rep","full_date":"2026-01-23T15:34:12.473Z","date":"2026-01-23","time":"15:34:12"},{"correct_response":"l","task":"test_phase","broad_category":"I","image_png":"I_Basalt_09.png","image_id":25,"category_name":"Basalt","category":2,"distinct_rating":1.89,"distinct_type":"Bottom","item_type":"Target","rt":933,"stimulus":"Stimuli_Rocks480/I_Basalt_09.png","response":"l","trial_type":"image-keyboard-response","trial_index":177,"plugin_version":"2.1.0","time_elapsed":317239,"subject_id":"92298","group":"Group1","condition":"1_Rep","full_date":"2026-01-23T15:34:12.473Z","date":"2026-01-23","time":"15:34:12","cor_ans":true},{"trial_type":"html-keyboard-response","rt":null,"stimulus":"<p style=\"color: green; font-size: 50px; font-weight: bold;\">Correct</p>","response":null,"trial_index":178,"plugin_version":"2.1.0","time_elapsed":317740,"subject_id":"92298","group":"Group1","condition":"1_Rep","full_date":"2026-01-23T15:34:12.473Z","date":"2026-01-23","time":"15:34:12"},{"correct_response":"l","task":"test_phase","broad_category":"I","image_png":"I_Rhyolite_16.png","image_id":160,"category_name":"Rhyolite","category":10,"distinct_rating":2.19,"distinct_type":"Bottom","item_type":"Target","rt":1938,"stimulus":"Stimuli_Rocks480/I_Rhyolite_16.png","response":"l","trial_type":"image-keyboard-response","trial_index":179,"plugin_version":"2.1.0","time_elapsed":319680,"subject_id":"92298","group":"Group1","condition":"1_Rep","full_date":"2026-01-23T15:34:12.473Z","date":"2026-01-23","time":"15:34:12","cor_ans":true},{"trial_type":"html-keyboard-response","rt":null,"stimulus":"<p style=\"color: green; font-size: 50px; font-weight: bold;\">Correct</p>","response":null,"trial_index":180,"plugin_version":"2.1.0","time_elapsed":320185,"subject_id":"92298","group":"Group1","condition":"1_Rep","full_date":"2026-01-23T15:34:12.473Z","date":"2026-01-23","time":"15:34:12"},{"correct_response":"l","task":"test_phase","broad_category":"I","image_png":"I_Andesite_10.png","image_id":10,"category_name":"Andesite","category":1,"distinct_rating":3.15,"distinct_type":"Bottom","item_type":"Target","rt":1169,"stimulus":"Stimuli_Rocks480/I_Andesite_10.png","response":"l","trial_type":"image-keyboard-response","trial_index":181,"plugin_version":"2.1.0","time_elapsed":321370,"subject_id":"92298","group":"Group1","condition":"1_Rep","full_date":"2026-01-23T15:34:12.473Z","date":"2026-01-23","time":"15:34:12","cor_ans":true},{"trial_type":"html-keyboard-response","rt":null,"stimulus":"<p style=\"color: green; font-size: 50px; font-weight: bold;\">Correct</p>","response":null,"trial_index":182,"plugin_version":"2.1.0","time_elapsed":321884,"subject_id":"92298","group":"Group1","condition":"1_Rep","full_date":"2026-01-23T15:34:12.473Z","date":"2026-01-23","time":"15:34:12"},{"correct_response":"l","task":"test_phase","broad_category":"S","image_png":"S_Dolomite_14.png","image_id":398,"category_name":"Dolomite","category":25,"distinct_rating":1.43,"distinct_type":"Bottom","item_type":"Target","rt":2538,"stimulus":"Stimuli_Rocks480/S_Dolomite_14.png","response":"a","trial_type":"image-keyboard-response","trial_index":183,"plugin_version":"2.1.0","time_elapsed":324424,"subject_id":"92298","group":"Group1","condition":"1_Rep","full_date":"2026-01-23T15:34:12.473Z","date":"2026-01-23","time":"15:34:12","cor_ans":false},{"trial_type":"html-keyboard-response","rt":null,"stimulus":"<p style=\"color: red; font-size: 50px; font-weight: bold;\">Incorrect</p>","response":null,"trial_index":184,"plugin_version":"2.1.0","time_elapsed":324934,"subject_id":"92298","group":"Group1","condition":"1_Rep","full_date":"2026-01-23T15:34:12.473Z","date":"2026-01-23","time":"15:34:12"},{"correct_response":"l","task":"test_phase","broad_category":"M","image_png":"M_Gneiss_05.png","image_id":197,"category_name":"Gneiss","category":13,"distinct_rating":2.97,"distinct_type":"Bottom","item_type":"Target","rt":896,"stimulus":"Stimuli_Rocks480/M_Gneiss_05.png","response":"l","trial_type":"image-keyboard-response","trial_index":185,"plugin_version":"2.1.0","time_elapsed":325832,"subject_id":"92298","group":"Group1","condition":"1_Rep","full_date":"2026-01-23T15:34:12.473Z","date":"2026-01-23","time":"15:34:12","cor_ans":true},{"trial_type":"html-keyboard-response","rt":null,"stimulus":"<p style=\"color: green; font-size: 50px; font-weight: bold;\">Correct</p>","response":null,"trial_index":186,"plugin_version":"2.1.0","time_elapsed":326333,"subject_id":"92298","group":"Group1","condition":"1_Rep","full_date":"2026-01-23T15:34:12.473Z","date":"2026-01-23","time":"15:34:12"},{"correct_response":"l","task":"test_phase","broad_category":"I","image_png":"I_Rhyolite_14.png","image_id":158,"category_name":"Rhyolite","category":10,"distinct_rating":2.59,"distinct_type":"Bottom","item_type":"Target","rt":925,"stimulus":"Stimuli_Rocks480/I_Rhyolite_14.png","response":"l","trial_type":"image-keyboard-response","trial_index":187,"plugin_version":"2.1.0","time_elapsed":327260,"subject_id":"92298","group":"Group1","condition":"1_Rep","full_date":"2026-01-23T15:34:12.473Z","date":"2026-01-23","time":"15:34:12","cor_ans":true},{"trial_type":"html-keyboard-response","rt":null,"stimulus":"<p style=\"color: green; font-size: 50px; font-weight: bold;\">Correct</p>","response":null,"trial_index":188,"plugin_version":"2.1.0","time_elapsed":327766,"subject_id":"92298","group":"Group1","condition":"1_Rep","full_date":"2026-01-23T15:34:12.473Z","date":"2026-01-23","time":"15:34:12"},{"correct_response":"a","task":"test_phase","broad_category":"I","image_png":"I_Gabbro_02.png","image_id":50,"category_name":"Gabbro","category":4,"distinct_rating":2.73,"distinct_type":"Bottom","item_type":"Foil","rt":1080,"stimulus":"Stimuli_Rocks480/I_Gabbro_02.png","response":"a","trial_type":"image-keyboard-response","trial_index":189,"plugin_version":"2.1.0","time_elapsed":328848,"subject_id":"92298","group":"Group1","condition":"1_Rep","full_date":"2026-01-23T15:34:12.473Z","date":"2026-01-23","time":"15:34:12","cor_ans":true},{"trial_type":"html-keyboard-response","rt":null,"stimulus":"<p style=\"color: green; font-size: 50px; font-weight: bold;\">Correct</p>","response":null,"trial_index":190,"plugin_version":"2.1.0","time_elapsed":329364,"subject_id":"92298","group":"Group1","condition":"1_Rep","full_date":"2026-01-23T15:34:12.473Z","date":"2026-01-23","time":"15:34:12"},{"correct_response":"a","task":"test_phase","broad_category":"S","image_png":"S_Shale_07.png","image_id":471,"category_name":"Shale","category":30,"distinct_rating":2.73,"distinct_type":"Bottom","item_type":"Foil","rt":2275,"stimulus":"Stimuli_Rocks480/S_Shale_07.png","response":"a","trial_type":"image-keyboard-response","trial_index":191,"plugin_version":"2.1.0","time_elapsed":331640,"subject_id":"92298","group":"Group1","condition":"1_Rep","full_date":"2026-01-23T15:34:12.473Z","date":"2026-01-23","time":"15:34:12","cor_ans":true},{"trial_type":"html-keyboard-response","rt":null,"stimulus":"<p style=\"color: green; font-size: 50px; font-weight: bold;\">Correct</p>","response":null,"trial_index":192,"plugin_version":"2.1.0","time_elapsed":332154,"subject_id":"92298","group":"Group1","condition":"1_Rep","full_date":"2026-01-23T15:34:12.473Z","date":"2026-01-23","time":"15:34:12"},{"correct_response":"a","task":"test_phase","broad_category":"I","image_png":"I_Gabbro_14.png","image_id":62,"category_name":"Gabbro","category":4,"distinct_rating":2.95,"distinct_type":"Bottom","item_type":"Foil","rt":1366,"stimulus":"Stimuli_Rocks480/I_Gabbro_14.png","response":"a","trial_type":"image-keyboard-response","trial_index":193,"plugin_version":"2.1.0","time_elapsed":333522,"subject_id":"92298","group":"Group1","condition":"1_Rep","full_date":"2026-01-23T15:34:12.473Z","date":"2026-01-23","time":"15:34:12","cor_ans":true},{"trial_type":"html-keyboard-response","rt":null,"stimulus":"<p style=\"color: green; font-size: 50px; font-weight: bold;\">Correct</p>","response":null,"trial_index":194,"plugin_version":"2.1.0","time_elapsed":334028,"subject_id":"92298","group":"Group1","condition":"1_Rep","full_date":"2026-01-23T15:34:12.473Z","date":"2026-01-23","time":"15:34:12"},{"correct_response":"a","task":"test_phase","broad_category":"I","image_png":"I_Basalt_08.png","image_id":24,"category_name":"Basalt","category":2,"distinct_rating":2.31,"distinct_type":"Bottom","item_type":"Foil","rt":2452,"stimulus":"Stimuli_Rocks480/I_Basalt_08.png","response":"a","trial_type":"image-keyboard-response","trial_index":195,"plugin_version":"2.1.0","time_elapsed":336482,"subject_id":"92298","group":"Group1","condition":"1_Rep","full_date":"2026-01-23T15:34:12.473Z","date":"2026-01-23","time":"15:34:12","cor_ans":true},{"trial_type":"html-keyboard-response","rt":null,"stimulus":"<p style=\"color: green; font-size: 50px; font-weight: bold;\">Correct</p>","response":null,"trial_index":196,"plugin_version":"2.1.0","time_elapsed":336984,"subject_id":"92298","group":"Group1","condition":"1_Rep","full_date":"2026-01-23T15:34:12.473Z","date":"2026-01-23","time":"15:34:12"},{"correct_response":"l","task":"test_phase","broad_category":"I","image_png":"I_Obsidian_05.png","image_id":85,"category_name":"Obsidian","category":6,"distinct_rating":7.32,"distinct_type":"Top","item_type":"Target","rt":632,"stimulus":"Stimuli_Rocks480/I_Obsidian_05.png","response":"l","trial_type":"image-keyboard-response","trial_index":197,"plugin_version":"2.1.0","time_elapsed":337619,"subject_id":"92298","group":"Group1","condition":"1_Rep","full_date":"2026-01-23T15:34:12.473Z","date":"2026-01-23","time":"15:34:12","cor_ans":true},{"trial_type":"html-keyboard-response","rt":null,"stimulus":"<p style=\"color: green; font-size: 50px; font-weight: bold;\">Correct</p>","response":null,"trial_index":198,"plugin_version":"2.1.0","time_elapsed":338131,"subject_id":"92298","group":"Group1","condition":"1_Rep","full_date":"2026-01-23T15:34:12.473Z","date":"2026-01-23","time":"15:34:12"},{"correct_response":"l","task":"test_phase","broad_category":"M","image_png":"M_Quartzite_08.png","image_id":280,"category_name":"Quartzite","category":18,"distinct_rating":2.15,"distinct_type":"Bottom","item_type":"Target","rt":3235,"stimulus":"Stimuli_Rocks480/M_Quartzite_08.png","response":"l","trial_type":"image-keyboard-response","trial_index":199,"plugin_version":"2.1.0","time_elapsed":341368,"subject_id":"92298","group":"Group1","condition":"1_Rep","full_date":"2026-01-23T15:34:12.473Z","date":"2026-01-23","time":"15:34:12","cor_ans":true},{"trial_type":"html-keyboard-response","rt":null,"stimulus":"<p style=\"color: green; font-size: 50px; font-weight: bold;\">Correct</p>","response":null,"trial_index":200,"plugin_version":"2.1.0","time_elapsed":341880,"subject_id":"92298","group":"Group1","condition":"1_Rep","full_date":"2026-01-23T15:34:12.473Z","date":"2026-01-23","time":"15:34:12"},{"correct_response":"a","task":"test_phase","broad_category":"I","image_png":"I_Pumice_14.png","image_id":142,"category_name":"Pumice","category":9,"distinct_rating":3.22,"distinct_type":"Bottom","item_type":"Foil","rt":2707,"stimulus":"Stimuli_Rocks480/I_Pumice_14.png","response":"l","trial_type":"image-keyboard-response","trial_index":201,"plugin_version":"2.1.0","time_elapsed":344589,"subject_id":"92298","group":"Group1","condition":"1_Rep","full_date":"2026-01-23T15:34:12.473Z","date":"2026-01-23","time":"15:34:12","cor_ans":false},{"trial_type":"html-keyboard-response","rt":null,"stimulus":"<p style=\"color: red; font-size: 50px; font-weight: bold;\">Incorrect</p>","response":null,"trial_index":202,"plugin_version":"2.1.0","time_elapsed":345097,"subject_id":"92298","group":"Group1","condition":"1_Rep","full_date":"2026-01-23T15:34:12.473Z","date":"2026-01-23","time":"15:34:12"},{"correct_response":"a","task":"test_phase","broad_category":"I","image_png":"I_Basalt_10.png","image_id":26,"category_name":"Basalt","category":2,"distinct_rating":2.76,"distinct_type":"Bottom","item_type":"Foil","rt":1261,"stimulus":"Stimuli_Rocks480/I_Basalt_10.png","response":"a","trial_type":"image-keyboard-response","trial_index":203,"plugin_version":"2.1.0","time_elapsed":346360,"subject_id":"92298","group":"Group1","condition":"1_Rep","full_date":"2026-01-23T15:34:12.473Z","date":"2026-01-23","time":"15:34:12","cor_ans":true},{"trial_type":"html-keyboard-response","rt":null,"stimulus":"<p style=\"color: green; font-size: 50px; font-weight: bold;\">Correct</p>","response":null,"trial_index":204,"plugin_version":"2.1.0","time_elapsed":346862,"subject_id":"92298","group":"Group1","condition":"1_Rep","full_date":"2026-01-23T15:34:12.473Z","date":"2026-01-23","time":"15:34:12"},{"correct_response":"a","task":"test_phase","broad_category":"M","image_png":"M_Gneiss_14.png","image_id":206,"category_name":"Gneiss","category":13,"distinct_rating":3.41,"distinct_type":"Bottom","item_type":"Foil","rt":1666,"stimulus":"Stimuli_Rocks480/M_Gneiss_14.png","response":"l","trial_type":"image-keyboard-response","trial_index":205,"plugin_version":"2.1.0","time_elapsed":348530,"subject_id":"92298","group":"Group1","condition":"1_Rep","full_date":"2026-01-23T15:34:12.473Z","date":"2026-01-23","time":"15:34:12","cor_ans":false},{"trial_type":"html-keyboard-response","rt":null,"stimulus":"<p style=\"color: red; font-size: 50px; font-weight: bold;\">Incorrect</p>","response":null,"trial_index":206,"plugin_version":"2.1.0","time_elapsed":349032,"subject_id":"92298","group":"Group1","condition":"1_Rep","full_date":"2026-01-23T15:34:12.473Z","date":"2026-01-23","time":"15:34:12"},{"correct_response":"l","task":"test_phase","broad_category":"I","image_png":"I_Pegmatite_16.png","image_id":112,"category_name":"Pegmatite","category":7,"distinct_rating":7.03,"distinct_type":"Top","item_type":"Target","rt":880,"stimulus":"Stimuli_Rocks480/I_Pegmatite_16.png","response":"l","trial_type":"image-keyboard-response","trial_index":207,"plugin_version":"2.1.0","time_elapsed":349914,"subject_id":"92298","group":"Group1","condition":"1_Rep","full_date":"2026-01-23T15:34:12.473Z","date":"2026-01-23","time":"15:34:12","cor_ans":true},{"trial_type":"html-keyboard-response","rt":null,"stimulus":"<p style=\"color: green; font-size: 50px; font-weight: bold;\">Correct</p>","response":null,"trial_index":208,"plugin_version":"2.1.0","time_elapsed":350420,"subject_id":"92298","group":"Group1","condition":"1_Rep","full_date":"2026-01-23T15:34:12.473Z","date":"2026-01-23","time":"15:34:12"},{"correct_response":"l","task":"test_phase","broad_category":"I","image_png":"I_Gabbro_11.png","image_id":59,"category_name":"Gabbro","category":4,"distinct_rating":1.99,"distinct_type":"Bottom","item_type":"Target","rt":3410,"stimulus":"Stimuli_Rocks480/I_Gabbro_11.png","response":"a","trial_type":"image-keyboard-response","trial_index":209,"plugin_version":"2.1.0","time_elapsed":353832,"subject_id":"92298","group":"Group1","condition":"1_Rep","full_date":"2026-01-23T15:34:12.473Z","date":"2026-01-23","time":"15:34:12","cor_ans":false},{"trial_type":"html-keyboard-response","rt":null,"stimulus":"<p style=\"color: red; font-size: 50px; font-weight: bold;\">Incorrect</p>","response":null,"trial_index":210,"plugin_version":"2.1.0","time_elapsed":354341,"subject_id":"92298","group":"Group1","condition":"1_Rep","full_date":"2026-01-23T15:34:12.473Z","date":"2026-01-23","time":"15:34:12"},{"correct_response":"a","task":"test_phase","broad_category":"I","image_png":"I_Pumice_01.png","image_id":129,"category_name":"Pumice","category":9,"distinct_rating":3.25,"distinct_type":"Bottom","item_type":"Foil","rt":2201,"stimulus":"Stimuli_Rocks480/I_Pumice_01.png","response":"l","trial_type":"image-keyboard-response","trial_index":211,"plugin_version":"2.1.0","time_elapsed":356544,"subject_id":"92298","group":"Group1","condition":"1_Rep","full_date":"2026-01-23T15:34:12.473Z","date":"2026-01-23","time":"15:34:12","cor_ans":false},{"trial_type":"html-keyboard-response","rt":null,"stimulus":"<p style=\"color: red; font-size: 50px; font-weight: bold;\">Incorrect</p>","response":null,"trial_index":212,"plugin_version":"2.1.0","time_elapsed":357049,"subject_id":"92298","group":"Group1","condition":"1_Rep","full_date":"2026-01-23T15:34:12.473Z","date":"2026-01-23","time":"15:34:12"},{"correct_response":"a","task":"test_phase","broad_category":"I","image_png":"I_Rhyolite_10.png","image_id":154,"category_name":"Rhyolite","category":10,"distinct_rating":2.88,"distinct_type":"Bottom","item_type":"Foil","rt":715,"stimulus":"Stimuli_Rocks480/I_Rhyolite_10.png","response":"l","trial_type":"image-keyboard-response","trial_index":213,"plugin_version":"2.1.0","time_elapsed":357766,"subject_id":"92298","group":"Group1","condition":"1_Rep","full_date":"2026-01-23T15:34:12.473Z","date":"2026-01-23","time":"15:34:12","cor_ans":false},{"trial_type":"html-keyboard-response","rt":null,"stimulus":"<p style=\"color: red; font-size: 50px; font-weight: bold;\">Incorrect</p>","response":null,"trial_index":214,"plugin_version":"2.1.0","time_elapsed":358273,"subject_id":"92298","group":"Group1","condition":"1_Rep","full_date":"2026-01-23T15:34:12.473Z","date":"2026-01-23","time":"15:34:12"},{"correct_response":"a","task":"test_phase","broad_category":"I","image_png":"I_Obsidian_06.png","image_id":86,"category_name":"Obsidian","category":6,"distinct_rating":8.01,"distinct_type":"Top","item_type":"Foil","rt":832,"stimulus":"Stimuli_Rocks480/I_Obsidian_06.png","response":"a","trial_type":"image-keyboard-response","trial_index":215,"plugin_version":"2.1.0","time_elapsed":359108,"subject_id":"92298","group":"Group1","condition":"1_Rep","full_date":"2026-01-23T15:34:12.473Z","date":"2026-01-23","time":"15:34:12","cor_ans":true},{"trial_type":"html-keyboard-response","rt":null,"stimulus":"<p style=\"color: green; font-size: 50px; font-weight: bold;\">Correct</p>","response":null,"trial_index":216,"plugin_version":"2.1.0","time_elapsed":359618,"subject_id":"92298","group":"Group1","condition":"1_Rep","full_date":"2026-01-23T15:34:12.473Z","date":"2026-01-23","time":"15:34:12"},{"correct_response":"a","task":"test_phase","broad_category":"S","image_png":"S_Dolomite_01.png","image_id":385,"category_name":"Dolomite","category":25,"distinct_rating":1.43,"distinct_type":"Bottom","item_type":"Foil","rt":973,"stimulus":"Stimuli_Rocks480/S_Dolomite_01.png","response":"a","trial_type":"image-keyboard-response","trial_index":217,"plugin_version":"2.1.0","time_elapsed":360593,"subject_id":"92298","group":"Group1","condition":"1_Rep","full_date":"2026-01-23T15:34:12.473Z","date":"2026-01-23","time":"15:34:12","cor_ans":true},{"trial_type":"html-keyboard-response","rt":null,"stimulus":"<p style=\"color: green; font-size: 50px; font-weight: bold;\">Correct</p>","response":null,"trial_index":218,"plugin_version":"2.1.0","time_elapsed":361098,"subject_id":"92298","group":"Group1","condition":"1_Rep","full_date":"2026-01-23T15:34:12.473Z","date":"2026-01-23","time":"15:34:12"},{"correct_response":"l","task":"test_phase","broad_category":"S","image_png":"S_Shale_12.png","image_id":476,"category_name":"Shale","category":30,"distinct_rating":2.48,"distinct_type":"Bottom","item_type":"Target","rt":944,"stimulus":"Stimuli_Rocks480/S_Shale_12.png","response":"l","trial_type":"image-keyboard-response","trial_index":219,"plugin_version":"2.1.0","time_elapsed":362044,"subject_id":"92298","group":"Group1","condition":"1_Rep","full_date":"2026-01-23T15:34:12.473Z","date":"2026-01-23","time":"15:34:12","cor_ans":true},{"trial_type":"html-keyboard-response","rt":null,"stimulus":"<p style=\"color: green; font-size: 50px; font-weight: bold;\">Correct</p>","response":null,"trial_index":220,"plugin_version":"2.1.0","time_elapsed":362546,"subject_id":"92298","group":"Group1","condition":"1_Rep","full_date":"2026-01-23T15:34:12.473Z","date":"2026-01-23","time":"15:34:12"},{"correct_response":"a","task":"test_phase","broad_category":"I","image_png":"I_Rhyolite_08.png","image_id":152,"category_name":"Rhyolite","category":10,"distinct_rating":1.38,"distinct_type":"Bottom","item_type":"Foil","rt":1213,"stimulus":"Stimuli_Rocks480/I_Rhyolite_08.png","response":"l","trial_type":"image-keyboard-response","trial_index":221,"plugin_version":"2.1.0","time_elapsed":363762,"subject_id":"92298","group":"Group1","condition":"1_Rep","full_date":"2026-01-23T15:34:12.473Z","date":"2026-01-23","time":"15:34:12","cor_ans":false},{"trial_type":"html-keyboard-response","rt":null,"stimulus":"<p style=\"color: red; font-size: 50px; font-weight: bold;\">Incorrect</p>","response":null,"trial_index":222,"plugin_version":"2.1.0","time_elapsed":364275,"subject_id":"92298","group":"Group1","condition":"1_Rep","full_date":"2026-01-23T15:34:12.473Z","date":"2026-01-23","time":"15:34:12"},{"correct_response":"a","task":"test_phase","broad_category":"I","image_png":"I_Andesite_03.png","image_id":3,"category_name":"Andesite","category":1,"distinct_rating":3.17,"distinct_type":"Bottom","item_type":"Foil","rt":1120,"stimulus":"Stimuli_Rocks480/I_Andesite_03.png","response":"a","trial_type":"image-keyboard-response","trial_index":223,"plugin_version":"2.1.0","time_elapsed":365398,"subject_id":"92298","group":"Group1","condition":"1_Rep","full_date":"2026-01-23T15:34:12.473Z","date":"2026-01-23","time":"15:34:12","cor_ans":true},{"trial_type":"html-keyboard-response","rt":null,"stimulus":"<p style=\"color: green; font-size: 50px; font-weight: bold;\">Correct</p>","response":null,"trial_index":224,"plugin_version":"2.1.0","time_elapsed":365899,"subject_id":"92298","group":"Group1","condition":"1_Rep","full_date":"2026-01-23T15:34:12.473Z","date":"2026-01-23","time":"15:34:12"},{"correct_response":"l","task":"test_phase","broad_category":"I","image_png":"