[{"width":1470,"height":839,"webaudio":true,"browser":"safari","browser_version":"26.2.0","mobile":false,"os":"Mac OS","fullscreen":true,"vsync_rate":60.54,"webcam":true,"microphone":true,"trial_type":"browser-check","trial_index":0,"plugin_version":"2.1.0","time_elapsed":1003,"subject_id":"91999","group":"Group1","condition":"1_Rep","full_date":"2026-01-27T00:49:11.182Z","date":"2026-01-27","time":"00:49:11"},{"success":true,"timeout":false,"failed_images":[],"failed_audio":[],"failed_video":[],"trial_type":"preload","trial_index":1,"plugin_version":"2.1.0","time_elapsed":22556,"subject_id":"91999","group":"Group1","condition":"1_Rep","full_date":"2026-01-27T00:49:11.182Z","date":"2026-01-27","time":"00:49:11"},{"rt":29233,"url":"SONA_consent_memorability.html","trial_type":"external-html","trial_index":2,"plugin_version":"2.1.0","time_elapsed":51888,"subject_id":"91999","group":"Group1","condition":"1_Rep","full_date":"2026-01-27T00:49:11.182Z","date":"2026-01-27","time":"00:49:11"},{"success":true,"rt":3982,"trial_type":"fullscreen","trial_index":3,"plugin_version":"2.1.0","time_elapsed":56877,"subject_id":"91999","group":"Group1","condition":"1_Rep","full_date":"2026-01-27T00:49:11.182Z","date":"2026-01-27","time":"00:49:11"},{"rt":21092,"stimulus":"<div style=\"max-width: 760px; margin: auto; font-size: 20px; line-height: 1.5;\">\n      <h1 style=\"text-align:center; font-size: 30px;\">Instructions</h1>\n      <p>\n        Welcome to the study on <b>visual memory</b>. This experiment consists of <b>two phases</b>: \n        a <b>study phase</b> and a <b>test phase</b>.\n      </p>\n      <p>\n        In the study phase, you will see a series of rock images along with their category labels.\n        The images will appear one at a time.\n        <b>Your task</b> is to learn the categories to which the rock images belong \n        and to remember each image as accurately as possible.\n      </p> \n      <p>\n        Note that you will see each image only <b>once</b> during the study phase. \n          So, please pay close attention and try to remember each image carefully.\n      </p>\n      <p>\n        After the study phase, <b>your memory will be tested</b>. \n        Additional instructions for the test phase will be provided at that time.\n      </p>\n      <p>\n        If your computer has multiple <b>language settings</b> (e.g., English and another language),\n        please make sure it is set to English before starting.\n      </p>\n      <p>\n        You can track your progress using the <b>completion bar</b> at the top of the screen. \n        Please note that the bar will refresh when the test phase begins \n        to give you an accurate sense of your progress in both phases.\n      </p> \n      <p>\n        Press the button below when you are ready to begin.\n      </p>\n    </div>","response":0,"trial_type":"html-button-response","trial_index":4,"plugin_version":"2.1.0","time_elapsed":77971,"subject_id":"91999","group":"Group1","condition":"1_Rep","full_date":"2026-01-27T00:49:11.182Z","date":"2026-01-27","time":"00:49:11"},{"rt":null,"stimulus":"<p style=\"font-size: 50px; margin: 0; text-align: center;\">+</p>","response":null,"trial_type":"html-keyboard-response","trial_index":5,"plugin_version":"2.1.0","time_elapsed":78975,"subject_id":"91999","group":"Group1","condition":"1_Rep","full_date":"2026-01-27T00:49:11.182Z","date":"2026-01-27","time":"00:49:11"},{"task":"memory_phase","broad_category":"S","image_png":"S_Rock Gypsum_04.png","image_id":420,"category_name":"Rock Gypsum","category":27,"distinct_rating":7.61,"distinct_type":"Top","rt":null,"stimulus":"Stimuli_Rocks480/S_Rock Gypsum_04.png","response":null,"trial_type":"image-keyboard-response","trial_index":6,"plugin_version":"2.1.0","time_elapsed":81490,"subject_id":"91999","group":"Group1","condition":"1_Rep","full_date":"2026-01-27T00:49:11.182Z","date":"2026-01-27","time":"00:49:11"},{"rt":null,"stimulus":"<p style=\"font-size: 50px; margin: 0; text-align: center;\">+</p>","response":null,"trial_type":"html-keyboard-response","trial_index":7,"plugin_version":"2.1.0","time_elapsed":82492,"subject_id":"91999","group":"Group1","condition":"1_Rep","full_date":"2026-01-27T00:49:11.182Z","date":"2026-01-27","time":"00:49:11"},{"task":"memory_phase","broad_category":"S","image_png":"S_Dolomite_12.png","image_id":396,"category_name":"Dolomite","category":25,"distinct_rating":1.85,"distinct_type":"Bottom","rt":null,"stimulus":"Stimuli_Rocks480/S_Dolomite_12.png","response":null,"trial_type":"image-keyboard-response","trial_index":8,"plugin_version":"2.1.0","time_elapsed":85005,"subject_id":"91999","group":"Group1","condition":"1_Rep","full_date":"2026-01-27T00:49:11.182Z","date":"2026-01-27","time":"00:49:11"},{"rt":null,"stimulus":"<p style=\"font-size: 50px; margin: 0; text-align: center;\">+</p>","response":null,"trial_type":"html-keyboard-response","trial_index":9,"plugin_version":"2.1.0","time_elapsed":86007,"subject_id":"91999","group":"Group1","condition":"1_Rep","full_date":"2026-01-27T00:49:11.182Z","date":"2026-01-27","time":"00:49:11"},{"task":"memory_phase","broad_category":"I","image_png":"I_Andesite_10.png","image_id":10,"category_name":"Andesite","category":1,"distinct_rating":3.15,"distinct_type":"Bottom","rt":null,"stimulus":"Stimuli_Rocks480/I_Andesite_10.png","response":null,"trial_type":"image-keyboard-response","trial_index":10,"plugin_version":"2.1.0","time_elapsed":88516,"subject_id":"91999","group":"Group1","condition":"1_Rep","full_date":"2026-01-27T00:49:11.182Z","date":"2026-01-27","time":"00:49:11"},{"rt":null,"stimulus":"<p style=\"font-size: 50px; margin: 0; text-align: center;\">+</p>","response":null,"trial_type":"html-keyboard-response","trial_index":11,"plugin_version":"2.1.0","time_elapsed":89518,"subject_id":"91999","group":"Group1","condition":"1_Rep","full_date":"2026-01-27T00:49:11.182Z","date":"2026-01-27","time":"00:49:11"},{"task":"memory_phase","broad_category":"S","image_png":"S_Sandstone_16.png","image_id":464,"category_name":"Sandstone","category":29,"distinct_rating":1.93,"distinct_type":"Bottom","rt":null,"stimulus":"Stimuli_Rocks480/S_Sandstone_16.png","response":null,"trial_type":"image-keyboard-response","trial_index":12,"plugin_version":"2.1.0","time_elapsed":92031,"subject_id":"91999","group":"Group1","condition":"1_Rep","full_date":"2026-01-27T00:49:11.182Z","date":"2026-01-27","time":"00:49:11"},{"rt":null,"stimulus":"<p style=\"font-size: 50px; margin: 0; text-align: center;\">+</p>","response":null,"trial_type":"html-keyboard-response","trial_index":13,"plugin_version":"2.1.0","time_elapsed":93034,"subject_id":"91999","group":"Group1","condition":"1_Rep","full_date":"2026-01-27T00:49:11.182Z","date":"2026-01-27","time":"00:49:11"},{"task":"memory_phase","broad_category":"I","image_png":"I_Pumice_11.png","image_id":139,"category_name":"Pumice","category":9,"distinct_rating":1.74,"distinct_type":"Bottom","rt":null,"stimulus":"Stimuli_Rocks480/I_Pumice_11.png","response":null,"trial_type":"image-keyboard-response","trial_index":14,"plugin_version":"2.1.0","time_elapsed":95542,"subject_id":"91999","group":"Group1","condition":"1_Rep","full_date":"2026-01-27T00:49:11.182Z","date":"2026-01-27","time":"00:49:11"},{"rt":null,"stimulus":"<p style=\"font-size: 50px; margin: 0; text-align: center;\">+</p>","response":null,"trial_type":"html-keyboard-response","trial_index":15,"plugin_version":"2.1.0","time_elapsed":96544,"subject_id":"91999","group":"Group1","condition":"1_Rep","full_date":"2026-01-27T00:49:11.182Z","date":"2026-01-27","time":"00:49:11"},{"task":"memory_phase","broad_category":"I","image_png":"I_Gabbro_16.png","image_id":64,"category_name":"Gabbro","category":4,"distinct_rating":2.52,"distinct_type":"Bottom","rt":null,"stimulus":"Stimuli_Rocks480/I_Gabbro_16.png","response":null,"trial_type":"image-keyboard-response","trial_index":16,"plugin_version":"2.1.0","time_elapsed":99055,"subject_id":"91999","group":"Group1","condition":"1_Rep","full_date":"2026-01-27T00:49:11.182Z","date":"2026-01-27","time":"00:49:11"},{"rt":null,"stimulus":"<p style=\"font-size: 50px; margin: 0; text-align: center;\">+</p>","response":null,"trial_type":"html-keyboard-response","trial_index":17,"plugin_version":"2.1.0","time_elapsed":100058,"subject_id":"91999","group":"Group1","condition":"1_Rep","full_date":"2026-01-27T00:49:11.182Z","date":"2026-01-27","time":"00:49:11"},{"task":"memory_phase","broad_category":"M","image_png":"M_Gneiss_06.png","image_id":198,"category_name":"Gneiss","category":13,"distinct_rating":2.65,"distinct_type":"Bottom","rt":null,"stimulus":"Stimuli_Rocks480/M_Gneiss_06.png","response":null,"trial_type":"image-keyboard-response","trial_index":18,"plugin_version":"2.1.0","time_elapsed":102573,"subject_id":"91999","group":"Group1","condition":"1_Rep","full_date":"2026-01-27T00:49:11.182Z","date":"2026-01-27","time":"00:49:11"},{"rt":null,"stimulus":"<p style=\"font-size: 50px; margin: 0; text-align: center;\">+</p>","response":null,"trial_type":"html-keyboard-response","trial_index":19,"plugin_version":"2.1.0","time_elapsed":103575,"subject_id":"91999","group":"Group1","condition":"1_Rep","full_date":"2026-01-27T00:49:11.182Z","date":"2026-01-27","time":"00:49:11"},{"task":"memory_phase","broad_category":"I","image_png":"I_Basalt_01.png","image_id":17,"category_name":"Basalt","category":2,"distinct_rating":1.92,"distinct_type":"Bottom","rt":null,"stimulus":"Stimuli_Rocks480/I_Basalt_01.png","response":null,"trial_type":"image-keyboard-response","trial_index":20,"plugin_version":"2.1.0","time_elapsed":106091,"subject_id":"91999","group":"Group1","condition":"1_Rep","full_date":"2026-01-27T00:49:11.182Z","date":"2026-01-27","time":"00:49:11"},{"rt":null,"stimulus":"<p style=\"font-size: 50px; margin: 0; text-align: center;\">+</p>","response":null,"trial_type":"html-keyboard-response","trial_index":21,"plugin_version":"2.1.0","time_elapsed":107093,"subject_id":"91999","group":"Group1","condition":"1_Rep","full_date":"2026-01-27T00:49:11.182Z","date":"2026-01-27","time":"00:49:11"},{"task":"memory_phase","broad_category":"M","image_png":"M_Quartzite_08.png","image_id":280,"category_name":"Quartzite","category":18,"distinct_rating":2.15,"distinct_type":"Bottom","rt":null,"stimulus":"Stimuli_Rocks480/M_Quartzite_08.png","response":null,"trial_type":"image-keyboard-response","trial_index":22,"plugin_version":"2.1.0","time_elapsed":109606,"subject_id":"91999","group":"Group1","condition":"1_Rep","full_date":"2026-01-27T00:49:11.182Z","date":"2026-01-27","time":"00:49:11"},{"rt":null,"stimulus":"<p style=\"font-size: 50px; margin: 0; text-align: center;\">+</p>","response":null,"trial_type":"html-keyboard-response","trial_index":23,"plugin_version":"2.1.0","time_elapsed":110607,"subject_id":"91999","group":"Group1","condition":"1_Rep","full_date":"2026-01-27T00:49:11.182Z","date":"2026-01-27","time":"00:49:11"},{"task":"memory_phase","broad_category":"S","image_png":"S_Conglomerate_05.png","image_id":373,"category_name":"Conglomerate","category":24,"distinct_rating":7.32,"distinct_type":"Top","rt":null,"stimulus":"Stimuli_Rocks480/S_Conglomerate_05.png","response":null,"trial_type":"image-keyboard-response","trial_index":24,"plugin_version":"2.1.0","time_elapsed":113122,"subject_id":"91999","group":"Group1","condition":"1_Rep","full_date":"2026-01-27T00:49:11.182Z","date":"2026-01-27","time":"00:49:11"},{"rt":null,"stimulus":"<p style=\"font-size: 50px; margin: 0; text-align: center;\">+</p>","response":null,"trial_type":"html-keyboard-response","trial_index":25,"plugin_version":"2.1.0","time_elapsed":114123,"subject_id":"91999","group":"Group1","condition":"1_Rep","full_date":"2026-01-27T00:49:11.182Z","date":"2026-01-27","time":"00:49:11"},{"task":"memory_phase","broad_category":"I","image_png":"I_Pumice_08.png","image_id":136,"category_name":"Pumice","category":9,"distinct_rating":3.1,"distinct_type":"Bottom","rt":null,"stimulus":"Stimuli_Rocks480/I_Pumice_08.png","response":null,"trial_type":"image-keyboard-response","trial_index":26,"plugin_version":"2.1.0","time_elapsed":116635,"subject_id":"91999","group":"Group1","condition":"1_Rep","full_date":"2026-01-27T00:49:11.182Z","date":"2026-01-27","time":"00:49:11"},{"rt":null,"stimulus":"<p style=\"font-size: 50px; margin: 0; text-align: center;\">+</p>","response":null,"trial_type":"html-keyboard-response","trial_index":27,"plugin_version":"2.1.0","time_elapsed":117637,"subject_id":"91999","group":"Group1","condition":"1_Rep","full_date":"2026-01-27T00:49:11.182Z","date":"2026-01-27","time":"00:49:11"},{"task":"memory_phase","broad_category":"I","image_png":"I_Diorite_04.png","image_id":36,"category_name":"Diorite","category":3,"distinct_rating":2.98,"distinct_type":"Bottom","rt":null,"stimulus":"Stimuli_Rocks480/I_Diorite_04.png","response":null,"trial_type":"image-keyboard-response","trial_index":28,"plugin_version":"2.1.0","time_elapsed":120152,"subject_id":"91999","group":"Group1","condition":"1_Rep","full_date":"2026-01-27T00:49:11.182Z","date":"2026-01-27","time":"00:49:11"},{"rt":null,"stimulus":"<p style=\"font-size: 50px; margin: 0; text-align: center;\">+</p>","response":null,"trial_type":"html-keyboard-response","trial_index":29,"plugin_version":"2.1.0","time_elapsed":121154,"subject_id":"91999","group":"Group1","condition":"1_Rep","full_date":"2026-01-27T00:49:11.182Z","date":"2026-01-27","time":"00:49:11"},{"task":"memory_phase","broad_category":"M","image_png":"M_Phyllite_10.png","image_id":266,"category_name":"Phyllite","category":17,"distinct_rating":2.6,"distinct_type":"Bottom","rt":null,"stimulus":"Stimuli_Rocks480/M_Phyllite_10.png","response":null,"trial_type":"image-keyboard-response","trial_index":30,"plugin_version":"2.1.0","time_elapsed":123664,"subject_id":"91999","group":"Group1","condition":"1_Rep","full_date":"2026-01-27T00:49:11.182Z","date":"2026-01-27","time":"00:49:11"},{"rt":null,"stimulus":"<p style=\"font-size: 50px; margin: 0; text-align: center;\">+</p>","response":null,"trial_type":"html-keyboard-response","trial_index":31,"plugin_version":"2.1.0","time_elapsed":124666,"subject_id":"91999","group":"Group1","condition":"1_Rep","full_date":"2026-01-27T00:49:11.182Z","date":"2026-01-27","time":"00:49:11"},{"task":"memory_phase","broad_category":"M","image_png":"M_Slate_03.png","image_id":307,"category_name":"Slate","category":20,"distinct_rating":1.87,"distinct_type":"Bottom","rt":null,"stimulus":"Stimuli_Rocks480/M_Slate_03.png","response":null,"trial_type":"image-keyboard-response","trial_index":32,"plugin_version":"2.1.0","time_elapsed":127180,"subject_id":"91999","group":"Group1","condition":"1_Rep","full_date":"2026-01-27T00:49:11.182Z","date":"2026-01-27","time":"00:49:11"},{"rt":null,"stimulus":"<p style=\"font-size: 50px; margin: 0; text-align: center;\">+</p>","response":null,"trial_type":"html-keyboard-response","trial_index":33,"plugin_version":"2.1.0","time_elapsed":128182,"subject_id":"91999","group":"Group1","condition":"1_Rep","full_date":"2026-01-27T00:49:11.182Z","date":"2026-01-27","time":"00:49:11"},{"task":"memory_phase","broad_category":"S","image_png":"S_Rock Salt_01.png","image_id":433,"category_name":"Rock Salt","category":28,"distinct_rating":7.18,"distinct_type":"Top","rt":null,"stimulus":"Stimuli_Rocks480/S_Rock Salt_01.png","response":null,"trial_type":"image-keyboard-response","trial_index":34,"plugin_version":"2.1.0","time_elapsed":130697,"subject_id":"91999","group":"Group1","condition":"1_Rep","full_date":"2026-01-27T00:49:11.182Z","date":"2026-01-27","time":"00:49:11"},{"rt":null,"stimulus":"<p style=\"font-size: 50px; margin: 0; text-align: center;\">+</p>","response":null,"trial_type":"html-keyboard-response","trial_index":35,"plugin_version":"2.1.0","time_elapsed":131699,"subject_id":"91999","group":"Group1","condition":"1_Rep","full_date":"2026-01-27T00:49:11.182Z","date":"2026-01-27","time":"00:49:11"},{"task":"memory_phase","broad_category":"M","image_png":"M_Marble_16.png","image_id":240,"category_name":"Marble","category":15,"distinct_rating":2.57,"distinct_type":"Bottom","rt":null,"stimulus":"Stimuli_Rocks480/M_Marble_16.png","response":null,"trial_type":"image-keyboard-response","trial_index":36,"plugin_version":"2.1.0","time_elapsed":134213,"subject_id":"91999","group":"Group1","condition":"1_Rep","full_date":"2026-01-27T00:49:11.182Z","date":"2026-01-27","time":"00:49:11"},{"rt":null,"stimulus":"<p style=\"font-size: 50px; margin: 0; text-align: center;\">+</p>","response":null,"trial_type":"html-keyboard-response","trial_index":37,"plugin_version":"2.1.0","time_elapsed":135215,"subject_id":"91999","group":"Group1","condition":"1_Rep","full_date":"2026-01-27T00:49:11.182Z","date":"2026-01-27","time":"00:49:11"},{"task":"memory_phase","broad_category":"S","image_png":"S_Shale_01.png","image_id":465,"category_name":"Shale","category":30,"distinct_rating":2.7,"distinct_type":"Bottom","rt":null,"stimulus":"Stimuli_Rocks480/S_Shale_01.png","response":null,"trial_type":"image-keyboard-response","trial_index":38,"plugin_version":"2.1.0","time_elapsed":137726,"subject_id":"91999","group":"Group1","condition":"1_Rep","full_date":"2026-01-27T00:49:11.182Z","date":"2026-01-27","time":"00:49:11"},{"rt":null,"stimulus":"<p style=\"font-size: 50px; margin: 0; text-align: center;\">+</p>","response":null,"trial_type":"html-keyboard-response","trial_index":39,"plugin_version":"2.1.0","time_elapsed":138727,"subject_id":"91999","group":"Group1","condition":"1_Rep","full_date":"2026-01-27T00:49:11.182Z","date":"2026-01-27","time":"00:49:11"},{"task":"memory_phase","broad_category":"M","image_png":"M_Gneiss_13.png","image_id":205,"category_name":"Gneiss","category":13,"distinct_rating":3.26,"distinct_type":"Bottom","rt":null,"stimulus":"Stimuli_Rocks480/M_Gneiss_13.png","response":null,"trial_type":"image-keyboard-response","trial_index":40,"plugin_version":"2.1.0","time_elapsed":141237,"subject_id":"91999","group":"Group1","condition":"1_Rep","full_date":"2026-01-27T00:49:11.182Z","date":"2026-01-27","time":"00:49:11"},{"rt":null,"stimulus":"<p style=\"font-size: 50px; margin: 0; text-align: center;\">+</p>","response":null,"trial_type":"html-keyboard-response","trial_index":41,"plugin_version":"2.1.0","time_elapsed":142240,"subject_id":"91999","group":"Group1","condition":"1_Rep","full_date":"2026-01-27T00:49:11.182Z","date":"2026-01-27","time":"00:49:11"},{"task":"memory_phase","broad_category":"I","image_png":"I_Pegmatite_16.png","image_id":112,"category_name":"Pegmatite","category":7,"distinct_rating":7.03,"distinct_type":"Top","rt":null,"stimulus":"Stimuli_Rocks480/I_Pegmatite_16.png","response":null,"trial_type":"image-keyboard-response","trial_index":42,"plugin_version":"2.1.0","time_elapsed":144754,"subject_id":"91999","group":"Group1","condition":"1_Rep","full_date":"2026-01-27T00:49:11.182Z","date":"2026-01-27","time":"00:49:11"},{"rt":null,"stimulus":"<p style=\"font-size: 50px; margin: 0; text-align: center;\">+</p>","response":null,"trial_type":"html-keyboard-response","trial_index":43,"plugin_version":"2.1.0","time_elapsed":145756,"subject_id":"91999","group":"Group1","condition":"1_Rep","full_date":"2026-01-27T00:49:11.182Z","date":"2026-01-27","time":"00:49:11"},{"task":"memory_phase","broad_category":"M","image_png":"M_Quartzite_05.png","image_id":277,"category_name":"Quartzite","category":18,"distinct_rating":2.23,"distinct_type":"Bottom","rt":null,"stimulus":"Stimuli_Rocks480/M_Quartzite_05.png","response":null,"trial_type":"image-keyboard-response","trial_index":44,"plugin_version":"2.1.0","time_elapsed":148270,"subject_id":"91999","group":"Group1","condition":"1_Rep","full_date":"2026-01-27T00:49:11.182Z","date":"2026-01-27","time":"00:49:11"},{"rt":null,"stimulus":"<p style=\"font-size: 50px; margin: 0; text-align: center;\">+</p>","response":null,"trial_type":"html-keyboard-response","trial_index":45,"plugin_version":"2.1.0","time_elapsed":149272,"subject_id":"91999","group":"Group1","condition":"1_Rep","full_date":"2026-01-27T00:49:11.182Z","date":"2026-01-27","time":"00:49:11"},{"task":"memory_phase","broad_category":"I","image_png":"I_Diorite_05.png","image_id":37,"category_name":"Diorite","category":3,"distinct_rating":3.08,"distinct_type":"Bottom","rt":null,"stimulus":"Stimuli_Rocks480/I_Diorite_05.png","response":null,"trial_type":"image-keyboard-response","trial_index":46,"plugin_version":"2.1.0","time_elapsed":151783,"subject_id":"91999","group":"Group1","condition":"1_Rep","full_date":"2026-01-27T00:49:11.182Z","date":"2026-01-27","time":"00:49:11"},{"rt":null,"stimulus":"<p style=\"font-size: 50px; margin: 0; text-align: center;\">+</p>","response":null,"trial_type":"html-keyboard-response","trial_index":47,"plugin_version":"2.1.0","time_elapsed":152785,"subject_id":"91999","group":"Group1","condition":"1_Rep","full_date":"2026-01-27T00:49:11.182Z","date":"2026-01-27","time":"00:49:11"},{"task":"memory_phase","broad_category":"S","image_png":"S_Dolomite_14.png","image_id":398,"category_name":"Dolomite","category":25,"distinct_rating":1.43,"distinct_type":"Bottom","rt":null,"stimulus":"Stimuli_Rocks480/S_Dolomite_14.png","response":null,"trial_type":"image-keyboard-response","trial_index":48,"plugin_version":"2.1.0","time_elapsed":155298,"subject_id":"91999","group":"Group1","condition":"1_Rep","full_date":"2026-01-27T00:49:11.182Z","date":"2026-01-27","time":"00:49:11"},{"rt":null,"stimulus":"<p style=\"font-size: 50px; margin: 0; text-align: center;\">+</p>","response":null,"trial_type":"html-keyboard-response","trial_index":49,"plugin_version":"2.1.0","time_elapsed":156300,"subject_id":"91999","group":"Group1","condition":"1_Rep","full_date":"2026-01-27T00:49:11.182Z","date":"2026-01-27","time":"00:49:11"},{"task":"memory_phase","broad_category":"S","image_png":"S_Breccia_11.png","image_id":347,"category_name":"Breccia","category":22,"distinct_rating":6.7,"distinct_type":"Top","rt":null,"stimulus":"Stimuli_Rocks480/S_Breccia_11.png","response":null,"trial_type":"image-keyboard-response","trial_index":50,"plugin_version":"2.1.0","time_elapsed":158821,"subject_id":"91999","group":"Group1","condition":"1_Rep","full_date":"2026-01-27T00:49:11.182Z","date":"2026-01-27","time":"00:49:11"},{"rt":null,"stimulus":"<p style=\"font-size: 50px; margin: 0; text-align: center;\">+</p>","response":null,"trial_type":"html-keyboard-response","trial_index":51,"plugin_version":"2.1.0","time_elapsed":159823,"subject_id":"91999","group":"Group1","condition":"1_Rep","full_date":"2026-01-27T00:49:11.182Z","date":"2026-01-27","time":"00:49:11"},{"task":"memory_phase","broad_category":"I","image_png":"I_Pegmatite_10.png","image_id":106,"category_name":"Pegmatite","category":7,"distinct_rating":7.66,"distinct_type":"Top","rt":null,"stimulus":"Stimuli_Rocks480/I_Pegmatite_10.png","response":null,"trial_type":"image-keyboard-response","trial_index":52,"plugin_version":"2.1.0","time_elapsed":162334,"subject_id":"91999","group":"Group1","condition":"1_Rep","full_date":"2026-01-27T00:49:11.182Z","date":"2026-01-27","time":"00:49:11"},{"rt":null,"stimulus":"<p style=\"font-size: 50px; margin: 0; text-align: center;\">+</p>","response":null,"trial_type":"html-keyboard-response","trial_index":53,"plugin_version":"2.1.0","time_elapsed":163336,"subject_id":"91999","group":"Group1","condition":"1_Rep","full_date":"2026-01-27T00:49:11.182Z","date":"2026-01-27","time":"00:49:11"},{"task":"memory_phase","broad_category":"M","image_png":"M_Slate_11.png","image_id":315,"category_name":"Slate","category":20,"distinct_rating":2.75,"distinct_type":"Bottom","rt":null,"stimulus":"Stimuli_Rocks480/M_Slate_11.png","response":null,"trial_type":"image-keyboard-response","trial_index":54,"plugin_version":"2.1.0","time_elapsed":165848,"subject_id":"91999","group":"Group1","condition":"1_Rep","full_date":"2026-01-27T00:49:11.182Z","date":"2026-01-27","time":"00:49:11"},{"rt":2472,"stimulus":"<p style=\"max-width: 760px; margin: auto; font-size: 35px; line-height: 1.5;\">\n                Press SPACE to continue study phase\n              </p>","response":" ","trial_type":"html-keyboard-response","trial_index":55,"plugin_version":"2.1.0","time_elapsed":168322,"subject_id":"91999","group":"Group1","condition":"1_Rep","full_date":"2026-01-27T00:49:11.182Z","date":"2026-01-27","time":"00:49:11"},{"rt":null,"stimulus":"<p style=\"font-size: 50px; margin: 0; text-align: center;\">+</p>","response":null,"trial_type":"html-keyboard-response","trial_index":56,"plugin_version":"2.1.0","time_elapsed":169324,"subject_id":"91999","group":"Group1","condition":"1_Rep","full_date":"2026-01-27T00:49:11.182Z","date":"2026-01-27","time":"00:49:11"},{"task":"memory_phase","broad_category":"I","image_png":"I_Obsidian_05.png","image_id":85,"category_name":"Obsidian","category":6,"distinct_rating":7.32,"distinct_type":"Top","rt":null,"stimulus":"Stimuli_Rocks480/I_Obsidian_05.png","response":null,"trial_type":"image-keyboard-response","trial_index":57,"plugin_version":"2.1.0","time_elapsed":171840,"subject_id":"91999","group":"Group1","condition":"1_Rep","full_date":"2026-01-27T00:49:11.182Z","date":"2026-01-27","time":"00:49:11"},{"rt":null,"stimulus":"<p style=\"font-size: 50px; margin: 0; text-align: center;\">+</p>","response":null,"trial_type":"html-keyboard-response","trial_index":58,"plugin_version":"2.1.0","time_elapsed":172842,"subject_id":"91999","group":"Group1","condition":"1_Rep","full_date":"2026-01-27T00:49:11.182Z","date":"2026-01-27","time":"00:49:11"},{"task":"memory_phase","broad_category":"I","image_png":"I_Gabbro_11.png","image_id":59,"category_name":"Gabbro","category":4,"distinct_rating":1.99,"distinct_type":"Bottom","rt":null,"stimulus":"Stimuli_Rocks480/I_Gabbro_11.png","response":null,"trial_type":"image-keyboard-response","trial_index":59,"plugin_version":"2.1.0","time_elapsed":175356,"subject_id":"91999","group":"Group1","condition":"1_Rep","full_date":"2026-01-27T00:49:11.182Z","date":"2026-01-27","time":"00:49:11"},{"rt":null,"stimulus":"<p style=\"font-size: 50px; margin: 0; text-align: center;\">+</p>","response":null,"trial_type":"html-keyboard-response","trial_index":60,"plugin_version":"2.1.0","time_elapsed":176358,"subject_id":"91999","group":"Group1","condition":"1_Rep","full_date":"2026-01-27T00:49:11.182Z","date":"2026-01-27","time":"00:49:11"},{"task":"memory_phase","broad_category":"M","image_png":"M_Gneiss_05.png","image_id":197,"category_name":"Gneiss","category":13,"distinct_rating":2.97,"distinct_type":"Bottom","rt":null,"stimulus":"Stimuli_Rocks480/M_Gneiss_05.png","response":null,"trial_type":"image-keyboard-response","trial_index":61,"plugin_version":"2.1.0","time_elapsed":178877,"subject_id":"91999","group":"Group1","condition":"1_Rep","full_date":"2026-01-27T00:49:11.182Z","date":"2026-01-27","time":"00:49:11"},{"rt":null,"stimulus":"<p style=\"font-size: 50px; margin: 0; text-align: center;\">+</p>","response":null,"trial_type":"html-keyboard-response","trial_index":62,"plugin_version":"2.1.0","time_elapsed":179879,"subject_id":"91999","group":"Group1","condition":"1_Rep","full_date":"2026-01-27T00:49:11.182Z","date":"2026-01-27","time":"00:49:11"},{"task":"memory_phase","broad_category":"I","image_png":"I_Basalt_09.png","image_id":25,"category_name":"Basalt","category":2,"distinct_rating":1.89,"distinct_type":"Bottom","rt":null,"stimulus":"Stimuli_Rocks480/I_Basalt_09.png","response":null,"trial_type":"image-keyboard-response","trial_index":63,"plugin_version":"2.1.0","time_elapsed":182391,"subject_id":"91999","group":"Group1","condition":"1_Rep","full_date":"2026-01-27T00:49:11.182Z","date":"2026-01-27","time":"00:49:11"},{"rt":null,"stimulus":"<p style=\"font-size: 50px; margin: 0; text-align: center;\">+</p>","response":null,"trial_type":"html-keyboard-response","trial_index":64,"plugin_version":"2.1.0","time_elapsed":183393,"subject_id":"91999","group":"Group1","condition":"1_Rep","full_date":"2026-01-27T00:49:11.182Z","date":"2026-01-27","time":"00:49:11"},{"task":"memory_phase","broad_category":"I","image_png":"I_Rhyolite_16.png","image_id":160,"category_name":"Rhyolite","category":10,"distinct_rating":2.19,"distinct_type":"Bottom","rt":null,"stimulus":"Stimuli_Rocks480/I_Rhyolite_16.png","response":null,"trial_type":"image-keyboard-response","trial_index":65,"plugin_version":"2.1.0","time_elapsed":185904,"subject_id":"91999","group":"Group1","condition":"1_Rep","full_date":"2026-01-27T00:49:11.182Z","date":"2026-01-27","time":"00:49:11"},{"rt":null,"stimulus":"<p style=\"font-size: 50px; margin: 0; text-align: center;\">+</p>","response":null,"trial_type":"html-keyboard-response","trial_index":66,"plugin_version":"2.1.0","time_elapsed":186907,"subject_id":"91999","group":"Group1","condition":"1_Rep","full_date":"2026-01-27T00:49:11.182Z","date":"2026-01-27","time":"00:49:11"},{"task":"memory_phase","broad_category":"M","image_png":"M_Marble_04.png","image_id":228,"category_name":"Marble","category":15,"distinct_rating":3.15,"distinct_type":"Bottom","rt":null,"stimulus":"Stimuli_Rocks480/M_Marble_04.png","response":null,"trial_type":"image-keyboard-response","trial_index":67,"plugin_version":"2.1.0","time_elapsed":189419,"subject_id":"91999","group":"Group1","condition":"1_Rep","full_date":"2026-01-27T00:49:11.182Z","date":"2026-01-27","time":"00:49:11"},{"rt":null,"stimulus":"<p style=\"font-size: 50px; margin: 0; text-align: center;\">+</p>","response":null,"trial_type":"html-keyboard-response","trial_index":68,"plugin_version":"2.1.0","time_elapsed":190421,"subject_id":"91999","group":"Group1","condition":"1_Rep","full_date":"2026-01-27T00:49:11.182Z","date":"2026-01-27","time":"00:49:11"},{"task":"memory_phase","broad_category":"I","image_png":"I_Pumice_12.png","image_id":140,"category_name":"Pumice","category":9,"distinct_rating":2.97,"distinct_type":"Bottom","rt":null,"stimulus":"Stimuli_Rocks480/I_Pumice_12.png","response":null,"trial_type":"image-keyboard-response","trial_index":69,"plugin_version":"2.1.0","time_elapsed":192930,"subject_id":"91999","group":"Group1","condition":"1_Rep","full_date":"2026-01-27T00:49:11.182Z","date":"2026-01-27","time":"00:49:11"},{"rt":null,"stimulus":"<p style=\"font-size: 50px; margin: 0; text-align: center;\">+</p>","response":null,"trial_type":"html-keyboard-response","trial_index":70,"plugin_version":"2.1.0","time_elapsed":193931,"subject_id":"91999","group":"Group1","condition":"1_Rep","full_date":"2026-01-27T00:49:11.182Z","date":"2026-01-27","time":"00:49:11"},{"task":"memory_phase","broad_category":"M","image_png":"M_Phyllite_03.png","image_id":259,"category_name":"Phyllite","category":17,"distinct_rating":2.5,"distinct_type":"Bottom","rt":null,"stimulus":"Stimuli_Rocks480/M_Phyllite_03.png","response":null,"trial_type":"image-keyboard-response","trial_index":71,"plugin_version":"2.1.0","time_elapsed":196444,"subject_id":"91999","group":"Group1","condition":"1_Rep","full_date":"2026-01-27T00:49:11.182Z","date":"2026-01-27","time":"00:49:11"},{"rt":null,"stimulus":"<p style=\"font-size: 50px; margin: 0; text-align: center;\">+</p>","response":null,"trial_type":"html-keyboard-response","trial_index":72,"plugin_version":"2.1.0","time_elapsed":197446,"subject_id":"91999","group":"Group1","condition":"1_Rep","full_date":"2026-01-27T00:49:11.182Z","date":"2026-01-27","time":"00:49:11"},{"task":"memory_phase","broad_category":"S","image_png":"S_Chert_10.png","image_id":362,"category_name":"Chert","category":23,"distinct_rating":7.17,"distinct_type":"Top","rt":null,"stimulus":"Stimuli_Rocks480/S_Chert_10.png","response":null,"trial_type":"image-keyboard-response","trial_index":73,"plugin_version":"2.1.0","time_elapsed":199960,"subject_id":"91999","group":"Group1","condition":"1_Rep","full_date":"2026-01-27T00:49:11.182Z","date":"2026-01-27","time":"00:49:11"},{"rt":null,"stimulus":"<p style=\"font-size: 50px; margin: 0; text-align: center;\">+</p>","response":null,"trial_type":"html-keyboard-response","trial_index":74,"plugin_version":"2.1.0","time_elapsed":200962,"subject_id":"91999","group":"Group1","condition":"1_Rep","full_date":"2026-01-27T00:49:11.182Z","date":"2026-01-27","time":"00:49:11"},{"task":"memory_phase","broad_category":"S","image_png":"S_Shale_12.png","image_id":476,"category_name":"Shale","category":30,"distinct_rating":2.48,"distinct_type":"Bottom","rt":null,"stimulus":"Stimuli_Rocks480/S_Shale_12.png","response":null,"trial_type":"image-keyboard-response","trial_index":75,"plugin_version":"2.1.0","time_elapsed":203477,"subject_id":"91999","group":"Group1","condition":"1_Rep","full_date":"2026-01-27T00:49:11.182Z","date":"2026-01-27","time":"00:49:11"},{"rt":null,"stimulus":"<p style=\"font-size: 50px; margin: 0; text-align: center;\">+</p>","response":null,"trial_type":"html-keyboard-response","trial_index":76,"plugin_version":"2.1.0","time_elapsed":204479,"subject_id":"91999","group":"Group1","condition":"1_Rep","full_date":"2026-01-27T00:49:11.182Z","date":"2026-01-27","time":"00:49:11"},{"task":"memory_phase","broad_category":"I","image_png":"I_Rhyolite_11.png","image_id":155,"category_name":"Rhyolite","category":10,"distinct_rating":1.73,"distinct_type":"Bottom","rt":null,"stimulus":"Stimuli_Rocks480/I_Rhyolite_11.png","response":null,"trial_type":"image-keyboard-response","trial_index":77,"plugin_version":"2.1.0","time_elapsed":206989,"subject_id":"91999","group":"Group1","condition":"1_Rep","full_date":"2026-01-27T00:49:11.182Z","date":"2026-01-27","time":"00:49:11"},{"rt":null,"stimulus":"<p style=\"font-size: 50px; margin: 0; text-align: center;\">+</p>","response":null,"trial_type":"html-keyboard-response","trial_index":78,"plugin_version":"2.1.0","time_elapsed":207991,"subject_id":"91999","group":"Group1","condition":"1_Rep","full_date":"2026-01-27T00:49:11.182Z","date":"2026-01-27","time":"00:49:11"},{"task":"memory_phase","broad_category":"S","image_png":"S_Dolomite_13.png","image_id":397,"category_name":"Dolomite","category":25,"distinct_rating":1.77,"distinct_type":"Bottom","rt":null,"stimulus":"Stimuli_Rocks480/S_Dolomite_13.png","response":null,"trial_type":"image-keyboard-response","trial_index":79,"plugin_version":"2.1.0","time_elapsed":210503,"subject_id":"91999","group":"Group1","condition":"1_Rep","full_date":"2026-01-27T00:49:11.182Z","date":"2026-01-27","time":"00:49:11"},{"rt":null,"stimulus":"<p style=\"font-size: 50px; margin: 0; text-align: center;\">+</p>","response":null,"trial_type":"html-keyboard-response","trial_index":80,"plugin_version":"2.1.0","time_elapsed":211505,"subject_id":"91999","group":"Group1","condition":"1_Rep","full_date":"2026-01-27T00:49:11.182Z","date":"2026-01-27","time":"00:49:11"},{"task":"memory_phase","broad_category":"S","image_png":"S_Sandstone_15.png","image_id":463,"category_name":"Sandstone","category":29,"distinct_rating":2,"distinct_type":"Bottom","rt":null,"stimulus":"Stimuli_Rocks480/S_Sandstone_15.png","response":null,"trial_type":"image-keyboard-response","trial_index":81,"plugin_version":"2.1.0","time_elapsed":214020,"subject_id":"91999","group":"Group1","condition":"1_Rep","full_date":"2026-01-27T00:49:11.182Z","date":"2026-01-27","time":"00:49:11"},{"rt":null,"stimulus":"<p style=\"font-size: 50px; margin: 0; text-align: center;\">+</p>","response":null,"trial_type":"html-keyboard-response","trial_index":82,"plugin_version":"2.1.0","time_elapsed":215021,"subject_id":"91999","group":"Group1","condition":"1_Rep","full_date":"2026-01-27T00:49:11.182Z","date":"2026-01-27","time":"00:49:11"},{"task":"memory_phase","broad_category":"I","image_png":"I_Diorite_03.png","image_id":35,"category_name":"Diorite","category":3,"distinct_rating":3.14,"distinct_type":"Bottom","rt":null,"stimulus":"Stimuli_Rocks480/I_Diorite_03.png","response":null,"trial_type":"image-keyboard-response","trial_index":83,"plugin_version":"2.1.0","time_elapsed":217538,"subject_id":"91999","group":"Group1","condition":"1_Rep","full_date":"2026-01-27T00:49:11.182Z","date":"2026-01-27","time":"00:49:11"},{"rt":null,"stimulus":"<p style=\"font-size: 50px; margin: 0; text-align: center;\">+</p>","response":null,"trial_type":"html-keyboard-response","trial_index":84,"plugin_version":"2.1.0","time_elapsed":218540,"subject_id":"91999","group":"Group1","condition":"1_Rep","full_date":"2026-01-27T00:49:11.182Z","date":"2026-01-27","time":"00:49:11"},{"task":"memory_phase","broad_category":"I","image_png":"I_Basalt_02.png","image_id":18,"category_name":"Basalt","category":2,"distinct_rating":1.84,"distinct_type":"Bottom","rt":null,"stimulus":"Stimuli_Rocks480/I_Basalt_02.png","response":null,"trial_type":"image-keyboard-response","trial_index":85,"plugin_version":"2.1.0","time_elapsed":221053,"subject_id":"91999","group":"Group1","condition":"1_Rep","full_date":"2026-01-27T00:49:11.182Z","date":"2026-01-27","time":"00:49:11"},{"rt":null,"stimulus":"<p style=\"font-size: 50px; margin: 0; text-align: center;\">+</p>","response":null,"trial_type":"html-keyboard-response","trial_index":86,"plugin_version":"2.1.0","time_elapsed":222055,"subject_id":"91999","group":"Group1","condition":"1_Rep","full_date":"2026-01-27T00:49:11.182Z","date":"2026-01-27","time":"00:49:11"},{"task":"memory_phase","broad_category":"M","image_png":"M_Slate_15.png","image_id":319,"category_name":"Slate","category":20,"distinct_rating":2.13,"distinct_type":"Bottom","rt":null,"stimulus":"Stimuli_Rocks480/M_Slate_15.png","response":null,"trial_type":"image-keyboard-response","trial_index":87,"plugin_version":"2.1.0","time_elapsed":224564,"subject_id":"91999","group":"Group1","condition":"1_Rep","full_date":"2026-01-27T00:49:11.182Z","date":"2026-01-27","time":"00:49:11"},{"rt":null,"stimulus":"<p style=\"font-size: 50px; margin: 0; text-align: center;\">+</p>","response":null,"trial_type":"html-keyboard-response","trial_index":88,"plugin_version":"2.1.0","time_elapsed":225566,"subject_id":"91999","group":"Group1","condition":"1_Rep","full_date":"2026-01-27T00:49:11.182Z","date":"2026-01-27","time":"00:49:11"},{"task":"memory_phase","broad_category":"M","image_png":"M_Quartzite_13.png","image_id":285,"category_name":"Quartzite","category":18,"distinct_rating":2.27,"distinct_type":"Bottom","rt":null,"stimulus":"Stimuli_Rocks480/M_Quartzite_13.png","response":null,"trial_type":"image-keyboard-response","trial_index":89,"plugin_version":"2.1.0","time_elapsed":228080,"subject_id":"91999","group":"Group1","condition":"1_Rep","full_date":"2026-01-27T00:49:11.182Z","date":"2026-01-27","time":"00:49:11"},{"rt":null,"stimulus":"<p style=\"font-size: 50px; margin: 0; text-align: center;\">+</p>","response":null,"trial_type":"html-keyboard-response","trial_index":90,"plugin_version":"2.1.0","time_elapsed":229082,"subject_id":"91999","group":"Group1","condition":"1_Rep","full_date":"2026-01-27T00:49:11.182Z","date":"2026-01-27","time":"00:49:11"},{"task":"memory_phase","broad_category":"I","image_png":"I_Rhyolite_14.png","image_id":158,"category_name":"Rhyolite","category":10,"distinct_rating":2.59,"distinct_type":"Bottom","rt":null,"stimulus":"Stimuli_Rocks480/I_Rhyolite_14.png","response":null,"trial_type":"image-keyboard-response","trial_index":91,"plugin_version":"2.1.0","time_elapsed":231596,"subject_id":"91999","group":"Group1","condition":"1_Rep","full_date":"2026-01-27T00:49:11.182Z","date":"2026-01-27","time":"00:49:11"},{"rt":null,"stimulus":"<p style=\"font-size: 50px; margin: 0; text-align: center;\">+</p>","response":null,"trial_type":"html-keyboard-response","trial_index":92,"plugin_version":"2.1.0","time_elapsed":232598,"subject_id":"91999","group":"Group1","condition":"1_Rep","full_date":"2026-01-27T00:49:11.182Z","date":"2026-01-27","time":"00:49:11"},{"task":"memory_phase","broad_category":"I","image_png":"I_Andesite_08.png","image_id":8,"category_name":"Andesite","category":1,"distinct_rating":1.95,"distinct_type":"Bottom","rt":null,"stimulus":"Stimuli_Rocks480/I_Andesite_08.png","response":null,"trial_type":"image-keyboard-response","trial_index":93,"plugin_version":"2.1.0","time_elapsed":235109,"subject_id":"91999","group":"Group1","condition":"1_Rep","full_date":"2026-01-27T00:49:11.182Z","date":"2026-01-27","time":"00:49:11"},{"rt":null,"stimulus":"<p style=\"font-size: 50px; margin: 0; text-align: center;\">+</p>","response":null,"trial_type":"html-keyboard-response","trial_index":94,"plugin_version":"2.1.0","time_elapsed":236110,"subject_id":"91999","group":"Group1","condition":"1_Rep","full_date":"2026-01-27T00:49:11.182Z","date":"2026-01-27","time":"00:49:11"},{"task":"memory_phase","broad_category":"S","image_png":"S_Shale_08.png","image_id":472,"category_name":"Shale","category":30,"distinct_rating":2.55,"distinct_type":"Bottom","rt":null,"stimulus":"Stimuli_Rocks480/S_Shale_08.png","response":null,"trial_type":"image-keyboard-response","trial_index":95,"plugin_version":"2.1.0","time_elapsed":238624,"subject_id":"91999","group":"Group1","condition":"1_Rep","full_date":"2026-01-27T00:49:11.182Z","date":"2026-01-27","time":"00:49:11"},{"rt":null,"stimulus":"<p style=\"font-size: 50px; margin: 0; text-align: center;\">+</p>","response":null,"trial_type":"html-keyboard-response","trial_index":96,"plugin_version":"2.1.0","time_elapsed":239626,"subject_id":"91999","group":"Group1","condition":"1_Rep","full_date":"2026-01-27T00:49:11.182Z","date":"2026-01-27","time":"00:49:11"},{"task":"memory_phase","broad_category":"I","image_png":"I_Andesite_06.png","image_id":6,"category_name":"Andesite","category":1,"distinct_rating":3.17,"distinct_type":"Bottom","rt":null,"stimulus":"Stimuli_Rocks480/I_Andesite_06.png","response":null,"trial_type":"image-keyboard-response","trial_index":97,"plugin_version":"2.1.0","time_elapsed":242140,"subject_id":"91999","group":"Group1","condition":"1_Rep","full_date":"2026-01-27T00:49:11.182Z","date":"2026-01-27","time":"00:49:11"},{"rt":null,"stimulus":"<p style=\"font-size: 50px; margin: 0; text-align: center;\">+</p>","response":null,"trial_type":"html-keyboard-response","trial_index":98,"plugin_version":"2.1.0","time_elapsed":243142,"subject_id":"91999","group":"Group1","condition":"1_Rep","full_date":"2026-01-27T00:49:11.182Z","date":"2026-01-27","time":"00:49:11"},{"task":"memory_phase","broad_category":"M","image_png":"M_Phyllite_07.png","image_id":263,"category_name":"Phyllite","category":17,"distinct_rating":2.59,"distinct_type":"Bottom","rt":null,"stimulus":"Stimuli_Rocks480/M_Phyllite_07.png","response":null,"trial_type":"image-keyboard-response","trial_index":99,"plugin_version":"2.1.0","time_elapsed":245652,"subject_id":"91999","group":"Group1","condition":"1_Rep","full_date":"2026-01-27T00:49:11.182Z","date":"2026-01-27","time":"00:49:11"},{"rt":null,"stimulus":"<p style=\"font-size: 50px; margin: 0; text-align: center;\">+</p>","response":null,"trial_type":"html-keyboard-response","trial_index":100,"plugin_version":"2.1.0","time_elapsed":246654,"subject_id":"91999","group":"Group1","condition":"1_Rep","full_date":"2026-01-27T00:49:11.182Z","date":"2026-01-27","time":"00:49:11"},{"task":"memory_phase","broad_category":"I","image_png":"I_Gabbro_08.png","image_id":56,"category_name":"Gabbro","category":4,"distinct_rating":3.02,"distinct_type":"Bottom","rt":null,"stimulus":"Stimuli_Rocks480/I_Gabbro_08.png","response":null,"trial_type":"image-keyboard-response","trial_index":101,"plugin_version":"2.1.0","time_elapsed":249163,"subject_id":"91999","group":"Group1","condition":"1_Rep","full_date":"2026-01-27T00:49:11.182Z","date":"2026-01-27","time":"00:49:11"},{"rt":null,"stimulus":"<p style=\"font-size: 50px; margin: 0; text-align: center;\">+</p>","response":null,"trial_type":"html-keyboard-response","trial_index":102,"plugin_version":"2.1.0","time_elapsed":250165,"subject_id":"91999","group":"Group1","condition":"1_Rep","full_date":"2026-01-27T00:49:11.182Z","date":"2026-01-27","time":"00:49:11"},{"task":"memory_phase","broad_category":"M","image_png":"M_Marble_06.png","image_id":230,"category_name":"Marble","category":15,"distinct_rating":3.4,"distinct_type":"Bottom","rt":null,"stimulus":"Stimuli_Rocks480/M_Marble_06.png","response":null,"trial_type":"image-keyboard-response","trial_index":103,"plugin_version":"2.1.0","time_elapsed":252678,"subject_id":"91999","group":"Group1","condition":"1_Rep","full_date":"2026-01-27T00:49:11.182Z","date":"2026-01-27","time":"00:49:11"},{"rt":null,"stimulus":"<p style=\"font-size: 50px; margin: 0; text-align: center;\">+</p>","response":null,"trial_type":"html-keyboard-response","trial_index":104,"plugin_version":"2.1.0","time_elapsed":253679,"subject_id":"91999","group":"Group1","condition":"1_Rep","full_date":"2026-01-27T00:49:11.182Z","date":"2026-01-27","time":"00:49:11"},{"task":"memory_phase","broad_category":"S","image_png":"S_Sandstone_03.png","image_id":451,"category_name":"Sandstone","category":29,"distinct_rating":1.86,"distinct_type":"Bottom","rt":null,"stimulus":"Stimuli_Rocks480/S_Sandstone_03.png","response":null,"trial_type":"image-keyboard-response","trial_index":105,"plugin_version":"2.1.0","time_elapsed":256190,"subject_id":"91999","group":"Group1","condition":"1_Rep","full_date":"2026-01-27T00:49:11.182Z","date":"2026-01-27","time":"00:49:11"},{"rt":24509,"stimulus":"<div style=\"max-width: 760px; margin: auto; font-size: 20px; line-height: 1.5;\">\n      <h1 style=\"text-align:center; font-size: 30px;\">Instructions for the Test Phase</h1>\n      <p>\n        The study phase is now complete.\n      </p>\n      <p>\n        In the test phase, you will again see a series of rock images. \n        Some will be ones you saw before - during the study phase, while others will be new.  \n        <b>Your task</b> is to decide whether you have seen each image before by pressing the corresponding key on your keyboard:<br><br>\n          <b>A</b> - NO (you did not see this image before)<br>\n          <b>L</b> - YES (you saw this image before)<br><br>\n        The test will proceed at your own pace. You will receive feedback after each response.  \n        Please try to respond <b>as accurately as possible</b>.\n      </p>\n      <p>\n        <b>Reminder:</b> If your computer has multiple language settings (e.g., English and another language),\n        please ensure it is set to English during the test phase.\n      </p>\n      <p>\n        You can track your progress using the <b>completion bar</b> at the top of the screen.  \n        Note that it has been refreshed to reflect your progress during this final phase.\n      </p>\n      <p>\n        Press the button below when you are ready to continue.\n      </p>\n    </div>","response":0,"trial_type":"html-button-response","trial_index":106,"plugin_version":"2.1.0","time_elapsed":280702,"subject_id":"91999","group":"Group1","condition":"1_Rep","full_date":"2026-01-27T00:49:11.182Z","date":"2026-01-27","time":"00:49:11"},{"correct_response":"l","task":"test_phase","broad_category":"I","image_png":"I_Andesite_10.png","image_id":10,"category_name":"Andesite","category":1,"distinct_rating":3.15,"distinct_type":"Bottom","item_type":"Target","rt":1762,"stimulus":"Stimuli_Rocks480/I_Andesite_10.png","response":"a","trial_type":"image-keyboard-response","trial_index":107,"plugin_version":"2.1.0","time_elapsed":282476,"subject_id":"91999","group":"Group1","condition":"1_Rep","full_date":"2026-01-27T00:49:11.182Z","date":"2026-01-27","time":"00:49:11","cor_ans":false},{"trial_type":"html-keyboard-response","rt":null,"stimulus":"<p style=\"color: red; font-size: 50px; font-weight: bold;\">Incorrect</p>","response":null,"trial_index":108,"plugin_version":"2.1.0","time_elapsed":282978,"subject_id":"91999","group":"Group1","condition":"1_Rep","full_date":"2026-01-27T00:49:11.182Z","date":"2026-01-27","time":"00:49:11"},{"correct_response":"a","task":"test_phase","broad_category":"S","image_png":"S_Rock Salt_13.png","image_id":445,"category_name":"Rock Salt","category":28,"distinct_rating":7.58,"distinct_type":"Top","item_type":"Foil","rt":821,"stimulus":"Stimuli_Rocks480/S_Rock Salt_13.png","response":"a","trial_type":"image-keyboard-response","trial_index":109,"plugin_version":"2.1.0","time_elapsed":283814,"subject_id":"91999","group":"Group1","condition":"1_Rep","full_date":"2026-01-27T00:49:11.182Z","date":"2026-01-27","time":"00:49:11","cor_ans":true},{"trial_type":"html-keyboard-response","rt":null,"stimulus":"<p style=\"color: green; font-size: 50px; font-weight: bold;\">Correct</p>","response":null,"trial_index":110,"plugin_version":"2.1.0","time_elapsed":284317,"subject_id":"91999","group":"Group1","condition":"1_Rep","full_date":"2026-01-27T00:49:11.182Z","date":"2026-01-27","time":"00:49:11"},{"correct_response":"a","task":"test_phase","broad_category":"I","image_png":"I_Andesite_04.png","image_id":4,"category_name":"Andesite","category":1,"distinct_rating":3.18,"distinct_type":"Bottom","item_type":"Foil","rt":1517,"stimulus":"Stimuli_Rocks480/I_Andesite_04.png","response":"l","trial_type":"image-keyboard-response","trial_index":111,"plugin_version":"2.1.0","time_elapsed":285846,"subject_id":"91999","group":"Group1","condition":"1_Rep","full_date":"2026-01-27T00:49:11.182Z","date":"2026-01-27","time":"00:49:11","cor_ans":false},{"trial_type":"html-keyboard-response","rt":null,"stimulus":"<p style=\"color: red; font-size: 50px; font-weight: bold;\">Incorrect</p>","response":null,"trial_index":112,"plugin_version":"2.1.0","time_elapsed":286348,"subject_id":"91999","group":"Group1","condition":"1_Rep","full_date":"2026-01-27T00:49:11.182Z","date":"2026-01-27","time":"00:49:11"},{"correct_response":"a","task":"test_phase","broad_category":"I","image_png":"I_Gabbro_14.png","image_id":62,"category_name":"Gabbro","category":4,"distinct_rating":2.95,"distinct_type":"Bottom","item_type":"Foil","rt":2347,"stimulus":"Stimuli_Rocks480/I_Gabbro_14.png","response":"l","trial_type":"image-keyboard-response","trial_index":113,"plugin_version":"2.1.0","time_elapsed":288709,"subject_id":"91999","group":"Group1","condition":"1_Rep","full_date":"2026-01-27T00:49:11.182Z","date":"2026-01-27","time":"00:49:11","cor_ans":false},{"trial_type":"html-keyboard-response","rt":null,"stimulus":"<p style=\"color: red; font-size: 50px; font-weight: bold;\">Incorrect</p>","response":null,"trial_index":114,"plugin_version":"2.1.0","time_elapsed":289211,"subject_id":"91999","group":"Group1","condition":"1_Rep","full_date":"2026-01-27T00:49:11.182Z","date":"2026-01-27","time":"00:49:11"},{"correct_response":"l","task":"test_phase","broad_category":"M","image_png":"M_Quartzite_13.png","image_id":285,"category_name":"Quartzite","category":18,"distinct_rating":2.27,"distinct_type":"Bottom","item_type":"Target","rt":1116,"stimulus":"Stimuli_Rocks480/M_Quartzite_13.png","response":"a","trial_type":"image-keyboard-response","trial_index":115,"plugin_version":"2.1.0","time_elapsed":290340,"subject_id":"91999","group":"Group1","condition":"1_Rep","full_date":"2026-01-27T00:49:11.182Z","date":"2026-01-27","time":"00:49:11","cor_ans":false},{"trial_type":"html-keyboard-response","rt":null,"stimulus":"<p style=\"color: red; font-size: 50px; font-weight: bold;\">Incorrect</p>","response":null,"trial_index":116,"plugin_version":"2.1.0","time_elapsed":290842,"subject_id":"91999","group":"Group1","condition":"1_Rep","full_date":"2026-01-27T00:49:11.182Z","date":"2026-01-27","time":"00:49:11"},{"correct_response":"l","task":"test_phase","broad_category":"M","image_png":"M_Phyllite_07.png","image_id":263,"category_name":"Phyllite","category":17,"distinct_rating":2.59,"distinct_type":"Bottom","item_type":"Target","rt":1522,"stimulus":"Stimuli_Rocks480/M_Phyllite_07.png","response":"a","trial_type":"image-keyboard-response","trial_index":117,"plugin_version":"2.1.0","time_elapsed":292366,"subject_id":"91999","group":"Group1","condition":"1_Rep","full_date":"2026-01-27T00:49:11.182Z","date":"2026-01-27","time":"00:49:11","cor_ans":false},{"trial_type":"html-keyboard-response","rt":null,"stimulus":"<p style=\"color: red; font-size: 50px; font-weight: bold;\">Incorrect</p>","response":null,"trial_index":118,"plugin_version":"2.1.0","time_elapsed":292868,"subject_id":"91999","group":"Group1","condition":"1_Rep","full_date":"2026-01-27T00:49:11.182Z","date":"2026-01-27","time":"00:49:11"},{"correct_response":"a","task":"test_phase","broad_category":"I","image_png":"I_Diorite_01.png","image_id":33,"category_name":"Diorite","category":3,"distinct_rating":2.97,"distinct_type":"Bottom","item_type":"Foil","rt":879,"stimulus":"Stimuli_Rocks480/I_Diorite_01.png","response":"l","trial_type":"image-keyboard-response","trial_index":119,"plugin_version":"2.1.0","time_elapsed":293761,"subject_id":"91999","group":"Group1","condition":"1_Rep","full_date":"2026-01-27T00:49:11.182Z","date":"2026-01-27","time":"00:49:11","cor_ans":false},{"trial_type":"html-keyboard-response","rt":null,"stimulus":"<p style=\"color: red; font-size: 50px; font-weight: bold;\">Incorrect</p>","response":null,"trial_index":120,"plugin_version":"2.1.0","time_elapsed":294263,"subject_id":"91999","group":"Group1","condition":"1_Rep","full_date":"2026-01-27T00:49:11.182Z","date":"2026-01-27","time":"00:49:11"},{"correct_response":"l","task":"test_phase","broad_category":"M","image_png":"M_Gneiss_13.png","image_id":205,"category_name":"Gneiss","category":13,"distinct_rating":3.26,"distinct_type":"Bottom","item_type":"Target","rt":575,"stimulus":"Stimuli_Rocks480/M_Gneiss_13.png","response":"l","trial_type":"image-keyboard-response","trial_index":121,"plugin_version":"2.1.0","time_elapsed":294849,"subject_id":"91999","group":"Group1","condition":"1_Rep","full_date":"2026-01-27T00:49:11.182Z","date":"2026-01-27","time":"00:49:11","cor_ans":true},{"trial_type":"html-keyboard-response","rt":null,"stimulus":"<p style=\"color: green; font-size: 50px; font-weight: bold;\">Correct</p>","response":null,"trial_index":122,"plugin_version":"2.1.0","time_elapsed":295352,"subject_id":"91999","group":"Group1","condition":"1_Rep","full_date":"2026-01-27T00:49:11.182Z","date":"2026-01-27","time":"00:49:11"},{"correct_response":"a","task":"test_phase","broad_category":"M","image_png":"M_Slate_14.png","image_id":318,"category_name":"Slate","category":20,"distinct_rating":2.58,"distinct_type":"Bottom","item_type":"Foil","rt":664,"stimulus":"Stimuli_Rocks480/M_Slate_14.png","response":"l","trial_type":"image-keyboard-response","trial_index":123,"plugin_version":"2.1.0","time_elapsed":296023,"subject_id":"91999","group":"Group1","condition":"1_Rep","full_date":"2026-01-27T00:49:11.182Z","date":"2026-01-27","time":"00:49:11","cor_ans":false},{"trial_type":"html-keyboard-response","rt":null,"stimulus":"<p style=\"color: red; font-size: 50px; font-weight: bold;\">Incorrect</p>","response":null,"trial_index":124,"plugin_version":"2.1.0","time_elapsed":296526,"subject_id":"91999","group":"Group1","condition":"1_Rep","full_date":"2026-01-27T00:49:11.182Z","date":"2026-01-27","time":"00:49:11"},{"correct_response":"a","task":"test_phase","broad_category":"I","image_png":"I_Andesite_09.png","image_id":9,"category_name":"Andesite","category":1,"distinct_rating":2.49,"distinct_type":"Bottom","item_type":"Foil","rt":591,"stimulus":"Stimuli_Rocks480/I_Andesite_09.png","response":"l","trial_type":"image-keyboard-response","trial_index":125,"plugin_version":"2.1.0","time_elapsed":297128,"subject_id":"91999","group":"Group1","condition":"1_Rep","full_date":"2026-01-27T00:49:11.182Z","date":"2026-01-27","time":"00:49:11","cor_ans":false},{"trial_type":"html-keyboard-response","rt":null,"stimulus":"<p style=\"color: red; font-size: 50px; font-weight: bold;\">Incorrect</p>","response":null,"trial_index":126,"plugin_version":"2.1.0","time_elapsed":297630,"subject_id":"91999","group":"Group1","condition":"1_Rep","full_date":"2026-01-27T00:49:11.182Z","date":"2026-01-27","time":"00:49:11"},{"correct_response":"l","task":"test_phase","broad_category":"I","image_png":"I_Gabbro_11.png","image_id":59,"category_name":"Gabbro","category":4,"distinct_rating":1.99,"distinct_type":"Bottom","item_type":"Target","rt":573,"stimulus":"Stimuli_Rocks480/I_Gabbro_11.png","response":"l","trial_type":"image-keyboard-response","trial_index":127,"plugin_version":"2.1.0","time_elapsed":298213,"subject_id":"91999","group":"Group1","condition":"1_Rep","full_date":"2026-01-27T00:49:11.182Z","date":"2026-01-27","time":"00:49:11","cor_ans":true},{"trial_type":"html-keyboard-response","rt":null,"stimulus":"<p style=\"color: green; font-size: 50px; font-weight: bold;\">Correct</p>","response":null,"trial_index":128,"plugin_version":"2.1.0","time_elapsed":298715,"subject_id":"91999","group":"Group1","condition":"1_Rep","full_date":"2026-01-27T00:49:11.182Z","date":"2026-01-27","time":"00:49:11"},{"correct_response":"l","task":"test_phase","broad_category":"M","image_png":"M_Slate_03.png","image_id":307,"category_name":"Slate","category":20,"distinct_rating":1.87,"distinct_type":"Bottom","item_type":"Target","rt":797,"stimulus":"Stimuli_Rocks480/M_Slate_03.png","response":"l","trial_type":"image-keyboard-response","trial_index":129,"plugin_version":"2.1.0","time_elapsed":299523,"subject_id":"91999","group":"Group1","condition":"1_Rep","full_date":"2026-01-27T00:49:11.182Z","date":"2026-01-27","time":"00:49:11","cor_ans":true},{"trial_type":"html-keyboard-response","rt":null,"stimulus":"<p style=\"color: green; font-size: 50px; font-weight: bold;\">Correct</p>","response":null,"trial_index":130,"plugin_version":"2.1.0","time_elapsed":300025,"subject_id":"91999","group":"Group1","condition":"1_Rep","full_date":"2026-01-27T00:49:11.182Z","date":"2026-01-27","time":"00:49:11"},{"correct_response":"l","task":"test_phase","broad_category":"I","image_png":"I_Basalt_09.png","image_id":25,"category_name":"Basalt","category":2,"distinct_rating":1.89,"distinct_type":"Bottom","item_type":"Target","rt":1427,"stimulus":"Stimuli_Rocks480/I_Basalt_09.png","response":"l","trial_type":"image-keyboard-response","trial_index":131,"plugin_version":"2.1.0","time_elapsed":301466,"subject_id":"91999","group":"Group1","condition":"1_Rep","full_date":"2026-01-27T00:49:11.182Z","date":"2026-01-27","time":"00:49:11","cor_ans":true},{"trial_type":"html-keyboard-response","rt":null,"stimulus":"<p style=\"color: green; font-size: 50px; font-weight: bold;\">Correct</p>","response":null,"trial_index":132,"plugin_version":"2.1.0","time_elapsed":301968,"subject_id":"91999","group":"Group1","condition":"1_Rep","full_date":"2026-01-27T00:49:11.182Z","date":"2026-01-27","time":"00:49:11"},{"correct_response":"a","task":"test_phase","broad_category":"I","image_png":"I_Basalt_08.png","image_id":24,"category_name":"Basalt","category":2,"distinct_rating":2.31,"distinct_type":"Bottom","item_type":"Foil","rt":1462,"stimulus":"Stimuli_Rocks480/I_Basalt_08.png","response":"l","trial_type":"image-keyboard-response","trial_index":133,"plugin_version":"2.1.0","time_elapsed":303449,"subject_id":"91999","group":"Group1","condition":"1_Rep","full_date":"2026-01-27T00:49:11.182Z","date":"2026-01-27","time":"00:49:11","cor_ans":false},{"trial_type":"html-keyboard-response","rt":null,"stimulus":"<p style=\"color: red; font-size: 50px; font-weight: bold;\">Incorrect</p>","response":null,"trial_index":134,"plugin_version":"2.1.0","time_elapsed":303951,"subject_id":"91999","group":"Group1","condition":"1_Rep","full_date":"2026-01-27T00:49:11.182Z","date":"2026-01-27","time":"00:49:11"},{"correct_response":"l","task":"test_phase","broad_category":"I","image_png":"I_Andesite_06.png","image_id":6,"category_name":"Andesite","category":1,"distinct_rating":3.17,"distinct_type":"Bottom","item_type":"Target","rt":816,"stimulus":"Stimuli_Rocks480/I_Andesite_06.png","response":"l","trial_type":"image-keyboard-response","trial_index":135,"plugin_version":"2.1.0","time_elapsed":304769,"subject_id":"91999","group":"Group1","condition":"1_Rep","full_date":"2026-01-27T00:49:11.182Z","date":"2026-01-27","time":"00:49:11","cor_ans":true},{"trial_type":"html-keyboard-response","rt":null,"stimulus":"<p style=\"color: green; font-size: 50px; font-weight: bold;\">Correct</p>","response":null,"trial_index":136,"plugin_version":"2.1.0","time_elapsed":305271,"subject_id":"91999","group":"Group1","condition":"1_Rep","full_date":"2026-01-27T00:49:11.182Z","date":"2026-01-27","time":"00:49:11"},{"correct_response":"a","task":"test_phase","broad_category":"M","image_png":"M_Marble_03.png","image_id":227,"category_name":"Marble","category":15,"distinct_rating":2.67,"distinct_type":"Bottom","item_type":"Foil","rt":868,"stimulus":"Stimuli_Rocks480/M_Marble_03.png","response":"a","trial_type":"image-keyboard-response","trial_index":137,"plugin_version":"2.1.0","time_elapsed":306151,"subject_id":"91999","group":"Group1","condition":"1_Rep","full_date":"2026-01-27T00:49:11.182Z","date":"2026-01-27","time":"00:49:11","cor_ans":true},{"trial_type":"html-keyboard-response","rt":null,"stimulus":"<p style=\"color: green; font-size: 50px; font-weight: bold;\">Correct</p>","response":null,"trial_index":138,"plugin_version":"2.1.0","time_elapsed":306653,"subject_id":"91999","group":"Group1","condition":"1_Rep","full_date":"2026-01-27T00:49:11.182Z","date":"2026-01-27","time":"00:49:11"},{"correct_response":"l","task":"test_phase","broad_category":"S","image_png":"S_Breccia_11.png","image_id":347,"category_name":"Breccia","category":22,"distinct_rating":6.7,"distinct_type":"Top","item_type":"Target","rt":1082,"stimulus":"Stimuli_Rocks480/S_Breccia_11.png","response":"a","trial_type":"image-keyboard-response","trial_index":139,"plugin_version":"2.1.0","time_elapsed":307753,"subject_id":"91999","group":"Group1","condition":"1_Rep","full_date":"2026-01-27T00:49:11.182Z","date":"2026-01-27","time":"00:49:11","cor_ans":false},{"trial_type":"html-keyboard-response","rt":null,"stimulus":"<p style=\"color: red; font-size: 50px; font-weight: bold;\">Incorrect</p>","response":null,"trial_index":140,"plugin_version":"2.1.0","time_elapsed":308255,"subject_id":"91999","group":"Group1","condition":"1_Rep","full_date":"2026-01-27T00:49:11.182Z","date":"2026-01-27","time":"00:49:11"},{"correct_response":"l","task":"test_phase","broad_category":"I","image_png":"I_Basalt_01.png","image_id":17,"category_name":"Basalt","category":2,"distinct_rating":1.92,"distinct_type":"Bottom","item_type":"Target","rt":1089,"stimulus":"Stimuli_Rocks480/I_Basalt_01.png","response":"a","trial_type":"image-keyboard-response","trial_index":141,"plugin_version":"2.1.0","time_elapsed":309360,"subject_id":"91999","group":"Group1","condition":"1_Rep","full_date":"2026-01-27T00:49:11.182Z","date":"2026-01-27","time":"00:49:11","cor_ans":false},{"trial_type":"html-keyboard-response","rt":null,"stimulus":"<p style=\"color: red; font-size: 50px; font-weight: bold;\">Incorrect</p>","response":null,"trial_index":142,"plugin_version":"2.1.0","time_elapsed":309862,"subject_id":"91999","group":"Group1","condition":"1_Rep","full_date":"2026-01-27T00:49:11.182Z","date":"2026-01-27","time":"00:49:11"},{"correct_response":"a","task":"test_phase","broad_category":"S","image_png":"S_Conglomerate_14.png","image_id":382,"category_name":"Conglomerate","category":24,"distinct_rating":6.86,"distinct_type":"Top","item_type":"Foil","rt":1372,"stimulus":"Stimuli_Rocks480/S_Conglomerate_14.png","response":"a","trial_type":"image-keyboard-response","trial_index":143,"plugin_version":"2.1.0","time_elapsed":311244,"subject_id":"91999","group":"Group1","condition":"1_Rep","full_date":"2026-01-27T00:49:11.182Z","date":"2026-01-27","time":"00:49:11","cor_ans":true},{"trial_type":"html-keyboard-response","rt":null,"stimulus":"<p style=\"color: green; font-size: 50px; font-weight: bold;\">Correct</p>","response":null,"trial_index":144,"plugin_version":"2.1.0","time_elapsed":311746,"subject_id":"91999","group":"Group1","condition":"1_Rep","full_date":"2026-01-27T00:49:11.182Z","date":"2026-01-27","time":"00:49:11"},{"correct_response":"a","task":"test_phase","broad_category":"S","image_png":"S_Dolomite_07.png","image_id":391,"category_name":"Dolomite","category":25,"distinct_rating":1.73,"distinct_type":"Bottom","item_type":"Foil","rt":1540,"stimulus":"Stimuli_Rocks480/S_Dolomite_07.png","response":"l","trial_type":"image-keyboard-response","trial_index":145,"plugin_version":"2.1.0","time_elapsed":313296,"subject_id":"91999","group":"Group1","condition":"1_Rep","full_date":"2026-01-27T00:49:11.182Z","date":"2026-01-27","time":"00:49:11","cor_ans":false},{"trial_type":"html-keyboard-response","rt":null,"stimulus":"<p style=\"color: red; font-size: 50px; font-weight: bold;\">Incorrect</p>","response":null,"trial_index":146,"plugin_version":"2.1.0","time_elapsed":313797,"subject_id":"91999","group":"Group1","condition":"1_Rep","full_date":"2026-01-27T00:49:11.182Z","date":"2026-01-27","time":"00:49:11"},{"correct_response":"a","task":"test_phase","broad_category":"I","image_png":"I_Basalt_13.png","image_id":29,"category_name":"Basalt","category":2,"distinct_rating":2.68,"distinct_type":"Bottom","item_type":"Foil","rt":1547,"stimulus":"Stimuli_Rocks480/I_Basalt_13.png","response":"a","trial_type":"image-keyboard-response","trial_index":147,"plugin_version":"2.1.0","time_elapsed":315355,"subject_id":"91999","group":"Group1","condition":"1_Rep","full_date":"2026-01-27T00:49:11.182Z","date":"2026-01-27","time":"00:49:11","cor_ans":true},{"trial_type":"html-keyboard-response","rt":null,"stimulus":"<p style=\"color: green; font-size: 50px; font-weight: bold;\">Correct</p>","response":null,"trial_index":148,"plugin_version":"2.1.0","time_elapsed":315857,"subject_id":"91999","group":"Group1","condition":"1_Rep","full_date":"2026-01-27T00:49:11.182Z","date":"2026-01-27","time":"00:49:11"},{"correct_response":"a","task":"test_phase","broad_category":"I","image_png":"I_Obsidian_06.png","image_id":86,"category_name":"Obsidian","category":6,"distinct_rating":8.01,"distinct_type":"Top","item_type":"Foil","rt":659,"stimulus":"Stimuli_Rocks480/I_Obsidian_06.png","response":"a","trial_type":"image-keyboard-response","trial_index":149,"plugin_version":"2.1.0","time_elapsed":316531,"subject_id":"91999","group":"Group1","condition":"1_Rep","full_date":"2026-01-27T00:49:11.182Z","date":"2026-01-27","time":"00:49:11","cor_ans":true},{"trial_type":"html-keyboard-response","rt":null,"stimulus":"<p style=\"color: green; font-size: 50px; font-weight: bold;\">Correct</p>","response":null,"trial_index":150,"plugin_version":"2.1.0","time_elapsed":317034,"subject_id":"91999","group":"Group1","condition":"1_Rep","full_date":"2026-01-27T00:49:11.182Z","date":"2026-01-27","time":"00:49:11"},{"correct_response":"a","task":"test_phase","broad_category":"I","image_png":"I_Pumice_13.png","image_id":141,"category_name":"Pumice","category":9,"distinct_rating":3.12,"distinct_type":"Bottom","item_type":"Foil","rt":2722,"stimulus":"Stimuli_Rocks480/I_Pumice_13.png","response":"a","trial_type":"image-keyboard-response","trial_index":151,"plugin_version":"2.1.0","time_elapsed":319768,"subject_id":"91999","group":"Group1","condition":"1_Rep","full_date":"2026-01-27T00:49:11.182Z","date":"2026-01-27","time":"00:49:11","cor_ans":true},{"trial_type":"html-keyboard-response","rt":null,"stimulus":"<p style=\"color: green; font-size: 50px; font-weight: bold;\">Correct</p>","response":null,"trial_index":152,"plugin_version":"2.1.0","time_elapsed":320270,"subject_id":"91999","group":"Group1","condition":"1_Rep","full_date":"2026-01-27T00:49:11.182Z","date":"2026-01-27","time":"00:49:11"},{"correct_response":"l","task":"test_phase","broad_category":"I","image_png":"I_Diorite_04.png","image_id":36,"category_name":"Diorite","category":3,"distinct_rating":2.98,"distinct_type":"Bottom","item_type":"Target","rt":2658,"stimulus":"Stimuli_Rocks480/I_Diorite_04.png","response":"l","trial_type":"image-keyboard-response","trial_index":153,"plugin_version":"2.1.0","time_elapsed":322942,"subject_id":"91999","group":"Group1","condition":"1_Rep","full_date":"2026-01-27T00:49:11.182Z","date":"2026-01-27","time":"00:49:11","cor_ans":true},{"trial_type":"html-keyboard-response","rt":null,"stimulus":"<p style=\"color: green; font-size: 50px; font-weight: bold;\">Correct</p>","response":null,"trial_index":154,"plugin_version":"2.1.0","time_elapsed":323444,"subject_id":"91999","group":"Group1","condition":"1_Rep","full_date":"2026-01-27T00:49:11.182Z","date":"2026-01-27","time":"00:49:11"},{"correct_response":"a","task":"test_phase","broad_category":"M","image_png":"M_Slate_10.png","image_id":314,"category_name":"Slate","category":20,"distinct_rating":1.94,"distinct_type":"Bottom","item_type":"Foil","rt":729,"stimulus":"Stimuli_Rocks480/M_Slate_10.png","response":"l","trial_type":"image-keyboard-response","trial_index":155,"plugin_version":"2.1.0","time_elapsed":324183,"subject_id":"91999","group":"Group1","condition":"1_Rep","full_date":"2026-01-27T00:49:11.182Z","date":"2026-01-27","time":"00:49:11","cor_ans":false},{"trial_type":"html-keyboard-response","rt":null,"stimulus":"<p style=\"color: red; font-size: 50px; font-weight: bold;\">Incorrect</p>","response":null,"trial_index":156,"plugin_version":"2.1.0","time_elapsed":324685,"subject_id":"91999","group":"Group1","condition":"1_Rep","full_date":"2026-01-27T00:49:11.182Z","date":"2026-01-27","time":"00:49:11"},{"correct_response":"l","task":"test_phase","broad_category":"M","image_png":"M_Phyllite_03.png","image_id":259,"category_name":"Phyllite","category":17,"distinct_rating":2.5,"distinct_type":"Bottom","item_type":"Target","rt":2939,"stimulus":"Stimuli_Rocks480/M_Phyllite_03.png","response":"a","trial_type":"image-keyboard-response","trial_index":157,"plugin_version":"2.1.0","time_elapsed":327642,"subject_id":"91999","group":"Group1","condition":"1_Rep","full_date":"2026-01-27T00:49:11.182Z","date":"2026-01-27","time":"00:49:11","cor_ans":false},{"trial_type":"html-keyboard-response","rt":null,"stimulus":"<p style=\"color: red; font-size: 50px; font-weight: bold;\">Incorrect</p>","response":null,"trial_index":158,"plugin_version":"2.1.0","time_elapsed":328145,"subject_id":"91999","group":"Group1","condition":"1_Rep","full_date":"2026-01-27T00:49:11.182Z","date":"2026-01-27","time":"00:49:11"},{"correct_response":"l","task":"test_phase","broad_category":"M","image_png":"M_Phyllite_10.png","image_id":266,"category_name":"Phyllite","category":17,"distinct_rating":2.6,"distinct_type":"Bottom","item_type":"Target","rt":973,"stimulus":"Stimuli_Rocks480/M_Phyllite_10.png","response":"l","trial_type":"image-keyboard-response","trial_index":159,"plugin_version":"2.1.0","time_elapsed":329130,"subject_id":"91999","group":"Group1","condition":"1_Rep","full_date":"2026-01-27T00:49:11.182Z","date":"2026-01-27","time":"00:49:11","cor_ans":true},{"trial_type":"html-keyboard-response","rt":null,"stimulus":"<p style=\"color: green; font-size: 50px; font-weight: bold;\">Correct</p>","response":null,"trial_index":160,"plugin_version":"2.1.0","time_elapsed":329633,"subject_id":"91999","group":"Group1","condition":"1_Rep","full_date":"2026-01-27T00:49:11.182Z","date":"2026-01-27","time":"00:49:11"},{"correct_response":"l","task":"test_phase","broad_category":"S","image_png":"S_Sandstone_16.png","image_id":464,"category_name":"Sandstone","category":29,"distinct_rating":1.93,"distinct_type":"Bottom","item_type":"Target","rt":1818,"stimulus":"Stimuli_Rocks480/S_Sandstone_16.png","response":"l","trial_type":"image-keyboard-response","trial_index":161,"plugin_version":"2.1.0","time_elapsed":331460,"subject_id":"91999","group":"Group1","condition":"1_Rep","full_date":"2026-01-27T00:49:11.182Z","date":"2026-01-27","time":"00:49:11","cor_ans":true},{"trial_type":"html-keyboard-response","rt":null,"stimulus":"<p style=\"color: green; font-size: 50px; font-weight: bold;\">Correct</p>","response":null,"trial_index":162,"plugin_version":"2.1.0","time_elapsed":331963,"subject_id":"91999","group":"Group1","condition":"1_Rep","full_date":"2026-01-27T00:49:11.182Z","date":"2026-01-27","time":"00:49:11"},{"correct_response":"a","task":"test_phase","broad_category":"S","image_png":"S_Chert_13.png","image_id":365,"category_name":"Chert","category":23,"distinct_rating":6.57,"distinct_type":"Top","item_type":"Foil","rt":1391,"stimulus":"Stimuli_Rocks480/S_Chert_13.png","response":"a","trial_type":"image-keyboard-response","trial_index":163,"plugin_version":"2.1.0","time_elapsed":333362,"subject_id":"91999","group":"Group1","condition":"1_Rep","full_date":"2026-01-27T00:49:11.182Z","date":"2026-01-27","time":"00:49:11","cor_ans":true},{"trial_type":"html-keyboard-response","rt":null,"stimulus":"<p style=\"color: green; font-size: 50px; font-weight: bold;\">Correct</p>","response":null,"trial_index":164,"plugin_version":"2.1.0","time_elapsed":333864,"subject_id":"91999","group":"Group1","condition":"1_Rep","full_date":"2026-01-27T00:49:11.182Z","date":"2026-01-27","time":"00:49:11"},{"correct_response":"l","task":"test_phase","broad_category":"I","image_png":"I_Gabbro_16.png","image_id":64,"category_name":"Gabbro","category":4,"distinct_rating":2.52,"distinct_type":"Bottom","item_type":"Target","rt":1294,"stimulus":"Stimuli_Rocks480/I_Gabbro_16.png","response":"a","trial_type":"image-keyboard-response","trial_index":165,"plugin_version":"2.1.0","time_elapsed":335170,"subject_id":"91999","group":"Group1","condition":"1_Rep","full_date":"2026-01-27T00:49:11.182Z","date":"2026-01-27","time":"00:49:11","cor_ans":false},{"trial_type":"html-keyboard-response","rt":null,"stimulus":"<p style=\"color: red; font-size: 50px; font-weight: bold;\">Incorrect</p>","response":null,"trial_index":166,"plugin_version":"2.1.0","time_elapsed":335673,"subject_id":"91999","group":"Group1","condition":"1_Rep","full_date":"2026-01-27T00:49:11.182Z","date":"2026-01-27","time":"00:49:11"},{"correct_response":"a","task":"test_phase","broad_category":"S","image_png":"S_Dolomite_16.png","image_id":400,"category_name":"Dolomite","category":25,"distinct_rating":1.71,"distinct_type":"Bottom","item_type":"Foil","rt":975,"stimulus":"Stimuli_Rocks480/S_Dolomite_16.png","response":"a","trial_type":"image-keyboard-response","trial_index":167,"plugin_version":"2.1.0","time_elapsed":336658,"subject_id":"91999","group":"Group1","condition":"1_Rep","full_date":"2026-01-27T00:49:11.182Z","date":"2026-01-27","time":"00:49:11","cor_ans":true},{"trial_type":"html-keyboard-response","rt":null,"stimulus":"<p style=\"color: green; font-size: 50px; font-weight: bold;\">Correct</p>","response":null,"trial_index":168,"plugin_version":"2.1.0","time_elapsed":337160,"subject_id":"91999","group":"Group1","condition":"1_Rep","full_date":"2026-01-27T00:49:11.182Z","date":"2026-01-27","time":"00:49:11"},{"correct_response":"l","task":"test_phase","broad_category":"M","image_png":"M_Quartzite_08.png","image_id":280,"category_name":"Quartzite","category":18,"distinct_rating":2.15,"distinct_type":"Bottom","item_type":"Target","rt":804,"stimulus":"Stimuli_Rocks480/M_Quartzite_08.png","response":"a","trial_type":"image-keyboard-response","trial_index":169,"plugin_version":"2.1.0","time_elapsed":337975,"subject_id":"91999","group":"Group1","condition":"1_Rep","full_date":"2026-01-27T00:49:11.182Z","date":"2026-01-27","time":"00:49:11","cor_ans":false},{"trial_type":"html-keyboard-response","rt":null,"stimulus":"<p style=\"color: red; font-size: 50px; font-weight: bold;\">Incorrect</p>","response":null,"trial_index":170,"plugin_version":"2.1.0","time_elapsed":338477,"subject_id":"91999","group":"Group1","condition":"1_Rep","full_date":"2026-01-27T00:49:11.182Z","date":"2026-01-27","time":"00:49:11"},{"correct_response":"a","task":"test_phase","broad_category":"M","image_png":"M_Quartzite_15.png","image_id":287,"category_name":"Quartzite","category":18,"distinct_rating":2.19,"distinct_type":"Bottom","item_type":"Foil","rt":630,"stimulus":"Stimuli_Rocks480/M_Quartzite_15.png","response":"a","trial_type":"image-keyboard-response","trial_index":171,"plugin_version":"2.1.0","time_elapsed":339121,"subject_id":"91999","group":"Group1","condition":"1_Rep","full_date":"2026-01-27T00:49:11.182Z","date":"2026-01-27","time":"00:49:11","cor_ans":true},{"trial_type":"html-keyboard-response","rt":null,"stimulus":"<p style=\"color: green; font-size: 50px; font-weight: bold;\">Correct</p>","response":null,"trial_index":172,"plugin_version":"2.1.0","time_elapsed":339623,"subject_id":"91999","group":"Group1","condition":"1_Rep","full_date":"2026-01-27T00:49:11.182Z","date":"2026-01-27","time":"00:49:11"},{"correct_response":"l","task":"test_phase","broad_category":"S","image_png":"S_Rock Salt_01.png","image_id":433,"category_name":"Rock Salt","category":28,"distinct_rating":7.18,"distinct_type":"Top","item_type":"Target","rt":823,"stimulus":"Stimuli_Rocks480/S_Rock Salt_01.png","response":"l","trial_type":"image-keyboard-response","trial_index":173,"plugin_version":"2.1.0","time_elapsed":340460,"subject_id":"91999","group":"Group1","condition":"1_Rep","full_date":"2026-01-27T00:49:11.182Z","date":"2026-01-27","time":"00:49:11","cor_ans":true},{"trial_type":"html-keyboard-response","rt":null,"stimulus":"<p style=\"color: green; font-size: 50px; font-weight: bold;\">Correct</p>","response":null,"trial_index":174,"plugin_version":"2.1.0","time_elapsed":340961,"subject_id":"91999","group":"Group1","condition":"1_Rep","full_date":"2026-01-27T00:49:11.182Z","date":"2026-01-27","time":"00:49:11"},{"correct_response":"a","task":"test_phase","broad_category":"I","image_png":"I_Pegmatite_03.png","image_id":99,"category_name":"Pegmatite","category":7,"distinct_rating":7.24,"distinct_type":"Top","item_type":"Foil","rt":595,"stimulus":"Stimuli_Rocks480/I_Pegmatite_03.png","response":"l","trial_type":"image-keyboard-response","trial_index":175,"plugin_version":"2.1.0","time_elapsed":341566,"subject_id":"91999","group":"Group1","condition":"1_Rep","full_date":"2026-01-27T00:49:11.182Z","date":"2026-01-27","time":"00:49:11","cor_ans":false},{"trial_type":"html-keyboard-response","rt":null,"stimulus":"<p style=\"color: red; font-size: 50px; font-weight: bold;\">Incorrect</p>","response":null,"trial_index":176,"plugin_version":"2.1.0","time_elapsed":342068,"subject_id":"91999","group":"Group1","condition":"1_Rep","full_date":"2026-01-27T00:49:11.182Z","date":"2026-01-27","time":"00:49:11"},{"correct_response":"l","task":"test_phase","broad_category":"I","image_png":"I_Rhyolite_16.png","image_id":160,"category_name":"Rhyolite","category":10,"distinct_rating":2.19,"distinct_type":"Bottom","item_type":"Target","rt":463,"stimulus":"Stimuli_Rocks480/I_Rhyolite_16.png","response":"a","trial_type":"image-keyboard-response","trial_index":177,"plugin_version":"2.1.0","time_elapsed":342542,"subject_id":"91999","group":"Group1","condition":"1_Rep","full_date":"2026-01-27T00:49:11.182Z","date":"2026-01-27","time":"00:49:11","cor_ans":false},{"trial_type":"html-keyboard-response","rt":null,"stimulus":"<p style=\"color: red; font-size: 50px; font-weight: bold;\">Incorrect</p>","response":null,"trial_index":178,"plugin_version":"2.1.0","time_elapsed":343043,"subject_id":"91999","group":"Group1","condition":"1_Rep","full_date":"2026-01-27T00:49:11.182Z","date":"2026-01-27","time":"00:49:11"},{"correct_response":"a","task":"test_phase","broad_category":"S","image_png":"S_Sandstone_11.png","image_id":459,"category_name":"Sandstone","category":29,"distinct_rating":1.82,"distinct_type":"Bottom","item_type":"Foil","rt":717,"stimulus":"Stimuli_Rocks480/S_Sandstone_11.png","response":"l","trial_type":"image-keyboard-response","trial_index":179,"plugin_version":"2.1.0","time_elapsed":343777,"subject_id":"91999","group":"Group1","condition":"1_Rep","full_date":"2026-01-27T00:49:11.182Z","date":"2026-01-27","time":"00:49:11","cor_ans":false},{"trial_type":"html-keyboard-response","rt":null,"stimulus":"<p style=\"color: red; font-size: 50px; font-weight: bold;\">Incorrect</p>","response":null,"trial_index":180,"plugin_version":"2.1.0","time_elapsed":344278,"subject_id":"91999","group":"Group1","condition":"1_Rep","full_date":"2026-01-27T00:49:11.182Z","date":"2026-01-27","time":"00:49:11"},{"correct_response":"a","task":"test_phase","broad_category":"S","image_png":"S_Sandstone_08.png","image_id":456,"category_name":"Sandstone","category":29,"distinct_rating":1.5,"distinct_type":"Bottom","item_type":"Foil","rt":562,"stimulus":"Stimuli_Rocks480/S_Sandstone_08.png","response":"a","trial_type":"image-keyboard-response","trial_index":181,"plugin_version":"2.1.0","time_elapsed":344852,"subject_id":"91999","group":"Group1","condition":"1_Rep","full_date":"2026-01-27T00:49:11.182Z","date":"2026-01-27","time":"00:49:11","cor_ans":true},{"trial_type":"html-keyboard-response","rt":null,"stimulus":"<p style=\"color: green; font-size: 50px; font-weight: bold;\">Correct</p>","response":null,"trial_index":182,"plugin_version":"2.1.0","time_elapsed":345354,"subject_id":"91999","group":"Group1","condition":"1_Rep","full_date":"2026-01-27T00:49:11.182Z","date":"2026-01-27","time":"00:49:11"},{"correct_response":"a","task":"test_phase","broad_category":"I","image_png":"I_Diorite_15.png","image_id":47,"category_name":"Diorite","category":3,"distinct_rating":3.05,"distinct_type":"Bottom","item_type":"Foil","rt":777,"stimulus":"Stimuli_Rocks480/I_Diorite_15.png","response":"l","trial_type":"image-keyboard-response","trial_index":183,"plugin_version":"2.1.0","time_elapsed":346141,"subject_id":"91999","group":"Group1","condition":"1_Rep","full_date":"2026-01-27T00:49:11.182Z","date":"2026-01-27","time":"00:49:11","cor_ans":false},{"trial_type":"html-keyboard-response","rt":null,"stimulus":"<p style=\"color: red; font-size: 50px; font-weight: bold;\">Incorrect</p>","response":null,"trial_index":184,"plugin_version":"2.1.0","time_elapsed":346643,"subject_id":"91999","group":"Group1","condition":"1_Rep","full_date":"2026-01-27T00:49:11.182Z","date":"2026-01-27","time":"00:49:11"},{"correct_response":"a","task":"test_phase","broad_category":"M","image_png":"M_Gneiss_15.png","image_id":207,"category_name":"Gneiss","category":13,"distinct_rating":3.11,"distinct_type":"Bottom","item_type":"Foil","rt":979,"stimulus":"Stimuli_Rocks480/M_Gneiss_15.png","response":"a","trial_type":"image-keyboard-response","trial_index":185,"plugin_version":"2.1.0","time_elapsed":347633,"subject_id":"91999","group":"Group1","condition":"1_Rep","full_date":"2026-01-27T00:49:11.182Z","date":"2026-01-27","time":"00:49:11","cor_ans":true},{"trial_type":"html-keyboard-response","rt":null,"stimulus":"<p style=\"color: green; font-size: 50px; font-weight: bold;\">Correct</p>","response":null,"trial_index":186,"plugin_version":"2.1.0","time_elapsed":348135,"subject_id":"91999","group":"Group1","condition":"1_Rep","full_date":"2026-01-27T00:49:11.182Z","date":"2026-01-27","time":"00:49:11"},{"correct_response":"l","task":"test_phase","broad_category":"S","image_png":"S_Shale_01.png","image_id":465,"category_name":"Shale","category":30,"distinct_rating":2.7,"distinct_type":"Bottom","item_type":"Target","rt":848,"stimulus":"Stimuli_Rocks480/S_Shale_01.png","response":"l","trial_type":"image-keyboard-response","trial_index":187,"plugin_version":"2.1.0","time_elapsed":348993,"subject_id":"91999","group":"Group1","condition":"1_Rep","full_date":"2026-01-27T00:49:11.182Z","date":"2026-01-27","time":"00:49:11","cor_ans":true},{"trial_type":"html-keyboard-response","rt":null,"stimulus":"<p style=\"color: green; font-size: 50px; font-weight: bold;\">Correct</p>","response":null,"trial_index":188,"plugin_version":"2.1.0","time_elapsed":349495,"subject_id":"91999","group":"Group1","condition":"1_Rep","full_date":"2026-01-27T00:49:11.182Z","date":"2026-01-27","time":"00:49:11"},{"correct_response":"a","task":"test_phase","broad_category":"M","image_png":"M_Gneiss_10.png","image_id":202,"category_name":"Gneiss","category":13,"distinct_rating":3.09,"distinct_type":"Bottom","item_type":"Foil","rt":1936,"stimulus":"Stimuli_Rocks480/M_Gneiss_10.png","response":"l","trial_type":"image-keyboard-response","trial_index":189,"plugin_version":"2.1.0","time_elapsed":351445,"subject_id":"91999","group":"Group1","condition":"1_Rep","full_date":"2026-01-27T00:49:11.182Z","date":"2026-01-27","time":"00:49:11","cor_ans":false},{"trial_type":"html-keyboard-response","rt":null,"stimulus":"<p style=\"color: red; font-size: 50px; font-weight: bold;\">Incorrect</p>","response":null,"trial_index":190,"plugin_version":"2.1.0","time_elapsed":351946,"subject_id":"91999","group":"Group1","condition":"1_Rep","full_date":"2026-01-27T00:49:11.182Z","date":"2026-01-27","time":"00:49:11"},{"correct_response":"a","task":"test_phase","broad_category":"M","image_png":"M_Marble_14.png","image_id":238,"category_name":"Marble","category":15,"distinct_rating":3.31,"distinct_type":"Bottom","item_type":"Foil","rt":520,"stimulus":"Stimuli_Rocks480/M_Marble_14.png","response":"l","trial_type":"image-keyboard-response","trial_index":191,"plugin_version":"2.1.0","time_elapsed":352484,"subject_id":"91999","group":"Group1","condition":"1_Rep","full_date":"2026-01-27T00:49:11.182Z","date":"2026-01-27","time":"00:49:11","cor_ans":false},{"trial_type":"html-keyboard-response","rt":null,"stimulus":"<p style=\"color: red; font-size: 50px; font-weight: bold;\">Incorrect</p>","response":null,"trial_index":192,"plugin_version":"2.1.0","time_elapsed":352986,"subject_id":"91999","group":"Group1","condition":"1_Rep","full_date":"2026-01-27T00:49:11.182Z","date":"2026-01-27","time":"00:49:11"},{"correct_response":"a","task":"test_phase","broad_category":"S","image_png":"S_Rock Salt_15.png","image_id":447,"category_name":"Rock Salt","category":28,"distinct_rating":7.79,"distinct_type":"Top","item_type":"Foil","rt":1183,"stimulus":"Stimuli_Rocks480/S_Rock Salt_15.png","response":"a","trial_type":"image-keyboard-response","trial_index":193,"plugin_version":"2.1.0","time_elapsed":354189,"subject_id":"91999","group":"Group1","condition":"1_Rep","full_date":"2026-01-27T00:49:11.182Z","date":"2026-01-27","time":"00:49:11","cor_ans":true},{"trial_type":"html-keyboard-response","rt":null,"stimulus":"<p style=\"color: green; font-size: 50px; font-weight: bold;\">Correct</p>","response":null,"trial_index":194,"plugin_version":"2.1.0","time_elapsed":354691,"subject_id":"91999","group":"Group1","condition":"1_Rep","full_date":"2026-01-27T00:49:11.182Z","date":"2026-01-27","time":"00:49:11"},{"correct_response":"l","task":"test_phase","broad_category":"S","image_png":"S_Dolomite_13.png","image_id":397,"category_name":"Dolomite","category":25,"distinct_rating":1.77,"distinct_type":"Bottom","item_type":"Target","rt":720,"stimulus":"Stimuli_Rocks480/S_Dolomite_13.png","response":"l","trial_type":"image-keyboard-response","trial_index":195,"plugin_version":"2.1.0","time_elapsed":355422,"subject_id":"91999","group":"Group1","condition":"1_Rep","full_date":"2026-01-27T00:49:11.182Z","date":"2026-01-27","time":"00:49:11","cor_ans":true},{"trial_type":"html-keyboard-response","rt":null,"stimulus":"<p style=\"color: green; font-size: 50px; font-weight: bold;\">Correct</p>","response":null,"trial_index":196,"plugin_version":"2.1.0","time_elapsed":355925,"subject_id":"91999","group":"Group1","condition":"1_Rep","full_date":"2026-01-27T00:49:11.182Z","date":"2026-01-27","time":"00:49:11"},{"correct_response":"l","task":"test_phase","broad_category":"M","image_png":"M_Marble_06.png","image_id":230,"category_name":"Marble","category":15,"distinct_rating":3.4,"distinct_type":"Bottom","item_type":"Target","rt":2135,"stimulus":"Stimuli_Rocks480/M_Marble_06.png","response":"l","trial_type":"image-keyboard-response","trial_index":197,"plugin_version":"2.1.0","time_elapsed":358070,"subject_id":"91999","group":"Group1","condition":"1_Rep","full_date":"2026-01-27T00:49:11.182Z","date":"2026-01-27","time":"00:49:11","cor_ans":true},{"trial_type":"html-keyboard-response","rt":null,"stimulus":"<p style=\"color: green; font-size: 50px; font-weight: bold;\">Correct</p>","response":null,"trial_index":198,"plugin_version":"2.1.0","time_elapsed":358572,"subject_id":"91999","group":"Group1","condition":"1_Rep","full_date":"2026-01-27T00:49:11.182Z","date":"2026-01-27","time":"00:49:11"},{"correct_response":"l","task":"test_phase","broad_category":"I","image_png":"I_Gabbro_08.png","image_id":56,"category_name":"Gabbro","category":4,"distinct_rating":3.02,"distinct_type":"Bottom","item_type":"Target","rt":3584,"stimulus":"Stimuli_Rocks480/I_Gabbro_08.png","response":"l","trial_type":"image-keyboard-response","trial_index":199,"plugin_version":"2.1.0","time_elapsed":362166,"subject_id":"91999","group":"Group1","condition":"1_Rep","full_date":"2026-01-27T00:49:11.182Z","date":"2026-01-27","time":"00:49:11","cor_ans":true},{"trial_type":"html-keyboard-response","rt":null,"stimulus":"<p style=\"color: green; font-size: 50px; font-weight: bold;\">Correct</p>","response":null,"trial_index":200,"plugin_version":"2.1.0","time_elapsed":362668,"subject_id":"91999","group":"Group1","condition":"1_Rep","full_date":"2026-01-27T00:49:11.182Z","date":"2026-01-27","time":"00:49:11"},{"correct_response":"a","task":"test_phase","broad_category":"M","image_png":"M_Marble_02.png","image_id":226,"category_name":"Marble","category":15,"distinct_rating":3.2,"distinct_type":"Bottom","item_type":"Foil","rt":1250,"stimulus":"Stimuli_Rocks480/M_Marble_02.png","response":"l","trial_type":"image-keyboard-response","trial_index":201,"plugin_version":"2.1.0","time_elapsed":363930,"subject_id":"91999","group":"Group1","condition":"1_Rep","full_date":"2026-01-27T00:49:11.182Z","date":"2026-01-27","time":"00:49:11","cor_ans":false},{"trial_type":"html-keyboard-response","rt":null,"stimulus":"<p style=\"color: red; font-size: 50px; font-weight: bold;\">Incorrect</p>","response":null,"trial_index":202,"plugin_version":"2.1.0","time_elapsed":364431,"subject_id":"91999","group":"Group1","condition":"1_Rep","full_date":"2026-01-27T00:49:11.182Z","date":"2026-01-27","time":"00:49:11"},{"correct_response":"a","task":"test_phase","broad_category":"S","image_png":"S_Shale_07.png","image_id":471,"category_name":"Shale","category":30,"distinct_rating":2.73,"distinct_type":"Bottom","item_type":"Foil","rt":757,"stimulus":"Stimuli_Rocks480/S_Shale_07.png","response":"a","trial_type":"image-keyboard-response","trial_index":203,"plugin_version":"2.1.0","time_elapsed":365199,"subject_id":"91999","group":"Group1","condition":"1_Rep","full_date":"2026-01-27T00:49:11.182Z","date":"2026-01-27","time":"00:49:11","cor_ans":true},{"trial_type":"html-keyboard-response","rt":null,"stimulus":"<p style=\"color: green; font-size: 50px; font-weight: bold;\">Correct</p>","response":null,"trial_index":204,"plugin_version":"2.1.0","time_elapsed":365701,"subject_id":"91999","group":"Group1","condition":"1_Rep","full_date":"2026-01-27T00:49:11.182Z","date":"2026-01-27","time":"00:49:11"},{"correct_response":"a","task":"test_phase","broad_category":"I","image_png":"I_Andesite_03.png","image_id":3,"category_name":"Andesite","category":1,"distinct_rating":3.17,"distinct_type":"Bottom","item_type":"Foil","rt":1048,"stimulus":"Stimuli_Rocks480/I_Andesite_03.png","response":"l","trial_type":"image-keyboard-response","trial_index":205,"plugin_version":"2.1.0","time_elapsed":366759,"subject_id":"91999","group":"Group1","condition":"1_Rep","full_date":"2026-01-27T00:49:11.182Z","date":"2026-01-27","time":"00:49:11","cor_ans":false},{"trial_type":"html-keyboard-response","rt":null,"stimulus":"<p style=\"color: red; font-size: 50px; font-weight: bold;\">Incorrect</p>","response":null,"trial_index":206,"plugin_version":"2.1.0","time_elapsed":367261,"subject_id":"91999","group":"Group1","condition":"1_Rep","full_date":"2026-01-27T00:49:11.182Z","date":"2026-01-27","time":"00:49:11"},{"correct_response":"a","task":"test_phase","broad_category":"I","image_png":"I_Pegmatite_11.png","image_id":107,"category_name":"Pegmatite","category":7,"distinct_rating":7.11,"distinct_type":"Top","item_type":"Foil","rt":17695,"stimulus":"Stimuli_Rocks480/I_Pegmatite_11.png","response":"a","trial_type":"image-keyboard-response","trial_index":207,"plugin_version":"2.1.0","time_elapsed":384972,"subject_id":"91999","group":"Group1","condition":"1_Rep","full_date":"2026-01-27T00:49:11.182Z","date":"2026-01-27","time":"00:49:11","cor_ans":true},{"trial_type":"html-keyboard-response","rt":null,"stimulus":"<p style=\"color: green; font-size: 50px; font-weight: bold;\">Correct</p>","response":null,"trial_index":208,"plugin_version":"2.1.0","time_elapsed":385475,"subject_id":"91999","group":"Group1","condition":"1_Rep","full_date":"2026-01-27T00:49:11.182Z","date":"2026-01-27","time":"00:49:11"},{"correct_response":"l","task":"test_phase","broad_category":"M","image_png":"M_Slate_11.png","image_id":315,"category_name":"Slate","category":20,"distinct_rating":2.75,"distinct_type":"Bottom","item_type":"Target","rt":1730,"stimulus":"Stimuli_Rocks480/M_Slate_11.png","response":"a","trial_type":"image-keyboard-response","trial_index":209,"plugin_version":"2.1.0","time_elapsed":387218,"subject_id":"91999","group":"Group1","condition":"1_Rep","full_date":"2026-01-27T00:49:11.182Z","date":"2026-01-27","time":"00:49:11","cor_ans":false},{"trial_type":"html-keyboard-response","rt":null,"stimulus":"<p style=\"color: red; font-size: 50px; font-weight: bold;\">Incorrect</p>","response":null,"trial_index":210,"plugin_version":"2.1.0","time_elapsed":387720,"subject_id":"91999","group":"Group1","condition":"1_Rep","full_date":"2026-01-27T00:49:11.182Z","date":"2026-01-27","time":"00:49:11"},{"correct_response":"a","task":"test_phase","broad_category":"M","image_png":"M_Phyllite_02.png","image_id":258,"category_name":"Phyllite","category":17,"distinct_rating":2.89,"distinct_type":"Bottom","item_type":"Foil","rt":1224,"stimulus":"Stimuli_Rocks480/M_Phyllite_02.png","response":"a","trial_type":"image-keyboard-response","trial_index":211,"plugin_version":"2.1.0","time_elapsed":388958,"subject_id":"91999","group":"Group1","condition":"1_Rep","full_date":"2026-01-27T00:49:11.182Z","date":"2026-01-27","time":"00:49:11","cor_ans":true},{"trial_type":"html-keyboard-response","rt":null,"stimulus":"<p style=\"color: green; font-size: 50px; font-weight: bold;\">Correct</p>","response":null,"trial_index":212,"plugin_version":"2.1.0","time_elapsed":389461,"subject_id":"91999","group":"Group1","condition":"1_Rep","full_date":"2026-01-27T00:49:11.182Z","date":"2026-01-27","time":"00:49:11"},{"correct_response":"a","task":"test_phase","broad_category":"S","image_png":"S_Shale_02.png","image_id":466,"category_name":"Shale","category":30,"distinct_rating":2.9,"distinct_type":"Bottom","item_type":"Foil","rt":624,"stimulus":"Stimuli_Rocks480/S_Shale_02.png","response":"a","trial_type":"image-keyboard-response","trial_index":213,"plugin_version":"2.1.0","time_elapsed":390097,"subject_id":"91999","group":"Group1","condition":"1_Rep","full_date":"2026-01-27T00:49:11.182Z","date":"2026-01-27","time":"00:49:11","cor_ans":true},{"trial_type":"html-keyboard-response","rt":null,"stimulus":"<p style=\"color: green; font-size: 50px; font-weight: bold;\">Correct</p>","response":null,"trial_index":214,"plugin_version":"2.1.0","time_elapsed":390600,"subject_id":"91999","group":"Group1","condition":"1_Rep","full_date":"2026-01-27T00:49:11.182Z","date":"2026-01-27","time":"00:49:11"},{"correct_response":"a","task":"test_phase","broad_category":"I","image_png":"I_Peridotite_13.png","image_id":125,"category_name":"Peridotite","category":8,"distinct_rating":7.28,"distinct_type":"Top","item_type":"Foil","rt":604,"stimulus":"Stimuli_Rocks480/I_Peridotite_13.png","response":"a","trial_type":"image-keyboard-response","trial_index":215,"plugin_version":"2.1.0","time_elapsed":391218,"subject_id":"91999","group":"Group1","condition":"1_Rep","full_date":"2026-01-27T00:49:11.182Z","date":"2026-01-27","time":"00:49:11","cor_ans":true},{"trial_type":"html-keyboard-response","rt":null,"stimulus":"<p style=\"color: green; font-size: 50px; font-weight: bold;\">Correct</p>","response":null,"trial_index":216,"plugin_version":"2.1.0","time_elapsed":391720,"subject_id":"91999","group":"Group1","condition":"1_Rep","full_date":"2026-01-27T00:49:11.182Z","date":"2026-01-27","time":"00:49:11"},{"correct_response":"l","task":"test_phase","broad_category":"M","image_png":"M_Gneiss_06.png","image_id":198,"category_name":"Gneiss","category":13,"distinct_rating":2.65,"distinct_type":"Bottom","item_type":"Target","rt":647,"stimulus":"Stimuli_Rocks480/M_Gneiss_06.png","response":"l","trial_type":"image-keyboard-response","trial_index":217,"plugin_version":"2.1.0","time_elapsed":392380,"subject_id":"91999","group":"Group1","condition":"1_Rep","full_date":"2026-01-27T00:49:11.182Z","date":"2026-01-27","time":"00:49:11","cor_ans":true},{"trial_type":"html-keyboard-response","rt":null,"stimulus":"<p style=\"color: green; font-size: 50px; font-weight: bold;\">Correct</p>","response":null,"trial_index":218,"plugin_version":"2.1.0","time_elapsed":392882,"subject_id":"91999","group":"Group1","condition":"1_Rep","full_date":"2026-01-27T00:49:11.182Z","date":"2026-01-27","time":"00:49:11"},{"correct_response":"l","task":"test_phase","broad_category":"I","image_png":"I_Obsidian_05.png","image_id":85,"category_name":"Obsidian","category":6,"distinct_rating":7.32,"distinct_type":"Top","item_type":"Target","rt":1164,"stimulus":"Stimuli_Rocks480/I_Obsidian_05.png","response":"l","trial_type":"image-keyboard-response","trial_index":219,"plugin_version":"2.1.0","time_elapsed":394060,"subject_id":"91999","group":"Group1","condition":"1_Rep","full_date":"2026-01-27T00:49:11.182Z","date":"2026-01-27","time":"00:49:11","cor_ans":true},{"trial_type":"html-keyboard-response","rt":null,"stimulus":"<p style=\"color: green; font-size: 50px; font-weight: bold;\">Correct</p>","response":null,"trial_index":220,"plugin_version":"2.1.0","time_elapsed":394562,"subject_id":"91999","group":"Group1","condition":"1_Rep","full_date":"2026-01-27T00:49:11.182Z","date":"2026-01-27","time":"00:49:11"},{"correct_response":"l","task":"test_phase","broad_category":"S","image_png":"S_Conglomerate_05.png","image_id":373,"category_name":"Conglomerate","category":24,"distinct_rating":7.32,"distinct_type":"Top","item_type":"Target","rt":1013,"stimulus":"Stimuli_Rocks480/S_Conglomerate_05.png","response":"l","trial_type":"image-keyboard-response","trial_index":221,"plugin_version":"2.1.0","time_elapsed":395587,"subject_id":"91999","group":"Group1","condition":"1_Rep","full_date":"2026-01-27T00:49:11.182Z","date":"2026-01-27","time":"00:49:11","cor_ans":true},{"trial_type":"html-keyboard-response","rt":null,"stimulus":"<p style=\"color: green; font-size: 50px; font-weight: bold;\">Correct</p>","response":null,"trial_index":222,"plugin_version":"2.1.0","time_elapsed":396089,"subject_id":"91999","group":"Group1","condition":"1_Rep","full_date":"2026-01-27T00:49:11.182Z","date":"2026-01-27","time":"00:49:11"},{"correct_response":"a","task":"test_phase","broad_category":"M","image_png":"M_Quartzite_12.png","image_id":284,"category_name":"Quartzite","category":18,"distinct_rating":1.92,"distinct_type":"Bottom","item_type":"Foil","rt":762,"stimulus":"Stimuli_Rocks480/M_Quartzite_12.png","response":"l","trial_type":"image-keyboard-response","trial_index":223,"plugin_version":"2.1.0","time_elapsed":396861,"subject_id":"91999","group":"Group1","condition":"1_Rep","full_date":"2026-01-27T00:49:11.182Z","date":"2026-01-27","time":"00:49:11","cor_ans":false},{"trial_type":"html-keyboard-response","rt":null,"stimulus":"<p style=\"color: red; font-size: 50px; font-weight: bold;\">Incorrect</p>","response":null,"trial_index":224,"plugin_version":"2.1.0","time_elapsed":397363,"subject_id":"91999","group":"Group1","condition":"1_Rep","full_date":"2026-01-27T00:49:11.182Z","date":"2026-01-27","time":"00:49:11"},{"correct_response":"a","task":"test_phase","broad_categ