[{"width":1382,"height":724,"webaudio":true,"browser":"safari","browser_version":"26.2.0","mobile":false,"os":"Mac OS","fullscreen":true,"vsync_rate":59.94,"webcam":true,"microphone":true,"trial_type":"browser-check","trial_index":0,"plugin_version":"2.1.0","time_elapsed":1011,"subject_id":"91548","group":"Group2","condition":"3_Rep","full_date":"2026-01-31T16:52:06.942Z","date":"2026-01-31","time":"16:52:06"},{"success":true,"timeout":false,"failed_images":[],"failed_audio":[],"failed_video":[],"trial_type":"preload","trial_index":1,"plugin_version":"2.1.0","time_elapsed":2859,"subject_id":"91548","group":"Group2","condition":"3_Rep","full_date":"2026-01-31T16:52:06.942Z","date":"2026-01-31","time":"16:52:06"},{"rt":3868,"url":"SONA_consent_memorability.html","trial_type":"external-html","trial_index":2,"plugin_version":"2.1.0","time_elapsed":6777,"subject_id":"91548","group":"Group2","condition":"3_Rep","full_date":"2026-01-31T16:52:06.942Z","date":"2026-01-31","time":"16:52:06"},{"success":true,"rt":1082,"trial_type":"fullscreen","trial_index":3,"plugin_version":"2.1.0","time_elapsed":8863,"subject_id":"91548","group":"Group2","condition":"3_Rep","full_date":"2026-01-31T16:52:06.942Z","date":"2026-01-31","time":"16:52:06"},{"rt":3128,"stimulus":"<div style=\"max-width: 760px; margin: auto; font-size: 20px; line-height: 1.5;\">\n      <h1 style=\"text-align:center; font-size: 30px;\">Instructions</h1>\n      <p>\n        Welcome to the study on <b>visual memory</b>. This experiment consists of <b>two phases</b>: \n        a <b>study phase</b> and a <b>test phase</b>.\n      </p>\n      <p>\n        In the study phase, you will see a series of rock images along with their category labels.\n        The images will appear one at a time.\n        <b>Your task</b> is to learn the categories to which the rock images belong \n        and to remember each image as accurately as possible.\n      </p> \n      <p>\n        Note that we will repeat the study phase <b>3 times</b>, \n             so you will have multiple opportunities to see and remember each image.\n      </p>\n      <p>\n        After the study phase, <b>your memory will be tested</b>. \n        Additional instructions for the test phase will be provided at that time.\n      </p>\n      <p>\n        If your computer has multiple <b>language settings</b> (e.g., English and another language),\n        please make sure it is set to English before starting.\n      </p>\n      <p>\n        You can track your progress using the <b>completion bar</b> at the top of the screen. \n        Please note that the bar will refresh when the test phase begins \n        to give you an accurate sense of your progress in both phases.\n      </p> \n      <p>\n        Press the button below when you are ready to begin.\n      </p>\n    </div>","response":0,"trial_type":"html-button-response","trial_index":4,"plugin_version":"2.1.0","time_elapsed":11995,"subject_id":"91548","group":"Group2","condition":"3_Rep","full_date":"2026-01-31T16:52:06.942Z","date":"2026-01-31","time":"16:52:06"},{"rt":null,"stimulus":"<p style=\"font-size: 50px; margin: 0; text-align: center;\">+</p>","response":null,"trial_type":"html-keyboard-response","trial_index":5,"plugin_version":"2.1.0","time_elapsed":13001,"subject_id":"91548","group":"Group2","condition":"3_Rep","full_date":"2026-01-31T16:52:06.942Z","date":"2026-01-31","time":"16:52:06"},{"task":"memory_phase","broad_category":"S","image_png":"S_Dolomite_07.png","image_id":391,"category_name":"Dolomite","category":25,"distinct_rating":1.73,"distinct_type":"Bottom","rt":null,"stimulus":"Stimuli_Rocks480/S_Dolomite_07.png","response":null,"trial_type":"image-keyboard-response","trial_index":6,"plugin_version":"2.1.0","time_elapsed":15522,"subject_id":"91548","group":"Group2","condition":"3_Rep","full_date":"2026-01-31T16:52:06.942Z","date":"2026-01-31","time":"16:52:06"},{"rt":null,"stimulus":"<p style=\"font-size: 50px; margin: 0; text-align: center;\">+</p>","response":null,"trial_type":"html-keyboard-response","trial_index":7,"plugin_version":"2.1.0","time_elapsed":16525,"subject_id":"91548","group":"Group2","condition":"3_Rep","full_date":"2026-01-31T16:52:06.942Z","date":"2026-01-31","time":"16:52:06"},{"task":"memory_phase","broad_category":"S","image_png":"S_Rock Salt_15.png","image_id":447,"category_name":"Rock Salt","category":28,"distinct_rating":7.79,"distinct_type":"Top","rt":null,"stimulus":"Stimuli_Rocks480/S_Rock Salt_15.png","response":null,"trial_type":"image-keyboard-response","trial_index":8,"plugin_version":"2.1.0","time_elapsed":19041,"subject_id":"91548","group":"Group2","condition":"3_Rep","full_date":"2026-01-31T16:52:06.942Z","date":"2026-01-31","time":"16:52:06"},{"rt":null,"stimulus":"<p style=\"font-size: 50px; margin: 0; text-align: center;\">+</p>","response":null,"trial_type":"html-keyboard-response","trial_index":9,"plugin_version":"2.1.0","time_elapsed":20043,"subject_id":"91548","group":"Group2","condition":"3_Rep","full_date":"2026-01-31T16:52:06.942Z","date":"2026-01-31","time":"16:52:06"},{"task":"memory_phase","broad_category":"S","image_png":"S_Dolomite_01.png","image_id":385,"category_name":"Dolomite","category":25,"distinct_rating":1.43,"distinct_type":"Bottom","rt":null,"stimulus":"Stimuli_Rocks480/S_Dolomite_01.png","response":null,"trial_type":"image-keyboard-response","trial_index":10,"plugin_version":"2.1.0","time_elapsed":22565,"subject_id":"91548","group":"Group2","condition":"3_Rep","full_date":"2026-01-31T16:52:06.942Z","date":"2026-01-31","time":"16:52:06"},{"rt":null,"stimulus":"<p style=\"font-size: 50px; margin: 0; text-align: center;\">+</p>","response":null,"trial_type":"html-keyboard-response","trial_index":11,"plugin_version":"2.1.0","time_elapsed":23568,"subject_id":"91548","group":"Group2","condition":"3_Rep","full_date":"2026-01-31T16:52:06.942Z","date":"2026-01-31","time":"16:52:06"},{"task":"memory_phase","broad_category":"I","image_png":"I_Basalt_08.png","image_id":24,"category_name":"Basalt","category":2,"distinct_rating":2.31,"distinct_type":"Bottom","rt":null,"stimulus":"Stimuli_Rocks480/I_Basalt_08.png","response":null,"trial_type":"image-keyboard-response","trial_index":12,"plugin_version":"2.1.0","time_elapsed":26094,"subject_id":"91548","group":"Group2","condition":"3_Rep","full_date":"2026-01-31T16:52:06.942Z","date":"2026-01-31","time":"16:52:06"},{"rt":null,"stimulus":"<p style=\"font-size: 50px; margin: 0; text-align: center;\">+</p>","response":null,"trial_type":"html-keyboard-response","trial_index":13,"plugin_version":"2.1.0","time_elapsed":27098,"subject_id":"91548","group":"Group2","condition":"3_Rep","full_date":"2026-01-31T16:52:06.942Z","date":"2026-01-31","time":"16:52:06"},{"task":"memory_phase","broad_category":"S","image_png":"S_Sandstone_11.png","image_id":459,"category_name":"Sandstone","category":29,"distinct_rating":1.82,"distinct_type":"Bottom","rt":null,"stimulus":"Stimuli_Rocks480/S_Sandstone_11.png","response":null,"trial_type":"image-keyboard-response","trial_index":14,"plugin_version":"2.1.0","time_elapsed":29621,"subject_id":"91548","group":"Group2","condition":"3_Rep","full_date":"2026-01-31T16:52:06.942Z","date":"2026-01-31","time":"16:52:06"},{"rt":null,"stimulus":"<p style=\"font-size: 50px; margin: 0; text-align: center;\">+</p>","response":null,"trial_type":"html-keyboard-response","trial_index":15,"plugin_version":"2.1.0","time_elapsed":30624,"subject_id":"91548","group":"Group2","condition":"3_Rep","full_date":"2026-01-31T16:52:06.942Z","date":"2026-01-31","time":"16:52:06"},{"task":"memory_phase","broad_category":"M","image_png":"M_Marble_14.png","image_id":238,"category_name":"Marble","category":15,"distinct_rating":3.31,"distinct_type":"Bottom","rt":null,"stimulus":"Stimuli_Rocks480/M_Marble_14.png","response":null,"trial_type":"image-keyboard-response","trial_index":16,"plugin_version":"2.1.0","time_elapsed":33142,"subject_id":"91548","group":"Group2","condition":"3_Rep","full_date":"2026-01-31T16:52:06.942Z","date":"2026-01-31","time":"16:52:06"},{"rt":null,"stimulus":"<p style=\"font-size: 50px; margin: 0; text-align: center;\">+</p>","response":null,"trial_type":"html-keyboard-response","trial_index":17,"plugin_version":"2.1.0","time_elapsed":34146,"subject_id":"91548","group":"Group2","condition":"3_Rep","full_date":"2026-01-31T16:52:06.942Z","date":"2026-01-31","time":"16:52:06"},{"task":"memory_phase","broad_category":"I","image_png":"I_Gabbro_14.png","image_id":62,"category_name":"Gabbro","category":4,"distinct_rating":2.95,"distinct_type":"Bottom","rt":null,"stimulus":"Stimuli_Rocks480/I_Gabbro_14.png","response":null,"trial_type":"image-keyboard-response","trial_index":18,"plugin_version":"2.1.0","time_elapsed":36668,"subject_id":"91548","group":"Group2","condition":"3_Rep","full_date":"2026-01-31T16:52:06.942Z","date":"2026-01-31","time":"16:52:06"},{"rt":null,"stimulus":"<p style=\"font-size: 50px; margin: 0; text-align: center;\">+</p>","response":null,"trial_type":"html-keyboard-response","trial_index":19,"plugin_version":"2.1.0","time_elapsed":37671,"subject_id":"91548","group":"Group2","condition":"3_Rep","full_date":"2026-01-31T16:52:06.942Z","date":"2026-01-31","time":"16:52:06"},{"task":"memory_phase","broad_category":"I","image_png":"I_Pumice_01.png","image_id":129,"category_name":"Pumice","category":9,"distinct_rating":3.25,"distinct_type":"Bottom","rt":null,"stimulus":"Stimuli_Rocks480/I_Pumice_01.png","response":null,"trial_type":"image-keyboard-response","trial_index":20,"plugin_version":"2.1.0","time_elapsed":40191,"subject_id":"91548","group":"Group2","condition":"3_Rep","full_date":"2026-01-31T16:52:06.942Z","date":"2026-01-31","time":"16:52:06"},{"rt":null,"stimulus":"<p style=\"font-size: 50px; margin: 0; text-align: center;\">+</p>","response":null,"trial_type":"html-keyboard-response","trial_index":21,"plugin_version":"2.1.0","time_elapsed":41194,"subject_id":"91548","group":"Group2","condition":"3_Rep","full_date":"2026-01-31T16:52:06.942Z","date":"2026-01-31","time":"16:52:06"},{"task":"memory_phase","broad_category":"I","image_png":"I_Andesite_04.png","image_id":4,"category_name":"Andesite","category":1,"distinct_rating":3.18,"distinct_type":"Bottom","rt":null,"stimulus":"Stimuli_Rocks480/I_Andesite_04.png","response":null,"trial_type":"image-keyboard-response","trial_index":22,"plugin_version":"2.1.0","time_elapsed":43710,"subject_id":"91548","group":"Group2","condition":"3_Rep","full_date":"2026-01-31T16:52:06.942Z","date":"2026-01-31","time":"16:52:06"},{"rt":null,"stimulus":"<p style=\"font-size: 50px; margin: 0; text-align: center;\">+</p>","response":null,"trial_type":"html-keyboard-response","trial_index":23,"plugin_version":"2.1.0","time_elapsed":44713,"subject_id":"91548","group":"Group2","condition":"3_Rep","full_date":"2026-01-31T16:52:06.942Z","date":"2026-01-31","time":"16:52:06"},{"task":"memory_phase","broad_category":"I","image_png":"I_Diorite_10.png","image_id":42,"category_name":"Diorite","category":3,"distinct_rating":2.84,"distinct_type":"Bottom","rt":null,"stimulus":"Stimuli_Rocks480/I_Diorite_10.png","response":null,"trial_type":"image-keyboard-response","trial_index":24,"plugin_version":"2.1.0","time_elapsed":47234,"subject_id":"91548","group":"Group2","condition":"3_Rep","full_date":"2026-01-31T16:52:06.942Z","date":"2026-01-31","time":"16:52:06"},{"rt":null,"stimulus":"<p style=\"font-size: 50px; margin: 0; text-align: center;\">+</p>","response":null,"trial_type":"html-keyboard-response","trial_index":25,"plugin_version":"2.1.0","time_elapsed":48236,"subject_id":"91548","group":"Group2","condition":"3_Rep","full_date":"2026-01-31T16:52:06.942Z","date":"2026-01-31","time":"16:52:06"},{"task":"memory_phase","broad_category":"M","image_png":"M_Quartzite_07.png","image_id":279,"category_name":"Quartzite","category":18,"distinct_rating":1.97,"distinct_type":"Bottom","rt":null,"stimulus":"Stimuli_Rocks480/M_Quartzite_07.png","response":null,"trial_type":"image-keyboard-response","trial_index":26,"plugin_version":"2.1.0","time_elapsed":50756,"subject_id":"91548","group":"Group2","condition":"3_Rep","full_date":"2026-01-31T16:52:06.942Z","date":"2026-01-31","time":"16:52:06"},{"rt":null,"stimulus":"<p style=\"font-size: 50px; margin: 0; text-align: center;\">+</p>","response":null,"trial_type":"html-keyboard-response","trial_index":27,"plugin_version":"2.1.0","time_elapsed":51759,"subject_id":"91548","group":"Group2","condition":"3_Rep","full_date":"2026-01-31T16:52:06.942Z","date":"2026-01-31","time":"16:52:06"},{"task":"memory_phase","broad_category":"S","image_png":"S_Shale_02.png","image_id":466,"category_name":"Shale","category":30,"distinct_rating":2.9,"distinct_type":"Bottom","rt":null,"stimulus":"Stimuli_Rocks480/S_Shale_02.png","response":null,"trial_type":"image-keyboard-response","trial_index":28,"plugin_version":"2.1.0","time_elapsed":54275,"subject_id":"91548","group":"Group2","condition":"3_Rep","full_date":"2026-01-31T16:52:06.942Z","date":"2026-01-31","time":"16:52:06"},{"rt":null,"stimulus":"<p style=\"font-size: 50px; margin: 0; text-align: center;\">+</p>","response":null,"trial_type":"html-keyboard-response","trial_index":29,"plugin_version":"2.1.0","time_elapsed":55278,"subject_id":"91548","group":"Group2","condition":"3_Rep","full_date":"2026-01-31T16:52:06.942Z","date":"2026-01-31","time":"16:52:06"},{"task":"memory_phase","broad_category":"I","image_png":"I_Rhyolite_05.png","image_id":149,"category_name":"Rhyolite","category":10,"distinct_rating":3.02,"distinct_type":"Bottom","rt":null,"stimulus":"Stimuli_Rocks480/I_Rhyolite_05.png","response":null,"trial_type":"image-keyboard-response","trial_index":30,"plugin_version":"2.1.0","time_elapsed":57801,"subject_id":"91548","group":"Group2","condition":"3_Rep","full_date":"2026-01-31T16:52:06.942Z","date":"2026-01-31","time":"16:52:06"},{"rt":null,"stimulus":"<p style=\"font-size: 50px; margin: 0; text-align: center;\">+</p>","response":null,"trial_type":"html-keyboard-response","trial_index":31,"plugin_version":"2.1.0","time_elapsed":58804,"subject_id":"91548","group":"Group2","condition":"3_Rep","full_date":"2026-01-31T16:52:06.942Z","date":"2026-01-31","time":"16:52:06"},{"task":"memory_phase","broad_category":"I","image_png":"I_Pegmatite_11.png","image_id":107,"category_name":"Pegmatite","category":7,"distinct_rating":7.11,"distinct_type":"Top","rt":null,"stimulus":"Stimuli_Rocks480/I_Pegmatite_11.png","response":null,"trial_type":"image-keyboard-response","trial_index":32,"plugin_version":"2.1.0","time_elapsed":61329,"subject_id":"91548","group":"Group2","condition":"3_Rep","full_date":"2026-01-31T16:52:06.942Z","date":"2026-01-31","time":"16:52:06"},{"rt":null,"stimulus":"<p style=\"font-size: 50px; margin: 0; text-align: center;\">+</p>","response":null,"trial_type":"html-keyboard-response","trial_index":33,"plugin_version":"2.1.0","time_elapsed":62332,"subject_id":"91548","group":"Group2","condition":"3_Rep","full_date":"2026-01-31T16:52:06.942Z","date":"2026-01-31","time":"16:52:06"},{"task":"memory_phase","broad_category":"S","image_png":"S_Sandstone_04.png","image_id":452,"category_name":"Sandstone","category":29,"distinct_rating":1.8,"distinct_type":"Bottom","rt":null,"stimulus":"Stimuli_Rocks480/S_Sandstone_04.png","response":null,"trial_type":"image-keyboard-response","trial_index":34,"plugin_version":"2.1.0","time_elapsed":64851,"subject_id":"91548","group":"Group2","condition":"3_Rep","full_date":"2026-01-31T16:52:06.942Z","date":"2026-01-31","time":"16:52:06"},{"rt":null,"stimulus":"<p style=\"font-size: 50px; margin: 0; text-align: center;\">+</p>","response":null,"trial_type":"html-keyboard-response","trial_index":35,"plugin_version":"2.1.0","time_elapsed":65854,"subject_id":"91548","group":"Group2","condition":"3_Rep","full_date":"2026-01-31T16:52:06.942Z","date":"2026-01-31","time":"16:52:06"},{"task":"memory_phase","broad_category":"S","image_png":"S_Shale_03.png","image_id":467,"category_name":"Shale","category":30,"distinct_rating":1.95,"distinct_type":"Bottom","rt":null,"stimulus":"Stimuli_Rocks480/S_Shale_03.png","response":null,"trial_type":"image-keyboard-response","trial_index":36,"plugin_version":"2.1.0","time_elapsed":68377,"subject_id":"91548","group":"Group2","condition":"3_Rep","full_date":"2026-01-31T16:52:06.942Z","date":"2026-01-31","time":"16:52:06"},{"rt":null,"stimulus":"<p style=\"font-size: 50px; margin: 0; text-align: center;\">+</p>","response":null,"trial_type":"html-keyboard-response","trial_index":37,"plugin_version":"2.1.0","time_elapsed":69380,"subject_id":"91548","group":"Group2","condition":"3_Rep","full_date":"2026-01-31T16:52:06.942Z","date":"2026-01-31","time":"16:52:06"},{"task":"memory_phase","broad_category":"S","image_png":"S_Dolomite_16.png","image_id":400,"category_name":"Dolomite","category":25,"distinct_rating":1.71,"distinct_type":"Bottom","rt":null,"stimulus":"Stimuli_Rocks480/S_Dolomite_16.png","response":null,"trial_type":"image-keyboard-response","trial_index":38,"plugin_version":"2.1.0","time_elapsed":71896,"subject_id":"91548","group":"Group2","condition":"3_Rep","full_date":"2026-01-31T16:52:06.942Z","date":"2026-01-31","time":"16:52:06"},{"rt":null,"stimulus":"<p style=\"font-size: 50px; margin: 0; text-align: center;\">+</p>","response":null,"trial_type":"html-keyboard-response","trial_index":39,"plugin_version":"2.1.0","time_elapsed":72899,"subject_id":"91548","group":"Group2","condition":"3_Rep","full_date":"2026-01-31T16:52:06.942Z","date":"2026-01-31","time":"16:52:06"},{"task":"memory_phase","broad_category":"S","image_png":"S_Conglomerate_14.png","image_id":382,"category_name":"Conglomerate","category":24,"distinct_rating":6.86,"distinct_type":"Top","rt":null,"stimulus":"Stimuli_Rocks480/S_Conglomerate_14.png","response":null,"trial_type":"image-keyboard-response","trial_index":40,"plugin_version":"2.1.0","time_elapsed":75420,"subject_id":"91548","group":"Group2","condition":"3_Rep","full_date":"2026-01-31T16:52:06.942Z","date":"2026-01-31","time":"16:52:06"},{"rt":null,"stimulus":"<p style=\"font-size: 50px; margin: 0; text-align: center;\">+</p>","response":null,"trial_type":"html-keyboard-response","trial_index":41,"plugin_version":"2.1.0","time_elapsed":76425,"subject_id":"91548","group":"Group2","condition":"3_Rep","full_date":"2026-01-31T16:52:06.942Z","date":"2026-01-31","time":"16:52:06"},{"task":"memory_phase","broad_category":"I","image_png":"I_Rhyolite_08.png","image_id":152,"category_name":"Rhyolite","category":10,"distinct_rating":1.38,"distinct_type":"Bottom","rt":null,"stimulus":"Stimuli_Rocks480/I_Rhyolite_08.png","response":null,"trial_type":"image-keyboard-response","trial_index":42,"plugin_version":"2.1.0","time_elapsed":78942,"subject_id":"91548","group":"Group2","condition":"3_Rep","full_date":"2026-01-31T16:52:06.942Z","date":"2026-01-31","time":"16:52:06"},{"rt":null,"stimulus":"<p style=\"font-size: 50px; margin: 0; text-align: center;\">+</p>","response":null,"trial_type":"html-keyboard-response","trial_index":43,"plugin_version":"2.1.0","time_elapsed":79946,"subject_id":"91548","group":"Group2","condition":"3_Rep","full_date":"2026-01-31T16:52:06.942Z","date":"2026-01-31","time":"16:52:06"},{"task":"memory_phase","broad_category":"S","image_png":"S_Shale_07.png","image_id":471,"category_name":"Shale","category":30,"distinct_rating":2.73,"distinct_type":"Bottom","rt":null,"stimulus":"Stimuli_Rocks480/S_Shale_07.png","response":null,"trial_type":"image-keyboard-response","trial_index":44,"plugin_version":"2.1.0","time_elapsed":82463,"subject_id":"91548","group":"Group2","condition":"3_Rep","full_date":"2026-01-31T16:52:06.942Z","date":"2026-01-31","time":"16:52:06"},{"rt":null,"stimulus":"<p style=\"font-size: 50px; margin: 0; text-align: center;\">+</p>","response":null,"trial_type":"html-keyboard-response","trial_index":45,"plugin_version":"2.1.0","time_elapsed":83466,"subject_id":"91548","group":"Group2","condition":"3_Rep","full_date":"2026-01-31T16:52:06.942Z","date":"2026-01-31","time":"16:52:06"},{"task":"memory_phase","broad_category":"I","image_png":"I_Diorite_15.png","image_id":47,"category_name":"Diorite","category":3,"distinct_rating":3.05,"distinct_type":"Bottom","rt":null,"stimulus":"Stimuli_Rocks480/I_Diorite_15.png","response":null,"trial_type":"image-keyboard-response","trial_index":46,"plugin_version":"2.1.0","time_elapsed":85981,"subject_id":"91548","group":"Group2","condition":"3_Rep","full_date":"2026-01-31T16:52:06.942Z","date":"2026-01-31","time":"16:52:06"},{"rt":null,"stimulus":"<p style=\"font-size: 50px; margin: 0; text-align: center;\">+</p>","response":null,"trial_type":"html-keyboard-response","trial_index":47,"plugin_version":"2.1.0","time_elapsed":86984,"subject_id":"91548","group":"Group2","condition":"3_Rep","full_date":"2026-01-31T16:52:06.942Z","date":"2026-01-31","time":"16:52:06"},{"task":"memory_phase","broad_category":"I","image_png":"I_Andesite_09.png","image_id":9,"category_name":"Andesite","category":1,"distinct_rating":2.49,"distinct_type":"Bottom","rt":null,"stimulus":"Stimuli_Rocks480/I_Andesite_09.png","response":null,"trial_type":"image-keyboard-response","trial_index":48,"plugin_version":"2.1.0","time_elapsed":89503,"subject_id":"91548","group":"Group2","condition":"3_Rep","full_date":"2026-01-31T16:52:06.942Z","date":"2026-01-31","time":"16:52:06"},{"rt":null,"stimulus":"<p style=\"font-size: 50px; margin: 0; text-align: center;\">+</p>","response":null,"trial_type":"html-keyboard-response","trial_index":49,"plugin_version":"2.1.0","time_elapsed":90506,"subject_id":"91548","group":"Group2","condition":"3_Rep","full_date":"2026-01-31T16:52:06.942Z","date":"2026-01-31","time":"16:52:06"},{"task":"memory_phase","broad_category":"M","image_png":"M_Marble_03.png","image_id":227,"category_name":"Marble","category":15,"distinct_rating":2.67,"distinct_type":"Bottom","rt":null,"stimulus":"Stimuli_Rocks480/M_Marble_03.png","response":null,"trial_type":"image-keyboard-response","trial_index":50,"plugin_version":"2.1.0","time_elapsed":93023,"subject_id":"91548","group":"Group2","condition":"3_Rep","full_date":"2026-01-31T16:52:06.942Z","date":"2026-01-31","time":"16:52:06"},{"rt":null,"stimulus":"<p style=\"font-size: 50px; margin: 0; text-align: center;\">+</p>","response":null,"trial_type":"html-keyboard-response","trial_index":51,"plugin_version":"2.1.0","time_elapsed":94026,"subject_id":"91548","group":"Group2","condition":"3_Rep","full_date":"2026-01-31T16:52:06.942Z","date":"2026-01-31","time":"16:52:06"},{"task":"memory_phase","broad_category":"M","image_png":"M_Gneiss_15.png","image_id":207,"category_name":"Gneiss","category":13,"distinct_rating":3.11,"distinct_type":"Bottom","rt":null,"stimulus":"Stimuli_Rocks480/M_Gneiss_15.png","response":null,"trial_type":"image-keyboard-response","trial_index":52,"plugin_version":"2.1.0","time_elapsed":96539,"subject_id":"91548","group":"Group2","condition":"3_Rep","full_date":"2026-01-31T16:52:06.942Z","date":"2026-01-31","time":"16:52:06"},{"rt":null,"stimulus":"<p style=\"font-size: 50px; margin: 0; text-align: center;\">+</p>","response":null,"trial_type":"html-keyboard-response","trial_index":53,"plugin_version":"2.1.0","time_elapsed":97542,"subject_id":"91548","group":"Group2","condition":"3_Rep","full_date":"2026-01-31T16:52:06.942Z","date":"2026-01-31","time":"16:52:06"},{"task":"memory_phase","broad_category":"M","image_png":"M_Marble_02.png","image_id":226,"category_name":"Marble","category":15,"distinct_rating":3.2,"distinct_type":"Bottom","rt":null,"stimulus":"Stimuli_Rocks480/M_Marble_02.png","response":null,"trial_type":"image-keyboard-response","trial_index":54,"plugin_version":"2.1.0","time_elapsed":100058,"subject_id":"91548","group":"Group2","condition":"3_Rep","full_date":"2026-01-31T16:52:06.942Z","date":"2026-01-31","time":"16:52:06"},{"rt":1914,"stimulus":"<p style=\"max-width: 760px; margin: auto; font-size: 35px; line-height: 1.5;\">\n                Press SPACE to continue study phase\n              </p>","response":" ","trial_type":"html-keyboard-response","trial_index":55,"plugin_version":"2.1.0","time_elapsed":101975,"subject_id":"91548","group":"Group2","condition":"3_Rep","full_date":"2026-01-31T16:52:06.942Z","date":"2026-01-31","time":"16:52:06"},{"rt":null,"stimulus":"<p style=\"font-size: 50px; margin: 0; text-align: center;\">+</p>","response":null,"trial_type":"html-keyboard-response","trial_index":56,"plugin_version":"2.1.0","time_elapsed":102979,"subject_id":"91548","group":"Group2","condition":"3_Rep","full_date":"2026-01-31T16:52:06.942Z","date":"2026-01-31","time":"16:52:06"},{"task":"memory_phase","broad_category":"M","image_png":"M_Quartzite_12.png","image_id":284,"category_name":"Quartzite","category":18,"distinct_rating":1.92,"distinct_type":"Bottom","rt":null,"stimulus":"Stimuli_Rocks480/M_Quartzite_12.png","response":null,"trial_type":"image-keyboard-response","trial_index":57,"plugin_version":"2.1.0","time_elapsed":105495,"subject_id":"91548","group":"Group2","condition":"3_Rep","full_date":"2026-01-31T16:52:06.942Z","date":"2026-01-31","time":"16:52:06"},{"rt":null,"stimulus":"<p style=\"font-size: 50px; margin: 0; text-align: center;\">+</p>","response":null,"trial_type":"html-keyboard-response","trial_index":58,"plugin_version":"2.1.0","time_elapsed":106498,"subject_id":"91548","group":"Group2","condition":"3_Rep","full_date":"2026-01-31T16:52:06.942Z","date":"2026-01-31","time":"16:52:06"},{"task":"memory_phase","broad_category":"M","image_png":"M_Slate_10.png","image_id":314,"category_name":"Slate","category":20,"distinct_rating":1.94,"distinct_type":"Bottom","rt":null,"stimulus":"Stimuli_Rocks480/M_Slate_10.png","response":null,"trial_type":"image-keyboard-response","trial_index":59,"plugin_version":"2.1.0","time_elapsed":109010,"subject_id":"91548","group":"Group2","condition":"3_Rep","full_date":"2026-01-31T16:52:06.942Z","date":"2026-01-31","time":"16:52:06"},{"rt":null,"stimulus":"<p style=\"font-size: 50px; margin: 0; text-align: center;\">+</p>","response":null,"trial_type":"html-keyboard-response","trial_index":60,"plugin_version":"2.1.0","time_elapsed":110012,"subject_id":"91548","group":"Group2","condition":"3_Rep","full_date":"2026-01-31T16:52:06.942Z","date":"2026-01-31","time":"16:52:06"},{"task":"memory_phase","broad_category":"M","image_png":"M_Phyllite_02.png","image_id":258,"category_name":"Phyllite","category":17,"distinct_rating":2.89,"distinct_type":"Bottom","rt":null,"stimulus":"Stimuli_Rocks480/M_Phyllite_02.png","response":null,"trial_type":"image-keyboard-response","trial_index":61,"plugin_version":"2.1.0","time_elapsed":112533,"subject_id":"91548","group":"Group2","condition":"3_Rep","full_date":"2026-01-31T16:52:06.942Z","date":"2026-01-31","time":"16:52:06"},{"rt":null,"stimulus":"<p style=\"font-size: 50px; margin: 0; text-align: center;\">+</p>","response":null,"trial_type":"html-keyboard-response","trial_index":62,"plugin_version":"2.1.0","time_elapsed":113536,"subject_id":"91548","group":"Group2","condition":"3_Rep","full_date":"2026-01-31T16:52:06.942Z","date":"2026-01-31","time":"16:52:06"},{"task":"memory_phase","broad_category":"I","image_png":"I_Peridotite_13.png","image_id":125,"category_name":"Peridotite","category":8,"distinct_rating":7.28,"distinct_type":"Top","rt":null,"stimulus":"Stimuli_Rocks480/I_Peridotite_13.png","response":null,"trial_type":"image-keyboard-response","trial_index":63,"plugin_version":"2.1.0","time_elapsed":116061,"subject_id":"91548","group":"Group2","condition":"3_Rep","full_date":"2026-01-31T16:52:06.942Z","date":"2026-01-31","time":"16:52:06"},{"rt":null,"stimulus":"<p style=\"font-size: 50px; margin: 0; text-align: center;\">+</p>","response":null,"trial_type":"html-keyboard-response","trial_index":64,"plugin_version":"2.1.0","time_elapsed":117062,"subject_id":"91548","group":"Group2","condition":"3_Rep","full_date":"2026-01-31T16:52:06.942Z","date":"2026-01-31","time":"16:52:06"},{"task":"memory_phase","broad_category":"I","image_png":"I_Gabbro_12.png","image_id":60,"category_name":"Gabbro","category":4,"distinct_rating":2.6,"distinct_type":"Bottom","rt":null,"stimulus":"Stimuli_Rocks480/I_Gabbro_12.png","response":null,"trial_type":"image-keyboard-response","trial_index":65,"plugin_version":"2.1.0","time_elapsed":119584,"subject_id":"91548","group":"Group2","condition":"3_Rep","full_date":"2026-01-31T16:52:06.942Z","date":"2026-01-31","time":"16:52:06"},{"rt":null,"stimulus":"<p style=\"font-size: 50px; margin: 0; text-align: center;\">+</p>","response":null,"trial_type":"html-keyboard-response","trial_index":66,"plugin_version":"2.1.0","time_elapsed":120587,"subject_id":"91548","group":"Group2","condition":"3_Rep","full_date":"2026-01-31T16:52:06.942Z","date":"2026-01-31","time":"16:52:06"},{"task":"memory_phase","broad_category":"M","image_png":"M_Phyllite_05.png","image_id":261,"category_name":"Phyllite","category":17,"distinct_rating":2.14,"distinct_type":"Bottom","rt":null,"stimulus":"Stimuli_Rocks480/M_Phyllite_05.png","response":null,"trial_type":"image-keyboard-response","trial_index":67,"plugin_version":"2.1.0","time_elapsed":123104,"subject_id":"91548","group":"Group2","condition":"3_Rep","full_date":"2026-01-31T16:52:06.942Z","date":"2026-01-31","time":"16:52:06"},{"rt":null,"stimulus":"<p style=\"font-size: 50px; margin: 0; text-align: center;\">+</p>","response":null,"trial_type":"html-keyboard-response","trial_index":68,"plugin_version":"2.1.0","time_elapsed":124106,"subject_id":"91548","group":"Group2","condition":"3_Rep","full_date":"2026-01-31T16:52:06.942Z","date":"2026-01-31","time":"16:52:06"},{"task":"memory_phase","broad_category":"M","image_png":"M_Gneiss_10.png","image_id":202,"category_name":"Gneiss","category":13,"distinct_rating":3.09,"distinct_type":"Bottom","rt":null,"stimulus":"Stimuli_Rocks480/M_Gneiss_10.png","response":null,"trial_type":"image-keyboard-response","trial_index":69,"plugin_version":"2.1.0","time_elapsed":126625,"subject_id":"91548","group":"Group2","condition":"3_Rep","full_date":"2026-01-31T16:52:06.942Z","date":"2026-01-31","time":"16:52:06"},{"rt":null,"stimulus":"<p style=\"font-size: 50px; margin: 0; text-align: center;\">+</p>","response":null,"trial_type":"html-keyboard-response","trial_index":70,"plugin_version":"2.1.0","time_elapsed":127628,"subject_id":"91548","group":"Group2","condition":"3_Rep","full_date":"2026-01-31T16:52:06.942Z","date":"2026-01-31","time":"16:52:06"},{"task":"memory_phase","broad_category":"M","image_png":"M_Slate_14.png","image_id":318,"category_name":"Slate","category":20,"distinct_rating":2.58,"distinct_type":"Bottom","rt":null,"stimulus":"Stimuli_Rocks480/M_Slate_14.png","response":null,"trial_type":"image-keyboard-response","trial_index":71,"plugin_version":"2.1.0","time_elapsed":130141,"subject_id":"91548","group":"Group2","condition":"3_Rep","full_date":"2026-01-31T16:52:06.942Z","date":"2026-01-31","time":"16:52:06"},{"rt":null,"stimulus":"<p style=\"font-size: 50px; margin: 0; text-align: center;\">+</p>","response":null,"trial_type":"html-keyboard-response","trial_index":72,"plugin_version":"2.1.0","time_elapsed":131144,"subject_id":"91548","group":"Group2","condition":"3_Rep","full_date":"2026-01-31T16:52:06.942Z","date":"2026-01-31","time":"16:52:06"},{"task":"memory_phase","broad_category":"M","image_png":"M_Slate_04.png","image_id":308,"category_name":"Slate","category":20,"distinct_rating":2.2,"distinct_type":"Bottom","rt":null,"stimulus":"Stimuli_Rocks480/M_Slate_04.png","response":null,"trial_type":"image-keyboard-response","trial_index":73,"plugin_version":"2.1.0","time_elapsed":133660,"subject_id":"91548","group":"Group2","condition":"3_Rep","full_date":"2026-01-31T16:52:06.942Z","date":"2026-01-31","time":"16:52:06"},{"rt":null,"stimulus":"<p style=\"font-size: 50px; margin: 0; text-align: center;\">+</p>","response":null,"trial_type":"html-keyboard-response","trial_index":74,"plugin_version":"2.1.0","time_elapsed":134663,"subject_id":"91548","group":"Group2","condition":"3_Rep","full_date":"2026-01-31T16:52:06.942Z","date":"2026-01-31","time":"16:52:06"},{"task":"memory_phase","broad_category":"I","image_png":"I_Obsidian_06.png","image_id":86,"category_name":"Obsidian","category":6,"distinct_rating":8.01,"distinct_type":"Top","rt":null,"stimulus":"Stimuli_Rocks480/I_Obsidian_06.png","response":null,"trial_type":"image-keyboard-response","trial_index":75,"plugin_version":"2.1.0","time_elapsed":137186,"subject_id":"91548","group":"Group2","condition":"3_Rep","full_date":"2026-01-31T16:52:06.942Z","date":"2026-01-31","time":"16:52:06"},{"rt":null,"stimulus":"<p style=\"font-size: 50px; margin: 0; text-align: center;\">+</p>","response":null,"trial_type":"html-keyboard-response","trial_index":76,"plugin_version":"2.1.0","time_elapsed":138189,"subject_id":"91548","group":"Group2","condition":"3_Rep","full_date":"2026-01-31T16:52:06.942Z","date":"2026-01-31","time":"16:52:06"},{"task":"memory_phase","broad_category":"I","image_png":"I_Rhyolite_10.png","image_id":154,"category_name":"Rhyolite","category":10,"distinct_rating":2.88,"distinct_type":"Bottom","rt":null,"stimulus":"Stimuli_Rocks480/I_Rhyolite_10.png","response":null,"trial_type":"image-keyboard-response","trial_index":77,"plugin_version":"2.1.0","time_elapsed":140713,"subject_id":"91548","group":"Group2","condition":"3_Rep","full_date":"2026-01-31T16:52:06.942Z","date":"2026-01-31","time":"16:52:06"},{"rt":null,"stimulus":"<p style=\"font-size: 50px; margin: 0; text-align: center;\">+</p>","response":null,"trial_type":"html-keyboard-response","trial_index":78,"plugin_version":"2.1.0","time_elapsed":141716,"subject_id":"91548","group":"Group2","condition":"3_Rep","full_date":"2026-01-31T16:52:06.942Z","date":"2026-01-31","time":"16:52:06"},{"task":"memory_phase","broad_category":"I","image_png":"I_Gabbro_02.png","image_id":50,"category_name":"Gabbro","category":4,"distinct_rating":2.73,"distinct_type":"Bottom","rt":null,"stimulus":"Stimuli_Rocks480/I_Gabbro_02.png","response":null,"trial_type":"image-keyboard-response","trial_index":79,"plugin_version":"2.1.0","time_elapsed":144234,"subject_id":"91548","group":"Group2","condition":"3_Rep","full_date":"2026-01-31T16:52:06.942Z","date":"2026-01-31","time":"16:52:06"},{"rt":null,"stimulus":"<p style=\"font-size: 50px; margin: 0; text-align: center;\">+</p>","response":null,"trial_type":"html-keyboard-response","trial_index":80,"plugin_version":"2.1.0","time_elapsed":145237,"subject_id":"91548","group":"Group2","condition":"3_Rep","full_date":"2026-01-31T16:52:06.942Z","date":"2026-01-31","time":"16:52:06"},{"task":"memory_phase","broad_category":"M","image_png":"M_Gneiss_14.png","image_id":206,"category_name":"Gneiss","category":13,"distinct_rating":3.41,"distinct_type":"Bottom","rt":null,"stimulus":"Stimuli_Rocks480/M_Gneiss_14.png","response":null,"trial_type":"image-keyboard-response","trial_index":81,"plugin_version":"2.1.0","time_elapsed":147756,"subject_id":"91548","group":"Group2","condition":"3_Rep","full_date":"2026-01-31T16:52:06.942Z","date":"2026-01-31","time":"16:52:06"},{"rt":null,"stimulus":"<p style=\"font-size: 50px; margin: 0; text-align: center;\">+</p>","response":null,"trial_type":"html-keyboard-response","trial_index":82,"plugin_version":"2.1.0","time_elapsed":148758,"subject_id":"91548","group":"Group2","condition":"3_Rep","full_date":"2026-01-31T16:52:06.942Z","date":"2026-01-31","time":"16:52:06"},{"task":"memory_phase","broad_category":"S","image_png":"S_Sandstone_08.png","image_id":456,"category_name":"Sandstone","category":29,"distinct_rating":1.5,"distinct_type":"Bottom","rt":null,"stimulus":"Stimuli_Rocks480/S_Sandstone_08.png","response":null,"trial_type":"image-keyboard-response","trial_index":83,"plugin_version":"2.1.0","time_elapsed":151276,"subject_id":"91548","group":"Group2","condition":"3_Rep","full_date":"2026-01-31T16:52:06.942Z","date":"2026-01-31","time":"16:52:06"},{"rt":null,"stimulus":"<p style=\"font-size: 50px; margin: 0; text-align: center;\">+</p>","response":null,"trial_type":"html-keyboard-response","trial_index":84,"plugin_version":"2.1.0","time_elapsed":152278,"subject_id":"91548","group":"Group2","condition":"3_Rep","full_date":"2026-01-31T16:52:06.942Z","date":"2026-01-31","time":"16:52:06"},{"task":"memory_phase","broad_category":"I","image_png":"I_Diorite_01.png","image_id":33,"category_name":"Diorite","category":3,"distinct_rating":2.97,"distinct_type":"Bottom","rt":null,"stimulus":"Stimuli_Rocks480/I_Diorite_01.png","response":null,"trial_type":"image-keyboard-response","trial_index":85,"plugin_version":"2.1.0","time_elapsed":154802,"subject_id":"91548","group":"Group2","condition":"3_Rep","full_date":"2026-01-31T16:52:06.942Z","date":"2026-01-31","time":"16:52:06"},{"rt":null,"stimulus":"<p style=\"font-size: 50px; margin: 0; text-align: center;\">+</p>","response":null,"trial_type":"html-keyboard-response","trial_index":86,"plugin_version":"2.1.0","time_elapsed":155805,"subject_id":"91548","group":"Group2","condition":"3_Rep","full_date":"2026-01-31T16:52:06.942Z","date":"2026-01-31","time":"16:52:06"},{"task":"memory_phase","broad_category":"I","image_png":"I_Basalt_13.png","image_id":29,"category_name":"Basalt","category":2,"distinct_rating":2.68,"distinct_type":"Bottom","rt":null,"stimulus":"Stimuli_Rocks480/I_Basalt_13.png","response":null,"trial_type":"image-keyboard-response","trial_index":87,"plugin_version":"2.1.0","time_elapsed":158324,"subject_id":"91548","group":"Group2","condition":"3_Rep","full_date":"2026-01-31T16:52:06.942Z","date":"2026-01-31","time":"16:52:06"},{"rt":null,"stimulus":"<p style=\"font-size: 50px; margin: 0; text-align: center;\">+</p>","response":null,"trial_type":"html-keyboard-response","trial_index":88,"plugin_version":"2.1.0","time_elapsed":159326,"subject_id":"91548","group":"Group2","condition":"3_Rep","full_date":"2026-01-31T16:52:06.942Z","date":"2026-01-31","time":"16:52:06"},{"task":"memory_phase","broad_category":"M","image_png":"M_Quartzite_15.png","image_id":287,"category_name":"Quartzite","category":18,"distinct_rating":2.19,"distinct_type":"Bottom","rt":null,"stimulus":"Stimuli_Rocks480/M_Quartzite_15.png","response":null,"trial_type":"image-keyboard-response","trial_index":89,"plugin_version":"2.1.0","time_elapsed":161847,"subject_id":"91548","group":"Group2","condition":"3_Rep","full_date":"2026-01-31T16:52:06.942Z","date":"2026-01-31","time":"16:52:06"},{"rt":null,"stimulus":"<p style=\"font-size: 50px; margin: 0; text-align: center;\">+</p>","response":null,"trial_type":"html-keyboard-response","trial_index":90,"plugin_version":"2.1.0","time_elapsed":162849,"subject_id":"91548","group":"Group2","condition":"3_Rep","full_date":"2026-01-31T16:52:06.942Z","date":"2026-01-31","time":"16:52:06"},{"task":"memory_phase","broad_category":"I","image_png":"I_Pumice_14.png","image_id":142,"category_name":"Pumice","category":9,"distinct_rating":3.22,"distinct_type":"Bottom","rt":null,"stimulus":"Stimuli_Rocks480/I_Pumice_14.png","response":null,"trial_type":"image-keyboard-response","trial_index":91,"plugin_version":"2.1.0","time_elapsed":165370,"subject_id":"91548","group":"Group2","condition":"3_Rep","full_date":"2026-01-31T16:52:06.942Z","date":"2026-01-31","time":"16:52:06"},{"rt":null,"stimulus":"<p style=\"font-size: 50px; margin: 0; text-align: center;\">+</p>","response":null,"trial_type":"html-keyboard-response","trial_index":92,"plugin_version":"2.1.0","time_elapsed":166373,"subject_id":"91548","group":"Group2","condition":"3_Rep","full_date":"2026-01-31T16:52:06.942Z","date":"2026-01-31","time":"16:52:06"},{"task":"memory_phase","broad_category":"S","image_png":"S_Rock Salt_13.png","image_id":445,"category_name":"Rock Salt","category":28,"distinct_rating":7.58,"distinct_type":"Top","rt":null,"stimulus":"Stimuli_Rocks480/S_Rock Salt_13.png","response":null,"trial_type":"image-keyboard-response","trial_index":93,"plugin_version":"2.1.0","time_elapsed":168896,"subject_id":"91548","group":"Group2","condition":"3_Rep","full_date":"2026-01-31T16:52:06.942Z","date":"2026-01-31","time":"16:52:06"},{"rt":null,"stimulus":"<p style=\"font-size: 50px; margin: 0; text-align: center;\">+</p>","response":null,"trial_type":"html-keyboard-response","trial_index":94,"plugin_version":"2.1.0","time_elapsed":169899,"subject_id":"91548","group":"Group2","condition":"3_Rep","full_date":"2026-01-31T16:52:06.942Z","date":"2026-01-31","time":"16:52:06"},{"task":"memory_phase","broad_category":"M","image_png":"M_Phyllite_13.png","image_id":269,"category_name":"Phyllite","category":17,"distinct_rating":2.8,"distinct_type":"Bottom","rt":null,"stimulus":"Stimuli_Rocks480/M_Phyllite_13.png","response":null,"trial_type":"image-keyboard-response","trial_index":95,"plugin_version":"2.1.0","time_elapsed":172418,"subject_id":"91548","group":"Group2","condition":"3_Rep","full_date":"2026-01-31T16:52:06.942Z","date":"2026-01-31","time":"16:52:06"},{"rt":null,"stimulus":"<p style=\"font-size: 50px; margin: 0; text-align: center;\">+</p>","response":null,"trial_type":"html-keyboard-response","trial_index":96,"plugin_version":"2.1.0","time_elapsed":173421,"subject_id":"91548","group":"Group2","condition":"3_Rep","full_date":"2026-01-31T16:52:06.942Z","date":"2026-01-31","time":"16:52:06"},{"task":"memory_phase","broad_category":"I","image_png":"I_Pegmatite_03.png","image_id":99,"category_name":"Pegmatite","category":7,"distinct_rating":7.24,"distinct_type":"Top","rt":null,"stimulus":"Stimuli_Rocks480/I_Pegmatite_03.png","response":null,"trial_type":"image-keyboard-response","trial_index":97,"plugin_version":"2.1.0","time_elapsed":175940,"subject_id":"91548","group":"Group2","condition":"3_Rep","full_date":"2026-01-31T16:52:06.942Z","date":"2026-01-31","time":"16:52:06"},{"rt":null,"stimulus":"<p style=\"font-size: 50px; margin: 0; text-align: center;\">+</p>","response":null,"trial_type":"html-keyboard-response","trial_index":98,"plugin_version":"2.1.0","time_elapsed":176942,"subject_id":"91548","group":"Group2","condition":"3_Rep","full_date":"2026-01-31T16:52:06.942Z","date":"2026-01-31","time":"16:52:06"},{"task":"memory_phase","broad_category":"S","image_png":"S_Chert_13.png","image_id":365,"category_name":"Chert","category":23,"distinct_rating":6.57,"distinct_type":"Top","rt":null,"stimulus":"Stimuli_Rocks480/S_Chert_13.png","response":null,"trial_type":"image-keyboard-response","trial_index":99,"plugin_version":"2.1.0","time_elapsed":179455,"subject_id":"91548","group":"Group2","condition":"3_Rep","full_date":"2026-01-31T16:52:06.942Z","date":"2026-01-31","time":"16:52:06"},{"rt":null,"stimulus":"<p style=\"font-size: 50px; margin: 0; text-align: center;\">+</p>","response":null,"trial_type":"html-keyboard-response","trial_index":100,"plugin_version":"2.1.0","time_elapsed":180458,"subject_id":"91548","group":"Group2","condition":"3_Rep","full_date":"2026-01-31T16:52:06.942Z","date":"2026-01-31","time":"16:52:06"},{"task":"memory_phase","broad_category":"I","image_png":"I_Pumice_13.png","image_id":141,"category_name":"Pumice","category":9,"distinct_rating":3.12,"distinct_type":"Bottom","rt":null,"stimulus":"Stimuli_Rocks480/I_Pumice_13.png","response":null,"trial_type":"image-keyboard-response","trial_index":101,"plugin_version":"2.1.0","time_elapsed":182981,"subject_id":"91548","group":"Group2","condition":"3_Rep","full_date":"2026-01-31T16:52:06.942Z","date":"2026-01-31","time":"16:52:06"},{"rt":null,"stimulus":"<p style=\"font-size: 50px; margin: 0; text-align: center;\">+</p>","response":null,"trial_type":"html-keyboard-response","trial_index":102,"plugin_version":"2.1.0","time_elapsed":183984,"subject_id":"91548","group":"Group2","condition":"3_Rep","full_date":"2026-01-31T16:52:06.942Z","date":"2026-01-31","time":"16:52:06"},{"task":"memory_phase","broad_category":"I","image_png":"I_Basalt_10.png","image_id":26,"category_name":"Basalt","category":2,"distinct_rating":2.76,"distinct_type":"Bottom","rt":null,"stimulus":"Stimuli_Rocks480/I_Basalt_10.png","response":null,"trial_type":"image-keyboard-response","trial_index":103,"plugin_version":"2.1.0","time_elapsed":186504,"subject_id":"91548","group":"Group2","condition":"3_Rep","full_date":"2026-01-31T16:52:06.942Z","date":"2026-01-31","time":"16:52:06"},{"rt":null,"stimulus":"<p style=\"font-size: 50px; margin: 0; text-align: center;\">+</p>","response":null,"trial_type":"html-keyboard-response","trial_index":104,"plugin_version":"2.1.0","time_elapsed":187507,"subject_id":"91548","group":"Group2","condition":"3_Rep","full_date":"2026-01-31T16:52:06.942Z","date":"2026-01-31","time":"16:52:06"},{"task":"memory_phase","broad_category":"I","image_png":"I_Andesite_03.png","image_id":3,"category_name":"Andesite","category":1,"distinct_rating":3.17,"distinct_type":"Bottom","rt":null,"stimulus":"Stimuli_Rocks480/I_Andesite_03.png","response":null,"trial_type":"image-keyboard-response","trial_index":105,"plugin_version":"2.1.0","time_elapsed":190021,"subject_id":"91548","group":"Group2","condition":"3_Rep","full_date":"2026-01-31T16:52:06.942Z","date":"2026-01-31","time":"16:52:06"},{"rt":7594,"stimulus":"<p style=\"max-width: 760px; margin: auto; font-size: 35px; line-height: 1.5;\">\n                You have completed 1 study phase. \n                Now, we'll show you all the images again 2 more times.\n                <br><br>Press SPACE to continue\n              </p>","response":" ","trial_type":"html-keyboard-response","trial_index":106,"plugin_version":"2.1.0","time_elapsed":197618,"subject_id":"91548","group":"Group2","condition":"3_Rep","full_date":"2026-01-31T16:52:06.942Z","date":"2026-01-31","time":"16:52:06"},{"rt":null,"stimulus":"<p style=\"font-size: 50px; margin: 0; text-align: center;\">+</p>","response":null,"trial_type":"html-keyboard-response","trial_index":107,"plugin_version":"2.1.0","time_elapsed":198622,"subject_id":"91548","group":"Group2","condition":"3_Rep","full_date":"2026-01-31T16:52:06.942Z","date":"2026-01-31","time":"16:52:06"},{"task":"memory_phase","broad_category":"S","image_png":"S_Sandstone_08.png","image_id":456,"category_name":"Sandstone","category":29,"distinct_rating":1.5,"distinct_type":"Bottom","rt":null,"stimulus":"Stimuli_Rocks480/S_Sandstone_08.png","response":null,"trial_type":"image-keyboard-response","trial_index":108,"plugin_version":"2.1.0","time_elapsed":201140,"subject_id":"91548","group":"Group2","condition":"3_Rep","full_date":"2026-01-31T16:52:06.942Z","date":"2026-01-31","time":"16:52:06"},{"rt":null,"stimulus":"<p style=\"font-size: 50px; margin: 0; text-align: center;\">+</p>","response":null,"trial_type":"html-keyboard-response","trial_index":109,"plugin_version":"2.1.0","time_elapsed":202142,"subject_id":"91548","group":"Group2","condition":"3_Rep","full_date":"2026-01-31T16:52:06.942Z","date":"2026-01-31","time":"16:52:06"},{"task":"memory_phase","broad_category":"I","image_png":"I_Rhyolite_05.png","image_id":149,"category_name":"Rhyolite","category":10,"distinct_rating":3.02,"distinct_type":"Bottom","rt":null,"stimulus":"Stimuli_Rocks480/I_Rhyolite_05.png","response":null,"trial_type":"image-keyboard-response","trial_index":110,"plugin_version":"2.1.0","time_elapsed":204666,"subject_id":"91548","group":"Group2","condition":"3_Rep","full_date":"2026-01-31T16:52:06.942Z","date":"2026-01-31","time":"16:52:06"},{"rt":null,"stimulus":"<p style=\"font-size: 50px; margin: 0; text-align: center;\">+</p>","response":null,"trial_type":"html-keyboard-response","trial_index":111,"plugin_version":"2.1.0","time_elapsed":205668,"subject_id":"91548","group":"Group2","condition":"3_Rep","full_date":"2026-01-31T16:52:06.942Z","date":"2026-01-31","time":"16:52:06"},{"task":"memory_phase","broad_category":"I","image_png":"I_Andesite_03.png","image_id":3,"category_name":"Andesite","category":1,"distinct_rating":3.17,"distinct_type":"Bottom","rt":null,"stimulus":"Stimuli_Rocks480/I_Andesite_03.png","response":null,"trial_type":"image-keyboard-response","trial_index":112,"plugin_version":"2.1.0","time_elapsed":208171,"subject_id":"91548","group":"Group2","condition":"3_Rep","full_date":"2026-01-31T16:52:06.942Z","date":"2026-01-31","time":"16:52:06"},{"rt":null,"stimulus":"<p style=\"font-size: 50px; margin: 0; text-align: center;\">+</p>","response":null,"trial_type":"html-keyboard-response","trial_index":113,"plugin_version":"2.1.0","time_elapsed":209174,"subject_id":"91548","group":"Group2","condition":"3_Rep","full_date":"2026-01-31T16:52:06.942Z","date":"2026-01-31","time":"16:52:06"},{"task":"memory_phase","broad_category":"I","image_png":"I_Basalt_10.png","image_id":26,"category_name":"Basalt","category":2,"distinct_rating":2.76,"distinct_type":"Bottom","rt":null,"stimulus":"Stimuli_Rocks480/I_Basalt_10.png","response":null,"trial_type":"image-keyboard-response","trial_index":114,"plugin_version":"2.1.0","time_elapsed":211677,"subject_id":"91548","group":"Group2","condition":"3_Rep","full_date":"2026-01-31T16:52:06.942Z","date":"2026-01-31","time":"16:52:06"},{"rt":null,"stimulus":"<p style=\"font-size: 50px; margin: 0; text-align: center;\">+</p>","response":null,"trial_type":"html-keyboard-response","trial_index":115,"plugin_version":"2.1.0","time_elapsed":212680,"subject_id":"91548","group":"Group2","condition":"3_Rep","full_date":"2026-01-31T16:52:06.942Z","date":"2026-01-31","time":"16:52:06"},{"task":"memory_phase","broad_category":"I","image_png":"I_Rhyolite_08.png","image_id":152,"category_name":"Rhyolite","category":10,"distinct_rating":1.38,"distinct_type":"Bottom","rt":null,"stimulus":"Stimuli_Rocks480/I_Rhyolite_08.png","response":null,"trial_type":"image-keyboard-response","trial_index":116,"plugin_version":"2.1.0","time_elapsed":215197,"subject_id":"91548","group":"Group2","condition":"3_Rep","full_date":"2026-01-31T16:52:06.942Z","date":"2026-01-31","time":"16:52:06"},{"rt":null,"stimulus":"<p style=\"font-size: 50px; margin: 0; text-align: center;\">+</p>","response":null,"trial_type":"html-keyboard-response","trial_index":117,"plugin_version":"2.1.0","time_elapsed":216199,"subject_id":"91548","group":"Group2","condition":"3_Rep","full_date":"2026-01-31T16:52:06.942Z","date":"2026-01-31","time":"16:52:06"},{"task":"memory_phase","broad_category":"I","image_png":"I_Rhyolite_10.png","image_id":154,"category_name":"Rhyolite","category":10,"distinct_rating":2.88,"distinct_type":"Bottom","rt":null,"stimulus":"Stimuli_Rocks480/I_Rhyolite_10.png","response":null,"trial_type":"image-keyboard-response","trial_index":118,"plugin_version":"2.1.0","time_elapsed":218725,"subject_id":"91548","group":"Group2","condition":"3_Rep","full_date":"2026-01-31T16:52:06.942Z","date":"2026-01-31","time":"16:52:06"},{"rt":null,"stimulus":"<p style=\"font-size: 50px; margin: 0; text-align: center;\">+</p>","response":null,"trial_type":"html-keyboard-response","trial_index":119,"plugin_version":"2.1.0","time_elapsed":219727,"subject_id":"91548","group":"Group2","condition":"3_Rep","full_date":"2026-01-31T16:52:06.942Z","date":"2026-01-31","time":"16:52:06"},{"task":"memory_phase","broad_category":"I","image_png":"I_Gabbro_12.png","image_id":60,"category_name":"Gabbro","category":4,"distinct_rating":2.6,"distinct_type":"Bottom","rt":null,"stimulus":"Stimuli_Rocks480/I_Gabbro_12.png","response":null,"trial_type":"image-keyboard-response","trial_index":120,"plugin_version":"2.1.0","time_elapsed":222250,"subject_id":"91548","group":"Group2","condition":"3_Rep","full_date":"2026-01-31T16:52:06.942Z","date":"2026-01-31","time":"16:52:06"},{"rt":null,"stimulus":"<p style=\"font-size: 50px; margin: 0; text-align: center;\">+</p>","response":null,"trial_type":"html-keyboard-response","trial_index":121,"plugin_version":"2.1.0","time_elapsed":223254,"subject_id":"91548","group":"Group2","condition":"3_Rep","full_date":"2026-01-31T16:52:06.942Z","date":"2026-01-31","time":"16:52:06"},{"task":"memory_phase","broad_category":"M","image_png":"M_Gneiss_10.png","image_id":202,"category_name":"Gneiss","category":13,"distinct_rating":3.09,"distinct_type":"Bottom","rt":null,"stimulus":"Stimuli_Rocks480/M_Gneiss_10.png","response":null,"trial_type":"image-keyboard-response","trial_index":122,"plugin_version":"2.1.0","time_elapsed":225776,"subject_id":"91548","group":"Group2","condition":"3_Rep","full_date":"2026-01-31T16:52:06.942Z","date":"2026-01-31","time":"16:52:06"},{"rt":null,"stimulus":"<p style=\"font-size: 50px; margin: 0; text-align: center;\">+</p>","response":null,"trial_type":"html-keyboard-response","trial_index":123,"plugin_version":"2.1.0","time_elapsed":226779,"subject_id":"91548","group":"Group2","condition":"3_Rep","full_date":"2026-01-31T16:52:06.942Z","date":"2026-01-31","time":"16:52:06"},{"task":"memory_phase","broad_category":"S","image_png":"S_Rock Salt_15.png","image_id":447,"category_name":"Rock Salt","category":28,"distinct_rating":7.79,"distinct_type":"Top","rt":null,"stimulus":"Stimuli_Rocks480/S_Rock Salt_15.png","response":null,"trial_type":"image-keyboard-response","trial_index":124,"plugin_version":"2.1.0","time_elapsed":229299,"subject_id":"91548","group":"Group2","condition":"3_Rep","full_date":"2026-01-31T16:52:06.942Z","date":"2026-01-31","time":"16:52:06"},{"rt":null,"stimulus":"<p style=\"font-size: 50px; margin: 0; text-align: center;\">+</p>","response":null,"trial_type":"html-keyboard-response","trial_index":125,"plugin_version":"2.1.0","time_elapsed":230302,"subject_id":"91548","group":"Group2","condition":"3_Rep","full_date":"2026-01-31T16:52:06.942Z","date":"2026-01-31","time":"16:52:06"},{"task":"memory_phase","broad_category":"S","image_png":"S_Shale_02.png","image_id":466,"category_name":"Shale","category":30,"distinct_rating":2.9,"distinct_type":"Bottom","rt":null,"stimulus":"Stimuli_Rocks480/S_Shale_02.png","response":null,"trial_type":"image-keyboard-response","trial_index":126,"plugin_version":"2.1.0","time_elapsed":232818,"subject_id":"91548","group":"Group2","condition":"3_Rep","full_date":"2026-01-31T16:52:06.942Z","date":"2026-01-31","time":"16:52:06"},{"rt":null,"stimulus":"<p style=\"font-size: 50px; margin: 0; text-align: center;\">+</p>","response":null,"trial_type":"html-keyboard-response","trial_index":127,"plugin_version":"2.1.0","time_elapsed":233820,"subject_id":"91548","group":"Group2","condition":"3_Rep","full_date":"2026-01-31T16:52:06.942Z","date":"2026-01-31","time":"16:52:06"},{"task":"memory_phase","broad_category":"S","image_png":"S_Sandstone_11.png","image_id":459,"category_name":"Sandstone","category":29,"distinct_rating":1.82,"distinct_type":"Bottom","rt":null,"stimulus":"Stimuli_Rocks480/S_Sandstone_11.png","response":null,"trial_type":"image-keyboard-response","trial_index":128,"plugin_version":"2.1.0","time_elapsed":236344,"subject_id":"91548","group":"Group2","condition":"3_Rep","full_date":"2026-01-31T16:52:06.942Z","date":"2026-01-31","time":"16:52:06"},{"rt":null,"stimulus":"<p style=\"font-size: 50px; margin: 0; text-align: center;\">+</p>","response":null,"trial_type":"html-keyboard-response","trial_index":129,"plugin_version":"2.1.0","time_elapsed":237347,"subject_id":"91548","group":"Group2","condition":"3_Rep","full_date":"2026-01-31T16:52:06.942Z","date":"2026-01-31","time":"16:52:06"},{"task":"memory_phase","broad_category":"I","image_png":"I_Pumice_14.png","image_id":142,"category_name":"Pumice","category":9,"distinct_rating":3.22,"distinct_type":"Bottom","rt":null,"stimulus":"Stimuli_Rocks480/I_Pumice_14.png","response":null,"trial_type":"image-keyboard-response","trial_index":130,"plugin_version":"2.1.0","time_elapsed":239850,"subject_id":"91548","group":"Group2","condition":"3_Rep","full_date":"2026-01-31T16:52:06.942Z","date":"2026-01-31","time":"16:52:06"},{"rt":null,"stimulus":"<p style=\"font-size: 50px; margin: 0; text-align: center;\">+</p>","response":null,"trial_type":"html-keyboard-response","trial_index":131,"plugin_version":"2.1.0","time_elapsed":240853,"subject_id":"91548","group":"Group2","condition":"3_Rep","full_date":"2026-01-31T16:52:06.942Z","date":"2026-01-31","time":"16:52:06"},{"task":"memory_phase","broad_category":"M","image_png":"M_Marble_02.png","image_id":226,"category_name":"Marble","category":15,"distinct_rating":3.2,"distinct_type":"Bottom","rt":null,"stimulus":"Stimuli_Rocks480/M_Marble_02.png","response":null,"trial_type":"image-keyboard-response","trial_index":132,"plugin_version":"2.1.0","time_elapsed":243370,"subject_id":"91548","group":"Group2","condition":"3_Rep","full_date":"2026-01-31T16:52:06.942Z","date":"2026-01-31","time":"16:52:06"},{"rt":null,"stimulus":"<p style=\"font-size: 50px; margin: 0; text-align: center;\">+</p>","response":null,"trial_type":"html-keyboard-response","trial_index":133,"plugin_version":"2.1.0","time_elapsed":244373,"subject_id":"91548","group":"Group2","condition":"3_Rep","full_date":"2026-01-31T16:52:06.942Z","date":"2026-01-31","time":"16:52:06"},{"task":"memory_phase","broad_category":"M","image_png":"M_Marble_14.png","image_id":238,"category_name":"Marble","category":15,"distinct_rating":3.31,"distinct_type":"Bottom","rt":null,"stimulus":"Stimuli_Rocks480/M_Marble_14.png","response":null,"trial_type":"image-keyboard-response","trial_index":134,"plugin_version":"2.1.0","time_elapsed":246891,"subject_id":"91548","group":"Group2","condition":"3_Rep","full_date":"2026-01-31T16:52:06.942Z","date":"2026-01-31","time":"16:52:06"},{"rt":null,"stimulus":"<p style=\"font-size: 50px; margin: 0; text-align: center;\">+</p>","response":null,"trial_type":"html-keyboard-response","trial_index":135,"plugin_version":"2.1.0","time_elapsed":247893,"subject_id":"91548","group":"Group2","condition":"3_Rep","full_date":"2026-01-31T16:52:06.942Z","date":"2026-01-31","time":"16:52:06"},{"task":"memory_phase","broad_category":"M","image_png":"M_Slate_04.png","image_id":308,"category_name":"Slate","category":20,"distinct_rating":2.2,"distinct_type":"Bottom","rt":null,"stimulus":"Stimuli_Rocks480/M_Slate_04.png","response":null,"trial_type":"image-keyboard-response","trial_index":136,"plugin_version":"2.1.0","time_elapsed":250406,"subject_id":"91548","group":"Group2","condition":"3_Rep","full_date":"2026-01-31T16:52:06.942Z","date":"2026-01-31","time":"16:52:06"},{"rt":null,"stimulus":"<p style=\"font-size: 50px; margin: 0; text-align: center;\">+</p>","response":null,"trial_type":"html-keyboard-response","trial_index":137,"plugin_version":"2.1.0","time_elapsed":251408,"subject_id":"91548","group":"Group2","condition":"3_Rep","full_date":"2026-01-31T16:52:06.942Z","date":"2026-01-31","time":"16:52:06"},{"task":"memory_phase","broad_category":"I","image_png":"I_Gabbro_02.png","image_id":50,"category_name":"Gabbro","category":4,"distinct_rating":2.73,"distinct_type":"Bottom","rt":null,"stimulus":"Stimuli_Rocks480/I_Gabbro_02.png","response":null,"trial_type":"image-keyboard-response","trial_index":138,"plugin_version":"2.1.0","time_elapsed":253926,"subject_id":"91548","group":"Group2","condition":"3_Rep","full_date":"2026-01-31T16:52:06.942Z","date":"2026-01-31","time":"16:52:06"},{"rt":null,"stimulus":"<p style=\"font-size: 50px; margin: 0; text-align: center;\">+</p>","response":null,"trial_type":"html-keyboard-response","trial_index":139,"plugin_version":"2.1.0","time_elapsed":254928,"subject_id":"91548","group":"Group2","condition":"3_Rep","full_date":"2026-01-31T16:52:06.942Z","date":"2026-01-31","time":"16:52:06"},{"task":"memory_phase","broad_category":"M","image_png":"M_Quartzite_15.png","image_id":287,"category_name":"Quartzite","category":18,"distinct_rating":2.19,"distinct_type":"Bottom","rt":null,"stimulus":"Stimuli_Rocks480/M_Quartzite_15.png","response":null,"trial_type":"image-keyboard-response","trial_index":140,"plugin_version":"2.1.0","time_elapsed":257432,"subject_id":"91548","group":"Group2","condition":"3_Rep","full_date":"2026-01-31T16:52:06.942Z","date":"2026-01-31","time":"16:52:06"},{"rt":null,"stimulus":"<p style=\"font-size: 50px; margin: 0; text-align: center;\">+</p>","response":null,"trial_type":"html-keyboard-response","trial_index":141,"plugin_version":"2.1.0","time_elapsed":258435,"subject_id":"91548","group":"Group2","condition":"3_Rep","full_date":"2026-01-31T16:52:06.942Z","date":"2026-01-31","time":"16:52:06"},{"task":"memory_phase","broad_category":"S","image_png":"S_Dolomite_16.png","image_id":400,"category_name":"Dolomite","category":25,"distinct_rating":1.71,"distinct_type":"Bottom","rt":null,"stimulus":"Stimuli_Rocks480/S_Dolomite_16.png","response":null,"trial_type":"image-keyboard-response","trial_index":142,"plugin_version":"2.1.0","time_elapsed":260951,"subject_id":"91548","group":"Group2","condition":"3_Rep","full_date":"2026-01-31T16:52:06.942Z","date":"2026-01-31","time":"16:52:06"},{"rt":null,"stimulus":"<p style=\"font-size: 50px; margin: 0; text-align: center;\">+</p>","response":null,"trial_type":"html-keyboard-response","trial_index":143,"plugin_version":"2.1.0","time_elapsed":261954,"subject_id":"91548","group":"Group2","condition":"3_Rep","full_date":"2026-01-31T16:52:06.942Z","date":"2026-01-31","time":"16:52:06"},{"task":"memory_phase","broad_category":"M","image_png":"M_Gneiss_15.png","image_id":207,"category_name":"Gneiss","category":13,"distinct_rating":3.11,"distinct_type":"Bottom","rt":null,"stimulus":"Stimuli_Rocks480/M_Gneiss_15.png","response":null,"trial_type":"image-keyboard-response","trial_index":144,"plugin_version":"2.1.0","time_elapsed":264468,"subject_id":"91548","group":"Group2","condition":"3_Rep","full_date":"2026-01-31T16:52:06.942Z","date":"2026-01-31","time":"16:52:06"},{"rt":null,"stimulus":"<p style=\"font-size: 50px; margin: 0; text-align: center;\">+</p>","response":null,"trial_type":"html-keyboard-response","trial_index":145,"plugin_version":"2.1.0","time_elapsed":265471,"subject_id":"91548","group":"Group2","condition":"3_Rep","full_date":"2026-01-31T16:52:06.942Z","date":"2026-01-31","time":"16:52:06"},{"task":"memory_phase","broad_category":"S","image_png":"S_Sandstone_04.png","image_id":452,"category_name":"Sandstone","category":29,"distinct_rating":1.8,"distinct_type":"Bottom","rt":null,"stimulus":"Stimuli_Rocks480/S_Sandstone_04.png","response":null,"trial_type":"image-keyboard-response","trial_index":146,"plugin_version":"2.1.0","time_elapsed":267993,"subject_id":"91548","group":"Group2","condition":"3_Rep","full_date":"2026-01-31T16:52:06.942Z","date":"2026-01-31","time":"16:52:06"},{"rt":null,"stimulus":"<p style=\"font-size: 50px; margin: 0; text-align: center;\">+</p>","response":null,"trial_type":"html-keyboard-response","trial_index":147,"plugin_version":"2.1.0","time_elapsed":268996,"subject_id":"91548","group":"Group2","condition":"3_Rep","full_date":"2026-01-31T16:52:06.942Z","date":"2026-01-31","time":"16:52:06"},{"task":"memory_phase","broad_category":"I","image_png":"I_Obsidian_06.png","image_id":86,"category_name":"Obsidian","category":6,"distinct_rating":8.01,"distinct_type":"Top","rt":null,"stimulus":"Stimuli_Rocks480/I_Obsidian_06.png","response":null,"trial_type":"image-keyboard-response","trial_index":148,"plugin_version":"2.1.0","time_elapsed":271519,"subject_id":"91548","group":"Group2","condition":"3_Rep","full_date":"2026-01-31T16:52:06.942Z","date":"2026-01-31","time":"16:52:06"},{"rt":null,"stimulus":"<p style=\"font-size: 50px; margin: 0; text-align: center;\">+</p>","response":null,"trial_type":"html-keyboard-response","trial_index":149,"plugin_version":"2.1.0","time_elapsed":272521,"subject_id":"91548","group":"Group2","condition":"3_Rep","full_date":"2026-01-31T16:52:06.942Z","date":"2026-01-31","time":"16:52:06"},{"task":"memory_phase","broad_category":"I","image_png":"I_Basalt_13.png","image_id":29,"category_name":"Basalt","category":2,"distinct_rating":2.68,"distinct_type":"Bottom","rt":null,"stimulus":"Stimuli_Rocks480/I_Basalt_13.png","response":null,"trial_type":"image-keyboard-response","trial_index":150,"plugin_version":"2.1.0","time_elapsed":275037,"subject_id":"91548","group":"Group2","condition":"3_Rep","full_date":"2026-01-31T16:52:06.942Z","date":"2026-01-31","time":"16:52:06"},{"rt":null,"stimulus":"<p style=\"font-size: 50px; margin: 0; text-align: center;\">+</p>","response":null,"trial_type":"html-keyboard-response","trial_index":151,"plugin_version":"2.1.0","time_elapsed":276040,"subject_id":"91548","group":"Group2","condition":"3_Rep","full_date":"2026-01-31T16:52:06.942Z","date":"2026-01-31","time":"16:52:06"},{"task":"memory_phase","broad_category":"I","image_png":"I_Andesite_09.png","image_id":9,"category_name":"Andesite","category":1,"distinct_rating":2.49,"distinct_type":"Bottom","rt":null,"stimulus":"Stimuli_Rocks480/I_Andesite_09.png","response":null,"trial_type":"image-keyboard-response","trial_index":152,"plugin_version":"2.1.0","time_elapsed":278557,"subject_id":"91548","group":"Group2","condition":"3_Rep","full_date":"2026-01-31T16:52:06.942Z","date":"2026-01-31","time":"16:52:06"},{"rt":null,"stimulus":"<p style=\"font-size: 50px; margin: 0; text-align: center;\">+</p>","response":null,"trial_type":"html-keyboard-response","trial_index":153,"plugin_version":"2.1.0","time_elapsed":279560,"subject_id":"91548","group":"Group2","condition":"3_Rep","full_date":"2026-01-31T16:52:06.942Z","date":"2026-01-31","time":"16:52:06"},{"task":"memory_phase","broad_category":"I","image_png":"I_Pumice_01.png","image_id":129,"category_name":"Pumice","category":9,"distinct_rating":3.25,"distinct_type":"Bottom","rt":null,"stimulus":"Stimuli_Rocks480/I_Pumice_01.png","response":null,"trial_type":"image-keyboard-response","trial_index":154,"plugin_version":"2.1.0","time_elapsed":282080,"subject_id":"91548","group":"Group2","condition":"3_Rep","full_date":"2026-01-31T16:52:06.942Z","date":"2026-01-31","time":"16:52:06"},{"rt":null,"stimulus":"<p style=\"font-size: 50px; margin: 0; text-align: center;\">+</p>","response":null,"trial_type":"html-keyboard-response","trial_index":155,"plugin_version":"2.1.0","time_elapsed":283083,"subject_id":"91548","group":"Group2","condition":"3_Rep","full_date":"2026-01-31T16:52:06.942Z","date":"2026-01-31","time":"16:52:06"},{"task":"memory_phase","broad_category":"S","image_png":"S_Shale_07.png","image_id":471,"category_name":"Shale","category":30,"distinct_rating":2.73,"distinct_type":"Bottom","rt":null,"stimulus":"Stimuli_Rocks480/S_Shale_07.png","response":null,"trial_type":"image-keyboard-response","trial_index":156,"plugin_version":"2.1.0","time_elapsed":285602,"subject_id":"91548","group":"Group2","condition":"3_Rep","full_date":"2026-01-31T16:52:06.942Z","date":"2026-01-31","time":"16:52:06"},{"rt":1582,"stimulus":"<p style=\"max-width: 760px; margin: auto; font-size: 35px; line-height: 1.5;\">\n                Press SPACE to continue study phase\n              </p>","response":" ","trial_type":"html-keyboard-response","trial_index":157,"plugin_version":"2.1.0","time_elapsed":287187,"subject_id":"91548","group":"Group2","condition":"3_Rep","full_date":"2026-01-31T16:52:06.942Z","date":"2026-01-31","time":"16:52:06"},{"rt":null,"stimulus":"<p style=\"font-size: 50px; margin: 0; text-align: center;\">+</p>","response":null,"trial_type":"html-keyboard-response","trial_index":158,"plugin_version":"2.1.0","time_elapsed":288190,"subject_id":"91548","group":"Group2","condition":"3_Rep","full_date":"2026-01-31T16:52:06.942Z","date":"2026-01-31","time":"16:52:06"},{"task":"memory_phase","broad_category":"S","image_png":"S_Shale_03.png","image_id":467,"category_name":"Shale","category":30,"distinct_rating":1.95,"distinct_type":"Bottom","rt":null,"stimulus":"Stimuli_Rocks480/S_Shale_03.png","response":null,"trial_type":"image-keyboard-response","trial_index":159,"plugin_version":"2.1.0","time_elapsed":290715,"subject_id":"91548","group":"Group2","condition":"3_Rep","full_date":"2026-01-31T16:52:06.942Z","date":"2026-01-31","time":"16:52:06"},{"rt":null,"stimulus":"<p style=\"font-size: 50px; margin: 0; text-align: center;\">+</p>","response":null,"trial_type":"html-keyboard-response","trial_index":160,"plugin_version":"2.1.0","time_elapsed":291718,"subject_id":"91548","group":"Group2","condition":"3_Rep","full_date":"2026-01-31T16:52:06.942Z","date":"2026-01-31","time":"16:52:06"},{"task":"memory_phase","broad_category":"S","image_png":"S_Conglomerate_14.png","image_id":382,"category_name":"Conglomerate","category":24,"distinct_rating":6.86,"distinct_type":"Top","rt":null,"stimulus":"Stimuli_Rocks480/S_Conglomerate_14.png","response":null,"trial_type":"image-keyboard-response","trial_index":161,"plugin_version":"2.1.0","time_elapsed":294237,"subject_id":"91548","group":"Group2","condition":"3_Rep","full_date":"2026-01-31T16:52:06.942Z","date":"2026-01-31","time":"16:52:06"},{"rt":null,"stimulus":"<p style=\"font-size: 50px; margin: 0; text-align: center;\">+</p>","response":null,"trial_type":"html-keyboard-response","trial_index":162,"plugin_version":"2.1.0","time_elapsed":295239,"subject_id":"91548","group":"Group2","condition":"3_Rep","full_date":"2026-01-31T16:52:06.942Z","date":"2026-01-31","time":"16:52:06"},{"task":"memory_phase","broad_category":"I","image_png":"I_Peridotite_13.png","image_id":125,"category_name":"Peridotite","category":8,"distinct_rating":7.28,"distinct_type":"Top","rt":null,"stimulus":"Stimuli_Rocks480/I_Peridotite_13.png","response":null,"trial_type":"image-keyboard-response","trial_index":163,"plugin_version":"2.1.0","time_elapsed":297762,"subject_id":"91548","group":"Group2","condition":"3_Rep","full_date":"2026-01-31T16:52:06.942Z","date":"2026-01-31","time":"16:52:06"},{"rt":null,"stimulus":"<p style=\"font-size: 50px; margin: 0; text-align: center;\">+</p>","response":null,"trial_type":"html-keyboard-response","trial_index":164,"plugin_version":"2.1.0","time_elapsed":298765,"subject_id":"91548","group":"Group2","condition":"3_Rep","full_date":"2026-01-31T16:52:06.942Z","date":"2026-01-31","time":"16:52:06"},{"task":"memory_phase","broad_category":"S","image_png":"S_Dolomite_01.png","image_id":385,"category_name":"Dolomite","category":25,"distinct_rating":1.43,"distinct_type":"Bottom","rt":null,"stimulus":"Stimuli_Rocks480/S_Dolomite_01.png","response":null,"trial_type":"image-keyboard-response","trial_index":165,"plugin_version":"2.1.0","time_elapsed":301288,"subject_id":"91548","group":"Group2","condition":"3_Rep","full_date":"2026-01-31T16:52:06.942Z","date":"2026-01-31","time":"16:52:06"},{"rt":null,"stimulus":"<p style=\"font-size: 50px; margin: 0; text-align: center;\">+</p>","response":null,"trial_type":"html-keyboard-response","trial_index":166,"plugin_version":"2.1.0","time_elapsed":302291,"subject_id":"91548","group":"Group2","condition":"3_Rep","full_date":"2026-01-31T16:52:06.942Z","date":"2026-01-31","time":"16:52:06"},{"task":"memory_phase","broad_category":"M","image_png":"M_Phyllite_13.png","image_id":269,"category_name":"Phyllite","category":17,"distinct_rating":2.8,"distinct_type":"Bottom","rt":null,"stimulus":"Stimuli_Rocks480/M_Phyllite_13.png","response":null,"trial_type":"image-keyboard-response","trial_index":167,"plugin_version":"2.1.0","time_elapsed":304811,"subject_id":"91548","group":"Group2","condition":"3_Rep","full_date":"2026-01-31T16:52:06.942Z","date":"2026-01-31","time":"16:52:06"},{"rt":null,"stimulus":"<p style=\"font-size: 50px; margin: 0; text-align: center;\">+</p>","response":null,"trial_type":"html-keyboard-response","trial_index":168,"plugin_version":"2.1.0","time_elapsed":305814,"subject_id":"91548","group":"Group2","condition":"3_Rep","full_date":"2026-01-31T16:52:06.942Z","date":"2026-01-31","time":"16:52:06"},{"task":"memory_phase","broad_category":"I","image_png":"I_Diorite_10.png","image_id":42,"category_name":"Diorite","category":3,"distinct_rating":2.84,"distinct_type":"Bottom","rt":null,"stimulus":"Stimuli_Rocks480/I_Diorite_10.png","response":null,"trial_type":"image-keyboard-response","trial_index":169,"plugin_version":"2.1.0","time_elapsed":308332,"subject_id":"91548","group":"Group2","condition":"3_Rep","full_date":"2026-01-31T16:52:06.942Z","date":"2026-01-31","time":"16:52:06"},{"rt":null,"stimulus":"<p style=\"font-size: 50px; margin: 0; text-align: center;\">+</p>","response":null,"trial_type":"html-keyboard-response","trial_index":170,"plugin_version":"2.1.0","time_elapsed":309335,"subject_id":"91548","group":"Group2","condition":"3_Rep","full_date":"2026-01-31T16:52:06.942Z","date":"2026-01-31","time":"16:52:06"},{"task":"memory_phase","broad_category":"M","image_png":"M_Gneiss_14.png","image_id":206,"category_name":"Gneiss","category":13,"distinct_rating":3.41,"distinct_type":"Bottom","rt":null,"stimulus":"Stimuli_Rocks480/M_Gneiss_14.png","response":null,"trial_type":"image-keyboard-response","trial_index":171,"plugin_version":"2.1.0","time_elapsed":311857,"subject_id":"91548","group":"Group2","condition":"3_Rep","full_date":"2026-01-31T16:52:06.942Z","date":"2026-01-31","time":"16:52:06"},{"rt":null,"stimulus":"<p style=\"font-size: 50px; margin: 0; text-align: center;\">+</p>","response":null,"trial_type":"html-keyboard-response","trial_index":172,"plugin_version":"2.1.0","time_elapsed":312860,"subject_id":"91548","group":"Group2","condition":"3_Rep","full_date":"2026-01-31T16:52:06.942Z","date":"2026-01-31","time":"16:52:06"},{"task":"memory_phase","broad_category":"I","image_png":"I_Pegmatite_11.png","image_id":107,"category_name":"Pegmatite","category":7,"distinct_rating":7.11,"distinct_type":"Top","rt":null,"stimulus":"Stimuli_Rocks480/I_Pegmatite_11.png","response":null,"trial_type":"image-keyboard-response","trial_index":173,"plugin_version":"2.1.0","time_elapsed":315384,"subject_id":"91548","group":"Group2","condition":"3_Rep","full_date":"2026-01-31T16:52:06.942Z","date":"2026-01-31","time":"16:52:06"},{"rt":null,"stimulus":"<p style=\"font-size: 50px; margin: 0; text-align: center;\">+</p>","response":null,"trial_type":"html-keyboard-response","trial_index":174,"plugin_version":"2.1.0","time_elapsed":316387,"subject_id":"91548","group":"Group2","condition":"3_Rep","full_date":"2026-01-31T16:52:06.942Z","date":"2026-01-31","time":"16:52:06"},{"task":"memory_phase","broad_category":"M","image_png":"M_Slate_10.png","image_id":314,"category_name":"Slate","category":20,"distinct_rating":1.94,"distinct_type":"Bottom","rt":null,"stimulus":"Stimuli_Rocks480/M_Slate_10.png","response":null,"trial_type":"image-keyboard-response","trial_index":175,"plugin_version":"2.1.0","time_elapsed":318902,"subject_id":"91548","group":"Group2","condition":"3_Rep","full_date":"2026-01-31T16:52:06.942Z","date":"2026-01-31","time":"16:52:06"},{"rt":null,"stimulus":"<p style=\"font-size: 50px; margin: 0; text-align: center;\">+</p>","response":null,"trial_type":"html-keyboard-response","trial_index":176,"plugin_version":"2.1.0","time_elapsed":319905,"subject_id":"91548","group":"Group2","condition":"3_Rep","full_date":"2026-01-31T16:52:06.942Z","date":"2026-01-31","time":"16:52:06"},{"task":"memory_phase","broad_category":"M","image_png":"M_Slate_14.png","image_id":318,"category_name":"Slate","category":20,"distinct_rating":2.58,"distinct_type":"Bottom","rt":null,"stimulus":"Stimuli_Rocks480/M_Slate_14.png","response":null,"trial_type":"image-keyboard-response","trial_index":177,"plugin_version":"2.1.0","time_elapsed":322423,"subject_id":"91548","group":"Group2","condition":"3_Rep","full_date":"2026-01-31T16:52:06.942Z","date":"2026-01-31","time":"16:52:06"},{"rt":null,"stimulus":"<p style=\"font-size: 50px; margin: 0; text-align: center;\">+</p>","response":null,"trial_type":"html-keyboard-response","trial_index":178,"plugin_version":"2.1.0","time_elapsed":323427,"subject_id":"91548","group":"Group2","condition":"3_Rep","full_date":"2026-01-31T16:52:06.942Z","date":"2026-01-31","time":"16:52:06"},{"task":"memory_phase","broad_category":"S","image_png":"S_Rock Salt_13.png","image_id":445,"category_name":"Rock Salt","category":28,"distinct_rating":7.58,"distinct_type":"Top","rt":null,"stimulus":"Stimuli_Rocks480/S_Rock Salt_13.png","response":null,"trial_type":"image-keyboard-response","trial_index":179,"plugin_version":"2.1.0","time_elapsed":325949,"subject_id":"91548","group":"Group2","condition":"3_Rep","full_date":"2026-01-31T16:52:06.942Z","date":"2026-01-31","time":"16:52:06"},{"rt":null,"stimulus":"<p style=\"font-size: 50px; margin: 0; text-align: center;\">+</p>","response":null,"trial_type":"html-keyboard-response","trial_index":180,"plugin_version":"2.1.0","time_elapsed":326953,"subject_id":"91548","group":"Group2","condition":"3_Rep","full_date":"2026-01-31T16:52:06.942Z","date":"2026-01-31","time":"16:52:06"},{"task":"memory_phase","broad_category":"M","image_png":"M_Marble_03.png","image_id":227,"category_name":"Marble","category":15,"distinct_rating":2.67,"distinct_type":"Bottom","rt":null,"stimulus":"Stimuli_Rocks480/M_Marble_03.png","response":null,"trial_type":"image-keyboard-response","trial_index":181,"plugin_version":"2.1.0","time_elapsed":329472,"subject_id":"91548","group":"Group2","condition":"3_Rep","full_date":"2026-01-31T16:52:06.942Z","date":"2026-01-31","time":"16:52:06"},{"rt":null,"stimulus":"<p style=\"font-size: 50px; margin: 0; text-align: center;\">+</p>","response":null,"trial_type":"html-keyboard-response","trial_index":182,"plugin_version":"2.1.0","time_elapsed":330475,"subject_id":"91548","group":"Group2","condition":"3_Rep","full_date":"2026-01-31T16:52:06.942Z","date":"2026-01-31","time":"16:52:06"},{"task":"memory_phase","broad_category":"M","image_png":"M_Phyllite_05.png","image_id":261,"category_name":"Phyllite","category":17,"distinct_rating":2.14,"distinct_type":"Bottom","rt":null,"stimulus":"Stimuli_Rocks480/M_Phyllite_05.png","response":null,"trial_type":"image-keyboard-response","trial_index":183,"plugin_version":"2.1.0","time_elapsed":332993,"subject_id":"91548","group":"Group2","condition":"3_Rep","full_date":"2026-01-31T16:52:06.942Z","date":"2026-01-31","time":"16:52:06"},{"rt":null,"stimulus":"<p style=\"font-size: 50px; margin: 0; text-align: center;\">+</p>","response":null,"trial_type":"html-keyboard-response","trial_index":184,"plugin_version":"2.1.0","time_elapsed":333996,"subject_id":"91548","group":"Group2","condition":"3_Rep","full_date":"2026-01-31T16:52:06.942Z","date":"2026-01-31","time":"16:52:06"},{"task":"memory_phase","broad_category":"M","image_png":"M_Phyllite_02.png","image_id":258,"category_name":"Phyllite","category":17,"distinct_rating":2.89,"distinct_type":"Bottom","rt":null,"stimulus":"Stimuli_Rocks480/M_Phyllite_02.png","response":null,"trial_type":"image-keyboard-response","trial_index":185,"plugin_version":"2.1.0","time_elapsed":336518,"subject_id":"91548","group":"Group2","condition":"3_Rep","full_date":"2026-01-31T16:52:06.942Z","date":"2026-01-31","time":"16:52:06"},{"rt":null,"stimulus":"<p style=\"font-size: 50px; margin: 0; text-align: center;\">+</p>","response":null,"trial_type":"html-keyboard-response","trial_index":186,"plugin_version":"2.1.0","time_elapsed":337520,"subject_id":"91548","group":"Group2","condition":"3_Rep","full_date":"2026-01-31T16:52:06.942Z","date":"2026-01-31","time":"16:52:06"},{"task":"memory_phase","broad_category":"I","image_png":"I_Pumice_13.png","image_id":141,"category_name":"Pumice","category":9,"distinct_rating":3.12,"distinct_type":"Bottom","rt":null,"stimulus":"Stimuli_Rocks480/I_Pumice_13.png","response":null,"trial_type":"image-keyboard-response","trial_index":187,"plugin_version":"2.1.0","time_elapsed":340042,"subject_id":"91548","group":"Group2","condition":"3_Rep","full_date":"2026-01-31T16:52:06.942Z","date":"2026-01-31","time":"16:52:06"},{"rt":null,"stimulus":"<p style=\"font-size: 50px; margin: 0; text-align: center;\">+</p>","response":null,"trial_type":"html-keyboard-response","trial_index":188,"plugin_version":"2.1.0","time_elapsed":341044,"subject_id":"91548","group":"Group2","condition":"3_Rep","full_date":"2026-01-31T16:52:06.942Z","date":"2026-01-31","time":"16:52:06"},{"task":"memory_phase","broad_category":"I","image_png":"I_Diorite_01.png","image_id":33,"category_name":"Diorite","category":3,"distinct_rating":2.97,"distinct_type":"Bottom","rt":null,"stimulus":"Stimuli_Rocks480/I_Diorite_01.png","response":null,"trial_type":"image-keyboard-response","trial_index":189,"plugin_version":"2.1.0","time_elapsed":343568,"subject_id":"91548","group":"Group2","condition":"3_Rep","full_date":"2026-01-31T16:52:06.942Z","date":"2026-01-31","time":"16:52:06"},{"rt":null,"stimulus":"<p style=\"font-size: 50px; margin: 0; text-align: center;\">+</p>","response":null,"trial_type":"html-keyboard-response","trial_index":190,"plugin_version":"2.1.0","time_elapsed":344571,"subject_id":"91548","group":"Group2","condition":"3_Rep","full_date":"2026-01-31T16:52:06.942Z","date":"2026-01-31","time":"16:52:06"},{"task":"memory_phase","broad_category":"M","image_png":"M_Quartzite_12.png","image_id":284,"category_name":"Quartzite","category":18,"distinct_rating":1.92,"distinct_type":"Bottom","rt":null,"stimulus":"Stimuli_Rocks480/M_Quartzite_12.png","response":null,"trial_type":"image-keyboard-response","trial_index":191,"plugin_version":"2.1.0","time_elapsed":347089,"subject_id":"91548","group":"Group2","condition":"3_Rep","full_date":"2026-01-31T16:52:06.942Z","date":"2026-01-31","time":"16:52:06"},{"rt":null,"stimulus":"<p style=\"font-size: 50px; margin: 0; text-align: center;\">+</p>","response":null,"trial_type":"html-keyboard-response","trial_index":192,"plugin_version":"2.1.0","time_elapsed":348091,"subject_id":"91548","group":"Group2","condition":"3_Rep","full_date":"2026-01-31T16:52:06.942Z","date":"2026-01-31","time":"16:52:06"},{"task":"memory_phase","broad_category":"M","image_png":"M_Quartzite_07.png","image_id":279,"category_name":"Quartzite","category":18,"distinct_rating":1.97,"distinct_type":"Bottom","rt":null,"stimulus":"Stimuli_Rocks480/M_Quartzite_07.png","response":null,"trial_type":"image-keyboard-response","trial_index":193,"plugin_version":"2.1.0","time_elapsed":350612,"subject_id":"91548","group":"Group2","condition":"3_Rep","full_date":"2026-01-31T16:52:06.942Z","date":"2026-01-31","time":"16:52:06"},{"rt":null,"stimulus":"<p style=\"font-size: 50px; margin: 0; text-align: center;\">+</p>","response":null,"trial_type":"html-keyboard-response","trial_index":194,"plugin_version":"2.1.0","time_elapsed":351613,"subject_id":"91548","group":"Group2","condition":"3_Rep","full_date":"2026-01-31T16:52:06.942Z","date":"2026-01-31","time":"16:52:06"},{"task":"memory_phase","broad_category":"I","image_png":"I_Diorite_15.png","image_id":47,"category_name":"Diorite","category":3,"distinct_rating":3.05,"distinct_type":"Bottom","rt":null,"stimulus":"Stimuli_Rocks480/I_Diorite_15.png","response":null,"trial_type":"image-keyboard-response","trial_index":195,"plugin_version":"2.1.0","time_elapsed":354129,"subject_id":"91548","group":"Group2","condition":"3_Rep","full_date":"2026-01-31T16:52:06.942Z","date":"2026-01-31","time":"16:52:06"},{"rt":null,"stimulus":"<p style=\"font-size: 50px; margin: 0; text-align: center;\">+</p>","response":null,"trial_type":"html-keyboard-response","trial_index":196,"plugin_version":"2.1.0","time_elapsed":355131,"subject_id":"91548","group":"Group2","condition":"3_Rep","full_date":"2026-01-31T16:52:06.942Z","date":"2026-01-31","time":"16:52:06"},{"task":"memory_phase","broad_category":"S","image_png":"S_Dolomite_07.png","image_id":391,"category_name":"Dolomite","category":25,"distinct_rating":1.73,"distinct_type":"Bottom","rt":null,"stimulus":"Stimuli_Rocks480/S_Dolomite_07.png","response":null,"trial_type":"image-keyboard-response","trial_index":197,"plugin_version":"2.1.0","time_elapsed":357651,"subject_id":"91548","group":"Group2","condition":"3_Rep","full_date":"2026-01-31T16:52:06.942Z","date":"2026-01-31","time":"16:52:06"},{"rt":null,"stimulus":"<p style=\"font-size: 50px; margin: 0; text-align: center;\">+</p>","response":null,"trial_type":"html-keyboard-response","trial_index":198,"plugin_version":"2.1.0","time_elapsed":358653,"subject_id":"91548","group":"Group2","condition":"3_Rep","full_date":"2026-01-31T16:52:06.942Z","date":"2026-01-31","time":"16:52:06"},{"task":"memory_phase","broad_category":"I","image_png":"I_Pegmatite_03.png","image_id":99,"category_name":"Pegmatite","category":7,"distinct_rating":7.24,"distinct_type":"Top","rt":null,"stimulus":"Stimuli_Rocks480/I_Pegmatite_03.png","response":null,"trial_type":"image-keyboard-response","trial_index":199,"plugin_version":"2.1.0","time_elapsed":361172,"subject_id":"91548","group":"Group2","condition":"3_Rep","full_date":"2026-01-31T16:52:06.942Z","date":"2026-01-31","time":"16:52:06"},{"rt":null,"stimulus":"<p style=\"font-size: 50px; margin: 0; text-align: center;\">+</p>","response":null,"trial_type":"html-keyboard-response","trial_index":200,"plugin_version":"2.1.0","time_elapsed":362175,"subject_id":"91548","group":"Group2","condition":"3_Rep","full_date":"2026-01-31T16:52:06.942Z","date":"2026-01-31","time":"16:52:06"},{"task":"memory_phase","broad_category":"S","image_png":"S_Chert_13.png","image_id":365,"category_name":"Chert","category":23,"distinct_rating":6.57,"distinct_type":"Top","rt":null,"stimulus":"Stimuli_Rocks480/S_Chert_13.png","response":null,"trial_type":"image-keyboard-response","trial_index":201,"plugin_version":"2.1.0","time_elapsed":364687,"subject_id":"91548","group":"Group2","condition":"3_Rep","full_date":"2026-01-31T16:52:06.942Z","date":"2026-01-31","time":"16:52:06"},{"rt":null,"stimulus":"<p style=\"font-size: 50px; margin: 0; text-align: center;\">+</p>","response":null,"trial_type":"html-keyboard-response","trial_index":202,"plugin_version":"2.1.0","time_elapsed":365690,"subject_id":"91548","group":"Group2","condition":"3_Rep","full_date":"2026-01-31T16:52:06.942Z","date":"2026-01-31","time":"16:52:06"},{"task":"memory_phase","broad_category":"I","image_png":"I_Andesite_04.png","image_id":4,"category_name":"Andesite","category":1,"distinct_rating":3.18,"distinct_type":"Bottom","rt":null,"stimulus":"Stimuli_Rocks480/I_Andesite_04.png","response":null,"trial_type":"image-keyboard-response","trial_index":203,"plugin_version":"2.1.0","time_elapsed":368209,"subject_id":"91548","group":"Group2","condition":"3_Rep","full_date":"2026-01-31T16:52:06.942Z","date":"2026-01-31","time":"16:52:06"},{"rt":null,"stimulus":"<p style=\"font-size: 50px; margin: 0; text-align: center;\">+</p>","response":null,"trial_type":"html-keyboard-response","trial_index":204,"plugin_version":"2.1.0","time_elapsed":369211,"subject_id":"91548","group":"Group2","condition":"3_Rep","full_date":"2026-01-31T16:52:06.942Z","date":"2026-01-31","time":"16:52:06"},{"task":"memory_phase","broad_category":"I","image_png":"I_Gabbro_14.png","image_id":62,"category_name":"Gabbro","category":4,"distinct_rating":2.95,"distinct_type":"Bottom","rt":null,"stimulus":"Stimuli_Rocks480/I_Gabbro_14.png","response":null,"trial_type":"image-keyboard-response","trial_index":205,"plugin_version":"2.1.0","time_elapsed":371733,"subject_id":"91548","group":"Group2","condition":"3_Rep","full_date":"2026-01-31T16:52:06.942Z","date":"2026-01-31","time":"16:52:06"},{"rt":null,"stimulus":"<p style=\"font-size: 50px; margin: 0; text-align: center;\">+</p>","response":null,"trial_type":"html-keyboard-response","trial_index":206,"plugin_version":"2.1.0","time_elapsed":372736,"subject_id":"91548","group":"Group2","condition":"3_Rep","full_date":"2026-01-31T16:52:06.942Z","date":"2026-01-31","time":"16:52:06"},{"task":"memory_phase","broad_category":"I","image_png":"I_Basalt_08.png","image_id":24,"category_name":"Basalt","category":2,"distinct_rating":2.31,"distinct_type":"Bottom","rt":null,"stimulus":"Stimuli_Rocks480/I_Basalt_08.png","response":null,"trial_type":"image-keyboard-response","trial_index":207,"plugin_version":"2.1.0","time_elapsed":375262,"subject_id":"91548","group":"Group2","condition":"3_Rep","full_date":"2026-01-31T16:52:06.942Z","date":"2026-01-31","time":"16:52:06"},{"rt":2086,"stimulus":"<p style=\"max-width: 760px; margin: auto; font-size: 35px; line-height: 1.5;\">\n                You have completed 2 study phases. \n                Now, we'll show you all the images again 1 more time.\n                <br><br>Press SPACE to continue\n              </p>","response":" ","trial_type":"html-keyboard-response","trial_index":208,"plugin_version":"2.1.0","time_elapsed":377349,"subject_id":"91548","group":"Group2","condition":"3_Rep","full_date":"2026-01-31T16:52:06.942Z","date":"2026-01-31","time":"16:52:06"},{"rt":null,"stimulus":"<p style=\"font-size: 50px; margin: 0; text-align: center;\">+</p>","response":null,"trial_type":"html-keyboard-response","trial_index":209,"plugin_version":"2.1.0","time_elapsed":378352,"subject_id":"91548","group":"Group2","condition":"3_Rep","full_date":"2026-01-31T16:52:06.942Z","date":"2026-01-31","time":"16:52:06"},{"task":"memory_phase","broad_category":"S","image_png":"S_Dolomite_07.png","image_id":391,"category_name":"Dolomite","category":25,"distinct_rating":1.73,"distinct_type":"Bottom","rt":null,"stimulus":"Stimuli_Rocks480/S_Dolomite_07.png","response":null,"trial_type":"image-keyboard-response","trial_index":210,"plugin_version":"2.1.0","time_elapsed":380856,"subject_id":"91548","group":"Group2","condition":"3_Rep","full_date":"2026-01-31T16:52:06.942Z","date":"2026-01-31","time":"16:52:06"},{"rt":null,"stimulus":"<p style=\"font-size: 50px; margin: 0; text-align: center;\">+</p>","response":null,"trial_type":"html-keyboard-response","trial_index":211,"plugin_version":"2.1.0","time_elapsed":381859,"subject_id":"91548","group":"Group2","condition":"3_Rep","full_date":"2026-01-31T16:52:06.942Z","date":"2026-01-31","time":"16:52:06"},{"task":"memory_phase","broad_category":"M","image_png":"M_Quartzite_07.png","image_id":279,"category_name":"Quartzite","category":18,"distinct_rating":1.97,"distinct_type":"Bottom","rt":null,"stimulus":"Stimuli_Rocks480/M_Quartzite_07.png","response":null,"trial_type":"image-keyboard-response","trial_index":212,"plugin_version":"2.1.0","time_elapsed":384367,"subject_id":"91548","group":"Group2","condition":"3_Rep","full_date":"2026-01-31T16:52:06.942Z","date":"2026-01-31","time":"16:52:06"},{"rt":null,"stimulus":"<p style=\"font-size: 50px; margin: 0; text-align: center;\">+</p>","response":null,"trial_type":"html-keyboard-response","trial_index":213,"plugin_version":"2.1.0","time_elapsed":385371,"subject_id":"91548","group":"Group2","condition":"3_Rep","full_date":"2026-01-31T16:52:06.942Z","date":"2026-01-31","time":"16:52:06"},{"task":"memory_phase","broad_category":"M","image_png":"M_Marble_03.png","image_id":227,"category_name":"Marble","category":15,"distinct_rating":2.67,"distinct_type":"Bottom","rt":null,"stimulus":"Stimuli_Rocks480/M_Marble_03.png","response":null,"trial_type":"image-keyboard-response","trial_index":214,"plugin_version":"2.1.0","time_elapsed":387876,"subject_id":"91548","group":"Group2","condition":"3_Rep","full_date":"2026-01-31T16:52:06.942Z","date":"2026-01-31","time":"16:52:06"},{"rt":null,"stimulus":"<p style=\"font-size: 50px; margin: 0; text-align: center;\">+</p>","response":null,"trial_type":"html-keyboard-response","trial_index":215,"plugin_version":"2.1.0","time_elapsed":388880,"subject_id":"91548","group":"Group2","condition":"3_Rep","full_date":"2026-01-31T16:52:06.942Z","date":"2026-01-31","time":"16:52:06"},{"task":"memory_phase","broad_category":"S","image_png":"S_Sandstone_08.png","image_id":456,"category_name":"Sandstone","category":29,"distinct_rating":1.5,"distinct_type":"Bottom","rt":null,"stimulus":"Stimuli_Rocks480/S_Sandstone_08.png","response":null,"trial_type":"image-keyboard-response","trial_index":216,"plugin_version":"2.1.0","time_elapsed":391399,"subject_id":"91548","group":"Group2","condition":"3_Rep","full_date":"2026-01-31T16:52:06.942Z","date":"2026-01-31","time":"16:52:06"},{"rt":null,"stimulus":"<p style=\"font-size: 50px; margin: 0; text-align: center;\">+</p>","response":null,"trial_type":"html-keyboard-response","trial_index":217,"plugin_version":"2.1.0","time_elapsed":392401,"subject_id":"91548","group":"Group2","condition":"3_Rep","full_date":"2026-01-31T16:52:06.942Z","date":"2026-01-31","time":"16:52:06"},{"task":"memory_phase","broad_category":"I","image_png":"I_Rhyolite_08.png","image_id":152,"category_name":"Rhyolite","category":10,"distinct_rating":1.38,"distinct_type":"Bottom","rt":null,"stimulus":"Stimuli_Rocks480/I_Rhyolite_08.png","response":null,"trial_type":"image-keyboard-response","trial_index":218,"plugin_version":"2.1.0","time_elapsed":394918,"subject_id":"91548","group":"Group2","condition":"3_Rep","full_date":"2026-01-31T16:52:06.942Z","date":"2026-01-31","time":"16:52:06"},{"rt":null,"stimulus":"<p style=\"font-size: 50px; margin: 0; text-align: center;\">+</p>","response":null,"trial_type":"html-keyboard-response","trial_index":219,"plugin_version":"2.1.0","time_elapsed":395921,"subject_id":"91548","group":"Group2","condition":"3_Rep","full_date":"2026-01-31T16:52:06.942Z","date":"2026-01-31","time":"16:52:06"},{"task":"memory_phase","broad_category":"I","image_png":"I_Andesite_09.png","image_id":9,"category_name":"Andesite","category":1,"distinct_rating":2.49,"distinct_type":"Bottom","rt":null,"stimulus":"Stimuli_Rocks480/I_Andesite_09.png","response":null,"trial_type":"image-keyboard-response","trial_index":220,"plugin_version":"2.1.0","time_elapsed":398438,"subject_id":"91548","group":"Group2","condition":"3_Rep","full_date":"2026-01-31T16:52:06.942Z","date":"2026-01-31","time":"16:52:06"},{"rt":null,"stimulus":"<p style=\"font-size: 50px; margin: 0; text-align: center;\">+</p>","response":null,"trial_type":"html-keyboard-response","trial_index":221,"plugin_version":"2.1.0","time_elapsed":399441,"subject_id":"91548","group":"Group2","condition":"3_Rep","full_date":"2026-01-31T16:52:06.942Z","date":"2026-01-31","time":"16:52:06"},{"task":"memory_phase","broad_category":"M","image_png":"M_Gneiss_15.png","image_id":207,"category_name":"Gneiss","category":13,"distinct_rating":3.11,"distinct_type":"Bottom","rt":null,"stimulus":"Stimuli_Rocks480/M_Gneiss_15.png","response":null,"trial_type":"image-keyboard-response","trial_index":222,"plugin_version":"2.1.0","time_elapsed":401953,"subject_id":"91548","group":"Group2","condition":"3_Rep","full_date":"2026-01-31T16:52:06.942Z","date":"2026-01-31","time":"16:52:06"},{"rt":null,"stimulus":"<p style=\"font-size: 50px; margin: 0; text-align: center;\">+</p>","response":null,"trial_type":"html-keyboard-response","trial_index":223,"plugin_version":"2.1.0","time_elapsed":402956,"subject_id":"91548","group":"Group2","condition":"3_Rep","full_date":"2026-01-31T16:52:06.942Z","date":"2026-01-31","time":"16:52:06"},{"task":"memory_phase","broad_category":"S","image_png":"S_Rock Salt_15.png","image_id":447,"category_name":"Rock Salt","category":28,"distinct_rating":7.79,"distinct_type":"Top","rt":null,"stimulus":"Stimuli_Rocks480/S_Rock Salt_15.png","response":null,"trial_type":"image-keyboard-response","trial_index":224,"plugin_version":"2.1.0","time_elapsed":405472,"subject_id":"91548","group":"Group2","condition":"3_Rep","full_date":"2026-01-31T16:52:06.942Z","date":"2026-01-31","time":"16:52:06"},{"rt":null,"stimulus":"<p style=\"font-size: 50px; margin: 0; text-align: center;\">+</p>","response":null,"trial_type":"html-keyboard-response","trial_index":225,"plugin_version":"2.1.0","time_elapsed":406475,"subject_id":"91548","group":"Group2","condition":"3_Rep","full_date":"2026-01-31T16:52:06.942Z","date":"2026-01-31","time":"16:52:06"},{"task":"memory_phase","broad_category":"M","image_png":"M_Quartzite_15.png","image_id":287,"category_name":"Quartzite","category":18,"distinct_rating":2.19,"distinct_type":"Bottom","rt":null,"stimulus":"Stimuli_Rocks480/M_Quartzite_15.png","response":null,"trial_type":"image-keyboard-response","trial_index":226,"plugin_version":"2.1.0","time_elapsed":408994,"subject_id":"91548","group":"Group2","condition":"3_Rep","full_date":"2026-01-31T16:52:06.942Z","date":"2026-01-31","time":"16:52:06"},{"rt":null,"stimulus":"<p style=\"font-size: 50px; margin: 0; text-align: center;\">+</p>","response":null,"trial_type":"html-keyboard-response","trial_index":227,"plugin_version":"2.1.0","time_elapsed":409997,"subject_id":"91548","group":"Group2","condition":"3_Rep","full_date":"2026-01-31T16:52:06.942Z","date":"2026-01-31","time":"16:52:06"},{"task":"memory_phase","broad_category":"M","image_png":"M_Slate_04.png","image_id":308,"category_name":"Slate","category":20,"distinct_rating":2.2,"distinct_type":"Bottom","rt":null,"stimulus":"Stimuli_Rocks480/M_Slate_04.png","response":null,"trial_type":"image-keyboard-response","trial_index":228,"plugin_version":"2.1.0","time_elapsed":412511,"subject_id":"91548","group":"Group2","condition":"3_Rep","full_date":"2026-01-31T16:52:06.942Z","date":"2026-01-31","time":"16:52:06"},{"rt":null,"stimulus":"<p style=\"font-size: 50px; margin: 0; text-align: center;\">+</p>","response":null,"trial_type":"html-keyboard-response","trial_index":229,"plugin_version":"2.1.0","time_elapsed":413514,"subject_id":"91548","group":"Group2","condition":"3_Rep","full_date":"2026-01-31T16:52:06.942Z","date":"2026-01-31","time":"16:52:06"},{"task":"memory_phase","broad_category":"I","image_png":"I_Andesite_03.png","image_id":3,"category_name":"Andesite","category":1,"distinct_rating":3.17,"distinct_type":"Bottom","rt":null,"stimulus":"Stimuli_Rocks480/I_Andesite_03.png","response":null,"trial_type":"image-keyboard-response","trial_index":230,"plugin_version":"2.1.0","time_elapsed":416026,"subject_id":"91548","group":"Group2","condition":"3_Rep","full_date":"2026-01-31T16:52:06.942Z","date":"2026-01-31","time":"16:52:06"},{"rt":null,"stimulus":"<p style=\"font-size: 50px; margin: 0; text-align: center;\">+</p>","response":null,"trial_type":"html-keyboard-response","trial_index":231,"plugin_version":"2.1.0","time_elapsed":417029,"subject_id":"91548","group":"Group2","condition":"3_Rep","full_date":"2026-01-31T16:52:06.942Z","date":"2026-01-31","time":"16:52:06"},{"task":"memory_phase","broad_category":"I","image_png":"I_Basalt_10.png","image_id":26,"category_name":"Basalt","category":2,"distinct_rating":2.76,"distinct_type":"Bottom","rt":null,"stimulus":"Stimuli_Rocks480/I_Basalt_10.png","response":null,"trial_type":"image-keyboard-response","trial_index":232,"plugin_version":"2.1.0","time_elapsed":419546,"subject_id":"91548","group":"Group2","condition":"3_Rep","full_date":"2026-01-31T16:52:06.942Z","date":"2026-01-31","time":"16:52:06"},{"rt":null,"stimulus":"<p style=\"font-size: 50px; margin: 0; text-align: center;\">+</p>","response":null,"trial_type":"html-keyboard-response","trial_index":233,"plugin_version":"2.1.0","time_elapsed":420548,"subject_id":"91548","group":"Group2","condition":"3_Rep","full_date":"2026-01-31T16:52:06.942Z","date":"2026-01-31","time":"16:52:06"},{"task":"memory_phase","broad_category":"I","image_png":"I_Gabbro_12.png","image_id":60,"category_name":"Gabbro","category":4,"distinct_rating":2.6,"distinct_type":"Bottom","rt":null,"stimulus":"Stimuli_Rocks480/I_Gabbro_12.png","response":null,"trial_type":"image-keyboard-response","trial_index":234,"plugin_version":"2.1.0","time_elapsed":423070,"subject_id":"91548","group":"Group2","condition":"3_Rep","full_date":"2026-01-31T16:52:06.942Z","date":"2026-01-31","time":"16:52:06"},{"rt":null,"stimulus":"<p style=\"font-size: 50px; margin: 0; text-align: center;\">+</p>","response":null,"trial_type":"html-keyboard-response","trial_index":235,"plugin_version":"2.1.0","time_elapsed":424073,"subject_id":"91548","group":"Group2","condition":"3_Rep","full_date":"2026-01-31T16:52:06.942Z","date":"2026-01-31","time":"16:52:06"},{"task":"memory_phase","broad_category":"S","image_png":"S_Rock Salt_13.png","image_id":445,"category_name":"Rock Salt","category":28,"distinct_rating":7.58,"distinct_type":"Top","rt":null,"stimulus":"Stimuli_Rocks480/S_Rock Salt_13.png