[{"width":1528,"height":794,"webaudio":true,"browser":"edge-chromium","browser_version":"144.0.0","mobile":false,"os":"Windows 10","fullscreen":true,"vsync_rate":60,"webcam":true,"microphone":true,"trial_type":"browser-check","trial_index":0,"plugin_version":"2.1.0","time_elapsed":1012,"subject_id":"92544","group":"Group1","condition":"3_Rep","full_date":"2026-02-25T18:12:51.267Z","date":"2026-02-25","time":"18:12:51"},{"success":true,"timeout":false,"failed_images":[],"failed_audio":[],"failed_video":[],"trial_type":"preload","trial_index":1,"plugin_version":"2.1.0","time_elapsed":13704,"subject_id":"92544","group":"Group1","condition":"3_Rep","full_date":"2026-02-25T18:12:51.267Z","date":"2026-02-25","time":"18:12:51"},{"rt":27007,"url":"SONA_consent_memorability.html","trial_type":"external-html","trial_index":2,"plugin_version":"2.1.0","time_elapsed":40796,"subject_id":"92544","group":"Group1","condition":"3_Rep","full_date":"2026-02-25T18:12:51.267Z","date":"2026-02-25","time":"18:12:51"},{"success":true,"rt":207411197,"trial_type":"fullscreen","trial_index":3,"plugin_version":"2.1.0","time_elapsed":207453000,"subject_id":"92544","group":"Group1","condition":"3_Rep","full_date":"2026-02-25T18:12:51.267Z","date":"2026-02-25","time":"18:12:51"},{"rt":103502,"stimulus":"<div style=\"max-width: 760px; margin: auto; font-size: 20px; line-height: 1.5;\">\n      <h1 style=\"text-align:center; font-size: 30px;\">Instructions</h1>\n      <p>\n        Welcome to the study on <b>visual memory</b>. This experiment consists of <b>two phases</b>: \n        a <b>study phase</b> and a <b>test phase</b>.\n      </p>\n      <p>\n        In the study phase, you will see a series of rock images along with their category labels.\n        The images will appear one at a time.\n        <b>Your task</b> is to learn the categories to which the rock images belong \n        and to remember each image as accurately as possible.\n      </p> \n      <p>\n        Note that we will repeat the study phase <b>3 times</b>, \n             so you will have multiple opportunities to see and remember each image.\n      </p>\n      <p>\n        After the study phase, <b>your memory will be tested</b>. \n        Additional instructions for the test phase will be provided at that time.\n      </p>\n      <p>\n        If your computer has multiple <b>language settings</b> (e.g., English and another language),\n        please make sure it is set to English before starting.\n      </p>\n      <p>\n        You can track your progress using the <b>completion bar</b> at the top of the screen. \n        Please note that the bar will refresh when the test phase begins \n        to give you an accurate sense of your progress in both phases.\n      </p> \n      <p>\n        Press the button below when you are ready to begin.\n      </p>\n    </div>","response":0,"trial_type":"html-button-response","trial_index":4,"plugin_version":"2.1.0","time_elapsed":207556504,"subject_id":"92544","group":"Group1","condition":"3_Rep","full_date":"2026-02-25T18:12:51.267Z","date":"2026-02-25","time":"18:12:51"},{"rt":null,"stimulus":"<p style=\"font-size: 50px; margin: 0; text-align: center;\">+</p>","response":null,"trial_type":"html-keyboard-response","trial_index":5,"plugin_version":"2.1.0","time_elapsed":207557508,"subject_id":"92544","group":"Group1","condition":"3_Rep","full_date":"2026-02-25T18:12:51.267Z","date":"2026-02-25","time":"18:12:51"},{"task":"memory_phase","broad_category":"I","image_png":"I_Gabbro_16.png","image_id":64,"category_name":"Gabbro","category":4,"distinct_rating":2.52,"distinct_type":"Bottom","rt":null,"stimulus":"Stimuli_Rocks480/I_Gabbro_16.png","response":null,"trial_type":"image-keyboard-response","trial_index":6,"plugin_version":"2.1.0","time_elapsed":207560022,"subject_id":"92544","group":"Group1","condition":"3_Rep","full_date":"2026-02-25T18:12:51.267Z","date":"2026-02-25","time":"18:12:51"},{"rt":null,"stimulus":"<p style=\"font-size: 50px; margin: 0; text-align: center;\">+</p>","response":null,"trial_type":"html-keyboard-response","trial_index":7,"plugin_version":"2.1.0","time_elapsed":207561034,"subject_id":"92544","group":"Group1","condition":"3_Rep","full_date":"2026-02-25T18:12:51.267Z","date":"2026-02-25","time":"18:12:51"},{"task":"memory_phase","broad_category":"M","image_png":"M_Slate_03.png","image_id":307,"category_name":"Slate","category":20,"distinct_rating":1.87,"distinct_type":"Bottom","rt":null,"stimulus":"Stimuli_Rocks480/M_Slate_03.png","response":null,"trial_type":"image-keyboard-response","trial_index":8,"plugin_version":"2.1.0","time_elapsed":207563542,"subject_id":"92544","group":"Group1","condition":"3_Rep","full_date":"2026-02-25T18:12:51.267Z","date":"2026-02-25","time":"18:12:51"},{"rt":null,"stimulus":"<p style=\"font-size: 50px; margin: 0; text-align: center;\">+</p>","response":null,"trial_type":"html-keyboard-response","trial_index":9,"plugin_version":"2.1.0","time_elapsed":207564545,"subject_id":"92544","group":"Group1","condition":"3_Rep","full_date":"2026-02-25T18:12:51.267Z","date":"2026-02-25","time":"18:12:51"},{"task":"memory_phase","broad_category":"I","image_png":"I_Diorite_03.png","image_id":35,"category_name":"Diorite","category":3,"distinct_rating":3.14,"distinct_type":"Bottom","rt":null,"stimulus":"Stimuli_Rocks480/I_Diorite_03.png","response":null,"trial_type":"image-keyboard-response","trial_index":10,"plugin_version":"2.1.0","time_elapsed":207567051,"subject_id":"92544","group":"Group1","condition":"3_Rep","full_date":"2026-02-25T18:12:51.267Z","date":"2026-02-25","time":"18:12:51"},{"rt":null,"stimulus":"<p style=\"font-size: 50px; margin: 0; text-align: center;\">+</p>","response":null,"trial_type":"html-keyboard-response","trial_index":11,"plugin_version":"2.1.0","time_elapsed":207568061,"subject_id":"92544","group":"Group1","condition":"3_Rep","full_date":"2026-02-25T18:12:51.267Z","date":"2026-02-25","time":"18:12:51"},{"task":"memory_phase","broad_category":"S","image_png":"S_Rock Salt_01.png","image_id":433,"category_name":"Rock Salt","category":28,"distinct_rating":7.18,"distinct_type":"Top","rt":null,"stimulus":"Stimuli_Rocks480/S_Rock Salt_01.png","response":null,"trial_type":"image-keyboard-response","trial_index":12,"plugin_version":"2.1.0","time_elapsed":207570578,"subject_id":"92544","group":"Group1","condition":"3_Rep","full_date":"2026-02-25T18:12:51.267Z","date":"2026-02-25","time":"18:12:51"},{"rt":null,"stimulus":"<p style=\"font-size: 50px; margin: 0; text-align: center;\">+</p>","response":null,"trial_type":"html-keyboard-response","trial_index":13,"plugin_version":"2.1.0","time_elapsed":207571580,"subject_id":"92544","group":"Group1","condition":"3_Rep","full_date":"2026-02-25T18:12:51.267Z","date":"2026-02-25","time":"18:12:51"},{"task":"memory_phase","broad_category":"I","image_png":"I_Diorite_05.png","image_id":37,"category_name":"Diorite","category":3,"distinct_rating":3.08,"distinct_type":"Bottom","rt":null,"stimulus":"Stimuli_Rocks480/I_Diorite_05.png","response":null,"trial_type":"image-keyboard-response","trial_index":14,"plugin_version":"2.1.0","time_elapsed":207574085,"subject_id":"92544","group":"Group1","condition":"3_Rep","full_date":"2026-02-25T18:12:51.267Z","date":"2026-02-25","time":"18:12:51"},{"rt":null,"stimulus":"<p style=\"font-size: 50px; margin: 0; text-align: center;\">+</p>","response":null,"trial_type":"html-keyboard-response","trial_index":15,"plugin_version":"2.1.0","time_elapsed":207575099,"subject_id":"92544","group":"Group1","condition":"3_Rep","full_date":"2026-02-25T18:12:51.267Z","date":"2026-02-25","time":"18:12:51"},{"task":"memory_phase","broad_category":"I","image_png":"I_Basalt_09.png","image_id":25,"category_name":"Basalt","category":2,"distinct_rating":1.89,"distinct_type":"Bottom","rt":null,"stimulus":"Stimuli_Rocks480/I_Basalt_09.png","response":null,"trial_type":"image-keyboard-response","trial_index":16,"plugin_version":"2.1.0","time_elapsed":207577609,"subject_id":"92544","group":"Group1","condition":"3_Rep","full_date":"2026-02-25T18:12:51.267Z","date":"2026-02-25","time":"18:12:51"},{"rt":null,"stimulus":"<p style=\"font-size: 50px; margin: 0; text-align: center;\">+</p>","response":null,"trial_type":"html-keyboard-response","trial_index":17,"plugin_version":"2.1.0","time_elapsed":207578621,"subject_id":"92544","group":"Group1","condition":"3_Rep","full_date":"2026-02-25T18:12:51.267Z","date":"2026-02-25","time":"18:12:51"},{"task":"memory_phase","broad_category":"M","image_png":"M_Gneiss_05.png","image_id":197,"category_name":"Gneiss","category":13,"distinct_rating":2.97,"distinct_type":"Bottom","rt":null,"stimulus":"Stimuli_Rocks480/M_Gneiss_05.png","response":null,"trial_type":"image-keyboard-response","trial_index":18,"plugin_version":"2.1.0","time_elapsed":207581131,"subject_id":"92544","group":"Group1","condition":"3_Rep","full_date":"2026-02-25T18:12:51.267Z","date":"2026-02-25","time":"18:12:51"},{"rt":null,"stimulus":"<p style=\"font-size: 50px; margin: 0; text-align: center;\">+</p>","response":null,"trial_type":"html-keyboard-response","trial_index":19,"plugin_version":"2.1.0","time_elapsed":207582148,"subject_id":"92544","group":"Group1","condition":"3_Rep","full_date":"2026-02-25T18:12:51.267Z","date":"2026-02-25","time":"18:12:51"},{"task":"memory_phase","broad_category":"M","image_png":"M_Slate_15.png","image_id":319,"category_name":"Slate","category":20,"distinct_rating":2.13,"distinct_type":"Bottom","rt":null,"stimulus":"Stimuli_Rocks480/M_Slate_15.png","response":null,"trial_type":"image-keyboard-response","trial_index":20,"plugin_version":"2.1.0","time_elapsed":207584651,"subject_id":"92544","group":"Group1","condition":"3_Rep","full_date":"2026-02-25T18:12:51.267Z","date":"2026-02-25","time":"18:12:51"},{"rt":null,"stimulus":"<p style=\"font-size: 50px; margin: 0; text-align: center;\">+</p>","response":null,"trial_type":"html-keyboard-response","trial_index":21,"plugin_version":"2.1.0","time_elapsed":207585668,"subject_id":"92544","group":"Group1","condition":"3_Rep","full_date":"2026-02-25T18:12:51.267Z","date":"2026-02-25","time":"18:12:51"},{"task":"memory_phase","broad_category":"I","image_png":"I_Andesite_06.png","image_id":6,"category_name":"Andesite","category":1,"distinct_rating":3.17,"distinct_type":"Bottom","rt":null,"stimulus":"Stimuli_Rocks480/I_Andesite_06.png","response":null,"trial_type":"image-keyboard-response","trial_index":22,"plugin_version":"2.1.0","time_elapsed":207588176,"subject_id":"92544","group":"Group1","condition":"3_Rep","full_date":"2026-02-25T18:12:51.267Z","date":"2026-02-25","time":"18:12:51"},{"rt":null,"stimulus":"<p style=\"font-size: 50px; margin: 0; text-align: center;\">+</p>","response":null,"trial_type":"html-keyboard-response","trial_index":23,"plugin_version":"2.1.0","time_elapsed":207589194,"subject_id":"92544","group":"Group1","condition":"3_Rep","full_date":"2026-02-25T18:12:51.267Z","date":"2026-02-25","time":"18:12:51"},{"task":"memory_phase","broad_category":"I","image_png":"I_Gabbro_11.png","image_id":59,"category_name":"Gabbro","category":4,"distinct_rating":1.99,"distinct_type":"Bottom","rt":null,"stimulus":"Stimuli_Rocks480/I_Gabbro_11.png","response":null,"trial_type":"image-keyboard-response","trial_index":24,"plugin_version":"2.1.0","time_elapsed":207591697,"subject_id":"92544","group":"Group1","condition":"3_Rep","full_date":"2026-02-25T18:12:51.267Z","date":"2026-02-25","time":"18:12:51"},{"rt":null,"stimulus":"<p style=\"font-size: 50px; margin: 0; text-align: center;\">+</p>","response":null,"trial_type":"html-keyboard-response","trial_index":25,"plugin_version":"2.1.0","time_elapsed":207592708,"subject_id":"92544","group":"Group1","condition":"3_Rep","full_date":"2026-02-25T18:12:51.267Z","date":"2026-02-25","time":"18:12:51"},{"task":"memory_phase","broad_category":"I","image_png":"I_Diorite_04.png","image_id":36,"category_name":"Diorite","category":3,"distinct_rating":2.98,"distinct_type":"Bottom","rt":null,"stimulus":"Stimuli_Rocks480/I_Diorite_04.png","response":null,"trial_type":"image-keyboard-response","trial_index":26,"plugin_version":"2.1.0","time_elapsed":207595219,"subject_id":"92544","group":"Group1","condition":"3_Rep","full_date":"2026-02-25T18:12:51.267Z","date":"2026-02-25","time":"18:12:51"},{"rt":null,"stimulus":"<p style=\"font-size: 50px; margin: 0; text-align: center;\">+</p>","response":null,"trial_type":"html-keyboard-response","trial_index":27,"plugin_version":"2.1.0","time_elapsed":207596230,"subject_id":"92544","group":"Group1","condition":"3_Rep","full_date":"2026-02-25T18:12:51.267Z","date":"2026-02-25","time":"18:12:51"},{"task":"memory_phase","broad_category":"S","image_png":"S_Dolomite_13.png","image_id":397,"category_name":"Dolomite","category":25,"distinct_rating":1.77,"distinct_type":"Bottom","rt":null,"stimulus":"Stimuli_Rocks480/S_Dolomite_13.png","response":null,"trial_type":"image-keyboard-response","trial_index":28,"plugin_version":"2.1.0","time_elapsed":207598742,"subject_id":"92544","group":"Group1","condition":"3_Rep","full_date":"2026-02-25T18:12:51.267Z","date":"2026-02-25","time":"18:12:51"},{"rt":null,"stimulus":"<p style=\"font-size: 50px; margin: 0; text-align: center;\">+</p>","response":null,"trial_type":"html-keyboard-response","trial_index":29,"plugin_version":"2.1.0","time_elapsed":207599757,"subject_id":"92544","group":"Group1","condition":"3_Rep","full_date":"2026-02-25T18:12:51.267Z","date":"2026-02-25","time":"18:12:51"},{"task":"memory_phase","broad_category":"S","image_png":"S_Shale_01.png","image_id":465,"category_name":"Shale","category":30,"distinct_rating":2.7,"distinct_type":"Bottom","rt":null,"stimulus":"Stimuli_Rocks480/S_Shale_01.png","response":null,"trial_type":"image-keyboard-response","trial_index":30,"plugin_version":"2.1.0","time_elapsed":207602273,"subject_id":"92544","group":"Group1","condition":"3_Rep","full_date":"2026-02-25T18:12:51.267Z","date":"2026-02-25","time":"18:12:51"},{"rt":null,"stimulus":"<p style=\"font-size: 50px; margin: 0; text-align: center;\">+</p>","response":null,"trial_type":"html-keyboard-response","trial_index":31,"plugin_version":"2.1.0","time_elapsed":207603276,"subject_id":"92544","group":"Group1","condition":"3_Rep","full_date":"2026-02-25T18:12:51.267Z","date":"2026-02-25","time":"18:12:51"},{"task":"memory_phase","broad_category":"I","image_png":"I_Gabbro_08.png","image_id":56,"category_name":"Gabbro","category":4,"distinct_rating":3.02,"distinct_type":"Bottom","rt":null,"stimulus":"Stimuli_Rocks480/I_Gabbro_08.png","response":null,"trial_type":"image-keyboard-response","trial_index":32,"plugin_version":"2.1.0","time_elapsed":207605782,"subject_id":"92544","group":"Group1","condition":"3_Rep","full_date":"2026-02-25T18:12:51.267Z","date":"2026-02-25","time":"18:12:51"},{"rt":null,"stimulus":"<p style=\"font-size: 50px; margin: 0; text-align: center;\">+</p>","response":null,"trial_type":"html-keyboard-response","trial_index":33,"plugin_version":"2.1.0","time_elapsed":207606793,"subject_id":"92544","group":"Group1","condition":"3_Rep","full_date":"2026-02-25T18:12:51.267Z","date":"2026-02-25","time":"18:12:51"},{"task":"memory_phase","broad_category":"I","image_png":"I_Andesite_08.png","image_id":8,"category_name":"Andesite","category":1,"distinct_rating":1.95,"distinct_type":"Bottom","rt":null,"stimulus":"Stimuli_Rocks480/I_Andesite_08.png","response":null,"trial_type":"image-keyboard-response","trial_index":34,"plugin_version":"2.1.0","time_elapsed":207609305,"subject_id":"92544","group":"Group1","condition":"3_Rep","full_date":"2026-02-25T18:12:51.267Z","date":"2026-02-25","time":"18:12:51"},{"rt":null,"stimulus":"<p style=\"font-size: 50px; margin: 0; text-align: center;\">+</p>","response":null,"trial_type":"html-keyboard-response","trial_index":35,"plugin_version":"2.1.0","time_elapsed":207610308,"subject_id":"92544","group":"Group1","condition":"3_Rep","full_date":"2026-02-25T18:12:51.267Z","date":"2026-02-25","time":"18:12:51"},{"task":"memory_phase","broad_category":"S","image_png":"S_Dolomite_12.png","image_id":396,"category_name":"Dolomite","category":25,"distinct_rating":1.85,"distinct_type":"Bottom","rt":null,"stimulus":"Stimuli_Rocks480/S_Dolomite_12.png","response":null,"trial_type":"image-keyboard-response","trial_index":36,"plugin_version":"2.1.0","time_elapsed":207612817,"subject_id":"92544","group":"Group1","condition":"3_Rep","full_date":"2026-02-25T18:12:51.267Z","date":"2026-02-25","time":"18:12:51"},{"rt":null,"stimulus":"<p style=\"font-size: 50px; margin: 0; text-align: center;\">+</p>","response":null,"trial_type":"html-keyboard-response","trial_index":37,"plugin_version":"2.1.0","time_elapsed":207613820,"subject_id":"92544","group":"Group1","condition":"3_Rep","full_date":"2026-02-25T18:12:51.267Z","date":"2026-02-25","time":"18:12:51"},{"task":"memory_phase","broad_category":"S","image_png":"S_Conglomerate_05.png","image_id":373,"category_name":"Conglomerate","category":24,"distinct_rating":7.32,"distinct_type":"Top","rt":null,"stimulus":"Stimuli_Rocks480/S_Conglomerate_05.png","response":null,"trial_type":"image-keyboard-response","trial_index":38,"plugin_version":"2.1.0","time_elapsed":207616323,"subject_id":"92544","group":"Group1","condition":"3_Rep","full_date":"2026-02-25T18:12:51.267Z","date":"2026-02-25","time":"18:12:51"},{"rt":null,"stimulus":"<p style=\"font-size: 50px; margin: 0; text-align: center;\">+</p>","response":null,"trial_type":"html-keyboard-response","trial_index":39,"plugin_version":"2.1.0","time_elapsed":207617330,"subject_id":"92544","group":"Group1","condition":"3_Rep","full_date":"2026-02-25T18:12:51.267Z","date":"2026-02-25","time":"18:12:51"},{"task":"memory_phase","broad_category":"I","image_png":"I_Basalt_02.png","image_id":18,"category_name":"Basalt","category":2,"distinct_rating":1.84,"distinct_type":"Bottom","rt":null,"stimulus":"Stimuli_Rocks480/I_Basalt_02.png","response":null,"trial_type":"image-keyboard-response","trial_index":40,"plugin_version":"2.1.0","time_elapsed":207619839,"subject_id":"92544","group":"Group1","condition":"3_Rep","full_date":"2026-02-25T18:12:51.267Z","date":"2026-02-25","time":"18:12:51"},{"rt":null,"stimulus":"<p style=\"font-size: 50px; margin: 0; text-align: center;\">+</p>","response":null,"trial_type":"html-keyboard-response","trial_index":41,"plugin_version":"2.1.0","time_elapsed":207620854,"subject_id":"92544","group":"Group1","condition":"3_Rep","full_date":"2026-02-25T18:12:51.267Z","date":"2026-02-25","time":"18:12:51"},{"task":"memory_phase","broad_category":"I","image_png":"I_Pumice_11.png","image_id":139,"category_name":"Pumice","category":9,"distinct_rating":1.74,"distinct_type":"Bottom","rt":null,"stimulus":"Stimuli_Rocks480/I_Pumice_11.png","response":null,"trial_type":"image-keyboard-response","trial_index":42,"plugin_version":"2.1.0","time_elapsed":207623372,"subject_id":"92544","group":"Group1","condition":"3_Rep","full_date":"2026-02-25T18:12:51.267Z","date":"2026-02-25","time":"18:12:51"},{"rt":null,"stimulus":"<p style=\"font-size: 50px; margin: 0; text-align: center;\">+</p>","response":null,"trial_type":"html-keyboard-response","trial_index":43,"plugin_version":"2.1.0","time_elapsed":207624382,"subject_id":"92544","group":"Group1","condition":"3_Rep","full_date":"2026-02-25T18:12:51.267Z","date":"2026-02-25","time":"18:12:51"},{"task":"memory_phase","broad_category":"M","image_png":"M_Quartzite_08.png","image_id":280,"category_name":"Quartzite","category":18,"distinct_rating":2.15,"distinct_type":"Bottom","rt":null,"stimulus":"Stimuli_Rocks480/M_Quartzite_08.png","response":null,"trial_type":"image-keyboard-response","trial_index":44,"plugin_version":"2.1.0","time_elapsed":207626897,"subject_id":"92544","group":"Group1","condition":"3_Rep","full_date":"2026-02-25T18:12:51.267Z","date":"2026-02-25","time":"18:12:51"},{"rt":null,"stimulus":"<p style=\"font-size: 50px; margin: 0; text-align: center;\">+</p>","response":null,"trial_type":"html-keyboard-response","trial_index":45,"plugin_version":"2.1.0","time_elapsed":207627903,"subject_id":"92544","group":"Group1","condition":"3_Rep","full_date":"2026-02-25T18:12:51.267Z","date":"2026-02-25","time":"18:12:51"},{"task":"memory_phase","broad_category":"I","image_png":"I_Basalt_01.png","image_id":17,"category_name":"Basalt","category":2,"distinct_rating":1.92,"distinct_type":"Bottom","rt":null,"stimulus":"Stimuli_Rocks480/I_Basalt_01.png","response":null,"trial_type":"image-keyboard-response","trial_index":46,"plugin_version":"2.1.0","time_elapsed":207630411,"subject_id":"92544","group":"Group1","condition":"3_Rep","full_date":"2026-02-25T18:12:51.267Z","date":"2026-02-25","time":"18:12:51"},{"rt":null,"stimulus":"<p style=\"font-size: 50px; margin: 0; text-align: center;\">+</p>","response":null,"trial_type":"html-keyboard-response","trial_index":47,"plugin_version":"2.1.0","time_elapsed":207631414,"subject_id":"92544","group":"Group1","condition":"3_Rep","full_date":"2026-02-25T18:12:51.267Z","date":"2026-02-25","time":"18:12:51"},{"task":"memory_phase","broad_category":"I","image_png":"I_Andesite_10.png","image_id":10,"category_name":"Andesite","category":1,"distinct_rating":3.15,"distinct_type":"Bottom","rt":null,"stimulus":"Stimuli_Rocks480/I_Andesite_10.png","response":null,"trial_type":"image-keyboard-response","trial_index":48,"plugin_version":"2.1.0","time_elapsed":207633924,"subject_id":"92544","group":"Group1","condition":"3_Rep","full_date":"2026-02-25T18:12:51.267Z","date":"2026-02-25","time":"18:12:51"},{"rt":null,"stimulus":"<p style=\"font-size: 50px; margin: 0; text-align: center;\">+</p>","response":null,"trial_type":"html-keyboard-response","trial_index":49,"plugin_version":"2.1.0","time_elapsed":207634933,"subject_id":"92544","group":"Group1","condition":"3_Rep","full_date":"2026-02-25T18:12:51.267Z","date":"2026-02-25","time":"18:12:51"},{"task":"memory_phase","broad_category":"S","image_png":"S_Sandstone_16.png","image_id":464,"category_name":"Sandstone","category":29,"distinct_rating":1.93,"distinct_type":"Bottom","rt":null,"stimulus":"Stimuli_Rocks480/S_Sandstone_16.png","response":null,"trial_type":"image-keyboard-response","trial_index":50,"plugin_version":"2.1.0","time_elapsed":207637447,"subject_id":"92544","group":"Group1","condition":"3_Rep","full_date":"2026-02-25T18:12:51.267Z","date":"2026-02-25","time":"18:12:51"},{"rt":null,"stimulus":"<p style=\"font-size: 50px; margin: 0; text-align: center;\">+</p>","response":null,"trial_type":"html-keyboard-response","trial_index":51,"plugin_version":"2.1.0","time_elapsed":207638453,"subject_id":"92544","group":"Group1","condition":"3_Rep","full_date":"2026-02-25T18:12:51.267Z","date":"2026-02-25","time":"18:12:51"},{"task":"memory_phase","broad_category":"S","image_png":"S_Sandstone_15.png","image_id":463,"category_name":"Sandstone","category":29,"distinct_rating":2,"distinct_type":"Bottom","rt":null,"stimulus":"Stimuli_Rocks480/S_Sandstone_15.png","response":null,"trial_type":"image-keyboard-response","trial_index":52,"plugin_version":"2.1.0","time_elapsed":207640966,"subject_id":"92544","group":"Group1","condition":"3_Rep","full_date":"2026-02-25T18:12:51.267Z","date":"2026-02-25","time":"18:12:51"},{"rt":null,"stimulus":"<p style=\"font-size: 50px; margin: 0; text-align: center;\">+</p>","response":null,"trial_type":"html-keyboard-response","trial_index":53,"plugin_version":"2.1.0","time_elapsed":207641978,"subject_id":"92544","group":"Group1","condition":"3_Rep","full_date":"2026-02-25T18:12:51.267Z","date":"2026-02-25","time":"18:12:51"},{"task":"memory_phase","broad_category":"M","image_png":"M_Marble_04.png","image_id":228,"category_name":"Marble","category":15,"distinct_rating":3.15,"distinct_type":"Bottom","rt":null,"stimulus":"Stimuli_Rocks480/M_Marble_04.png","response":null,"trial_type":"image-keyboard-response","trial_index":54,"plugin_version":"2.1.0","time_elapsed":207644490,"subject_id":"92544","group":"Group1","condition":"3_Rep","full_date":"2026-02-25T18:12:51.267Z","date":"2026-02-25","time":"18:12:51"},{"rt":1879,"stimulus":"<p style=\"max-width: 760px; margin: auto; font-size: 35px; line-height: 1.5;\">\n                Press SPACE to continue study phase\n              </p>","response":" ","trial_type":"html-keyboard-response","trial_index":55,"plugin_version":"2.1.0","time_elapsed":207646370,"subject_id":"92544","group":"Group1","condition":"3_Rep","full_date":"2026-02-25T18:12:51.267Z","date":"2026-02-25","time":"18:12:51"},{"rt":null,"stimulus":"<p style=\"font-size: 50px; margin: 0; text-align: center;\">+</p>","response":null,"trial_type":"html-keyboard-response","trial_index":56,"plugin_version":"2.1.0","time_elapsed":207647383,"subject_id":"92544","group":"Group1","condition":"3_Rep","full_date":"2026-02-25T18:12:51.267Z","date":"2026-02-25","time":"18:12:51"},{"task":"memory_phase","broad_category":"I","image_png":"I_Rhyolite_11.png","image_id":155,"category_name":"Rhyolite","category":10,"distinct_rating":1.73,"distinct_type":"Bottom","rt":null,"stimulus":"Stimuli_Rocks480/I_Rhyolite_11.png","response":null,"trial_type":"image-keyboard-response","trial_index":57,"plugin_version":"2.1.0","time_elapsed":207649888,"subject_id":"92544","group":"Group1","condition":"3_Rep","full_date":"2026-02-25T18:12:51.267Z","date":"2026-02-25","time":"18:12:51"},{"rt":null,"stimulus":"<p style=\"font-size: 50px; margin: 0; text-align: center;\">+</p>","response":null,"trial_type":"html-keyboard-response","trial_index":58,"plugin_version":"2.1.0","time_elapsed":207650901,"subject_id":"92544","group":"Group1","condition":"3_Rep","full_date":"2026-02-25T18:12:51.267Z","date":"2026-02-25","time":"18:12:51"},{"task":"memory_phase","broad_category":"M","image_png":"M_Quartzite_05.png","image_id":277,"category_name":"Quartzite","category":18,"distinct_rating":2.23,"distinct_type":"Bottom","rt":null,"stimulus":"Stimuli_Rocks480/M_Quartzite_05.png","response":null,"trial_type":"image-keyboard-response","trial_index":59,"plugin_version":"2.1.0","time_elapsed":207653408,"subject_id":"92544","group":"Group1","condition":"3_Rep","full_date":"2026-02-25T18:12:51.267Z","date":"2026-02-25","time":"18:12:51"},{"rt":null,"stimulus":"<p style=\"font-size: 50px; margin: 0; text-align: center;\">+</p>","response":null,"trial_type":"html-keyboard-response","trial_index":60,"plugin_version":"2.1.0","time_elapsed":207654410,"subject_id":"92544","group":"Group1","condition":"3_Rep","full_date":"2026-02-25T18:12:51.267Z","date":"2026-02-25","time":"18:12:51"},{"task":"memory_phase","broad_category":"M","image_png":"M_Gneiss_13.png","image_id":205,"category_name":"Gneiss","category":13,"distinct_rating":3.26,"distinct_type":"Bottom","rt":null,"stimulus":"Stimuli_Rocks480/M_Gneiss_13.png","response":null,"trial_type":"image-keyboard-response","trial_index":61,"plugin_version":"2.1.0","time_elapsed":207656917,"subject_id":"92544","group":"Group1","condition":"3_Rep","full_date":"2026-02-25T18:12:51.267Z","date":"2026-02-25","time":"18:12:51"},{"rt":null,"stimulus":"<p style=\"font-size: 50px; margin: 0; text-align: center;\">+</p>","response":null,"trial_type":"html-keyboard-response","trial_index":62,"plugin_version":"2.1.0","time_elapsed":207657926,"subject_id":"92544","group":"Group1","condition":"3_Rep","full_date":"2026-02-25T18:12:51.267Z","date":"2026-02-25","time":"18:12:51"},{"task":"memory_phase","broad_category":"M","image_png":"M_Marble_16.png","image_id":240,"category_name":"Marble","category":15,"distinct_rating":2.57,"distinct_type":"Bottom","rt":null,"stimulus":"Stimuli_Rocks480/M_Marble_16.png","response":null,"trial_type":"image-keyboard-response","trial_index":63,"plugin_version":"2.1.0","time_elapsed":207660433,"subject_id":"92544","group":"Group1","condition":"3_Rep","full_date":"2026-02-25T18:12:51.267Z","date":"2026-02-25","time":"18:12:51"},{"rt":null,"stimulus":"<p style=\"font-size: 50px; margin: 0; text-align: center;\">+</p>","response":null,"trial_type":"html-keyboard-response","trial_index":64,"plugin_version":"2.1.0","time_elapsed":207661435,"subject_id":"92544","group":"Group1","condition":"3_Rep","full_date":"2026-02-25T18:12:51.267Z","date":"2026-02-25","time":"18:12:51"},{"task":"memory_phase","broad_category":"I","image_png":"I_Pumice_08.png","image_id":136,"category_name":"Pumice","category":9,"distinct_rating":3.1,"distinct_type":"Bottom","rt":null,"stimulus":"Stimuli_Rocks480/I_Pumice_08.png","response":null,"trial_type":"image-keyboard-response","trial_index":65,"plugin_version":"2.1.0","time_elapsed":207663939,"subject_id":"92544","group":"Group1","condition":"3_Rep","full_date":"2026-02-25T18:12:51.267Z","date":"2026-02-25","time":"18:12:51"},{"rt":null,"stimulus":"<p style=\"font-size: 50px; margin: 0; text-align: center;\">+</p>","response":null,"trial_type":"html-keyboard-response","trial_index":66,"plugin_version":"2.1.0","time_elapsed":207664951,"subject_id":"92544","group":"Group1","condition":"3_Rep","full_date":"2026-02-25T18:12:51.267Z","date":"2026-02-25","time":"18:12:51"},{"task":"memory_phase","broad_category":"M","image_png":"M_Gneiss_06.png","image_id":198,"category_name":"Gneiss","category":13,"distinct_rating":2.65,"distinct_type":"Bottom","rt":null,"stimulus":"Stimuli_Rocks480/M_Gneiss_06.png","response":null,"trial_type":"image-keyboard-response","trial_index":67,"plugin_version":"2.1.0","time_elapsed":207667460,"subject_id":"92544","group":"Group1","condition":"3_Rep","full_date":"2026-02-25T18:12:51.267Z","date":"2026-02-25","time":"18:12:51"},{"rt":null,"stimulus":"<p style=\"font-size: 50px; margin: 0; text-align: center;\">+</p>","response":null,"trial_type":"html-keyboard-response","trial_index":68,"plugin_version":"2.1.0","time_elapsed":207668470,"subject_id":"92544","group":"Group1","condition":"3_Rep","full_date":"2026-02-25T18:12:51.267Z","date":"2026-02-25","time":"18:12:51"},{"task":"memory_phase","broad_category":"S","image_png":"S_Chert_10.png","image_id":362,"category_name":"Chert","category":23,"distinct_rating":7.17,"distinct_type":"Top","rt":null,"stimulus":"Stimuli_Rocks480/S_Chert_10.png","response":null,"trial_type":"image-keyboard-response","trial_index":69,"plugin_version":"2.1.0","time_elapsed":207670988,"subject_id":"92544","group":"Group1","condition":"3_Rep","full_date":"2026-02-25T18:12:51.267Z","date":"2026-02-25","time":"18:12:51"},{"rt":null,"stimulus":"<p style=\"font-size: 50px; margin: 0; text-align: center;\">+</p>","response":null,"trial_type":"html-keyboard-response","trial_index":70,"plugin_version":"2.1.0","time_elapsed":207671994,"subject_id":"92544","group":"Group1","condition":"3_Rep","full_date":"2026-02-25T18:12:51.267Z","date":"2026-02-25","time":"18:12:51"},{"task":"memory_phase","broad_category":"S","image_png":"S_Dolomite_14.png","image_id":398,"category_name":"Dolomite","category":25,"distinct_rating":1.43,"distinct_type":"Bottom","rt":null,"stimulus":"Stimuli_Rocks480/S_Dolomite_14.png","response":null,"trial_type":"image-keyboard-response","trial_index":71,"plugin_version":"2.1.0","time_elapsed":207674505,"subject_id":"92544","group":"Group1","condition":"3_Rep","full_date":"2026-02-25T18:12:51.267Z","date":"2026-02-25","time":"18:12:51"},{"rt":null,"stimulus":"<p style=\"font-size: 50px; margin: 0; text-align: center;\">+</p>","response":null,"trial_type":"html-keyboard-response","trial_index":72,"plugin_version":"2.1.0","time_elapsed":207675510,"subject_id":"92544","group":"Group1","condition":"3_Rep","full_date":"2026-02-25T18:12:51.267Z","date":"2026-02-25","time":"18:12:51"},{"task":"memory_phase","broad_category":"M","image_png":"M_Phyllite_07.png","image_id":263,"category_name":"Phyllite","category":17,"distinct_rating":2.59,"distinct_type":"Bottom","rt":null,"stimulus":"Stimuli_Rocks480/M_Phyllite_07.png","response":null,"trial_type":"image-keyboard-response","trial_index":73,"plugin_version":"2.1.0","time_elapsed":207678023,"subject_id":"92544","group":"Group1","condition":"3_Rep","full_date":"2026-02-25T18:12:51.267Z","date":"2026-02-25","time":"18:12:51"},{"rt":null,"stimulus":"<p style=\"font-size: 50px; margin: 0; text-align: center;\">+</p>","response":null,"trial_type":"html-keyboard-response","trial_index":74,"plugin_version":"2.1.0","time_elapsed":207679028,"subject_id":"92544","group":"Group1","condition":"3_Rep","full_date":"2026-02-25T18:12:51.267Z","date":"2026-02-25","time":"18:12:51"},{"task":"memory_phase","broad_category":"S","image_png":"S_Shale_08.png","image_id":472,"category_name":"Shale","category":30,"distinct_rating":2.55,"distinct_type":"Bottom","rt":null,"stimulus":"Stimuli_Rocks480/S_Shale_08.png","response":null,"trial_type":"image-keyboard-response","trial_index":75,"plugin_version":"2.1.0","time_elapsed":207681539,"subject_id":"92544","group":"Group1","condition":"3_Rep","full_date":"2026-02-25T18:12:51.267Z","date":"2026-02-25","time":"18:12:51"},{"rt":null,"stimulus":"<p style=\"font-size: 50px; margin: 0; text-align: center;\">+</p>","response":null,"trial_type":"html-keyboard-response","trial_index":76,"plugin_version":"2.1.0","time_elapsed":207682554,"subject_id":"92544","group":"Group1","condition":"3_Rep","full_date":"2026-02-25T18:12:51.267Z","date":"2026-02-25","time":"18:12:51"},{"task":"memory_phase","broad_category":"I","image_png":"I_Pegmatite_10.png","image_id":106,"category_name":"Pegmatite","category":7,"distinct_rating":7.66,"distinct_type":"Top","rt":null,"stimulus":"Stimuli_Rocks480/I_Pegmatite_10.png","response":null,"trial_type":"image-keyboard-response","trial_index":77,"plugin_version":"2.1.0","time_elapsed":207685059,"subject_id":"92544","group":"Group1","condition":"3_Rep","full_date":"2026-02-25T18:12:51.267Z","date":"2026-02-25","time":"18:12:51"},{"rt":null,"stimulus":"<p style=\"font-size: 50px; margin: 0; text-align: center;\">+</p>","response":null,"trial_type":"html-keyboard-response","trial_index":78,"plugin_version":"2.1.0","time_elapsed":207686075,"subject_id":"92544","group":"Group1","condition":"3_Rep","full_date":"2026-02-25T18:12:51.267Z","date":"2026-02-25","time":"18:12:51"},{"task":"memory_phase","broad_category":"M","image_png":"M_Phyllite_03.png","image_id":259,"category_name":"Phyllite","category":17,"distinct_rating":2.5,"distinct_type":"Bottom","rt":null,"stimulus":"Stimuli_Rocks480/M_Phyllite_03.png","response":null,"trial_type":"image-keyboard-response","trial_index":79,"plugin_version":"2.1.0","time_elapsed":207688583,"subject_id":"92544","group":"Group1","condition":"3_Rep","full_date":"2026-02-25T18:12:51.267Z","date":"2026-02-25","time":"18:12:51"},{"rt":null,"stimulus":"<p style=\"font-size: 50px; margin: 0; text-align: center;\">+</p>","response":null,"trial_type":"html-keyboard-response","trial_index":80,"plugin_version":"2.1.0","time_elapsed":207689585,"subject_id":"92544","group":"Group1","condition":"3_Rep","full_date":"2026-02-25T18:12:51.267Z","date":"2026-02-25","time":"18:12:51"},{"task":"memory_phase","broad_category":"I","image_png":"I_Rhyolite_14.png","image_id":158,"category_name":"Rhyolite","category":10,"distinct_rating":2.59,"distinct_type":"Bottom","rt":null,"stimulus":"Stimuli_Rocks480/I_Rhyolite_14.png","response":null,"trial_type":"image-keyboard-response","trial_index":81,"plugin_version":"2.1.0","time_elapsed":207692092,"subject_id":"92544","group":"Group1","condition":"3_Rep","full_date":"2026-02-25T18:12:51.267Z","date":"2026-02-25","time":"18:12:51"},{"rt":null,"stimulus":"<p style=\"font-size: 50px; margin: 0; text-align: center;\">+</p>","response":null,"trial_type":"html-keyboard-response","trial_index":82,"plugin_version":"2.1.0","time_elapsed":207693095,"subject_id":"92544","group":"Group1","condition":"3_Rep","full_date":"2026-02-25T18:12:51.267Z","date":"2026-02-25","time":"18:12:51"},{"task":"memory_phase","broad_category":"S","image_png":"S_Rock Gypsum_04.png","image_id":420,"category_name":"Rock Gypsum","category":27,"distinct_rating":7.61,"distinct_type":"Top","rt":null,"stimulus":"Stimuli_Rocks480/S_Rock Gypsum_04.png","response":null,"trial_type":"image-keyboard-response","trial_index":83,"plugin_version":"2.1.0","time_elapsed":207695601,"subject_id":"92544","group":"Group1","condition":"3_Rep","full_date":"2026-02-25T18:12:51.267Z","date":"2026-02-25","time":"18:12:51"},{"rt":null,"stimulus":"<p style=\"font-size: 50px; margin: 0; text-align: center;\">+</p>","response":null,"trial_type":"html-keyboard-response","trial_index":84,"plugin_version":"2.1.0","time_elapsed":207696617,"subject_id":"92544","group":"Group1","condition":"3_Rep","full_date":"2026-02-25T18:12:51.267Z","date":"2026-02-25","time":"18:12:51"},{"task":"memory_phase","broad_category":"M","image_png":"M_Quartzite_13.png","image_id":285,"category_name":"Quartzite","category":18,"distinct_rating":2.27,"distinct_type":"Bottom","rt":null,"stimulus":"Stimuli_Rocks480/M_Quartzite_13.png","response":null,"trial_type":"image-keyboard-response","trial_index":85,"plugin_version":"2.1.0","time_elapsed":207699120,"subject_id":"92544","group":"Group1","condition":"3_Rep","full_date":"2026-02-25T18:12:51.267Z","date":"2026-02-25","time":"18:12:51"},{"rt":null,"stimulus":"<p style=\"font-size: 50px; margin: 0; text-align: center;\">+</p>","response":null,"trial_type":"html-keyboard-response","trial_index":86,"plugin_version":"2.1.0","time_elapsed":207700122,"subject_id":"92544","group":"Group1","condition":"3_Rep","full_date":"2026-02-25T18:12:51.267Z","date":"2026-02-25","time":"18:12:51"},{"task":"memory_phase","broad_category":"I","image_png":"I_Pegmatite_16.png","image_id":112,"category_name":"Pegmatite","category":7,"distinct_rating":7.03,"distinct_type":"Top","rt":null,"stimulus":"Stimuli_Rocks480/I_Pegmatite_16.png","response":null,"trial_type":"image-keyboard-response","trial_index":87,"plugin_version":"2.1.0","time_elapsed":207702639,"subject_id":"92544","group":"Group1","condition":"3_Rep","full_date":"2026-02-25T18:12:51.267Z","date":"2026-02-25","time":"18:12:51"},{"rt":null,"stimulus":"<p style=\"font-size: 50px; margin: 0; text-align: center;\">+</p>","response":null,"trial_type":"html-keyboard-response","trial_index":88,"plugin_version":"2.1.0","time_elapsed":207703646,"subject_id":"92544","group":"Group1","condition":"3_Rep","full_date":"2026-02-25T18:12:51.267Z","date":"2026-02-25","time":"18:12:51"},{"task":"memory_phase","broad_category":"S","image_png":"S_Breccia_11.png","image_id":347,"category_name":"Breccia","category":22,"distinct_rating":6.7,"distinct_type":"Top","rt":null,"stimulus":"Stimuli_Rocks480/S_Breccia_11.png","response":null,"trial_type":"image-keyboard-response","trial_index":89,"plugin_version":"2.1.0","time_elapsed":207706163,"subject_id":"92544","group":"Group1","condition":"3_Rep","full_date":"2026-02-25T18:12:51.267Z","date":"2026-02-25","time":"18:12:51"},{"rt":null,"stimulus":"<p style=\"font-size: 50px; margin: 0; text-align: center;\">+</p>","response":null,"trial_type":"html-keyboard-response","trial_index":90,"plugin_version":"2.1.0","time_elapsed":207707167,"subject_id":"92544","group":"Group1","condition":"3_Rep","full_date":"2026-02-25T18:12:51.267Z","date":"2026-02-25","time":"18:12:51"},{"task":"memory_phase","broad_category":"M","image_png":"M_Marble_06.png","image_id":230,"category_name":"Marble","category":15,"distinct_rating":3.4,"distinct_type":"Bottom","rt":null,"stimulus":"Stimuli_Rocks480/M_Marble_06.png","response":null,"trial_type":"image-keyboard-response","trial_index":91,"plugin_version":"2.1.0","time_elapsed":207709675,"subject_id":"92544","group":"Group1","condition":"3_Rep","full_date":"2026-02-25T18:12:51.267Z","date":"2026-02-25","time":"18:12:51"},{"rt":null,"stimulus":"<p style=\"font-size: 50px; margin: 0; text-align: center;\">+</p>","response":null,"trial_type":"html-keyboard-response","trial_index":92,"plugin_version":"2.1.0","time_elapsed":207710686,"subject_id":"92544","group":"Group1","condition":"3_Rep","full_date":"2026-02-25T18:12:51.267Z","date":"2026-02-25","time":"18:12:51"},{"task":"memory_phase","broad_category":"I","image_png":"I_Pumice_12.png","image_id":140,"category_name":"Pumice","category":9,"distinct_rating":2.97,"distinct_type":"Bottom","rt":null,"stimulus":"Stimuli_Rocks480/I_Pumice_12.png","response":null,"trial_type":"image-keyboard-response","trial_index":93,"plugin_version":"2.1.0","time_elapsed":207713202,"subject_id":"92544","group":"Group1","condition":"3_Rep","full_date":"2026-02-25T18:12:51.267Z","date":"2026-02-25","time":"18:12:51"},{"rt":null,"stimulus":"<p style=\"font-size: 50px; margin: 0; text-align: center;\">+</p>","response":null,"trial_type":"html-keyboard-response","trial_index":94,"plugin_version":"2.1.0","time_elapsed":207714212,"subject_id":"92544","group":"Group1","condition":"3_Rep","full_date":"2026-02-25T18:12:51.267Z","date":"2026-02-25","time":"18:12:51"},{"task":"memory_phase","broad_category":"M","image_png":"M_Slate_11.png","image_id":315,"category_name":"Slate","category":20,"distinct_rating":2.75,"distinct_type":"Bottom","rt":null,"stimulus":"Stimuli_Rocks480/M_Slate_11.png","response":null,"trial_type":"image-keyboard-response","trial_index":95,"plugin_version":"2.1.0","time_elapsed":207716728,"subject_id":"92544","group":"Group1","condition":"3_Rep","full_date":"2026-02-25T18:12:51.267Z","date":"2026-02-25","time":"18:12:51"},{"rt":null,"stimulus":"<p style=\"font-size: 50px; margin: 0; text-align: center;\">+</p>","response":null,"trial_type":"html-keyboard-response","trial_index":96,"plugin_version":"2.1.0","time_elapsed":207717731,"subject_id":"92544","group":"Group1","condition":"3_Rep","full_date":"2026-02-25T18:12:51.267Z","date":"2026-02-25","time":"18:12:51"},{"task":"memory_phase","broad_category":"S","image_png":"S_Shale_12.png","image_id":476,"category_name":"Shale","category":30,"distinct_rating":2.48,"distinct_type":"Bottom","rt":null,"stimulus":"Stimuli_Rocks480/S_Shale_12.png","response":null,"trial_type":"image-keyboard-response","trial_index":97,"plugin_version":"2.1.0","time_elapsed":207720242,"subject_id":"92544","group":"Group1","condition":"3_Rep","full_date":"2026-02-25T18:12:51.267Z","date":"2026-02-25","time":"18:12:51"},{"rt":null,"stimulus":"<p style=\"font-size: 50px; margin: 0; text-align: center;\">+</p>","response":null,"trial_type":"html-keyboard-response","trial_index":98,"plugin_version":"2.1.0","time_elapsed":207721244,"subject_id":"92544","group":"Group1","condition":"3_Rep","full_date":"2026-02-25T18:12:51.267Z","date":"2026-02-25","time":"18:12:51"},{"task":"memory_phase","broad_category":"I","image_png":"I_Rhyolite_16.png","image_id":160,"category_name":"Rhyolite","category":10,"distinct_rating":2.19,"distinct_type":"Bottom","rt":null,"stimulus":"Stimuli_Rocks480/I_Rhyolite_16.png","response":null,"trial_type":"image-keyboard-response","trial_index":99,"plugin_version":"2.1.0","time_elapsed":207723750,"subject_id":"92544","group":"Group1","condition":"3_Rep","full_date":"2026-02-25T18:12:51.267Z","date":"2026-02-25","time":"18:12:51"},{"rt":null,"stimulus":"<p style=\"font-size: 50px; margin: 0; text-align: center;\">+</p>","response":null,"trial_type":"html-keyboard-response","trial_index":100,"plugin_version":"2.1.0","time_elapsed":207724763,"subject_id":"92544","group":"Group1","condition":"3_Rep","full_date":"2026-02-25T18:12:51.267Z","date":"2026-02-25","time":"18:12:51"},{"task":"memory_phase","broad_category":"I","image_png":"I_Obsidian_05.png","image_id":85,"category_name":"Obsidian","category":6,"distinct_rating":7.32,"distinct_type":"Top","rt":null,"stimulus":"Stimuli_Rocks480/I_Obsidian_05.png","response":null,"trial_type":"image-keyboard-response","trial_index":101,"plugin_version":"2.1.0","time_elapsed":207727280,"subject_id":"92544","group":"Group1","condition":"3_Rep","full_date":"2026-02-25T18:12:51.267Z","date":"2026-02-25","time":"18:12:51"},{"rt":null,"stimulus":"<p style=\"font-size: 50px; margin: 0; text-align: center;\">+</p>","response":null,"trial_type":"html-keyboard-response","trial_index":102,"plugin_version":"2.1.0","time_elapsed":207728288,"subject_id":"92544","group":"Group1","condition":"3_Rep","full_date":"2026-02-25T18:12:51.267Z","date":"2026-02-25","time":"18:12:51"},{"task":"memory_phase","broad_category":"M","image_png":"M_Phyllite_10.png","image_id":266,"category_name":"Phyllite","category":17,"distinct_rating":2.6,"distinct_type":"Bottom","rt":null,"stimulus":"Stimuli_Rocks480/M_Phyllite_10.png","response":null,"trial_type":"image-keyboard-response","trial_index":103,"plugin_version":"2.1.0","time_elapsed":207730802,"subject_id":"92544","group":"Group1","condition":"3_Rep","full_date":"2026-02-25T18:12:51.267Z","date":"2026-02-25","time":"18:12:51"},{"rt":null,"stimulus":"<p style=\"font-size: 50px; margin: 0; text-align: center;\">+</p>","response":null,"trial_type":"html-keyboard-response","trial_index":104,"plugin_version":"2.1.0","time_elapsed":207731819,"subject_id":"92544","group":"Group1","condition":"3_Rep","full_date":"2026-02-25T18:12:51.267Z","date":"2026-02-25","time":"18:12:51"},{"task":"memory_phase","broad_category":"S","image_png":"S_Sandstone_03.png","image_id":451,"category_name":"Sandstone","category":29,"distinct_rating":1.86,"distinct_type":"Bottom","rt":null,"stimulus":"Stimuli_Rocks480/S_Sandstone_03.png","response":null,"trial_type":"image-keyboard-response","trial_index":105,"plugin_version":"2.1.0","time_elapsed":207734334,"subject_id":"92544","group":"Group1","condition":"3_Rep","full_date":"2026-02-25T18:12:51.267Z","date":"2026-02-25","time":"18:12:51"},{"rt":5198,"stimulus":"<p style=\"max-width: 760px; margin: auto; font-size: 35px; line-height: 1.5;\">\n                You have completed 1 study phase. \n                Now, we'll show you all the images again 2 more times.\n                <br><br>Press SPACE to continue\n              </p>","response":" ","trial_type":"html-keyboard-response","trial_index":106,"plugin_version":"2.1.0","time_elapsed":207739533,"subject_id":"92544","group":"Group1","condition":"3_Rep","full_date":"2026-02-25T18:12:51.267Z","date":"2026-02-25","time":"18:12:51"},{"rt":null,"stimulus":"<p style=\"font-size: 50px; margin: 0; text-align: center;\">+</p>","response":null,"trial_type":"html-keyboard-response","trial_index":107,"plugin_version":"2.1.0","time_elapsed":207740550,"subject_id":"92544","group":"Group1","condition":"3_Rep","full_date":"2026-02-25T18:12:51.267Z","date":"2026-02-25","time":"18:12:51"},{"task":"memory_phase","broad_category":"M","image_png":"M_Marble_04.png","image_id":228,"category_name":"Marble","category":15,"distinct_rating":3.15,"distinct_type":"Bottom","rt":null,"stimulus":"Stimuli_Rocks480/M_Marble_04.png","response":null,"trial_type":"image-keyboard-response","trial_index":108,"plugin_version":"2.1.0","time_elapsed":207743059,"subject_id":"92544","group":"Group1","condition":"3_Rep","full_date":"2026-02-25T18:12:51.267Z","date":"2026-02-25","time":"18:12:51"},{"rt":null,"stimulus":"<p style=\"font-size: 50px; margin: 0; text-align: center;\">+</p>","response":null,"trial_type":"html-keyboard-response","trial_index":109,"plugin_version":"2.1.0","time_elapsed":207744068,"subject_id":"92544","group":"Group1","condition":"3_Rep","full_date":"2026-02-25T18:12:51.267Z","date":"2026-02-25","time":"18:12:51"},{"task":"memory_phase","broad_category":"M","image_png":"M_Quartzite_13.png","image_id":285,"category_name":"Quartzite","category":18,"distinct_rating":2.27,"distinct_type":"Bottom","rt":null,"stimulus":"Stimuli_Rocks480/M_Quartzite_13.png","response":null,"trial_type":"image-keyboard-response","trial_index":110,"plugin_version":"2.1.0","time_elapsed":207746578,"subject_id":"92544","group":"Group1","condition":"3_Rep","full_date":"2026-02-25T18:12:51.267Z","date":"2026-02-25","time":"18:12:51"},{"rt":null,"stimulus":"<p style=\"font-size: 50px; margin: 0; text-align: center;\">+</p>","response":null,"trial_type":"html-keyboard-response","trial_index":111,"plugin_version":"2.1.0","time_elapsed":207747588,"subject_id":"92544","group":"Group1","condition":"3_Rep","full_date":"2026-02-25T18:12:51.267Z","date":"2026-02-25","time":"18:12:51"},{"task":"memory_phase","broad_category":"I","image_png":"I_Pumice_12.png","image_id":140,"category_name":"Pumice","category":9,"distinct_rating":2.97,"distinct_type":"Bottom","rt":null,"stimulus":"Stimuli_Rocks480/I_Pumice_12.png","response":null,"trial_type":"image-keyboard-response","trial_index":112,"plugin_version":"2.1.0","time_elapsed":207750090,"subject_id":"92544","group":"Group1","condition":"3_Rep","full_date":"2026-02-25T18:12:51.267Z","date":"2026-02-25","time":"18:12:51"},{"rt":null,"stimulus":"<p style=\"font-size: 50px; margin: 0; text-align: center;\">+</p>","response":null,"trial_type":"html-keyboard-response","trial_index":113,"plugin_version":"2.1.0","time_elapsed":207751098,"subject_id":"92544","group":"Group1","condition":"3_Rep","full_date":"2026-02-25T18:12:51.267Z","date":"2026-02-25","time":"18:12:51"},{"task":"memory_phase","broad_category":"I","image_png":"I_Andesite_06.png","image_id":6,"category_name":"Andesite","category":1,"distinct_rating":3.17,"distinct_type":"Bottom","rt":null,"stimulus":"Stimuli_Rocks480/I_Andesite_06.png","response":null,"trial_type":"image-keyboard-response","trial_index":114,"plugin_version":"2.1.0","time_elapsed":207753603,"subject_id":"92544","group":"Group1","condition":"3_Rep","full_date":"2026-02-25T18:12:51.267Z","date":"2026-02-25","time":"18:12:51"},{"rt":null,"stimulus":"<p style=\"font-size: 50px; margin: 0; text-align: center;\">+</p>","response":null,"trial_type":"html-keyboard-response","trial_index":115,"plugin_version":"2.1.0","time_elapsed":207754607,"subject_id":"92544","group":"Group1","condition":"3_Rep","full_date":"2026-02-25T18:12:51.267Z","date":"2026-02-25","time":"18:12:51"},{"task":"memory_phase","broad_category":"S","image_png":"S_Rock Gypsum_04.png","image_id":420,"category_name":"Rock Gypsum","category":27,"distinct_rating":7.61,"distinct_type":"Top","rt":null,"stimulus":"Stimuli_Rocks480/S_Rock Gypsum_04.png","response":null,"trial_type":"image-keyboard-response","trial_index":116,"plugin_version":"2.1.0","time_elapsed":207757125,"subject_id":"92544","group":"Group1","condition":"3_Rep","full_date":"2026-02-25T18:12:51.267Z","date":"2026-02-25","time":"18:12:51"},{"rt":null,"stimulus":"<p style=\"font-size: 50px; margin: 0; text-align: center;\">+</p>","response":null,"trial_type":"html-keyboard-response","trial_index":117,"plugin_version":"2.1.0","time_elapsed":207758137,"subject_id":"92544","group":"Group1","condition":"3_Rep","full_date":"2026-02-25T18:12:51.267Z","date":"2026-02-25","time":"18:12:51"},{"task":"memory_phase","broad_category":"S","image_png":"S_Conglomerate_05.png","image_id":373,"category_name":"Conglomerate","category":24,"distinct_rating":7.32,"distinct_type":"Top","rt":null,"stimulus":"Stimuli_Rocks480/S_Conglomerate_05.png","response":null,"trial_type":"image-keyboard-response","trial_index":118,"plugin_version":"2.1.0","time_elapsed":207760646,"subject_id":"92544","group":"Group1","condition":"3_Rep","full_date":"2026-02-25T18:12:51.267Z","date":"2026-02-25","time":"18:12:51"},{"rt":null,"stimulus":"<p style=\"font-size: 50px; margin: 0; text-align: center;\">+</p>","response":null,"trial_type":"html-keyboard-response","trial_index":119,"plugin_version":"2.1.0","time_elapsed":207761649,"subject_id":"92544","group":"Group1","condition":"3_Rep","full_date":"2026-02-25T18:12:51.267Z","date":"2026-02-25","time":"18:12:51"},{"task":"memory_phase","broad_category":"I","image_png":"I_Rhyolite_16.png","image_id":160,"category_name":"Rhyolite","category":10,"distinct_rating":2.19,"distinct_type":"Bottom","rt":null,"stimulus":"Stimuli_Rocks480/I_Rhyolite_16.png","response":null,"trial_type":"image-keyboard-response","trial_index":120,"plugin_version":"2.1.0","time_elapsed":207764160,"subject_id":"92544","group":"Group1","condition":"3_Rep","full_date":"2026-02-25T18:12:51.267Z","date":"2026-02-25","time":"18:12:51"},{"rt":null,"stimulus":"<p style=\"font-size: 50px; margin: 0; text-align: center;\">+</p>","response":null,"trial_type":"html-keyboard-response","trial_index":121,"plugin_version":"2.1.0","time_elapsed":207765167,"subject_id":"92544","group":"Group1","condition":"3_Rep","full_date":"2026-02-25T18:12:51.267Z","date":"2026-02-25","time":"18:12:51"},{"task":"memory_phase","broad_category":"I","image_png":"I_Pumice_11.png","image_id":139,"category_name":"Pumice","category":9,"distinct_rating":1.74,"distinct_type":"Bottom","rt":null,"stimulus":"Stimuli_Rocks480/I_Pumice_11.png","response":null,"trial_type":"image-keyboard-response","trial_index":122,"plugin_version":"2.1.0","time_elapsed":207767681,"subject_id":"92544","group":"Group1","condition":"3_Rep","full_date":"2026-02-25T18:12:51.267Z","date":"2026-02-25","time":"18:12:51"},{"rt":null,"stimulus":"<p style=\"font-size: 50px; margin: 0; text-align: center;\">+</p>","response":null,"trial_type":"html-keyboard-response","trial_index":123,"plugin_version":"2.1.0","time_elapsed":207768689,"subject_id":"92544","group":"Group1","condition":"3_Rep","full_date":"2026-02-25T18:12:51.267Z","date":"2026-02-25","time":"18:12:51"},{"task":"memory_phase","broad_category":"S","image_png":"S_Dolomite_13.png","image_id":397,"category_name":"Dolomite","category":25,"distinct_rating":1.77,"distinct_type":"Bottom","rt":null,"stimulus":"Stimuli_Rocks480/S_Dolomite_13.png","response":null,"trial_type":"image-keyboard-response","trial_index":124,"plugin_version":"2.1.0","time_elapsed":207771194,"subject_id":"92544","group":"Group1","condition":"3_Rep","full_date":"2026-02-25T18:12:51.267Z","date":"2026-02-25","time":"18:12:51"},{"rt":null,"stimulus":"<p style=\"font-size: 50px; margin: 0; text-align: center;\">+</p>","response":null,"trial_type":"html-keyboard-response","trial_index":125,"plugin_version":"2.1.0","time_elapsed":207772211,"subject_id":"92544","group":"Group1","condition":"3_Rep","full_date":"2026-02-25T18:12:51.267Z","date":"2026-02-25","time":"18:12:51"},{"task":"memory_phase","broad_category":"M","image_png":"M_Phyllite_07.png","image_id":263,"category_name":"Phyllite","category":17,"distinct_rating":2.59,"distinct_type":"Bottom","rt":null,"stimulus":"Stimuli_Rocks480/M_Phyllite_07.png","response":null,"trial_type":"image-keyboard-response","trial_index":126,"plugin_version":"2.1.0","time_elapsed":207774713,"subject_id":"92544","group":"Group1","condition":"3_Rep","full_date":"2026-02-25T18:12:51.267Z","date":"2026-02-25","time":"18:12:51"},{"rt":null,"stimulus":"<p style=\"font-size: 50px; margin: 0; text-align: center;\">+</p>","response":null,"trial_type":"html-keyboard-response","trial_index":127,"plugin_version":"2.1.0","time_elapsed":207775717,"subject_id":"92544","group":"Group1","condition":"3_Rep","full_date":"2026-02-25T18:12:51.267Z","date":"2026-02-25","time":"18:12:51"},{"task":"memory_phase","broad_category":"M","image_png":"M_Marble_16.png","image_id":240,"category_name":"Marble","category":15,"distinct_rating":2.57,"distinct_type":"Bottom","rt":null,"stimulus":"Stimuli_Rocks480/M_Marble_16.png","response":null,"trial_type":"image-keyboard-response","trial_index":128,"plugin_version":"2.1.0","time_elapsed":207778234,"subject_id":"92544","group":"Group1","condition":"3_Rep","full_date":"2026-02-25T18:12:51.267Z","date":"2026-02-25","time":"18:12:51"},{"rt":null,"stimulus":"<p style=\"font-size: 50px; margin: 0; text-align: center;\">+</p>","response":null,"trial_type":"html-keyboard-response","trial_index":129,"plugin_version":"2.1.0","time_elapsed":207779242,"subject_id":"92544","group":"Group1","condition":"3_Rep","full_date":"2026-02-25T18:12:51.267Z","date":"2026-02-25","time":"18:12:51"},{"task":"memory_phase","broad_category":"S","image_png":"S_Rock Salt_01.png","image_id":433,"category_name":"Rock Salt","category":28,"distinct_rating":7.18,"distinct_type":"Top","rt":null,"stimulus":"Stimuli_Rocks480/S_Rock Salt_01.png","response":null,"trial_type":"image-keyboard-response","trial_index":130,"plugin_version":"2.1.0","time_elapsed":207781752,"subject_id":"92544","group":"Group1","condition":"3_Rep","full_date":"2026-02-25T18:12:51.267Z","date":"2026-02-25","time":"18:12:51"},{"rt":null,"stimulus":"<p style=\"font-size: 50px; margin: 0; text-align: center;\">+</p>","response":null,"trial_type":"html-keyboard-response","trial_index":131,"plugin_version":"2.1.0","time_elapsed":207782757,"subject_id":"92544","group":"Group1","condition":"3_Rep","full_date":"2026-02-25T18:12:51.267Z","date":"2026-02-25","time":"18:12:51"},{"task":"memory_phase","broad_category":"M","image_png":"M_Marble_06.png","image_id":230,"category_name":"Marble","category":15,"distinct_rating":3.4,"distinct_type":"Bottom","rt":null,"stimulus":"Stimuli_Rocks480/M_Marble_06.png","response":null,"trial_type":"image-keyboard-response","trial_index":132,"plugin_version":"2.1.0","time_elapsed":207785264,"subject_id":"92544","group":"Group1","condition":"3_Rep","full_date":"2026-02-25T18:12:51.267Z","date":"2026-02-25","time":"18:12:51"},{"rt":null,"stimulus":"<p style=\"font-size: 50px; margin: 0; text-align: center;\">+</p>","response":null,"trial_type":"html-keyboard-response","trial_index":133,"plugin_version":"2.1.0","time_elapsed":207786276,"subject_id":"92544","group":"Group1","condition":"3_Rep","full_date":"2026-02-25T18:12:51.267Z","date":"2026-02-25","time":"18:12:51"},{"task":"memory_phase","broad_category":"I","image_png":"I_Andesite_08.png","image_id":8,"category_name":"Andesite","category":1,"distinct_rating":1.95,"distinct_type":"Bottom","rt":null,"stimulus":"Stimuli_Rocks480/I_Andesite_08.png","response":null,"trial_type":"image-keyboard-response","trial_index":134,"plugin_version":"2.1.0","time_elapsed":207788789,"subject_id":"92544","group":"Group1","condition":"3_Rep","full_date":"2026-02-25T18:12:51.267Z","date":"2026-02-25","time":"18:12:51"},{"rt":null,"stimulus":"<p style=\"font-size: 50px; margin: 0; text-align: center;\">+</p>","response":null,"trial_type":"html-keyboard-response","trial_index":135,"plugin_version":"2.1.0","time_elapsed":207789791,"subject_id":"92544","group":"Group1","condition":"3_Rep","full_date":"2026-02-25T18:12:51.267Z","date":"2026-02-25","time":"18:12:51"},{"task":"memory_phase","broad_category":"I","image_png":"I_Gabbro_16.png","image_id":64,"category_name":"Gabbro","category":4,"distinct_rating":2.52,"distinct_type":"Bottom","rt":null,"stimulus":"Stimuli_Rocks480/I_Gabbro_16.png","response":null,"trial_type":"image-keyboard-response","trial_index":136,"plugin_version":"2.1.0","time_elapsed":207792301,"subject_id":"92544","group":"Group1","condition":"3_Rep","full_date":"2026-02-25T18:12:51.267Z","date":"2026-02-25","time":"18:12:51"},{"rt":null,"stimulus":"<p style=\"font-size: 50px; margin: 0; text-align: center;\">+</p>","response":null,"trial_type":"html-keyboard-response","trial_index":137,"plugin_version":"2.1.0","time_elapsed":207793311,"subject_id":"92544","group":"Group1","condition":"3_Rep","full_date":"2026-02-25T18:12:51.267Z","date":"2026-02-25","time":"18:12:51"},{"task":"memory_phase","broad_category":"S","image_png":"S_Sandstone_16.png","image_id":464,"category_name":"Sandstone","category":29,"distinct_rating":1.93,"distinct_type":"Bottom","rt":null,"stimulus":"Stimuli_Rocks480/S_Sandstone_16.png","response":null,"trial_type":"image-keyboard-response","trial_index":138,"plugin_version":"2.1.0","time_elapsed":207795815,"subject_id":"92544","group":"Group1","condition":"3_Rep","full_date":"2026-02-25T18:12:51.267Z","date":"2026-02-25","time":"18:12:51"},{"rt":null,"stimulus":"<p style=\"font-size: 50px; margin: 0; text-align: center;\">+</p>","response":null,"trial_type":"html-keyboard-response","trial_index":139,"plugin_version":"2.1.0","time_elapsed":207796818,"subject_id":"92544","group":"Group1","condition":"3_Rep","full_date":"2026-02-25T18:12:51.267Z","date":"2026-02-25","time":"18:12:51"},{"task":"memory_phase","broad_category":"M","image_png":"M_Quartzite_05.png","image_id":277,"category_name":"Quartzite","category":18,"distinct_rating":2.23,"distinct_type":"Bottom","rt":null,"stimulus":"Stimuli_Rocks480/M_Quartzite_05.png","response":null,"trial_type":"image-keyboard-response","trial_index":140,"plugin_version":"2.1.0","time_elapsed":207799326,"subject_id":"92544","group":"Group1","condition":"3_Rep","full_date":"2026-02-25T18:12:51.267Z","date":"2026-02-25","time":"18:12:51"},{"rt":null,"stimulus":"<p style=\"font-size: 50px; margin: 0; text-align: center;\">+</p>","response":null,"trial_type":"html-keyboard-response","trial_index":141,"plugin_version":"2.1.0","time_elapsed":207800331,"subject_id":"92544","group":"Group1","condition":"3_Rep","full_date":"2026-02-25T18:12:51.267Z","date":"2026-02-25","time":"18:12:51"},{"task":"memory_phase","broad_category":"S","image_png":"S_Shale_12.png","image_id":476,"category_name":"Shale","category":30,"distinct_rating":2.48,"distinct_type":"Bottom","rt":null,"stimulus":"Stimuli_Rocks480/S_Shale_12.png","response":null,"trial_type":"image-keyboard-response","trial_index":142,"plugin_version":"2.1.0","time_elapsed":207802842,"subject_id":"92544","group":"Group1","condition":"3_Rep","full_date":"2026-02-25T18:12:51.267Z","date":"2026-02-25","time":"18:12:51"},{"rt":null,"stimulus":"<p style=\"font-size: 50px; margin: 0; text-align: center;\">+</p>","response":null,"trial_type":"html-keyboard-response","trial_index":143,"plugin_version":"2.1.0","time_elapsed":207803845,"subject_id":"92544","group":"Group1","condition":"3_Rep","full_date":"2026-02-25T18:12:51.267Z","date":"2026-02-25","time":"18:12:51"},{"task":"memory_phase","broad_category":"I","image_png":"I_Basalt_01.png","image_id":17,"category_name":"Basalt","category":2,"distinct_rating":1.92,"distinct_type":"Bottom","rt":null,"stimulus":"Stimuli_Rocks480/I_Basalt_01.png","response":null,"trial_type":"image-keyboard-response","trial_index":144,"plugin_version":"2.1.0","time_elapsed":207806352,"subject_id":"92544","group":"Group1","condition":"3_Rep","full_date":"2026-02-25T18:12:51.267Z","date":"2026-02-25","time":"18:12:51"},{"rt":null,"stimulus":"<p style=\"font-size: 50px; margin: 0; text-align: center;\">+</p>","response":null,"trial_type":"html-keyboard-response","trial_index":145,"plugin_version":"2.1.0","time_elapsed":207807360,"subject_id":"92544","group":"Group1","condition":"3_Rep","full_date":"2026-02-25T18:12:51.267Z","date":"2026-02-25","time":"18:12:51"},{"task":"memory_phase","broad_category":"I","image_png":"I_Andesite_10.png","image_id":10,"category_name":"Andesite","category":1,"distinct_rating":3.15,"distinct_type":"Bottom","rt":null,"stimulus":"Stimuli_Rocks480/I_Andesite_10.png","response":null,"trial_type":"image-keyboard-response","trial_index":146,"plugin_version":"2.1.0","time_elapsed":207809868,"subject_id":"92544","group":"Group1","condition":"3_Rep","full_date":"2026-02-25T18:12:51.267Z","date":"2026-02-25","time":"18:12:51"},{"rt":null,"stimulus":"<p style=\"font-size: 50px; margin: 0; text-align: center;\">+</p>","response":null,"trial_type":"html-keyboard-response","trial_index":147,"plugin_version":"2.1.0","time_elapsed":207810883,"subject_id":"92544","group":"Group1","condition":"3_Rep","full_date":"2026-02-25T18:12:51.267Z","date":"2026-02-25","time":"18:12:51"},{"task":"memory_phase","broad_category":"S","image_png":"S_Breccia_11.png","image_id":347,"category_name":"Breccia","category":22,"distinct_rating":6.7,"distinct_type":"Top","rt":null,"stimulus":"Stimuli_Rocks480/S_Breccia_11.png","response":null,"trial_type":"image-keyboard-response","trial_index":148,"plugin_version":"2.1.0","time_elapsed":207813386,"subject_id":"92544","group":"Group1","condition":"3_Rep","full_date":"2026-02-25T18:12:51.267Z","date":"2026-02-25","time":"18:12:51"},{"rt":null,"stimulus":"<p style=\"font-size: 50px; margin: 0; text-align: center;\">+</p>","response":null,"trial_type":"html-keyboard-response","trial_index":149,"plugin_version":"2.1.0","time_elapsed":207814390,"subject_id":"92544","group":"Group1","condition":"3_Rep","full_date":"2026-02-25T18:12:51.267Z","date":"2026-02-25","time":"18:12:51"},{"task":"memory_phase","broad_category":"S","image_png":"S_Shale_08.png","image_id":472,"category_name":"Shale","category":30,"distinct_rating":2.55,"distinct_type":"Bottom","rt":null,"stimulus":"Stimuli_Rocks480/S_Shale_08.png","response":null,"trial_type":"image-keyboard-response","trial_index":150,"plugin_version":"2.1.0","time_elapsed":207816907,"subject_id":"92544","group":"Group1","condition":"3_Rep","full_date":"2026-02-25T18:12:51.267Z","date":"2026-02-25","time":"18:12:51"},{"rt":null,"stimulus":"<p style=\"font-size: 50px; margin: 0; text-align: center;\">+</p>","response":null,"trial_type":"html-keyboard-response","trial_index":151,"plugin_version":"2.1.0","time_elapsed":207817915,"subject_id":"92544","group":"Group1","condition":"3_Rep","full_date":"2026-02-25T18:12:51.267Z","date":"2026-02-25","time":"18:12:51"},{"task":"memory_phase","broad_category":"I","image_png":"I_Pegmatite_16.png","image_id":112,"category_name":"Pegmatite","category":7,"distinct_rating":7.03,"distinct_type":"Top","rt":null,"stimulus":"Stimuli_Rocks480/I_Pegmatite_16.png","response":null,"trial_type":"image-keyboard-response","trial_index":152,"plugin_version":"2.1.0","time_elapsed":207820425,"subject_id":"92544","group":"Group1","condition":"3_Rep","full_date":"2026-02-25T18:12:51.267Z","date":"2026-02-25","time":"18:12:51"},{"rt":null,"stimulus":"<p style=\"font-size: 50px; margin: 0; text-align: center;\">+</p>","response":null,"trial_type":"html-keyboard-response","trial_index":153,"plugin_version":"2.1.0","time_elapsed":207821437,"subject_id":"92544","group":"Group1","condition":"3_Rep","full_date":"2026-02-25T18:12:51.267Z","date":"2026-02-25","time":"18:12:51"},{"task":"memory_phase","broad_category":"I","image_png":"I_Diorite_04.png","image_id":36,"category_name":"Diorite","category":3,"distinct_rating":2.98,"distinct_type":"Bottom","rt":null,"stimulus":"Stimuli_Rocks480/I_Diorite_04.png","response":null,"trial_type":"image-keyboard-response","trial_index":154,"plugin_version":"2.1.0","time_elapsed":207823947,"subject_id":"92544","group":"Group1","condition":"3_Rep","full_date":"2026-02-25T18:12:51.267Z","date":"2026-02-25","time":"18:12:51"},{"rt":null,"stimulus":"<p style=\"font-size: 50px; margin: 0; text-align: center;\">+</p>","response":null,"trial_type":"html-keyboard-response","trial_index":155,"plugin_version":"2.1.0","time_elapsed":207824959,"subject_id":"92544","group":"Group1","condition":"3_Rep","full_date":"2026-02-25T18:12:51.267Z","date":"2026-02-25","time":"18:12:51"},{"task":"memory_phase","broad_category":"M","image_png":"M_Slate_03.png","image_id":307,"category_name":"Slate","category":20,"distinct_rating":1.87,"distinct_type":"Bottom","rt":null,"stimulus":"Stimuli_Rocks480/M_Slate_03.png","response":null,"trial_type":"image-keyboard-response","trial_index":156,"plugin_version":"2.1.0","time_elapsed":207827466,"subject_id":"92544","group":"Group1","condition":"3_Rep","full_date":"2026-02-25T18:12:51.267Z","date":"2026-02-25","time":"18:12:51"},{"rt":1542,"stimulus":"<p style=\"max-width: 760px; margin: auto; font-size: 35px; line-height: 1.5;\">\n                Press SPACE to continue study phase\n              </p>","response":" ","trial_type":"html-keyboard-response","trial_index":157,"plugin_version":"2.1.0","time_elapsed":207829009,"subject_id":"92544","group":"Group1","condition":"3_Rep","full_date":"2026-02-25T18:12:51.267Z","date":"2026-02-25","time":"18:12:51"},{"rt":null,"stimulus":"<p style=\"font-size: 50px; margin: 0; text-align: center;\">+</p>","response":null,"trial_type":"html-keyboard-response","trial_index":158,"plugin_version":"2.1.0","time_elapsed":207830011,"subject_id":"92544","group":"Group1","condition":"3_Rep","full_date":"2026-02-25T18:12:51.267Z","date":"2026-02-25","time":"18:12:51"},{"task":"memory_phase","broad_category":"I","image_png":"I_Rhyolite_14.png","image_id":158,"category_name":"Rhyolite","category":10,"distinct_rating":2.59,"distinct_type":"Bottom","rt":null,"stimulus":"Stimuli_Rocks480/I_Rhyolite_14.png","response":null,"trial_type":"image-keyboard-response","trial_index":159,"plugin_version":"2.1.0","time_elapsed":207832516,"subject_id":"92544","group":"Group1","condition":"3_Rep","full_date":"2026-02-25T18:12:51.267Z","date":"2026-02-25","time":"18:12:51"},{"rt":null,"stimulus":"<p style=\"font-size: 50px; margin: 0; text-align: center;\">+</p>","response":null,"trial_type":"html-keyboard-response","trial_index":160,"plugin_version":"2.1.0","time_elapsed":207833530,"subject_id":"92544","group":"Group1","condition":"3_Rep","full_date":"2026-02-25T18:12:51.267Z","date":"2026-02-25","time":"18:12:51"},{"task":"memory_phase","broad_category":"I","image_png":"I_Basalt_02.png","image_id":18,"category_name":"Basalt","category":2,"distinct_rating":1.84,"distinct_type":"Bottom","rt":null,"stimulus":"Stimuli_Rocks480/I_Basalt_02.png","response":null,"trial_type":"image-keyboard-response","trial_index":161,"plugin_version":"2.1.0","time_elapsed":207836033,"subject_id":"92544","group":"Group1","condition":"3_Rep","full_date":"2026-02-25T18:12:51.267Z","date":"2026-02-25","time":"18:12:51"},{"rt":null,"stimulus":"<p style=\"font-size: 50px; margin: 0; text-align: center;\">+</p>","response":null,"trial_type":"html-keyboard-response","trial_index":162,"plugin_version":"2.1.0","time_elapsed":207837037,"subject_id":"92544","group":"Group1","condition":"3_Rep","full_date":"2026-02-25T18:12:51.267Z","date":"2026-02-25","time":"18:12:51"},{"task":"memory_phase","broad_category":"M","image_png":"M_Gneiss_06.png","image_id":198,"category_name":"Gneiss","category":13,"distinct_rating":2.65,"distinct_type":"Bottom","rt":null,"stimulus":"Stimuli_Rocks480/M_Gneiss_06.png","response":null,"trial_type":"image-keyboard-response","trial_index":163,"plugin_version":"2.1.0","time_elapsed":207839539,"subject_id":"92544","group":"Group1","condition":"3_Rep","full_date":"2026-02-25T18:12:51.267Z","date":"2026-02-25","time":"18:12:51"},{"rt":null,"stimulus":"<p style=\"font-size: 50px; margin: 0; text-align: center;\">+</p>","response":null,"trial_type":"html-keyboard-response","trial_index":164,"plugin_version":"2.1.0","time_elapsed":207840543,"subject_id":"92544","group":"Group1","condition":"3_Rep","full_date":"2026-02-25T18:12:51.267Z","date":"2026-02-25","time":"18:12:51"},{"task":"memory_phase","broad_category":"I","image_png":"I_Gabbro_11.png","image_id":59,"category_name":"Gabbro","category":4,"distinct_rating":1.99,"distinct_type":"Bottom","rt":null,"stimulus":"Stimuli_Rocks480/I_Gabbro_11.png","response":null,"trial_type":"image-keyboard-response","trial_index":165,"plugin_version":"2.1.0","time_elapsed":207843053,"subject_id":"92544","group":"Group1","condition":"3_Rep","full_date":"2026-02-25T18:12:51.267Z","date":"2026-02-25","time":"18:12:51"},{"rt":null,"stimulus":"<p style=\"font-size: 50px; margin: 0; text-align: center;\">+</p>","response":null,"trial_type":"html-keyboard-response","trial_index":166,"plugin_version":"2.1.0","time_elapsed":207844055,"subject_id":"92544","group":"Group1","condition":"3_Rep","full_date":"2026-02-25T18:12:51.267Z","date":"2026-02-25","time":"18:12:51"},{"task":"memory_phase","broad_category":"M","image_png":"M_Gneiss_05.png","image_id":197,"category_name":"Gneiss","category":13,"distinct_rating":2.97,"distinct_type":"Bottom","rt":null,"stimulus":"Stimuli_Rocks480/M_Gneiss_05.png","response":null,"trial_type":"image-keyboard-response","trial_index":167,"plugin_version":"2.1.0","time_elapsed":207846573,"subject_id":"92544","group":"Group1","condition":"3_Rep","full_date":"2026-02-25T18:12:51.267Z","date":"2026-02-25","time":"18:12:51"},{"rt":null,"stimulus":"<p style=\"font-size: 50px; margin: 0; text-align: center;\">+</p>","response":null,"trial_type":"html-keyboard-response","trial_index":168,"plugin_version":"2.1.0","time_elapsed":207847574,"subject_id":"92544","group":"Group1","condition":"3_Rep","full_date":"2026-02-25T18:12:51.267Z","date":"2026-02-25","time":"18:12:51"},{"task":"memory_phase","broad_category":"S","image_png":"S_Shale_01.png","image_id":465,"category_name":"Shale","category":30,"distinct_rating":2.7,"distinct_type":"Bottom","rt":null,"stimulus":"Stimuli_Rocks480/S_Shale_01.png","response":null,"trial_type":"image-keyboard-response","trial_index":169,"plugin_version":"2.1.0","time_elapsed":207850087,"subject_id":"92544","group":"Group1","condition":"3_Rep","full_date":"2026-02-25T18:12:51.267Z","date":"2026-02-25","time":"18:12:51"},{"rt":null,"stimulus":"<p style=\"font-size: 50px; margin: 0; text-align: center;\">+</p>","response":null,"trial_type":"html-keyboard-response","trial_index":170,"plugin_version":"2.1.0","time_elapsed":207851090,"subject_id":"92544","group":"Group1","condition":"3_Rep","full_date":"2026-02-25T18:12:51.267Z","date":"2026-02-25","time":"18:12:51"},{"task":"memory_phase","broad_category":"M","image_png":"M_Slate_15.png","image_id":319,"category_name":"Slate","category":20,"distinct_rating":2.13,"distinct_type":"Bottom","rt":null,"stimulus":"Stimuli_Rocks480/M_Slate_15.png","response":null,"trial_type":"image-keyboard-response","trial_index":171,"plugin_version":"2.1.0","time_elapsed":207853604,"subject_id":"92544","group":"Group1","condition":"3_Rep","full_date":"2026-02-25T18:12:51.267Z","date":"2026-02-25","time":"18:12:51"},{"rt":null,"stimulus":"<p style=\"font-size: 50px; margin: 0; text-align: center;\">+</p>","response":null,"trial_type":"html-keyboard-response","trial_index":172,"plugin_version":"2.1.0","time_elapsed":207854612,"subject_id":"92544","group":"Group1","condition":"3_Rep","full_date":"2026-02-25T18:12:51.267Z","date":"2026-02-25","time":"18:12:51"},{"task":"memory_phase","broad_category":"I","image_png":"I_Diorite_05.png","image_id":37,"category_name":"Diorite","category":3,"distinct_rating":3.08,"distinct_type":"Bottom","rt":null,"stimulus":"Stimuli_Rocks480/I_Diorite_05.png","response":null,"trial_type":"image-keyboard-response","trial_index":173,"plugin_version":"2.1.0","time_elapsed":207857114,"subject_id":"92544","group":"Group1","condition":"3_Rep","full_date":"2026-02-25T18:12:51.267Z","date":"2026-02-25","time":"18:12:51"},{"rt":null,"stimulus":"<p style=\"font-size: 50px; margin: 0; text-align: center;\">+</p>","response":null,"trial_type":"html-keyboard-response","trial_index":174,"plugin_version":"2.1.0","time_elapsed":207858123,"subject_id":"92544","group":"Group1","condition":"3_Rep","full_date":"2026-02-25T18:12:51.267Z","date":"2026-02-25","time":"18:12:51"},{"task":"memory_phase","broad_category":"S","image_png":"S_Dolomite_14.png","image_id":398,"category_name":"Dolomite","category":25,"distinct_rating":1.43,"distinct_type":"Bottom","rt":null,"stimulus":"Stimuli_Rocks480/S_Dolomite_14.png","response":null,"trial_type":"image-keyboard-response","trial_index":175,"plugin_version":"2.1.0","time_elapsed":207860633,"subject_id":"92544","group":"Group1","condition":"3_Rep","full_date":"2026-02-25T18:12:51.267Z","date":"2026-02-25","time":"18:12:51"},{"rt":null,"stimulus":"<p style=\"font-size: 50px; margin: 0; text-align: center;\">+</p>","response":null,"trial_type":"html-keyboard-response","trial_index":176,"plugin_version":"2.1.0","time_elapsed":207861637,"subject_id":"92544","group":"Group1","condition":"3_Rep","full_date":"2026-02-25T18:12:51.267Z","date":"2026-02-25","time":"18:12:51"},{"task":"memory_phase","broad_category":"M","image_png":"M_Quartzite_08.png","image_id":280,"category_name":"Quartzite","category":18,"distinct_rating":2.15,"distinct_type":"Bottom","rt":null,"stimulus":"Stimuli_Rocks480/M_Quartzite_08.png","response":null,"trial_type":"image-keyboard-response","trial_index":177,"plugin_version":"2.1.0","time_elapsed":207864148,"subject_id":"92544","group":"Group1","condition":"3_Rep","full_date":"2026-02-25T18:12:51.267Z","date":"2026-02-25","time":"18:12:51"},{"rt":null,"stimulus":"<p style=\"font-size: 50px; margin: 0; text-align: center;\">+</p>","response":null,"trial_type":"html-keyboard-response","trial_index":178,"plugin_version":"2.1.0","time_elapsed":207865166,"subject_id":"92544","group":"Group1","condition":"3_Rep","full_date":"2026-02-25T18:12:51.267Z","date":"2026-02-25","time":"18:12:51"},{"task":"memory_phase","broad_category":"I","image_png":"I_Basalt_09.png","image_id":25,"category_name":"Basalt","category":2,"distinct_rating":1.89,"distinct_type":"Bottom","rt":null,"stimulus":"Stimuli_Rocks480/I_Basalt_09.png","response":null,"trial_type":"image-keyboard-response","trial_index":179,"plugin_version":"2.1.0","time_elapsed":207867680,"subject_id":"92544","group":"Group1","condition":"3_Rep","full_date":"2026-02-25T18:12:51.267Z","date":"2026-02-25","time":"18:12:51"},{"rt":null,"stimulus":"<p style=\"font-size: 50px; margin: 0; text-align: center;\">+</p>","response":null,"trial_type":"html-keyboard-response","trial_index":180,"plugin_version":"2.1.0","time_elapsed":207868693,"subject_id":"92544","group":"Group1","condition":"3_Rep","full_date":"2026-02-25T18:12:51.267Z","date":"2026-02-25","time":"18:12:51"},{"task":"memory_phase","broad_category":"I","image_png":"I_Gabbro_08.png","image_id":56,"category_name":"Gabbro","category":4,"distinct_rating":3.02,"distinct_type":"Bottom","rt":null,"stimulus":"Stimuli_Rocks480/I_Gabbro_08.png","response":null,"trial_type":"image-keyboard-response","trial_index":181,"plugin_version":"2.1.0","time_elapsed":207871211,"subject_id":"92544","group":"Group1","condition":"3_Rep","full_date":"2026-02-25T18:12:51.267Z","date":"2026-02-25","time":"18:12:51"},{"rt":null,"stimulus":"<p style=\"font-size: 50px; margin: 0; text-align: center;\">+</p>","response":null,"trial_type":"html-keyboard-response","trial_index":182,"plugin_version":"2.1.0","time_elapsed":207872219,"subject_id":"92544","group":"Group1","condition":"3_Rep","full_date":"2026-02-25T18:12:51.267Z","date":"2026-02-25","time":"18:12:51"},{"task":"memory_phase","broad_category":"S","image_png":"S_Chert_10.png","image_id":362,"category_name":"Chert","category":23,"distinct_rating":7.17,"distinct_type":"Top","rt":null,"stimulus":"Stimuli_Rocks480/S_Chert_10.png","response":null,"trial_type":"image-keyboard-response","trial_index":183,"plugin_version":"2.1.0","time_elapsed":207874732,"subject_id":"92544","group":"Group1","condition":"3_Rep","full_date":"2026-02-25T18:12:51.267Z","date":"2026-02-25","time":"18:12:51"},{"rt":null,"stimulus":"<p style=\"font-size: 50px; margin: 0; text-align: center;\">+</p>","response":null,"trial_type":"html-keyboard-response","trial_index":184,"plugin_version":"2.1.0","time_elapsed":207875739,"subject_id":"92544","group":"Group1","condition":"3_Rep","full_date":"2026-02-25T18:12:51.267Z","date":"2026-02-25","time":"18:12:51"},{"task":"memory_phase","broad_category":"S","image_png":"S_Sandstone_03.png","image_id":451,"category_name":"Sandstone","category":29,"distinct_rating":1.86,"distinct_type":"Bottom","rt":null,"stimulus":"Stimuli_Rocks480/S_Sandstone_03.png","response":null,"trial_type":"image-keyboard-response","trial_index":185,"plugin_version":"2.1.0","time_elapsed":207878247,"subject_id":"92544","group":"Group1","condition":"3_Rep","full_date":"2026-02-25T18:12:51.267Z","date":"2026-02-25","time":"18:12:51"},{"rt":null,"stimulus":"<p style=\"font-size: 50px; margin: 0; text-align: center;\">+</p>","response":null,"trial_type":"html-keyboard-response","trial_index":186,"plugin_version":"2.1.0","time_elapsed":207879255,"subject_id":"92544","group":"Group1","condition":"3_Rep","full_date":"2026-02-25T18:12:51.267Z","date":"2026-02-25","time":"18:12:51"},{"task":"memory_phase","broad_category":"M","image_png":"M_Phyllite_03.png","image_id":259,"category_name":"Phyllite","category":17,"distinct_rating":2.5,"distinct_type":"Bottom","rt":null,"stimulus":"Stimuli_Rocks480/M_Phyllite_03.png","response":null,"trial_type":"image-keyboard-response","trial_index":187,"plugin_version":"2.1.0","time_elapsed":207881771,"subject_id":"92544","group":"Group1","condition":"3_Rep","full_date":"2026-02-25T18:12:51.267Z","date":"2026-02-25","time":"18:12:51"},{"rt":null,"stimulus":"<p style=\"font-size: 50px; margin: 0; text-align: center;\">+</p>","response":null,"trial_type":"html-keyboard-response","trial_index":188,"plugin_version":"2.1.0","time_elapsed":207882775,"subject_id":"92544","group":"Group1","condition":"3_Rep","full_date":"2026-02-25T18:12:51.267Z","date":"2026-02-25","time":"18:12:51"},{"task":"memory_phase","broad_category":"I","image_png":"I_Rhyolite_11.png","image_id":155,"category_name":"Rhyolite","category":10,"distinct_rating":1.73,"distinct_type":"Bottom","rt":null,"stimulus":"Stimuli_Rocks480/I_Rhyolite_11.png","response":null,"trial_type":"image-keyboard-response","trial_index":189,"plugin_version":"2.1.0","time_elapsed":207885292,"subject_id":"92544","group":"Group1","condition":"3_Rep","full_date":"2026-02-25T18:12:51.267Z","date":"2026-02-25","time":"18:12:51"},{"rt":null,"stimulus":"<p style=\"font-size: 50px; margin: 0; text-align: center;\">+</p>","response":null,"trial_type":"html-keyboard-response","trial_index":190,"plugin_version":"2.1.0","time_elapsed":207886309,"subject_id":"92544","group":"Group1","condition":"3_Rep","full_date":"2026-02-25T18:12:51.267Z","date":"2026-02-25","time":"18:12:51"},{"task":"memory_phase","broad_category":"I","image_png":"I_Pumice_08.png","image_id":136,"category_name":"Pumice","category":9,"distinct_rating":3.1,"distinct_type":"Bottom","rt":null,"stimulus":"Stimuli_Rocks480/I_Pumice_08.png","response":null,"trial_type":"image-keyboard-response","trial_index":191,"plugin_version":"2.1.0","time_elapsed":207888826,"subject_id":"92544","group":"Group1","condition":"3_Rep","full_date":"2026-02-25T18:12:51.267Z","date":"2026-02-25","time":"18:12:51"},{"rt":null,"stimulus":"<p style=\"font-size: 50px; margin: 0; text-align: center;\">+</p>","response":null,"trial_type":"html-keyboard-response","trial_index":192,"plugin_version":"2.1.0","time_elapsed":207889830,"subject_id":"92544","group":"Group1","condition":"3_Rep","full_date":"2026-02-25T18:12:51.267Z","date":"2026-02-25","time":"18:12:51"},{"task":"memory_phase","broad_category":"M","image_png":"M_Gneiss_13.png","image_id":205,"category_name":"Gneiss","category":13,"distinct_rating":3.26,"distinct_type":"Bottom","rt":null,"stimulus":"Stimuli_Rocks480/M_Gneiss_13.png","response":null,"trial_type":"image-keyboard-response","trial_index":193,"plugin_version":"2.1.0","time_elapsed":207892343,"subject_id":"92544","group":"Group1","condition":"3_Rep","full_date":"2026-02-25T18:12:51.267Z","date":"2026-02-25","time":"18:12:51"},{"rt":null,"stimulus":"<p style=\"font-size: 50px; margin: 0; text-align: center;\">+</p>","response":null,"trial_type":"html-keyboard-response","trial_index":194,"plugin_version":"2.1.0","time_elapsed":207893355,"subject_id":"92544","group":"Group1","condition":"3_Rep","full_date":"2026-02-25T18:12:51.267Z","date":"2026-02-25","time":"18:12:51"},{"task":"memory_phase","broad_category":"S","image_png":"S_Sandstone_15.png","image_id":463,"category_name":"Sandstone","category":29,"distinct_rating":2,"distinct_type":"Bottom","rt":null,"stimulus":"Stimuli_Rocks480/S_Sandstone_15.png","response":null,"trial_type":"image-keyboard-response","trial_index":195,"plugin_version":"2.1.0","time_elapsed":207895865,"subject_id":"92544","group":"Group1","condition":"3_Rep","full_date":"2026-02-25T18:12:51.267Z","date":"2026-02-25","time":"18:12:51"},{"rt":null,"stimulus":"<p style=\"font-size: 50px; margin: 0; text-align: center;\">+</p>","response":null,"trial_type":"html-keyboard-response","trial_index":196,"plugin_version":"2.1.0","time_elapsed":207896871,"subject_id":"92544","group":"Group1","condition":"3_Rep","full_date":"2026-02-25T18:12:51.267Z","date":"2026-02-25","time":"18:12:51"},{"task":"memory_phase","broad_category":"S","image_png":"S_Dolomite_12.png","image_id":396,"category_name":"Dolomite","category":25,"distinct_rating":1.85,"distinct_type":"Bottom","rt":null,"stimulus":"Stimuli_Rocks480/S_Dolomite_12.png","response":null,"trial_type":"image-keyboard-response","trial_index":197,"plugin_version":"2.1.0","time_elapsed":207899390,"subject_id":"92544","group":"Group1","condition":"3_Rep","full_date":"2026-02-25T18:12:51.267Z","date":"2026-02-25","time":"18:12:51"},{"rt":null,"stimulus":"<p style=\"font-size: 50px; margin: 0; text-align: center;\">+</p>","response":null,"trial_type":"html-keyboard-response","trial_index":198,"plugin_version":"2.1.0","time_elapsed":207900402,"subject_id":"92544","group":"Group1","condition":"3_Rep","full_date":"2026-02-25T18:12:51.267Z","date":"2026-02-25","time":"18:12:51"},{"task":"memory_phase","broad_category":"I","image_png":"I_Diorite_03.png","image_id":35,"category_name":"Diorite","category":3,"distinct_rating":3.14,"distinct_type":"Bottom","rt":null,"stimulus":"Stimuli_Rocks480/I_Diorite_03.png","response":null,"trial_type":"image-keyboard-response","trial_index":199,"plugin_version":"2.1.0","time_elapsed":207902921,"subject_id":"92544","group":"Group1","condition":"3_Rep","full_date":"2026-02-25T18:12:51.267Z","date":"2026-02-25","time":"18:12:51"},{"rt":null,"stimulus":"<p style=\"font-size: 50px; margin: 0; text-align: center;\">+</p>","response":null,"trial_type":"html-keyboard-response","trial_index":200,"plugin_version":"2.1.0","time_elapsed":207903928,"subject_id":"92544","group":"Group1","condition":"3_Rep","full_date":"2026-02-25T18:12:51.267Z","date":"2026-02-25","time":"18:12:51"},{"task":"memory_phase","broad_category":"I","image_png":"I_Pegmatite_10.png","image_id":106,"category_name":"Pegmatite","category":7,"distinct_rating":7.66,"distinct_type":"Top","rt":null,"stimulus":"Stimuli_Rocks480/I_Pegmatite_10.png","response":null,"trial_type":"image-keyboard-response","trial_index":201,"plugin_version":"2.1.0","time_elapsed":207906434,"subject_id":"92544","group":"Group1","condition":"3_Rep","full_date":"2026-02-25T18:12:51.267Z","date":"2026-02-25","time":"18:12:51"},{"rt":null,"stimulus":"<p style=\"font-size: 50px; margin: 0; text-align: center;\">+</p>","response":null,"trial_type":"html-keyboard-response","trial_index":202,"plugin_version":"2.1.0","time_elapsed":207907445,"subject_id":"92544","group":"Group1","condition":"3_Rep","full_date":"2026-02-25T18:12:51.267Z","date":"2026-02-25","time":"18:12:51"},{"task":"memory_phase","broad_category":"M","image_png":"M_Slate_11.png","image_id":315,"category_name":"Slate","category":20,"distinct_rating":2.75,"distinct_type":"Bottom","rt":null,"stimulus":"Stimuli_Rocks480/M_Slate_11.png","response":null,"trial_type":"image-keyboard-response","trial_index":203,"plugin_version":"2.1.0","time_elapsed":207909948,"subject_id":"92544","group":"Group1","condition":"3_Rep","full_date":"2026-02-25T18:12:51.267Z","date":"2026-02-25","time":"18:12:51"},{"rt":null,"stimulus":"<p style=\"font-size: 50px; margin: 0; text-align: center;\">+</p>","response":null,"trial_type":"html-keyboard-response","trial_index":204,"plugin_version":"2.1.0","time_elapsed":207910954,"subject_id":"92544","group":"Group1","condition":"3_Rep","full_date":"2026-02-25T18:12:51.267Z","date":"2026-02-25","time":"18:12:51"},{"task":"memory_phase","broad_category":"M","image_png":"M_Phyllite_10.png","image_id":266,"category_name":"Phyllite","category":17,"distinct_rating":2.6,"distinct_type":"Bottom","rt":null,"stimulus":"Stimuli_Rocks480/M_Phyllite_10.png","response":null,"trial_type":"image-keyboard-response","trial_index":205,"plugin_version":"2.1.0","time_elapsed":207913464,"subject_id":"92544","group":"Group1","condition":"3_Rep","full_date":"2026-02-25T18:12:51.267Z","date":"2026-02-25","time":"18:12:51"},{"rt":null,"stimulus":"<p style=\"font-size: 50px; margin: 0; text-align: center;\">+</p>","response":null,"trial_type":"html-keyboard-response","trial_index":206,"plugin_version":"2.1.0","time_elapsed":207914478,"subject_id":"92544","group":"Group1","condition":"3_Rep","full_date":"2026-02-25T18:12:51.267Z","date":"2026-02-25","time":"18:12:51"},{"task":"memory_phase","broad_category":"I","image_png":"I_Obsidian_05.png","image_id":85,"category_name":"Obsidian","category":6,"distinct_rating":7.32,"distinct_type":"Top","rt":null,"stimulus":"Stimuli_Rocks480/I_Obsidian_05.png","response":null,"trial_type":"image-keyboard-response","trial_index":207,"plugin_version":"2.1.0","time_elapsed":207916988,"subject_id":"92544","group":"Group1","condition":"3_Rep","full_date":"2026-02-25T18:12:51.267Z","date":"2026-02-25","time":"18:12:51"},{"rt":2303,"stimulus":"<p style=\"max-width: 760px; margin: auto; font-size: 35px; line-height: 1.5;\">\n                You have completed 2 study phases. \n                Now, we'll show you all the images again 1 more time.\n                <br><br>Press SPACE to continue\n              </p>","response":" ","trial_type":"html-keyboard-response","trial_index":208,"plugin_version":"2.1.0","time_elapsed":207919292,"subject_id":"92544","group":"Group1","condition":"3_Rep","full_date":"2026-02-25T18:12:51.267Z","date":"2026-02-25","time":"18:12:51"},{"rt":null,"stimulus":"<p style=\"font-size: 50px; margin: 0; text-align: center;\">+</p>","response":null,"trial_type":"html-keyboard-response","trial_index":209,"plugin_version":"2.1.0","time_elapsed":207920302,"subject_id":"92544","group":"Group1","condition":"3_Rep","full_date":"2026-02-25T18:12:51.267Z","date":"2026-02-25","time":"18:12:51"},{"task":"memory_phase","broad_category":"S","image_png":"S_Shale_08.png","image_id":472,"category_name":"Shale","category":30,"distinct_rating":2.55,"distinct_type":"Bottom","rt":null,"stimulus":"Stimuli_Rocks480/S_Shale_08.png","response":null,"trial_type":"image-keyboard-response","trial_index":210,"plugin_version":"2.1.0","time_elapsed":207922806,"subject_id":"92544","group":"Group1","condition":"3_Rep","full_date":"2026-02-25T18:12:51.267Z","date":"2026-02-25","time":"18:12:51"},{"rt":null,"stimulus":"<p style=\"font-size: 50px; margin: 0; text-align: center;\">+</p>","response":null,"trial_type":"html-keyboard-response","trial_index":211,"plugin_version":"2.1.0","time_elapsed":207923809,"subject_id":"92544","group":"Group1","condition":"3_Rep","full_date":"2026-02-25T18:12:51.267Z","date":"2026-02-25","time":"18:12:51"},{"task":"memory_phase","broad_category":"M","image_png":"M_Quartzite_05.png","image_id":277,"category_name":"Quartzite","category":18,"distinct_rating":2.23,"distinct_type":"Bottom","rt":null,"stimulus":"Stimuli_Rocks480/M_Quartzite_05.png","response":null,"trial_type":"image-keyboard-response","trial_index":212,"plugin_version":"2.1.0","time_elapsed":207926312,"subject_id":"92544","group":"Group1","condition":"3_Rep","full_date":"2026-02-25T18:12:51.267Z","date":"2026-02-25","time":"18:12:51"},{"rt":null,"stimulus":"<p style=\"font-size: 50px; margin: 0; text-align: center;\">+</p>","response":null,"trial_type":"html-keyboard-response","trial_index":213,"plugin_version":"2.1.0","time_elapsed":207927325,"subject_id":"92544","group":"Group1","condition":"3_Rep","full_date":"2026-02-25T18:12:51.267Z","date":"2026-02-25","time":"18:12:51"},{"task":"memory_phase","broad_category":"M","image_png":"M_Gneiss_06.png","image_id":198,"category_name":"Gneiss","category":13,"distinct_rating":2.65,"distinct_type":"Bottom","rt":null,"stimulus":"Stimuli_Rocks480/M_Gneiss_06.png","response":null,"trial_type":"image-keyboard-response","trial_index":214,"plugin_version":"2.1.0","time_elapsed":207929829,"subject_id":"92544","group":"Group1","condition":"3_Rep","full_date":"2026-02-25T18:12:51.267Z","date":"2026-02-25","time":"18:12:51"},{"rt":null,"stimulus":"<p style=\"font-size: 50px; margin: 0; text-align: center;\">+</p>","response":null,"trial_type":"html-keyboard-response","trial_index":215,"plugin_version":"2.1.0","time_elapsed":207930834,"subject_id":"92544","group":"Group1","condition":"3_Rep","full_date":"2026-02-25T18:12:51.267Z","date":"2026-02-25","time":"18:12:51"},{"task":"memory_phase","broad_category":"S","image_png":"S_Sandstone_03.png","image_id":451,"category_name":"Sandstone","category":29,"distinct_rating":1.86,"distinct_type":"Bottom","rt":null,"stimulus":"Stimuli_Rocks480/S_Sandstone_03.png","response":null,"trial_type":"image-keyboard-response","trial_index":216,"plugin_version":"2.1.0","time_elapsed":207933340,"subject_id":"92544","group":"Group1","condition":"3_Rep","full_date":"2026-02-25T18:12:51.267Z","date":"2026-02-25","time":"18:12:51"},{"rt":null,"stimulus":"<p style=\"font-size: 50px; margin: 0; text-align: center;\">+</p>","response":null,"trial_type":"html-keyboard-response","trial_index":217,"plugin_version":"2.1.0","time_elapsed":207934356,"subject_id":"92544","group":"Group1","condition":"3_Rep","full_date":"2026-02-25T18:12:51.267Z","date":"2026-02-25","time":"18:12:51"},{"task":"memory_phase","broad_category":"S","image_png":"S_Sandstone_16.png","image_id":464,"category_name":"Sandstone","category":29,"distinct_rating":1.93,"distinct_type":"Bottom","rt":null,"stimulus":"Stimuli_Rocks480/S_Sandstone_16.png","response":null,"trial_type":"image-keyboard-response","trial_index":218,"plugin_version":"2.1.0","time_elapsed":207936870,"subject_id":"92544","group":"Group1","condition":"3_Rep","full_date":"2026-02-25T18:12:51.267Z","date":"2026-02-25","time":"18:12:51"},{"rt":null,"stimulus":"<p style=\"font-size: 50px; margin: 0; text-align: center;\">+</p>","response":null,"trial_type":"html-keyboard-response","trial_index":219,"plugin_version":"2.1.0","time_elapsed":207937874,"subject_id":"92544","group":"Group1","condition":"3_Rep","full_date":"2026-02-25T18:12:51.267Z","date":"2026-02-25","time":"18:12:51"},{"task":"memory_phase","broad_category":"M","image_png":"M_Phyllite_03.png","image_id":259,"category_name":"Phyllite","category":17,"distinct_rating":2.5,"distinct_type":"Bottom","rt":null,"stimulus":"Stimuli_Rocks480/M_Phyllite_03.png","response":null,"trial_type":"image-keyboard-response","trial_index":220,"plugin_version":"2.1.0","time_elapsed":207940379,"subject_id":"92544","group":"Group1","condition":"3_Rep","full_date":"2026-02-25T18:12:51.267Z","date":"2026-02-25","time":"18:12:51"},{"rt":null,"stimulus":"<p style=\"font-size: 50px; margin: 0; text-align: center;\">+</p>","response":null,"trial_type":"html-keyboard-response","trial_index":221,"plugin_version":"2.1.0","time_elapsed":207941393,"subject_id":"92544","group":"Group1","condition":"3_Rep","full_date":"2026-02-25T18:12:51.267Z","date":"2026-02-25","time":"18:12:51"},{"task":"memory_phase","broad_category":"S","image_png":"S_Breccia_11.png","image_id":347,"category_name":"Breccia","category":22,"distinct_rating":6.7,"distinct_type":"Top","rt":null,"stimulus":"Stimuli_Rocks480/S_Breccia_11.png","response":null,"trial_type":"image-keyboard-response","trial_index":222,"plugin_version":"2.1.0","time_elapsed":207943904,"subject_id":"92544","group":"Group1","condition":"3_Rep","full_date":"2026-02-25T18:12:51.267Z","date":"2026-02-25","time":"18:12:51"},{"rt":null,"stimulus":"<p style=\"font-size: 50px; margin: 0; text-align: center;\">+</p>","response":null,"trial_type":"html-keyboard-response","trial_index":223,"plugin_version":"2.1.0","time_elapsed":207944919,"subject_id":"92544","group":"Group1","condition":"3_Rep","full_date":"2026-02-25T18:12:51.267Z","date":"2026-02-25","time":"18:12:51"},{"task":"memory_phase","broad_category":"M","image_png":"M_Marble_16.png","image_id":240,"category_name":"Marble","category":15,"distinct_rating":2.57,"distinct_type":"Bottom","rt":null,"stimulus":"Stimuli_Rocks480/M_Marble_16.png","response":null,"trial_type":"image-keyboard-response","trial_index":224,"plugin_version":"2.1.0","time_elapsed":207947427,"subject_id":"92544","group":"Group1","condition":"3_Rep","full_date":"2026-02-25T18:12:51.267Z","date":"2026-02-25","time":"18:12:51"},{"rt":null,"stimulus":"<p style=\"font-size: 50px; margin: 0; text-align: center;\">+</p>","response":null,"trial_type":"html-keyboard-response","trial_index":225,"plugin_version":"2.1.0","time_elapsed":207948444,"subject_id":"92544","group":"Group1","condition":"3_Rep","full_date":"2026-02-25T18:12:51.267Z","date":"2026-02-25","time":"18:12:51"},{"task":"memory_phase","broad_category":"M","image_png":"M_Slate_03.png","image_id":307,"category_name":"Slate","category":20,"distinct_rating":1.87,"distinct_type":"Bottom","rt":null,"stimulus":"Stimuli_Rocks480/M_Slate_03.png","response":null,"trial_type":"image-keyboard-response","trial_index":226,"plugin_version":"2.1.0","time_elapsed":207950958,"subject_id":"92544","group":"Group1","condition":"3_Rep","full_date":"2026-02-25T18:12:51.267Z","date":"2026-02-25","time":"18:12:51"},{"rt":null,"stimulus":"<p style=\"font-size: 50px; margin: 0; text-align: center;\">+</p>","response":null,"trial_type":"html-keyboard-response","trial_index":227,"plugin_version":"2.1.0","time_elapsed":207951961,"subject_id":"92544","group":"Group1","condition":"3_Rep","full_date":"2026-02-25T18:12:51.267Z","date":"2026-02-25","time":"18:12:51"},{"task":"memory_phase","broad_category":"I","image_png":"I_Rhyolite_11.png","image_id":155,"category_name":"Rhyolite","category":10,"distinct_rating":1.73,"distinct_type":"Bottom","rt":null,"stimulus":"Stimuli_Rocks480/I_Rhyolite_11.png","response":null,"trial_type":"image-keyboard-response","trial_index":228,"plugin_version":"2.1.0","time_elapsed":207954466,"subject_id":"92544","group":"Group1","condition":"3_Rep","full_date":"2026-02-25T18:12:51.267Z","date":"2026-02-25","time":"18:12:51"},{"rt":null,"stimulus":"<p style=\"font-size: 50px; margin: 0; text-align: center;\">+</p>","response":null,"trial_type":"html-keyboard-response","trial_index":229,"plugin_version":"2.1.0","time_elapsed":207955472,"subject_id":"92544","group":"Group1","condition":"3_Rep","full_date":"2026-02-25T18:12:51.267Z","date":"2026-02-25","time":"18:12:51"},{"task":"memory_phase","broad_category":"S","image_png":"S_Rock Gypsum_04.png","image_id":420,"category_name":"Rock Gypsum","category":27,"distinct_rating":7.61,"distinct_type":"Top","rt":null,"stimulus":"Stimuli_Rocks480/S_Rock Gypsum_04.png","response":null,"trial_type":"image-keyboard-response","trial_index":230,"plugin_version":"2.1.0","time_elapsed":207957979,"subject_id":"92544","group":"Group1","condition":"3_Rep","full_date":"2026-02-25T18:12:51.267Z","date":"2026-02-25","time":"18:12:51"},{"rt":null,"stimulus":"<p style=\"font-size: 50px; margin: 0; text-align: center;\">+</p>","response":null,"trial_type":"html-keyboard-response","trial_index":231,"plugin_version":"2.1.0","time_elapsed":207958995,"subject_id":"92544","group":"Group1","condition":"3_Rep","full_date":"2026-02-25T18:12:51.267Z","date":"2026-02-25","time":"18:12:51"},{"task":"memory_phase","broad_category":"M","image_png":"M_Gneiss_05.png","image_id":197,"category_name":"Gneiss","category":13,"distinct_rating":2.97,"distinct_type":"Bottom","rt":null,"stimulus":"Stimuli_Rocks480/M_Gneiss_05.png","response":null,"trial_type":"image-keyboard-response","trial_index":232,"plugin_version":"2.1.0","time_elapsed":207961504,"subject_id":"92544","group":"Group1","condition":"3_Rep","full_date":"2026-02-25T18:12:51.267Z","date":"2026-02-25","time":"18:12:51"},{"rt":null,"stimulus":"<p style=\"font-size: 50px; margin: 0; text-align: center;\">+</p>","response":null,"trial_type":"html-keyboard-response","trial_index":233,"plugin_version":"2.1.0","time_elapsed":207962514,"subject_id":"92544","group":"Group1","condition":"3_Rep","full_date":"2026-02-25T18:12:51.267Z","date":"2026-02-25","time":"18:12:51"},{"task":"memory_phase","broad_category":"I","image_png":"I_Pumice_08.png","image_id":136,"category_name":"Pumice","category":9,"distinct_rating":3.1,"distinct_type":"Bottom","rt":null,"stimulus":"Stimuli_Rocks480/I_Pumice_08.png","response":null,"trial_type":"image-keyboard-response","trial_index":234,"plug