[{"width":1280,"height":688,"webaudio":true,"browser":"chrome","browser_version":"144.0.0","mobile":false,"os":"Mac OS","fullscreen":true,"vsync_rate":60.37,"webcam":true,"microphone":true,"trial_type":"browser-check","trial_index":0,"plugin_version":"2.1.0","time_elapsed":1004,"subject_id":"92287","group":"Group2","condition":"1_Rep","full_date":"2026-01-27T13:35:02.431Z","date":"2026-01-27","time":"13:35:02"},{"success":true,"timeout":false,"failed_images":[],"failed_audio":[],"failed_video":[],"trial_type":"preload","trial_index":1,"plugin_version":"2.1.0","time_elapsed":9948,"subject_id":"92287","group":"Group2","condition":"1_Rep","full_date":"2026-01-27T13:35:02.431Z","date":"2026-01-27","time":"13:35:02"},{"rt":5309,"url":"SONA_consent_memorability.html","trial_type":"external-html","trial_index":2,"plugin_version":"2.1.0","time_elapsed":15318,"subject_id":"92287","group":"Group2","condition":"1_Rep","full_date":"2026-01-27T13:35:02.431Z","date":"2026-01-27","time":"13:35:02"},{"success":true,"rt":1130,"trial_type":"fullscreen","trial_index":3,"plugin_version":"2.1.0","time_elapsed":17452,"subject_id":"92287","group":"Group2","condition":"1_Rep","full_date":"2026-01-27T13:35:02.431Z","date":"2026-01-27","time":"13:35:02"},{"rt":1778,"stimulus":"<div style=\"max-width: 760px; margin: auto; font-size: 20px; line-height: 1.5;\">\n      <h1 style=\"text-align:center; font-size: 30px;\">Instructions</h1>\n      <p>\n        Welcome to the study on <b>visual memory</b>. This experiment consists of <b>two phases</b>: \n        a <b>study phase</b> and a <b>test phase</b>.\n      </p>\n      <p>\n        In the study phase, you will see a series of rock images along with their category labels.\n        The images will appear one at a time.\n        <b>Your task</b> is to learn the categories to which the rock images belong \n        and to remember each image as accurately as possible.\n      </p> \n      <p>\n        Note that you will see each image only <b>once</b> during the study phase. \n          So, please pay close attention and try to remember each image carefully.\n      </p>\n      <p>\n        After the study phase, <b>your memory will be tested</b>. \n        Additional instructions for the test phase will be provided at that time.\n      </p>\n      <p>\n        If your computer has multiple <b>language settings</b> (e.g., English and another language),\n        please make sure it is set to English before starting.\n      </p>\n      <p>\n        You can track your progress using the <b>completion bar</b> at the top of the screen. \n        Please note that the bar will refresh when the test phase begins \n        to give you an accurate sense of your progress in both phases.\n      </p> \n      <p>\n        Press the button below when you are ready to begin.\n      </p>\n    </div>","response":0,"trial_type":"html-button-response","trial_index":4,"plugin_version":"2.1.0","time_elapsed":19233,"subject_id":"92287","group":"Group2","condition":"1_Rep","full_date":"2026-01-27T13:35:02.431Z","date":"2026-01-27","time":"13:35:02"},{"rt":null,"stimulus":"<p style=\"font-size: 50px; margin: 0; text-align: center;\">+</p>","response":null,"trial_type":"html-keyboard-response","trial_index":5,"plugin_version":"2.1.0","time_elapsed":20238,"subject_id":"92287","group":"Group2","condition":"1_Rep","full_date":"2026-01-27T13:35:02.431Z","date":"2026-01-27","time":"13:35:02"},{"task":"memory_phase","broad_category":"I","image_png":"I_Pumice_14.png","image_id":142,"category_name":"Pumice","category":9,"distinct_rating":3.22,"distinct_type":"Bottom","rt":null,"stimulus":"Stimuli_Rocks480/I_Pumice_14.png","response":null,"trial_type":"image-keyboard-response","trial_index":6,"plugin_version":"2.1.0","time_elapsed":22744,"subject_id":"92287","group":"Group2","condition":"1_Rep","full_date":"2026-01-27T13:35:02.431Z","date":"2026-01-27","time":"13:35:02"},{"rt":null,"stimulus":"<p style=\"font-size: 50px; margin: 0; text-align: center;\">+</p>","response":null,"trial_type":"html-keyboard-response","trial_index":7,"plugin_version":"2.1.0","time_elapsed":23747,"subject_id":"92287","group":"Group2","condition":"1_Rep","full_date":"2026-01-27T13:35:02.431Z","date":"2026-01-27","time":"13:35:02"},{"task":"memory_phase","broad_category":"I","image_png":"I_Andesite_04.png","image_id":4,"category_name":"Andesite","category":1,"distinct_rating":3.18,"distinct_type":"Bottom","rt":null,"stimulus":"Stimuli_Rocks480/I_Andesite_04.png","response":null,"trial_type":"image-keyboard-response","trial_index":8,"plugin_version":"2.1.0","time_elapsed":26252,"subject_id":"92287","group":"Group2","condition":"1_Rep","full_date":"2026-01-27T13:35:02.431Z","date":"2026-01-27","time":"13:35:02"},{"rt":null,"stimulus":"<p style=\"font-size: 50px; margin: 0; text-align: center;\">+</p>","response":null,"trial_type":"html-keyboard-response","trial_index":9,"plugin_version":"2.1.0","time_elapsed":27255,"subject_id":"92287","group":"Group2","condition":"1_Rep","full_date":"2026-01-27T13:35:02.431Z","date":"2026-01-27","time":"13:35:02"},{"task":"memory_phase","broad_category":"M","image_png":"M_Gneiss_10.png","image_id":202,"category_name":"Gneiss","category":13,"distinct_rating":3.09,"distinct_type":"Bottom","rt":null,"stimulus":"Stimuli_Rocks480/M_Gneiss_10.png","response":null,"trial_type":"image-keyboard-response","trial_index":10,"plugin_version":"2.1.0","time_elapsed":29760,"subject_id":"92287","group":"Group2","condition":"1_Rep","full_date":"2026-01-27T13:35:02.431Z","date":"2026-01-27","time":"13:35:02"},{"rt":null,"stimulus":"<p style=\"font-size: 50px; margin: 0; text-align: center;\">+</p>","response":null,"trial_type":"html-keyboard-response","trial_index":11,"plugin_version":"2.1.0","time_elapsed":30763,"subject_id":"92287","group":"Group2","condition":"1_Rep","full_date":"2026-01-27T13:35:02.431Z","date":"2026-01-27","time":"13:35:02"},{"task":"memory_phase","broad_category":"I","image_png":"I_Andesite_03.png","image_id":3,"category_name":"Andesite","category":1,"distinct_rating":3.17,"distinct_type":"Bottom","rt":null,"stimulus":"Stimuli_Rocks480/I_Andesite_03.png","response":null,"trial_type":"image-keyboard-response","trial_index":12,"plugin_version":"2.1.0","time_elapsed":33268,"subject_id":"92287","group":"Group2","condition":"1_Rep","full_date":"2026-01-27T13:35:02.431Z","date":"2026-01-27","time":"13:35:02"},{"rt":null,"stimulus":"<p style=\"font-size: 50px; margin: 0; text-align: center;\">+</p>","response":null,"trial_type":"html-keyboard-response","trial_index":13,"plugin_version":"2.1.0","time_elapsed":34270,"subject_id":"92287","group":"Group2","condition":"1_Rep","full_date":"2026-01-27T13:35:02.431Z","date":"2026-01-27","time":"13:35:02"},{"task":"memory_phase","broad_category":"I","image_png":"I_Rhyolite_08.png","image_id":152,"category_name":"Rhyolite","category":10,"distinct_rating":1.38,"distinct_type":"Bottom","rt":null,"stimulus":"Stimuli_Rocks480/I_Rhyolite_08.png","response":null,"trial_type":"image-keyboard-response","trial_index":14,"plugin_version":"2.1.0","time_elapsed":36775,"subject_id":"92287","group":"Group2","condition":"1_Rep","full_date":"2026-01-27T13:35:02.431Z","date":"2026-01-27","time":"13:35:02"},{"rt":null,"stimulus":"<p style=\"font-size: 50px; margin: 0; text-align: center;\">+</p>","response":null,"trial_type":"html-keyboard-response","trial_index":15,"plugin_version":"2.1.0","time_elapsed":37778,"subject_id":"92287","group":"Group2","condition":"1_Rep","full_date":"2026-01-27T13:35:02.431Z","date":"2026-01-27","time":"13:35:02"},{"task":"memory_phase","broad_category":"S","image_png":"S_Sandstone_08.png","image_id":456,"category_name":"Sandstone","category":29,"distinct_rating":1.5,"distinct_type":"Bottom","rt":null,"stimulus":"Stimuli_Rocks480/S_Sandstone_08.png","response":null,"trial_type":"image-keyboard-response","trial_index":16,"plugin_version":"2.1.0","time_elapsed":40283,"subject_id":"92287","group":"Group2","condition":"1_Rep","full_date":"2026-01-27T13:35:02.431Z","date":"2026-01-27","time":"13:35:02"},{"rt":null,"stimulus":"<p style=\"font-size: 50px; margin: 0; text-align: center;\">+</p>","response":null,"trial_type":"html-keyboard-response","trial_index":17,"plugin_version":"2.1.0","time_elapsed":41286,"subject_id":"92287","group":"Group2","condition":"1_Rep","full_date":"2026-01-27T13:35:02.431Z","date":"2026-01-27","time":"13:35:02"},{"task":"memory_phase","broad_category":"S","image_png":"S_Dolomite_07.png","image_id":391,"category_name":"Dolomite","category":25,"distinct_rating":1.73,"distinct_type":"Bottom","rt":null,"stimulus":"Stimuli_Rocks480/S_Dolomite_07.png","response":null,"trial_type":"image-keyboard-response","trial_index":18,"plugin_version":"2.1.0","time_elapsed":43790,"subject_id":"92287","group":"Group2","condition":"1_Rep","full_date":"2026-01-27T13:35:02.431Z","date":"2026-01-27","time":"13:35:02"},{"rt":null,"stimulus":"<p style=\"font-size: 50px; margin: 0; text-align: center;\">+</p>","response":null,"trial_type":"html-keyboard-response","trial_index":19,"plugin_version":"2.1.0","time_elapsed":44793,"subject_id":"92287","group":"Group2","condition":"1_Rep","full_date":"2026-01-27T13:35:02.431Z","date":"2026-01-27","time":"13:35:02"},{"task":"memory_phase","broad_category":"S","image_png":"S_Sandstone_11.png","image_id":459,"category_name":"Sandstone","category":29,"distinct_rating":1.82,"distinct_type":"Bottom","rt":null,"stimulus":"Stimuli_Rocks480/S_Sandstone_11.png","response":null,"trial_type":"image-keyboard-response","trial_index":20,"plugin_version":"2.1.0","time_elapsed":47298,"subject_id":"92287","group":"Group2","condition":"1_Rep","full_date":"2026-01-27T13:35:02.431Z","date":"2026-01-27","time":"13:35:02"},{"rt":null,"stimulus":"<p style=\"font-size: 50px; margin: 0; text-align: center;\">+</p>","response":null,"trial_type":"html-keyboard-response","trial_index":21,"plugin_version":"2.1.0","time_elapsed":48301,"subject_id":"92287","group":"Group2","condition":"1_Rep","full_date":"2026-01-27T13:35:02.431Z","date":"2026-01-27","time":"13:35:02"},{"task":"memory_phase","broad_category":"M","image_png":"M_Marble_02.png","image_id":226,"category_name":"Marble","category":15,"distinct_rating":3.2,"distinct_type":"Bottom","rt":null,"stimulus":"Stimuli_Rocks480/M_Marble_02.png","response":null,"trial_type":"image-keyboard-response","trial_index":22,"plugin_version":"2.1.0","time_elapsed":50805,"subject_id":"92287","group":"Group2","condition":"1_Rep","full_date":"2026-01-27T13:35:02.431Z","date":"2026-01-27","time":"13:35:02"},{"rt":null,"stimulus":"<p style=\"font-size: 50px; margin: 0; text-align: center;\">+</p>","response":null,"trial_type":"html-keyboard-response","trial_index":23,"plugin_version":"2.1.0","time_elapsed":51809,"subject_id":"92287","group":"Group2","condition":"1_Rep","full_date":"2026-01-27T13:35:02.431Z","date":"2026-01-27","time":"13:35:02"},{"task":"memory_phase","broad_category":"M","image_png":"M_Phyllite_02.png","image_id":258,"category_name":"Phyllite","category":17,"distinct_rating":2.89,"distinct_type":"Bottom","rt":null,"stimulus":"Stimuli_Rocks480/M_Phyllite_02.png","response":null,"trial_type":"image-keyboard-response","trial_index":24,"plugin_version":"2.1.0","time_elapsed":54314,"subject_id":"92287","group":"Group2","condition":"1_Rep","full_date":"2026-01-27T13:35:02.431Z","date":"2026-01-27","time":"13:35:02"},{"rt":null,"stimulus":"<p style=\"font-size: 50px; margin: 0; text-align: center;\">+</p>","response":null,"trial_type":"html-keyboard-response","trial_index":25,"plugin_version":"2.1.0","time_elapsed":55317,"subject_id":"92287","group":"Group2","condition":"1_Rep","full_date":"2026-01-27T13:35:02.431Z","date":"2026-01-27","time":"13:35:02"},{"task":"memory_phase","broad_category":"I","image_png":"I_Basalt_10.png","image_id":26,"category_name":"Basalt","category":2,"distinct_rating":2.76,"distinct_type":"Bottom","rt":null,"stimulus":"Stimuli_Rocks480/I_Basalt_10.png","response":null,"trial_type":"image-keyboard-response","trial_index":26,"plugin_version":"2.1.0","time_elapsed":57821,"subject_id":"92287","group":"Group2","condition":"1_Rep","full_date":"2026-01-27T13:35:02.431Z","date":"2026-01-27","time":"13:35:02"},{"rt":null,"stimulus":"<p style=\"font-size: 50px; margin: 0; text-align: center;\">+</p>","response":null,"trial_type":"html-keyboard-response","trial_index":27,"plugin_version":"2.1.0","time_elapsed":58824,"subject_id":"92287","group":"Group2","condition":"1_Rep","full_date":"2026-01-27T13:35:02.431Z","date":"2026-01-27","time":"13:35:02"},{"task":"memory_phase","broad_category":"S","image_png":"S_Shale_02.png","image_id":466,"category_name":"Shale","category":30,"distinct_rating":2.9,"distinct_type":"Bottom","rt":null,"stimulus":"Stimuli_Rocks480/S_Shale_02.png","response":null,"trial_type":"image-keyboard-response","trial_index":28,"plugin_version":"2.1.0","time_elapsed":61327,"subject_id":"92287","group":"Group2","condition":"1_Rep","full_date":"2026-01-27T13:35:02.431Z","date":"2026-01-27","time":"13:35:02"},{"rt":null,"stimulus":"<p style=\"font-size: 50px; margin: 0; text-align: center;\">+</p>","response":null,"trial_type":"html-keyboard-response","trial_index":29,"plugin_version":"2.1.0","time_elapsed":62330,"subject_id":"92287","group":"Group2","condition":"1_Rep","full_date":"2026-01-27T13:35:02.431Z","date":"2026-01-27","time":"13:35:02"},{"task":"memory_phase","broad_category":"S","image_png":"S_Rock Salt_13.png","image_id":445,"category_name":"Rock Salt","category":28,"distinct_rating":7.58,"distinct_type":"Top","rt":null,"stimulus":"Stimuli_Rocks480/S_Rock Salt_13.png","response":null,"trial_type":"image-keyboard-response","trial_index":30,"plugin_version":"2.1.0","time_elapsed":64835,"subject_id":"92287","group":"Group2","condition":"1_Rep","full_date":"2026-01-27T13:35:02.431Z","date":"2026-01-27","time":"13:35:02"},{"rt":null,"stimulus":"<p style=\"font-size: 50px; margin: 0; text-align: center;\">+</p>","response":null,"trial_type":"html-keyboard-response","trial_index":31,"plugin_version":"2.1.0","time_elapsed":65839,"subject_id":"92287","group":"Group2","condition":"1_Rep","full_date":"2026-01-27T13:35:02.431Z","date":"2026-01-27","time":"13:35:02"},{"task":"memory_phase","broad_category":"M","image_png":"M_Phyllite_13.png","image_id":269,"category_name":"Phyllite","category":17,"distinct_rating":2.8,"distinct_type":"Bottom","rt":null,"stimulus":"Stimuli_Rocks480/M_Phyllite_13.png","response":null,"trial_type":"image-keyboard-response","trial_index":32,"plugin_version":"2.1.0","time_elapsed":68343,"subject_id":"92287","group":"Group2","condition":"1_Rep","full_date":"2026-01-27T13:35:02.431Z","date":"2026-01-27","time":"13:35:02"},{"rt":null,"stimulus":"<p style=\"font-size: 50px; margin: 0; text-align: center;\">+</p>","response":null,"trial_type":"html-keyboard-response","trial_index":33,"plugin_version":"2.1.0","time_elapsed":69346,"subject_id":"92287","group":"Group2","condition":"1_Rep","full_date":"2026-01-27T13:35:02.431Z","date":"2026-01-27","time":"13:35:02"},{"task":"memory_phase","broad_category":"I","image_png":"I_Pegmatite_03.png","image_id":99,"category_name":"Pegmatite","category":7,"distinct_rating":7.24,"distinct_type":"Top","rt":null,"stimulus":"Stimuli_Rocks480/I_Pegmatite_03.png","response":null,"trial_type":"image-keyboard-response","trial_index":34,"plugin_version":"2.1.0","time_elapsed":71850,"subject_id":"92287","group":"Group2","condition":"1_Rep","full_date":"2026-01-27T13:35:02.431Z","date":"2026-01-27","time":"13:35:02"},{"rt":null,"stimulus":"<p style=\"font-size: 50px; margin: 0; text-align: center;\">+</p>","response":null,"trial_type":"html-keyboard-response","trial_index":35,"plugin_version":"2.1.0","time_elapsed":72853,"subject_id":"92287","group":"Group2","condition":"1_Rep","full_date":"2026-01-27T13:35:02.431Z","date":"2026-01-27","time":"13:35:02"},{"task":"memory_phase","broad_category":"I","image_png":"I_Diorite_01.png","image_id":33,"category_name":"Diorite","category":3,"distinct_rating":2.97,"distinct_type":"Bottom","rt":null,"stimulus":"Stimuli_Rocks480/I_Diorite_01.png","response":null,"trial_type":"image-keyboard-response","trial_index":36,"plugin_version":"2.1.0","time_elapsed":75358,"subject_id":"92287","group":"Group2","condition":"1_Rep","full_date":"2026-01-27T13:35:02.431Z","date":"2026-01-27","time":"13:35:02"},{"rt":null,"stimulus":"<p style=\"font-size: 50px; margin: 0; text-align: center;\">+</p>","response":null,"trial_type":"html-keyboard-response","trial_index":37,"plugin_version":"2.1.0","time_elapsed":76361,"subject_id":"92287","group":"Group2","condition":"1_Rep","full_date":"2026-01-27T13:35:02.431Z","date":"2026-01-27","time":"13:35:02"},{"task":"memory_phase","broad_category":"M","image_png":"M_Marble_03.png","image_id":227,"category_name":"Marble","category":15,"distinct_rating":2.67,"distinct_type":"Bottom","rt":null,"stimulus":"Stimuli_Rocks480/M_Marble_03.png","response":null,"trial_type":"image-keyboard-response","trial_index":38,"plugin_version":"2.1.0","time_elapsed":78865,"subject_id":"92287","group":"Group2","condition":"1_Rep","full_date":"2026-01-27T13:35:02.431Z","date":"2026-01-27","time":"13:35:02"},{"rt":null,"stimulus":"<p style=\"font-size: 50px; margin: 0; text-align: center;\">+</p>","response":null,"trial_type":"html-keyboard-response","trial_index":39,"plugin_version":"2.1.0","time_elapsed":79869,"subject_id":"92287","group":"Group2","condition":"1_Rep","full_date":"2026-01-27T13:35:02.431Z","date":"2026-01-27","time":"13:35:02"},{"task":"memory_phase","broad_category":"I","image_png":"I_Diorite_10.png","image_id":42,"category_name":"Diorite","category":3,"distinct_rating":2.84,"distinct_type":"Bottom","rt":null,"stimulus":"Stimuli_Rocks480/I_Diorite_10.png","response":null,"trial_type":"image-keyboard-response","trial_index":40,"plugin_version":"2.1.0","time_elapsed":82372,"subject_id":"92287","group":"Group2","condition":"1_Rep","full_date":"2026-01-27T13:35:02.431Z","date":"2026-01-27","time":"13:35:02"},{"rt":null,"stimulus":"<p style=\"font-size: 50px; margin: 0; text-align: center;\">+</p>","response":null,"trial_type":"html-keyboard-response","trial_index":41,"plugin_version":"2.1.0","time_elapsed":83375,"subject_id":"92287","group":"Group2","condition":"1_Rep","full_date":"2026-01-27T13:35:02.431Z","date":"2026-01-27","time":"13:35:02"},{"task":"memory_phase","broad_category":"M","image_png":"M_Slate_14.png","image_id":318,"category_name":"Slate","category":20,"distinct_rating":2.58,"distinct_type":"Bottom","rt":null,"stimulus":"Stimuli_Rocks480/M_Slate_14.png","response":null,"trial_type":"image-keyboard-response","trial_index":42,"plugin_version":"2.1.0","time_elapsed":85879,"subject_id":"92287","group":"Group2","condition":"1_Rep","full_date":"2026-01-27T13:35:02.431Z","date":"2026-01-27","time":"13:35:02"},{"rt":null,"stimulus":"<p style=\"font-size: 50px; margin: 0; text-align: center;\">+</p>","response":null,"trial_type":"html-keyboard-response","trial_index":43,"plugin_version":"2.1.0","time_elapsed":86882,"subject_id":"92287","group":"Group2","condition":"1_Rep","full_date":"2026-01-27T13:35:02.431Z","date":"2026-01-27","time":"13:35:02"},{"task":"memory_phase","broad_category":"M","image_png":"M_Slate_04.png","image_id":308,"category_name":"Slate","category":20,"distinct_rating":2.2,"distinct_type":"Bottom","rt":null,"stimulus":"Stimuli_Rocks480/M_Slate_04.png","response":null,"trial_type":"image-keyboard-response","trial_index":44,"plugin_version":"2.1.0","time_elapsed":89386,"subject_id":"92287","group":"Group2","condition":"1_Rep","full_date":"2026-01-27T13:35:02.431Z","date":"2026-01-27","time":"13:35:02"},{"rt":null,"stimulus":"<p style=\"font-size: 50px; margin: 0; text-align: center;\">+</p>","response":null,"trial_type":"html-keyboard-response","trial_index":45,"plugin_version":"2.1.0","time_elapsed":90390,"subject_id":"92287","group":"Group2","condition":"1_Rep","full_date":"2026-01-27T13:35:02.431Z","date":"2026-01-27","time":"13:35:02"},{"task":"memory_phase","broad_category":"M","image_png":"M_Gneiss_15.png","image_id":207,"category_name":"Gneiss","category":13,"distinct_rating":3.11,"distinct_type":"Bottom","rt":null,"stimulus":"Stimuli_Rocks480/M_Gneiss_15.png","response":null,"trial_type":"image-keyboard-response","trial_index":46,"plugin_version":"2.1.0","time_elapsed":92893,"subject_id":"92287","group":"Group2","condition":"1_Rep","full_date":"2026-01-27T13:35:02.431Z","date":"2026-01-27","time":"13:35:02"},{"rt":null,"stimulus":"<p style=\"font-size: 50px; margin: 0; text-align: center;\">+</p>","response":null,"trial_type":"html-keyboard-response","trial_index":47,"plugin_version":"2.1.0","time_elapsed":93897,"subject_id":"92287","group":"Group2","condition":"1_Rep","full_date":"2026-01-27T13:35:02.431Z","date":"2026-01-27","time":"13:35:02"},{"task":"memory_phase","broad_category":"M","image_png":"M_Quartzite_07.png","image_id":279,"category_name":"Quartzite","category":18,"distinct_rating":1.97,"distinct_type":"Bottom","rt":null,"stimulus":"Stimuli_Rocks480/M_Quartzite_07.png","response":null,"trial_type":"image-keyboard-response","trial_index":48,"plugin_version":"2.1.0","time_elapsed":96401,"subject_id":"92287","group":"Group2","condition":"1_Rep","full_date":"2026-01-27T13:35:02.431Z","date":"2026-01-27","time":"13:35:02"},{"rt":null,"stimulus":"<p style=\"font-size: 50px; margin: 0; text-align: center;\">+</p>","response":null,"trial_type":"html-keyboard-response","trial_index":49,"plugin_version":"2.1.0","time_elapsed":97405,"subject_id":"92287","group":"Group2","condition":"1_Rep","full_date":"2026-01-27T13:35:02.431Z","date":"2026-01-27","time":"13:35:02"},{"task":"memory_phase","broad_category":"M","image_png":"M_Marble_14.png","image_id":238,"category_name":"Marble","category":15,"distinct_rating":3.31,"distinct_type":"Bottom","rt":null,"stimulus":"Stimuli_Rocks480/M_Marble_14.png","response":null,"trial_type":"image-keyboard-response","trial_index":50,"plugin_version":"2.1.0","time_elapsed":99909,"subject_id":"92287","group":"Group2","condition":"1_Rep","full_date":"2026-01-27T13:35:02.431Z","date":"2026-01-27","time":"13:35:02"},{"rt":null,"stimulus":"<p style=\"font-size: 50px; margin: 0; text-align: center;\">+</p>","response":null,"trial_type":"html-keyboard-response","trial_index":51,"plugin_version":"2.1.0","time_elapsed":100912,"subject_id":"92287","group":"Group2","condition":"1_Rep","full_date":"2026-01-27T13:35:02.431Z","date":"2026-01-27","time":"13:35:02"},{"task":"memory_phase","broad_category":"S","image_png":"S_Chert_13.png","image_id":365,"category_name":"Chert","category":23,"distinct_rating":6.57,"distinct_type":"Top","rt":null,"stimulus":"Stimuli_Rocks480/S_Chert_13.png","response":null,"trial_type":"image-keyboard-response","trial_index":52,"plugin_version":"2.1.0","time_elapsed":103417,"subject_id":"92287","group":"Group2","condition":"1_Rep","full_date":"2026-01-27T13:35:02.431Z","date":"2026-01-27","time":"13:35:02"},{"rt":null,"stimulus":"<p style=\"font-size: 50px; margin: 0; text-align: center;\">+</p>","response":null,"trial_type":"html-keyboard-response","trial_index":53,"plugin_version":"2.1.0","time_elapsed":104420,"subject_id":"92287","group":"Group2","condition":"1_Rep","full_date":"2026-01-27T13:35:02.431Z","date":"2026-01-27","time":"13:35:02"},{"task":"memory_phase","broad_category":"S","image_png":"S_Dolomite_01.png","image_id":385,"category_name":"Dolomite","category":25,"distinct_rating":1.43,"distinct_type":"Bottom","rt":null,"stimulus":"Stimuli_Rocks480/S_Dolomite_01.png","response":null,"trial_type":"image-keyboard-response","trial_index":54,"plugin_version":"2.1.0","time_elapsed":106924,"subject_id":"92287","group":"Group2","condition":"1_Rep","full_date":"2026-01-27T13:35:02.431Z","date":"2026-01-27","time":"13:35:02"},{"rt":7069,"stimulus":"<p style=\"max-width: 760px; margin: auto; font-size: 35px; line-height: 1.5;\">\n                Press SPACE to continue study phase\n              </p>","response":" ","trial_type":"html-keyboard-response","trial_index":55,"plugin_version":"2.1.0","time_elapsed":113996,"subject_id":"92287","group":"Group2","condition":"1_Rep","full_date":"2026-01-27T13:35:02.431Z","date":"2026-01-27","time":"13:35:02"},{"rt":null,"stimulus":"<p style=\"font-size: 50px; margin: 0; text-align: center;\">+</p>","response":null,"trial_type":"html-keyboard-response","trial_index":56,"plugin_version":"2.1.0","time_elapsed":114998,"subject_id":"92287","group":"Group2","condition":"1_Rep","full_date":"2026-01-27T13:35:02.431Z","date":"2026-01-27","time":"13:35:02"},{"task":"memory_phase","broad_category":"I","image_png":"I_Andesite_09.png","image_id":9,"category_name":"Andesite","category":1,"distinct_rating":2.49,"distinct_type":"Bottom","rt":null,"stimulus":"Stimuli_Rocks480/I_Andesite_09.png","response":null,"trial_type":"image-keyboard-response","trial_index":57,"plugin_version":"2.1.0","time_elapsed":117503,"subject_id":"92287","group":"Group2","condition":"1_Rep","full_date":"2026-01-27T13:35:02.431Z","date":"2026-01-27","time":"13:35:02"},{"rt":null,"stimulus":"<p style=\"font-size: 50px; margin: 0; text-align: center;\">+</p>","response":null,"trial_type":"html-keyboard-response","trial_index":58,"plugin_version":"2.1.0","time_elapsed":118506,"subject_id":"92287","group":"Group2","condition":"1_Rep","full_date":"2026-01-27T13:35:02.431Z","date":"2026-01-27","time":"13:35:02"},{"task":"memory_phase","broad_category":"I","image_png":"I_Diorite_15.png","image_id":47,"category_name":"Diorite","category":3,"distinct_rating":3.05,"distinct_type":"Bottom","rt":null,"stimulus":"Stimuli_Rocks480/I_Diorite_15.png","response":null,"trial_type":"image-keyboard-response","trial_index":59,"plugin_version":"2.1.0","time_elapsed":121009,"subject_id":"92287","group":"Group2","condition":"1_Rep","full_date":"2026-01-27T13:35:02.431Z","date":"2026-01-27","time":"13:35:02"},{"rt":null,"stimulus":"<p style=\"font-size: 50px; margin: 0; text-align: center;\">+</p>","response":null,"trial_type":"html-keyboard-response","trial_index":60,"plugin_version":"2.1.0","time_elapsed":122012,"subject_id":"92287","group":"Group2","condition":"1_Rep","full_date":"2026-01-27T13:35:02.431Z","date":"2026-01-27","time":"13:35:02"},{"task":"memory_phase","broad_category":"S","image_png":"S_Shale_03.png","image_id":467,"category_name":"Shale","category":30,"distinct_rating":1.95,"distinct_type":"Bottom","rt":null,"stimulus":"Stimuli_Rocks480/S_Shale_03.png","response":null,"trial_type":"image-keyboard-response","trial_index":61,"plugin_version":"2.1.0","time_elapsed":124517,"subject_id":"92287","group":"Group2","condition":"1_Rep","full_date":"2026-01-27T13:35:02.431Z","date":"2026-01-27","time":"13:35:02"},{"rt":null,"stimulus":"<p style=\"font-size: 50px; margin: 0; text-align: center;\">+</p>","response":null,"trial_type":"html-keyboard-response","trial_index":62,"plugin_version":"2.1.0","time_elapsed":125520,"subject_id":"92287","group":"Group2","condition":"1_Rep","full_date":"2026-01-27T13:35:02.431Z","date":"2026-01-27","time":"13:35:02"},{"task":"memory_phase","broad_category":"I","image_png":"I_Pumice_01.png","image_id":129,"category_name":"Pumice","category":9,"distinct_rating":3.25,"distinct_type":"Bottom","rt":null,"stimulus":"Stimuli_Rocks480/I_Pumice_01.png","response":null,"trial_type":"image-keyboard-response","trial_index":63,"plugin_version":"2.1.0","time_elapsed":128025,"subject_id":"92287","group":"Group2","condition":"1_Rep","full_date":"2026-01-27T13:35:02.431Z","date":"2026-01-27","time":"13:35:02"},{"rt":null,"stimulus":"<p style=\"font-size: 50px; margin: 0; text-align: center;\">+</p>","response":null,"trial_type":"html-keyboard-response","trial_index":64,"plugin_version":"2.1.0","time_elapsed":129028,"subject_id":"92287","group":"Group2","condition":"1_Rep","full_date":"2026-01-27T13:35:02.431Z","date":"2026-01-27","time":"13:35:02"},{"task":"memory_phase","broad_category":"I","image_png":"I_Rhyolite_10.png","image_id":154,"category_name":"Rhyolite","category":10,"distinct_rating":2.88,"distinct_type":"Bottom","rt":null,"stimulus":"Stimuli_Rocks480/I_Rhyolite_10.png","response":null,"trial_type":"image-keyboard-response","trial_index":65,"plugin_version":"2.1.0","time_elapsed":131532,"subject_id":"92287","group":"Group2","condition":"1_Rep","full_date":"2026-01-27T13:35:02.431Z","date":"2026-01-27","time":"13:35:02"},{"rt":null,"stimulus":"<p style=\"font-size: 50px; margin: 0; text-align: center;\">+</p>","response":null,"trial_type":"html-keyboard-response","trial_index":66,"plugin_version":"2.1.0","time_elapsed":132536,"subject_id":"92287","group":"Group2","condition":"1_Rep","full_date":"2026-01-27T13:35:02.431Z","date":"2026-01-27","time":"13:35:02"},{"task":"memory_phase","broad_category":"I","image_png":"I_Gabbro_12.png","image_id":60,"category_name":"Gabbro","category":4,"distinct_rating":2.6,"distinct_type":"Bottom","rt":null,"stimulus":"Stimuli_Rocks480/I_Gabbro_12.png","response":null,"trial_type":"image-keyboard-response","trial_index":67,"plugin_version":"2.1.0","time_elapsed":135040,"subject_id":"92287","group":"Group2","condition":"1_Rep","full_date":"2026-01-27T13:35:02.431Z","date":"2026-01-27","time":"13:35:02"},{"rt":null,"stimulus":"<p style=\"font-size: 50px; margin: 0; text-align: center;\">+</p>","response":null,"trial_type":"html-keyboard-response","trial_index":68,"plugin_version":"2.1.0","time_elapsed":136043,"subject_id":"92287","group":"Group2","condition":"1_Rep","full_date":"2026-01-27T13:35:02.431Z","date":"2026-01-27","time":"13:35:02"},{"task":"memory_phase","broad_category":"M","image_png":"M_Quartzite_15.png","image_id":287,"category_name":"Quartzite","category":18,"distinct_rating":2.19,"distinct_type":"Bottom","rt":null,"stimulus":"Stimuli_Rocks480/M_Quartzite_15.png","response":null,"trial_type":"image-keyboard-response","trial_index":69,"plugin_version":"2.1.0","time_elapsed":138548,"subject_id":"92287","group":"Group2","condition":"1_Rep","full_date":"2026-01-27T13:35:02.431Z","date":"2026-01-27","time":"13:35:02"},{"rt":null,"stimulus":"<p style=\"font-size: 50px; margin: 0; text-align: center;\">+</p>","response":null,"trial_type":"html-keyboard-response","trial_index":70,"plugin_version":"2.1.0","time_elapsed":139550,"subject_id":"92287","group":"Group2","condition":"1_Rep","full_date":"2026-01-27T13:35:02.431Z","date":"2026-01-27","time":"13:35:02"},{"task":"memory_phase","broad_category":"M","image_png":"M_Phyllite_05.png","image_id":261,"category_name":"Phyllite","category":17,"distinct_rating":2.14,"distinct_type":"Bottom","rt":null,"stimulus":"Stimuli_Rocks480/M_Phyllite_05.png","response":null,"trial_type":"image-keyboard-response","trial_index":71,"plugin_version":"2.1.0","time_elapsed":142055,"subject_id":"92287","group":"Group2","condition":"1_Rep","full_date":"2026-01-27T13:35:02.431Z","date":"2026-01-27","time":"13:35:02"},{"rt":null,"stimulus":"<p style=\"font-size: 50px; margin: 0; text-align: center;\">+</p>","response":null,"trial_type":"html-keyboard-response","trial_index":72,"plugin_version":"2.1.0","time_elapsed":143058,"subject_id":"92287","group":"Group2","condition":"1_Rep","full_date":"2026-01-27T13:35:02.431Z","date":"2026-01-27","time":"13:35:02"},{"task":"memory_phase","broad_category":"I","image_png":"I_Gabbro_02.png","image_id":50,"category_name":"Gabbro","category":4,"distinct_rating":2.73,"distinct_type":"Bottom","rt":null,"stimulus":"Stimuli_Rocks480/I_Gabbro_02.png","response":null,"trial_type":"image-keyboard-response","trial_index":73,"plugin_version":"2.1.0","time_elapsed":145562,"subject_id":"92287","group":"Group2","condition":"1_Rep","full_date":"2026-01-27T13:35:02.431Z","date":"2026-01-27","time":"13:35:02"},{"rt":null,"stimulus":"<p style=\"font-size: 50px; margin: 0; text-align: center;\">+</p>","response":null,"trial_type":"html-keyboard-response","trial_index":74,"plugin_version":"2.1.0","time_elapsed":146566,"subject_id":"92287","group":"Group2","condition":"1_Rep","full_date":"2026-01-27T13:35:02.431Z","date":"2026-01-27","time":"13:35:02"},{"task":"memory_phase","broad_category":"M","image_png":"M_Quartzite_12.png","image_id":284,"category_name":"Quartzite","category":18,"distinct_rating":1.92,"distinct_type":"Bottom","rt":null,"stimulus":"Stimuli_Rocks480/M_Quartzite_12.png","response":null,"trial_type":"image-keyboard-response","trial_index":75,"plugin_version":"2.1.0","time_elapsed":149070,"subject_id":"92287","group":"Group2","condition":"1_Rep","full_date":"2026-01-27T13:35:02.431Z","date":"2026-01-27","time":"13:35:02"},{"rt":null,"stimulus":"<p style=\"font-size: 50px; margin: 0; text-align: center;\">+</p>","response":null,"trial_type":"html-keyboard-response","trial_index":76,"plugin_version":"2.1.0","time_elapsed":150073,"subject_id":"92287","group":"Group2","condition":"1_Rep","full_date":"2026-01-27T13:35:02.431Z","date":"2026-01-27","time":"13:35:02"},{"task":"memory_phase","broad_category":"I","image_png":"I_Peridotite_13.png","image_id":125,"category_name":"Peridotite","category":8,"distinct_rating":7.28,"distinct_type":"Top","rt":null,"stimulus":"Stimuli_Rocks480/I_Peridotite_13.png","response":null,"trial_type":"image-keyboard-response","trial_index":77,"plugin_version":"2.1.0","time_elapsed":152577,"subject_id":"92287","group":"Group2","condition":"1_Rep","full_date":"2026-01-27T13:35:02.431Z","date":"2026-01-27","time":"13:35:02"},{"rt":null,"stimulus":"<p style=\"font-size: 50px; margin: 0; text-align: center;\">+</p>","response":null,"trial_type":"html-keyboard-response","trial_index":78,"plugin_version":"2.1.0","time_elapsed":153580,"subject_id":"92287","group":"Group2","condition":"1_Rep","full_date":"2026-01-27T13:35:02.431Z","date":"2026-01-27","time":"13:35:02"},{"task":"memory_phase","broad_category":"S","image_png":"S_Sandstone_04.png","image_id":452,"category_name":"Sandstone","category":29,"distinct_rating":1.8,"distinct_type":"Bottom","rt":null,"stimulus":"Stimuli_Rocks480/S_Sandstone_04.png","response":null,"trial_type":"image-keyboard-response","trial_index":79,"plugin_version":"2.1.0","time_elapsed":156084,"subject_id":"92287","group":"Group2","condition":"1_Rep","full_date":"2026-01-27T13:35:02.431Z","date":"2026-01-27","time":"13:35:02"},{"rt":null,"stimulus":"<p style=\"font-size: 50px; margin: 0; text-align: center;\">+</p>","response":null,"trial_type":"html-keyboard-response","trial_index":80,"plugin_version":"2.1.0","time_elapsed":157087,"subject_id":"92287","group":"Group2","condition":"1_Rep","full_date":"2026-01-27T13:35:02.431Z","date":"2026-01-27","time":"13:35:02"},{"task":"memory_phase","broad_category":"S","image_png":"S_Dolomite_16.png","image_id":400,"category_name":"Dolomite","category":25,"distinct_rating":1.71,"distinct_type":"Bottom","rt":null,"stimulus":"Stimuli_Rocks480/S_Dolomite_16.png","response":null,"trial_type":"image-keyboard-response","trial_index":81,"plugin_version":"2.1.0","time_elapsed":159591,"subject_id":"92287","group":"Group2","condition":"1_Rep","full_date":"2026-01-27T13:35:02.431Z","date":"2026-01-27","time":"13:35:02"},{"rt":null,"stimulus":"<p style=\"font-size: 50px; margin: 0; text-align: center;\">+</p>","response":null,"trial_type":"html-keyboard-response","trial_index":82,"plugin_version":"2.1.0","time_elapsed":160594,"subject_id":"92287","group":"Group2","condition":"1_Rep","full_date":"2026-01-27T13:35:02.431Z","date":"2026-01-27","time":"13:35:02"},{"task":"memory_phase","broad_category":"I","image_png":"I_Gabbro_14.png","image_id":62,"category_name":"Gabbro","category":4,"distinct_rating":2.95,"distinct_type":"Bottom","rt":null,"stimulus":"Stimuli_Rocks480/I_Gabbro_14.png","response":null,"trial_type":"image-keyboard-response","trial_index":83,"plugin_version":"2.1.0","time_elapsed":163099,"subject_id":"92287","group":"Group2","condition":"1_Rep","full_date":"2026-01-27T13:35:02.431Z","date":"2026-01-27","time":"13:35:02"},{"rt":null,"stimulus":"<p style=\"font-size: 50px; margin: 0; text-align: center;\">+</p>","response":null,"trial_type":"html-keyboard-response","trial_index":84,"plugin_version":"2.1.0","time_elapsed":164102,"subject_id":"92287","group":"Group2","condition":"1_Rep","full_date":"2026-01-27T13:35:02.431Z","date":"2026-01-27","time":"13:35:02"},{"task":"memory_phase","broad_category":"I","image_png":"I_Basalt_08.png","image_id":24,"category_name":"Basalt","category":2,"distinct_rating":2.31,"distinct_type":"Bottom","rt":null,"stimulus":"Stimuli_Rocks480/I_Basalt_08.png","response":null,"trial_type":"image-keyboard-response","trial_index":85,"plugin_version":"2.1.0","time_elapsed":166607,"subject_id":"92287","group":"Group2","condition":"1_Rep","full_date":"2026-01-27T13:35:02.431Z","date":"2026-01-27","time":"13:35:02"},{"rt":null,"stimulus":"<p style=\"font-size: 50px; margin: 0; text-align: center;\">+</p>","response":null,"trial_type":"html-keyboard-response","trial_index":86,"plugin_version":"2.1.0","time_elapsed":167610,"subject_id":"92287","group":"Group2","condition":"1_Rep","full_date":"2026-01-27T13:35:02.431Z","date":"2026-01-27","time":"13:35:02"},{"task":"memory_phase","broad_category":"S","image_png":"S_Conglomerate_14.png","image_id":382,"category_name":"Conglomerate","category":24,"distinct_rating":6.86,"distinct_type":"Top","rt":null,"stimulus":"Stimuli_Rocks480/S_Conglomerate_14.png","response":null,"trial_type":"image-keyboard-response","trial_index":87,"plugin_version":"2.1.0","time_elapsed":170114,"subject_id":"92287","group":"Group2","condition":"1_Rep","full_date":"2026-01-27T13:35:02.431Z","date":"2026-01-27","time":"13:35:02"},{"rt":null,"stimulus":"<p style=\"font-size: 50px; margin: 0; text-align: center;\">+</p>","response":null,"trial_type":"html-keyboard-response","trial_index":88,"plugin_version":"2.1.0","time_elapsed":171116,"subject_id":"92287","group":"Group2","condition":"1_Rep","full_date":"2026-01-27T13:35:02.431Z","date":"2026-01-27","time":"13:35:02"},{"task":"memory_phase","broad_category":"I","image_png":"I_Pumice_13.png","image_id":141,"category_name":"Pumice","category":9,"distinct_rating":3.12,"distinct_type":"Bottom","rt":null,"stimulus":"Stimuli_Rocks480/I_Pumice_13.png","response":null,"trial_type":"image-keyboard-response","trial_index":89,"plugin_version":"2.1.0","time_elapsed":173621,"subject_id":"92287","group":"Group2","condition":"1_Rep","full_date":"2026-01-27T13:35:02.431Z","date":"2026-01-27","time":"13:35:02"},{"rt":null,"stimulus":"<p style=\"font-size: 50px; margin: 0; text-align: center;\">+</p>","response":null,"trial_type":"html-keyboard-response","trial_index":90,"plugin_version":"2.1.0","time_elapsed":174624,"subject_id":"92287","group":"Group2","condition":"1_Rep","full_date":"2026-01-27T13:35:02.431Z","date":"2026-01-27","time":"13:35:02"},{"task":"memory_phase","broad_category":"S","image_png":"S_Rock Salt_15.png","image_id":447,"category_name":"Rock Salt","category":28,"distinct_rating":7.79,"distinct_type":"Top","rt":null,"stimulus":"Stimuli_Rocks480/S_Rock Salt_15.png","response":null,"trial_type":"image-keyboard-response","trial_index":91,"plugin_version":"2.1.0","time_elapsed":177129,"subject_id":"92287","group":"Group2","condition":"1_Rep","full_date":"2026-01-27T13:35:02.431Z","date":"2026-01-27","time":"13:35:02"},{"rt":null,"stimulus":"<p style=\"font-size: 50px; margin: 0; text-align: center;\">+</p>","response":null,"trial_type":"html-keyboard-response","trial_index":92,"plugin_version":"2.1.0","time_elapsed":178131,"subject_id":"92287","group":"Group2","condition":"1_Rep","full_date":"2026-01-27T13:35:02.431Z","date":"2026-01-27","time":"13:35:02"},{"task":"memory_phase","broad_category":"M","image_png":"M_Gneiss_14.png","image_id":206,"category_name":"Gneiss","category":13,"distinct_rating":3.41,"distinct_type":"Bottom","rt":null,"stimulus":"Stimuli_Rocks480/M_Gneiss_14.png","response":null,"trial_type":"image-keyboard-response","trial_index":93,"plugin_version":"2.1.0","time_elapsed":180635,"subject_id":"92287","group":"Group2","condition":"1_Rep","full_date":"2026-01-27T13:35:02.431Z","date":"2026-01-27","time":"13:35:02"},{"rt":null,"stimulus":"<p style=\"font-size: 50px; margin: 0; text-align: center;\">+</p>","response":null,"trial_type":"html-keyboard-response","trial_index":94,"plugin_version":"2.1.0","time_elapsed":181638,"subject_id":"92287","group":"Group2","condition":"1_Rep","full_date":"2026-01-27T13:35:02.431Z","date":"2026-01-27","time":"13:35:02"},{"task":"memory_phase","broad_category":"I","image_png":"I_Rhyolite_05.png","image_id":149,"category_name":"Rhyolite","category":10,"distinct_rating":3.02,"distinct_type":"Bottom","rt":null,"stimulus":"Stimuli_Rocks480/I_Rhyolite_05.png","response":null,"trial_type":"image-keyboard-response","trial_index":95,"plugin_version":"2.1.0","time_elapsed":184142,"subject_id":"92287","group":"Group2","condition":"1_Rep","full_date":"2026-01-27T13:35:02.431Z","date":"2026-01-27","time":"13:35:02"},{"rt":null,"stimulus":"<p style=\"font-size: 50px; margin: 0; text-align: center;\">+</p>","response":null,"trial_type":"html-keyboard-response","trial_index":96,"plugin_version":"2.1.0","time_elapsed":185145,"subject_id":"92287","group":"Group2","condition":"1_Rep","full_date":"2026-01-27T13:35:02.431Z","date":"2026-01-27","time":"13:35:02"},{"task":"memory_phase","broad_category":"I","image_png":"I_Basalt_13.png","image_id":29,"category_name":"Basalt","category":2,"distinct_rating":2.68,"distinct_type":"Bottom","rt":null,"stimulus":"Stimuli_Rocks480/I_Basalt_13.png","response":null,"trial_type":"image-keyboard-response","trial_index":97,"plugin_version":"2.1.0","time_elapsed":187649,"subject_id":"92287","group":"Group2","condition":"1_Rep","full_date":"2026-01-27T13:35:02.431Z","date":"2026-01-27","time":"13:35:02"},{"rt":null,"stimulus":"<p style=\"font-size: 50px; margin: 0; text-align: center;\">+</p>","response":null,"trial_type":"html-keyboard-response","trial_index":98,"plugin_version":"2.1.0","time_elapsed":188652,"subject_id":"92287","group":"Group2","condition":"1_Rep","full_date":"2026-01-27T13:35:02.431Z","date":"2026-01-27","time":"13:35:02"},{"task":"memory_phase","broad_category":"M","image_png":"M_Slate_10.png","image_id":314,"category_name":"Slate","category":20,"distinct_rating":1.94,"distinct_type":"Bottom","rt":null,"stimulus":"Stimuli_Rocks480/M_Slate_10.png","response":null,"trial_type":"image-keyboard-response","trial_index":99,"plugin_version":"2.1.0","time_elapsed":191156,"subject_id":"92287","group":"Group2","condition":"1_Rep","full_date":"2026-01-27T13:35:02.431Z","date":"2026-01-27","time":"13:35:02"},{"rt":null,"stimulus":"<p style=\"font-size: 50px; margin: 0; text-align: center;\">+</p>","response":null,"trial_type":"html-keyboard-response","trial_index":100,"plugin_version":"2.1.0","time_elapsed":192159,"subject_id":"92287","group":"Group2","condition":"1_Rep","full_date":"2026-01-27T13:35:02.431Z","date":"2026-01-27","time":"13:35:02"},{"task":"memory_phase","broad_category":"I","image_png":"I_Pegmatite_11.png","image_id":107,"category_name":"Pegmatite","category":7,"distinct_rating":7.11,"distinct_type":"Top","rt":null,"stimulus":"Stimuli_Rocks480/I_Pegmatite_11.png","response":null,"trial_type":"image-keyboard-response","trial_index":101,"plugin_version":"2.1.0","time_elapsed":194663,"subject_id":"92287","group":"Group2","condition":"1_Rep","full_date":"2026-01-27T13:35:02.431Z","date":"2026-01-27","time":"13:35:02"},{"rt":null,"stimulus":"<p style=\"font-size: 50px; margin: 0; text-align: center;\">+</p>","response":null,"trial_type":"html-keyboard-response","trial_index":102,"plugin_version":"2.1.0","time_elapsed":195666,"subject_id":"92287","group":"Group2","condition":"1_Rep","full_date":"2026-01-27T13:35:02.431Z","date":"2026-01-27","time":"13:35:02"},{"task":"memory_phase","broad_category":"I","image_png":"I_Obsidian_06.png","image_id":86,"category_name":"Obsidian","category":6,"distinct_rating":8.01,"distinct_type":"Top","rt":null,"stimulus":"Stimuli_Rocks480/I_Obsidian_06.png","response":null,"trial_type":"image-keyboard-response","trial_index":103,"plugin_version":"2.1.0","time_elapsed":198171,"subject_id":"92287","group":"Group2","condition":"1_Rep","full_date":"2026-01-27T13:35:02.431Z","date":"2026-01-27","time":"13:35:02"},{"rt":null,"stimulus":"<p style=\"font-size: 50px; margin: 0; text-align: center;\">+</p>","response":null,"trial_type":"html-keyboard-response","trial_index":104,"plugin_version":"2.1.0","time_elapsed":199173,"subject_id":"92287","group":"Group2","condition":"1_Rep","full_date":"2026-01-27T13:35:02.431Z","date":"2026-01-27","time":"13:35:02"},{"task":"memory_phase","broad_category":"S","image_png":"S_Shale_07.png","image_id":471,"category_name":"Shale","category":30,"distinct_rating":2.73,"distinct_type":"Bottom","rt":null,"stimulus":"Stimuli_Rocks480/S_Shale_07.png","response":null,"trial_type":"image-keyboard-response","trial_index":105,"plugin_version":"2.1.0","time_elapsed":201677,"subject_id":"92287","group":"Group2","condition":"1_Rep","full_date":"2026-01-27T13:35:02.431Z","date":"2026-01-27","time":"13:35:02"},{"rt":9773,"stimulus":"<div style=\"max-width: 760px; margin: auto; font-size: 20px; line-height: 1.5;\">\n      <h1 style=\"text-align:center; font-size: 30px;\">Instructions for the Test Phase</h1>\n      <p>\n        The study phase is now complete.\n      </p>\n      <p>\n        In the test phase, you will again see a series of rock images. \n        Some will be ones you saw before - during the study phase, while others will be new.  \n        <b>Your task</b> is to decide whether you have seen each image before by pressing the corresponding key on your keyboard:<br><br>\n          <b>A</b> - NO (you did not see this image before)<br>\n          <b>L</b> - YES (you saw this image before)<br><br>\n        The test will proceed at your own pace. You will receive feedback after each response.  \n        Please try to respond <b>as accurately as possible</b>.\n      </p>\n      <p>\n        <b>Reminder:</b> If your computer has multiple language settings (e.g., English and another language),\n        please ensure it is set to English during the test phase.\n      </p>\n      <p>\n        You can track your progress using the <b>completion bar</b> at the top of the screen.  \n        Note that it has been refreshed to reflect your progress during this final phase.\n      </p>\n      <p>\n        Press the button below when you are ready to continue.\n      </p>\n    </div>","response":0,"trial_type":"html-button-response","trial_index":106,"plugin_version":"2.1.0","time_elapsed":211454,"subject_id":"92287","group":"Group2","condition":"1_Rep","full_date":"2026-01-27T13:35:02.431Z","date":"2026-01-27","time":"13:35:02"},{"correct_response":"a","task":"test_phase","broad_category":"M","image_png":"M_Quartzite_13.png","image_id":285,"category_name":"Quartzite","category":18,"distinct_rating":2.27,"distinct_type":"Bottom","item_type":"Foil","rt":4865,"stimulus":"Stimuli_Rocks480/M_Quartzite_13.png","response":"a","trial_type":"image-keyboard-response","trial_index":107,"plugin_version":"2.1.0","time_elapsed":216321,"subject_id":"92287","group":"Group2","condition":"1_Rep","full_date":"2026-01-27T13:35:02.431Z","date":"2026-01-27","time":"13:35:02","cor_ans":true},{"trial_type":"html-keyboard-response","rt":null,"stimulus":"<p style=\"color: green; font-size: 50px; font-weight: bold;\">Correct</p>","response":null,"trial_index":108,"plugin_version":"2.1.0","time_elapsed":216824,"subject_id":"92287","group":"Group2","condition":"1_Rep","full_date":"2026-01-27T13:35:02.431Z","date":"2026-01-27","time":"13:35:02"},{"correct_response":"l","task":"test_phase","broad_category":"M","image_png":"M_Marble_02.png","image_id":226,"category_name":"Marble","category":15,"distinct_rating":3.2,"distinct_type":"Bottom","item_type":"Target","rt":1184,"stimulus":"Stimuli_Rocks480/M_Marble_02.png","response":"a","trial_type":"image-keyboard-response","trial_index":109,"plugin_version":"2.1.0","time_elapsed":218011,"subject_id":"92287","group":"Group2","condition":"1_Rep","full_date":"2026-01-27T13:35:02.431Z","date":"2026-01-27","time":"13:35:02","cor_ans":false},{"trial_type":"html-keyboard-response","rt":null,"stimulus":"<p style=\"color: red; font-size: 50px; font-weight: bold;\">Incorrect</p>","response":null,"trial_index":110,"plugin_version":"2.1.0","time_elapsed":218513,"subject_id":"92287","group":"Group2","condition":"1_Rep","full_date":"2026-01-27T13:35:02.431Z","date":"2026-01-27","time":"13:35:02"},{"correct_response":"l","task":"test_phase","broad_category":"S","image_png":"S_Chert_13.png","image_id":365,"category_name":"Chert","category":23,"distinct_rating":6.57,"distinct_type":"Top","item_type":"Target","rt":1742,"stimulus":"Stimuli_Rocks480/S_Chert_13.png","response":"a","trial_type":"image-keyboard-response","trial_index":111,"plugin_version":"2.1.0","time_elapsed":220257,"subject_id":"92287","group":"Group2","condition":"1_Rep","full_date":"2026-01-27T13:35:02.431Z","date":"2026-01-27","time":"13:35:02","cor_ans":false},{"trial_type":"html-keyboard-response","rt":null,"stimulus":"<p style=\"color: red; font-size: 50px; font-weight: bold;\">Incorrect</p>","response":null,"trial_index":112,"plugin_version":"2.1.0","time_elapsed":220760,"subject_id":"92287","group":"Group2","condition":"1_Rep","full_date":"2026-01-27T13:35:02.431Z","date":"2026-01-27","time":"13:35:02"},{"correct_response":"a","task":"test_phase","broad_category":"M","image_png":"M_Phyllite_07.png","image_id":263,"category_name":"Phyllite","category":17,"distinct_rating":2.59,"distinct_type":"Bottom","item_type":"Foil","rt":1583,"stimulus":"Stimuli_Rocks480/M_Phyllite_07.png","response":"l","trial_type":"image-keyboard-response","trial_index":113,"plugin_version":"2.1.0","time_elapsed":222345,"subject_id":"92287","group":"Group2","condition":"1_Rep","full_date":"2026-01-27T13:35:02.431Z","date":"2026-01-27","time":"13:35:02","cor_ans":false},{"trial_type":"html-keyboard-response","rt":null,"stimulus":"<p style=\"color: red; font-size: 50px; font-weight: bold;\">Incorrect</p>","response":null,"trial_index":114,"plugin_version":"2.1.0","time_elapsed":222848,"subject_id":"92287","group":"Group2","condition":"1_Rep","full_date":"2026-01-27T13:35:02.431Z","date":"2026-01-27","time":"13:35:02"},{"correct_response":"a","task":"test_phase","broad_category":"I","image_png":"I_Pumice_12.png","image_id":140,"category_name":"Pumice","category":9,"distinct_rating":2.97,"distinct_type":"Bottom","item_type":"Foil","rt":1190,"stimulus":"Stimuli_Rocks480/I_Pumice_12.png","response":"a","trial_type":"image-keyboard-response","trial_index":115,"plugin_version":"2.1.0","time_elapsed":224040,"subject_id":"92287","group":"Group2","condition":"1_Rep","full_date":"2026-01-27T13:35:02.431Z","date":"2026-01-27","time":"13:35:02","cor_ans":true},{"trial_type":"html-keyboard-response","rt":null,"stimulus":"<p style=\"color: green; font-size: 50px; font-weight: bold;\">Correct</p>","response":null,"trial_index":116,"plugin_version":"2.1.0","time_elapsed":224542,"subject_id":"92287","group":"Group2","condition":"1_Rep","full_date":"2026-01-27T13:35:02.431Z","date":"2026-01-27","time":"13:35:02"},{"correct_response":"a","task":"test_phase","broad_category":"I","image_png":"I_Basalt_09.png","image_id":25,"category_name":"Basalt","category":2,"distinct_rating":1.89,"distinct_type":"Bottom","item_type":"Foil","rt":1339,"stimulus":"Stimuli_Rocks480/I_Basalt_09.png","response":"l","trial_type":"image-keyboard-response","trial_index":117,"plugin_version":"2.1.0","time_elapsed":225883,"subject_id":"92287","group":"Group2","condition":"1_Rep","full_date":"2026-01-27T13:35:02.431Z","date":"2026-01-27","time":"13:35:02","cor_ans":false},{"trial_type":"html-keyboard-response","rt":null,"stimulus":"<p style=\"color: red; font-size: 50px; font-weight: bold;\">Incorrect</p>","response":null,"trial_index":118,"plugin_version":"2.1.0","time_elapsed":226385,"subject_id":"92287","group":"Group2","condition":"1_Rep","full_date":"2026-01-27T13:35:02.431Z","date":"2026-01-27","time":"13:35:02"},{"correct_response":"l","task":"test_phase","broad_category":"S","image_png":"S_Dolomite_16.png","image_id":400,"category_name":"Dolomite","category":25,"distinct_rating":1.71,"distinct_type":"Bottom","item_type":"Target","rt":793,"stimulus":"Stimuli_Rocks480/S_Dolomite_16.png","response":"l","trial_type":"image-keyboard-response","trial_index":119,"plugin_version":"2.1.0","time_elapsed":227181,"subject_id":"92287","group":"Group2","condition":"1_Rep","full_date":"2026-01-27T13:35:02.431Z","date":"2026-01-27","time":"13:35:02","cor_ans":true},{"trial_type":"html-keyboard-response","rt":null,"stimulus":"<p style=\"color: green; font-size: 50px; font-weight: bold;\">Correct</p>","response":null,"trial_index":120,"plugin_version":"2.1.0","time_elapsed":227683,"subject_id":"92287","group":"Group2","condition":"1_Rep","full_date":"2026-01-27T13:35:02.431Z","date":"2026-01-27","time":"13:35:02"},{"correct_response":"l","task":"test_phase","broad_category":"M","image_png":"M_Gneiss_15.png","image_id":207,"category_name":"Gneiss","category":13,"distinct_rating":3.11,"distinct_type":"Bottom","item_type":"Target","rt":1021,"stimulus":"Stimuli_Rocks480/M_Gneiss_15.png","response":"a","trial_type":"image-keyboard-response","trial_index":121,"plugin_version":"2.1.0","time_elapsed":228706,"subject_id":"92287","group":"Group2","condition":"1_Rep","full_date":"2026-01-27T13:35:02.431Z","date":"2026-01-27","time":"13:35:02","cor_ans":false},{"trial_type":"html-keyboard-response","rt":null,"stimulus":"<p style=\"color: red; font-size: 50px; font-weight: bold;\">Incorrect</p>","response":null,"trial_index":122,"plugin_version":"2.1.0","time_elapsed":229208,"subject_id":"92287","group":"Group2","condition":"1_Rep","full_date":"2026-01-27T13:35:02.431Z","date":"2026-01-27","time":"13:35:02"},{"correct_response":"a","task":"test_phase","broad_category":"M","image_png":"M_Slate_03.png","image_id":307,"category_name":"Slate","category":20,"distinct_rating":1.87,"distinct_type":"Bottom","item_type":"Foil","rt":919,"stimulus":"Stimuli_Rocks480/M_Slate_03.png","response":"l","trial_type":"image-keyboard-response","trial_index":123,"plugin_version":"2.1.0","time_elapsed":230130,"subject_id":"92287","group":"Group2","condition":"1_Rep","full_date":"2026-01-27T13:35:02.431Z","date":"2026-01-27","time":"13:35:02","cor_ans":false},{"trial_type":"html-keyboard-response","rt":null,"stimulus":"<p style=\"color: red; font-size: 50px; font-weight: bold;\">Incorrect</p>","response":null,"trial_index":124,"plugin_version":"2.1.0","time_elapsed":230632,"subject_id":"92287","group":"Group2","condition":"1_Rep","full_date":"2026-01-27T13:35:02.431Z","date":"2026-01-27","time":"13:35:02"},{"correct_response":"a","task":"test_phase","broad_category":"I","image_png":"I_Pumice_11.png","image_id":139,"category_name":"Pumice","category":9,"distinct_rating":1.74,"distinct_type":"Bottom","item_type":"Foil","rt":1298,"stimulus":"Stimuli_Rocks480/I_Pumice_11.png","response":"l","trial_type":"image-keyboard-response","trial_index":125,"plugin_version":"2.1.0","time_elapsed":231933,"subject_id":"92287","group":"Group2","condition":"1_Rep","full_date":"2026-01-27T13:35:02.431Z","date":"2026-01-27","time":"13:35:02","cor_ans":false},{"trial_type":"html-keyboard-response","rt":null,"stimulus":"<p style=\"color: red; font-size: 50px; font-weight: bold;\">Incorrect</p>","response":null,"trial_index":126,"plugin_version":"2.1.0","time_elapsed":232434,"subject_id":"92287","group":"Group2","condition":"1_Rep","full_date":"2026-01-27T13:35:02.431Z","date":"2026-01-27","time":"13:35:02"},{"correct_response":"l","task":"test_phase","broad_category":"I","image_png":"I_Andesite_04.png","image_id":4,"category_name":"Andesite","category":1,"distinct_rating":3.18,"distinct_type":"Bottom","item_type":"Target","rt":1155,"stimulus":"Stimuli_Rocks480/I_Andesite_04.png","response":"l","trial_type":"image-keyboard-response","trial_index":127,"plugin_version":"2.1.0","time_elapsed":233592,"subject_id":"92287","group":"Group2","condition":"1_Rep","full_date":"2026-01-27T13:35:02.431Z","date":"2026-01-27","time":"13:35:02","cor_ans":true},{"trial_type":"html-keyboard-response","rt":null,"stimulus":"<p style=\"color: green; font-size: 50px; font-weight: bold;\">Correct</p>","response":null,"trial_index":128,"plugin_version":"2.1.0","time_elapsed":234093,"subject_id":"92287","group":"Group2","condition":"1_Rep","full_date":"2026-01-27T13:35:02.431Z","date":"2026-01-27","time":"13:35:02"},{"correct_response":"a","task":"test_phase","broad_category":"S","image_png":"S_Rock Gypsum_04.png","image_id":420,"category_name":"Rock Gypsum","category":27,"distinct_rating":7.61,"distinct_type":"Top","item_type":"Foil","rt":984,"stimulus":"Stimuli_Rocks480/S_Rock Gypsum_04.png","response":"a","trial_type":"image-keyboard-response","trial_index":129,"plugin_version":"2.1.0","time_elapsed":235081,"subject_id":"92287","group":"Group2","condition":"1_Rep","full_date":"2026-01-27T13:35:02.431Z","date":"2026-01-27","time":"13:35:02","cor_ans":true},{"trial_type":"html-keyboard-response","rt":null,"stimulus":"<p style=\"color: green; font-size: 50px; font-weight: bold;\">Correct</p>","response":null,"trial_index":130,"plugin_version":"2.1.0","time_elapsed":235582,"subject_id":"92287","group":"Group2","condition":"1_Rep","full_date":"2026-01-27T13:35:02.431Z","date":"2026-01-27","time":"13:35:02"},{"correct_response":"l","task":"test_phase","broad_category":"I","image_png":"I_Diorite_15.png","image_id":47,"category_name":"Diorite","category":3,"distinct_rating":3.05,"distinct_type":"Bottom","item_type":"Target","rt":919,"stimulus":"Stimuli_Rocks480/I_Diorite_15.png","response":"l","trial_type":"image-keyboard-response","trial_index":131,"plugin_version":"2.1.0","time_elapsed":236503,"subject_id":"92287","group":"Group2","condition":"1_Rep","full_date":"2026-01-27T13:35:02.431Z","date":"2026-01-27","time":"13:35:02","cor_ans":true},{"trial_type":"html-keyboard-response","rt":null,"stimulus":"<p style=\"color: green; font-size: 50px; font-weight: bold;\">Correct</p>","response":null,"trial_index":132,"plugin_version":"2.1.0","time_elapsed":237005,"subject_id":"92287","group":"Group2","condition":"1_Rep","full_date":"2026-01-27T13:35:02.431Z","date":"2026-01-27","time":"13:35:02"},{"correct_response":"l","task":"test_phase","broad_category":"I","image_png":"I_Andesite_09.png","image_id":9,"category_name":"Andesite","category":1,"distinct_rating":2.49,"distinct_type":"Bottom","item_type":"Target","rt":884,"stimulus":"Stimuli_Rocks480/I_Andesite_09.png","response":"l","trial_type":"image-keyboard-response","trial_index":133,"plugin_version":"2.1.0","time_elapsed":237892,"subject_id":"92287","group":"Group2","condition":"1_Rep","full_date":"2026-01-27T13:35:02.431Z","date":"2026-01-27","time":"13:35:02","cor_ans":true},{"trial_type":"html-keyboard-response","rt":null,"stimulus":"<p style=\"color: green; font-size: 50px; font-weight: bold;\">Correct</p>","response":null,"trial_index":134,"plugin_version":"2.1.0","time_elapsed":238394,"subject_id":"92287","group":"Group2","condition":"1_Rep","full_date":"2026-01-27T13:35:02.431Z","date":"2026-01-27","time":"13:35:02"},{"correct_response":"a","task":"test_phase","broad_category":"M","image_png":"M_Phyllite_03.png","image_id":259,"category_name":"Phyllite","category":17,"distinct_rating":2.5,"distinct_type":"Bottom","item_type":"Foil","rt":1016,"stimulus":"Stimuli_Rocks480/M_Phyllite_03.png","response":"a","trial_type":"image-keyboard-response","trial_index":135,"plugin_version":"2.1.0","time_elapsed":239412,"subject_id":"92287","group":"Group2","condition":"1_Rep","full_date":"2026-01-27T13:35:02.431Z","date":"2026-01-27","time":"13:35:02","cor_ans":true},{"trial_type":"html-keyboard-response","rt":null,"stimulus":"<p style=\"color: green; font-size: 50px; font-weight: bold;\">Correct</p>","response":null,"trial_index":136,"plugin_version":"2.1.0","time_elapsed":239914,"subject_id":"92287","group":"Group2","condition":"1_Rep","full_date":"2026-01-27T13:35:02.431Z","date":"2026-01-27","time":"13:35:02"},{"correct_response":"l","task":"test_phase","broad_category":"I","image_png":"I_Gabbro_12.png","image_id":60,"category_name":"Gabbro","category":4,"distinct_rating":2.6,"distinct_type":"Bottom","item_type":"Target","rt":999,"stimulus":"Stimuli_Rocks480/I_Gabbro_12.png","response":"a","trial_type":"image-keyboard-response","trial_index":137,"plugin_version":"2.1.0","time_elapsed":240916,"subject_id":"92287","group":"Group2","condition":"1_Rep","full_date":"2026-01-27T13:35:02.431Z","date":"2026-01-27","time":"13:35:02","cor_ans":false},{"trial_type":"html-keyboard-response","rt":null,"stimulus":"<p style=\"color: red; font-size: 50px; font-weight: bold;\">Incorrect</p>","response":null,"trial_index":138,"plugin_version":"2.1.0","time_elapsed":241418,"subject_id":"92287","group":"Group2","condition":"1_Rep","full_date":"2026-01-27T13:35:02.431Z","date":"2026-01-27","time":"13:35:02"},{"correct_response":"a","task":"test_phase","broad_category":"M","image_png":"M_Slate_11.png","image_id":315,"category_name":"Slate","category":20,"distinct_rating":2.75,"distinct_type":"Bottom","item_type":"Foil","rt":1492,"stimulus":"Stimuli_Rocks480/M_Slate_11.png","response":"l","trial_type":"image-keyboard-response","trial_index":139,"plugin_version":"2.1.0","time_elapsed":242913,"subject_id":"92287","group":"Group2","condition":"1_Rep","full_date":"2026-01-27T13:35:02.431Z","date":"2026-01-27","time":"13:35:02","cor_ans":false},{"trial_type":"html-keyboard-response","rt":null,"stimulus":"<p style=\"color: red; font-size: 50px; font-weight: bold;\">Incorrect</p>","response":null,"trial_index":140,"plugin_version":"2.1.0","time_elapsed":243414,"subject_id":"92287","group":"Group2","condition":"1_Rep","full_date":"2026-01-27T13:35:02.431Z","date":"2026-01-27","time":"13:35:02"},{"correct_response":"l","task":"test_phase","broad_category":"I","image_png":"I_Pegmatite_03.png","image_id":99,"category_name":"Pegmatite","category":7,"distinct_rating":7.24,"distinct_type":"Top","item_type":"Target","rt":1082,"stimulus":"Stimuli_Rocks480/I_Pegmatite_03.png","response":"l","trial_type":"image-keyboard-response","trial_index":141,"plugin_version":"2.1.0","time_elapsed":244499,"subject_id":"92287","group":"Group2","condition":"1_Rep","full_date":"2026-01-27T13:35:02.431Z","date":"2026-01-27","time":"13:35:02","cor_ans":true},{"trial_type":"html-keyboard-response","rt":null,"stimulus":"<p style=\"color: green; font-size: 50px; font-weight: bold;\">Correct</p>","response":null,"trial_index":142,"plugin_version":"2.1.0","time_elapsed":245001,"subject_id":"92287","group":"Group2","condition":"1_Rep","full_date":"2026-01-27T13:35:02.431Z","date":"2026-01-27","time":"13:35:02"},{"correct_response":"a","task":"test_phase","broad_category":"I","image_png":"I_Pegmatite_16.png","image_id":112,"category_name":"Pegmatite","category":7,"distinct_rating":7.03,"distinct_type":"Top","item_type":"Foil","rt":844,"stimulus":"Stimuli_Rocks480/I_Pegmatite_16.png","response":"l","trial_type":"image-keyboard-response","trial_index":143,"plugin_version":"2.1.0","time_elapsed":245848,"subject_id":"92287","group":"Group2","condition":"1_Rep","full_date":"2026-01-27T13:35:02.431Z","date":"2026-01-27","time":"13:35:02","cor_ans":false},{"trial_type":"html-keyboard-response","rt":null,"stimulus":"<p style=\"color: red; font-size: 50px; font-weight: bold;\">Incorrect</p>","response":null,"trial_index":144,"plugin_version":"2.1.0","time_elapsed":246350,"subject_id":"92287","group":"Group2","condition":"1_Rep","full_date":"2026-01-27T13:35:02.431Z","date":"2026-01-27","time":"13:35:02"},{"correct_response":"l","task":"test_phase","broad_category":"I","image_png":"I_Basalt_10.png","image_id":26,"category_name":"Basalt","category":2,"distinct_rating":2.76,"distinct_type":"Bottom","item_type":"Target","rt":933,"stimulus":"Stimuli_Rocks480/I_Basalt_10.png","response":"l","trial_type":"image-keyboard-response","trial_index":145,"plugin_version":"2.1.0","time_elapsed":247285,"subject_id":"92287","group":"Group2","condition":"1_Rep","full_date":"2026-01-27T13:35:02.431Z","date":"2026-01-27","time":"13:35:02","cor_ans":true},{"trial_type":"html-keyboard-response","rt":null,"stimulus":"<p style=\"color: green; font-size: 50px; font-weight: bold;\">Correct</p>","response":null,"trial_index":146,"plugin_version":"2.1.0","time_elapsed":247786,"subject_id":"92287","group":"Group2","condition":"1_Rep","full_date":"2026-01-27T13:35:02.431Z","date":"2026-01-27","time":"13:35:02"},{"correct_response":"l","task":"test_phase","broad_category":"M","image_png":"M_Phyllite_02.png","image_id":258,"category_name":"Phyllite","category":17,"distinct_rating":2.89,"distinct_type":"Bottom","item_type":"Target","rt":658,"stimulus":"Stimuli_Rocks480/M_Phyllite_02.png","response":"a","trial_type":"image-keyboard-response","trial_index":147,"plugin_version":"2.1.0","time_elapsed":248446,"subject_id":"92287","group":"Group2","condition":"1_Rep","full_date":"2026-01-27T13:35:02.431Z","date":"2026-01-27","time":"13:35:02","cor_ans":false},{"trial_type":"html-keyboard-response","rt":null,"stimulus":"<p style=\"color: red; font-size: 50px; font-weight: bold;\">Incorrect</p>","response":null,"trial_index":148,"plugin_version":"2.1.0","time_elapsed":248949,"subject_id":"92287","group":"Group2","condition":"1_Rep","full_date":"2026-01-27T13:35:02.431Z","date":"2026-01-27","time":"13:35:02"},{"correct_response":"l","task":"test_phase","broad_category":"M","image_png":"M_Slate_10.png","image_id":314,"category_name":"Slate","category":20,"distinct_rating":1.94,"distinct_type":"Bottom","item_type":"Target","rt":630,"stimulus":"Stimuli_Rocks480/M_Slate_10.png","response":"l","trial_type":"image-keyboard-response","trial_index":149,"plugin_version":"2.1.0","time_elapsed":249581,"subject_id":"92287","group":"Group2","condition":"1_Rep","full_date":"2026-01-27T13:35:02.431Z","date":"2026-01-27","time":"13:35:02","cor_ans":true},{"trial_type":"html-keyboard-response","rt":null,"stimulus":"<p style=\"color: green; font-size: 50px; font-weight: bold;\">Correct</p>","response":null,"trial_index":150,"plugin_version":"2.1.0","time_elapsed":250083,"subject_id":"92287","group":"Group2","condition":"1_Rep","full_date":"2026-01-27T13:35:02.431Z","date":"2026-01-27","time":"13:35:02"},{"correct_response":"l","task":"test_phase","broad_category":"S","image_png":"S_Shale_03.png","image_id":467,"category_name":"Shale","category":30,"distinct_rating":1.95,"distinct_type":"Bottom","item_type":"Target","rt":691,"stimulus":"Stimuli_Rocks480/S_Shale_03.png","response":"l","trial_type":"image-keyboard-response","trial_index":151,"plugin_version":"2.1.0","time_elapsed":250777,"subject_id":"92287","group":"Group2","condition":"1_Rep","full_date":"2026-01-27T13:35:02.431Z","date":"2026-01-27","time":"13:35:02","cor_ans":true},{"trial_type":"html-keyboard-response","rt":null,"stimulus":"<p style=\"color: green; font-size: 50px; font-weight: bold;\">Correct</p>","response":null,"trial_index":152,"plugin_version":"2.1.0","time_elapsed":251279,"subject_id":"92287","group":"Group2","condition":"1_Rep","full_date":"2026-01-27T13:35:02.431Z","date":"2026-01-27","time":"13:35:02"},{"correct_response":"a","task":"test_phase","broad_category":"M","image_png":"M_Quartzite_05.png","image_id":277,"category_name":"Quartzite","category":18,"distinct_rating":2.23,"distinct_type":"Bottom","item_type":"Foil","rt":707,"stimulus":"Stimuli_Rocks480/M_Quartzite_05.png","response":"l","trial_type":"image-keyboard-response","trial_index":153,"plugin_version":"2.1.0","time_elapsed":251989,"subject_id":"92287","group":"Group2","condition":"1_Rep","full_date":"2026-01-27T13:35:02.431Z","date":"2026-01-27","time":"13:35:02","cor_ans":false},{"trial_type":"html-keyboard-response","rt":null,"stimulus":"<p style=\"color: red; font-size: 50px; font-weight: bold;\">Incorrect</p>","response":null,"trial_index":154,"plugin_version":"2.1.0","time_elapsed":252490,"subject_id":"92287","group":"Group2","condition":"1_Rep","full_date":"2026-01-27T13:35:02.431Z","date":"2026-01-27","time":"13:35:02"},{"correct_response":"a","task":"test_phase","broad_category":"I","image_png":"I_Rhyolite_11.png","image_id":155,"category_name":"Rhyolite","category":10,"distinct_rating":1.73,"distinct_type":"Bottom","item_type":"Foil","rt":719,"stimulus":"Stimuli_Rocks480/I_Rhyolite_11.png","response":"l","trial_type":"image-keyboard-response","trial_index":155,"plugin_version":"2.1.0","time_elapsed":253212,"subject_id":"92287","group":"Group2","condition":"1_Rep","full_date":"2026-01-27T13:35:02.431Z","date":"2026-01-27","time":"13:35:02","cor_ans":false},{"trial_type":"html-keyboard-response","rt":null,"stimulus":"<p style=\"color: red; font-size: 50px; font-weight: bold;\">Incorrect</p>","response":null,"trial_index":156,"plugin_version":"2.1.0","time_elapsed":253714,"subject_id":"92287","group":"Group2","condition":"1_Rep","full_date":"2026-01-27T13:35:02.431Z","date":"2026-01-27","time":"13:35:02"},{"correct_response":"l","task":"test_phase","broad_category":"S","image_png":"S_Sandstone_08.png","image_id":456,"category_name":"Sandstone","category":29,"distinct_rating":1.5,"distinct_type":"Bottom","item_type":"Target","rt":630,"stimulus":"Stimuli_Rocks480/S_Sandstone_08.png","response":"a","trial_type":"image-keyboard-response","trial_index":157,"plugin_version":"2.1.0","time_elapsed":254347,"subject_id":"92287","group":"Group2","condition":"1_Rep","full_date":"2026-01-27T13:35:02.431Z","date":"2026-01-27","time":"13:35:02","cor_ans":false},{"trial_type":"html-keyboard-response","rt":null,"stimulus":"<p style=\"color: red; font-size: 50px; font-weight: bold;\">Incorrect</p>","response":null,"trial_index":158,"plugin_version":"2.1.0","time_elapsed":254849,"subject_id":"92287","group":"Group2","condition":"1_Rep","full_date":"2026-01-27T13:35:02.431Z","date":"2026-01-27","time":"13:35:02"},{"correct_response":"l","task":"test_phase","broad_category":"M","image_png":"M_Phyllite_13.png","image_id":269,"category_name":"Phyllite","category":17,"distinct_rating":2.8,"distinct_type":"Bottom","item_type":"Target","rt":529,"stimulus":"Stimuli_Rocks480/M_Phyllite_13.png","response":"l","trial_type":"image-keyboard-response","trial_index":159,"plugin_version":"2.1.0","time_elapsed":255380,"subject_id":"92287","group":"Group2","condition":"1_Rep","full_date":"2026-01-27T13:35:02.431Z","date":"2026-01-27","time":"13:35:02","cor_ans":true},{"trial_type":"html-keyboard-response","rt":null,"stimulus":"<p style=\"color: green; font-size: 50px; font-weight: bold;\">Correct</p>","response":null,"trial_index":160,"plugin_version":"2.1.0","time_elapsed":255882,"subject_id":"92287","group":"Group2","condition":"1_Rep","full_date":"2026-01-27T13:35:02.431Z","date":"2026-01-27","time":"13:35:02"},{"correct_response":"a","task":"test_phase","broad_category":"S","image_png":"S_Shale_12.png","image_id":476,"category_name":"Shale","category":30,"distinct_rating":2.48,"distinct_type":"Bottom","item_type":"Foil","rt":597,"stimulus":"Stimuli_Rocks480/S_Shale_12.png","response":"l","trial_type":"image-keyboard-response","trial_index":161,"plugin_version":"2.1.0","time_elapsed":256482,"subject_id":"92287","group":"Group2","condition":"1_Rep","full_date":"2026-01-27T13:35:02.431Z","date":"2026-01-27","time":"13:35:02","cor_ans":false},{"trial_type":"html-keyboard-response","rt":null,"stimulus":"<p style=\"color: red; font-size: 50px; font-weight: bold;\">Incorrect</p>","response":null,"trial_index":162,"plugin_version":"2.1.0","time_elapsed":256984,"subject_id":"92287","group":"Group2","condition":"1_Rep","full_date":"2026-01-27T13:35:02.431Z","date":"2026-01-27","time":"13:35:02"},{"correct_response":"a","task":"test_phase","broad_category":"I","image_png":"I_Gabbro_08.png","image_id":56,"category_name":"Gabbro","category":4,"distinct_rating":3.02,"distinct_type":"Bottom","item_type":"Foil","rt":910,"stimulus":"Stimuli_Rocks480/I_Gabbro_08.png","response":"l","trial_type":"image-keyboard-response","trial_index":163,"plugin_version":"2.1.0","time_elapsed":257897,"subject_id":"92287","group":"Group2","condition":"1_Rep","full_date":"2026-01-27T13:35:02.431Z","date":"2026-01-27","time":"13:35:02","cor_ans":false},{"trial_type":"html-keyboard-response","rt":null,"stimulus":"<p style=\"color: red; font-size: 50px; font-weight: bold;\">Incorrect</p>","response":null,"trial_index":164,"plugin_version":"2.1.0","time_elapsed":258398,"subject_id":"92287","group":"Group2","condition":"1_Rep","full_date":"2026-01-27T13:35:02.431Z","date":"2026-01-27","time":"13:35:02"},{"correct_response":"l","task":"test_phase","broad_category":"I","image_png":"I_Pumice_01.png","image_id":129,"category_name":"Pumice","category":9,"distinct_rating":3.25,"distinct_type":"Bottom","item_type":"Target","rt":766,"stimulus":"Stimuli_Rocks480/I_Pumice_01.png","response":"l","trial_type":"image-keyboard-response","trial_index":165,"plugin_version":"2.1.0","time_elapsed":259167,"subject_id":"92287","group":"Group2","condition":"1_Rep","full_date":"2026-01-27T13:35:02.431Z","date":"2026-01-27","time":"13:35:02","cor_ans":true},{"trial_type":"html-keyboard-response","rt":null,"stimulus":"<p style=\"color: green; font-size: 50px; font-weight: bold;\">Correct</p>","response":null,"trial_index":166,"plugin_version":"2.1.0","time_elapsed":259669,"subject_id":"92287","group":"Group2","condition":"1_Rep","full_date":"2026-01-27T13:35:02.431Z","date":"2026-01-27","time":"13:35:02"},{"correct_response":"l","task":"test_phase","broad_category":"I","image_png":"I_Obsidian_06.png","image_id":86,"category_name":"Obsidian","category":6,"distinct_rating":8.01,"distinct_type":"Top","item_type":"Target","rt":969,"stimulus":"Stimuli_Rocks480/I_Obsidian_06.png","response":"a","trial_type":"image-keyboard-response","trial_index":167,"plugin_version":"2.1.0","time_elapsed":260641,"subject_id":"92287","group":"Group2","condition":"1_Rep","full_date":"2026-01-27T13:35:02.431Z","date":"2026-01-27","time":"13:35:02","cor_ans":false},{"trial_type":"html-keyboard-response","rt":null,"stimulus":"<p style=\"color: red; font-size: 50px; font-weight: bold;\">Incorrect</p>","response":null,"trial_index":168,"plugin_version":"2.1.0","time_elapsed":261143,"subject_id":"92287","group":"Group2","condition":"1_Rep","full_date":"2026-01-27T13:35:02.431Z","date":"2026-01-27","time":"13:35:02"},{"correct_response":"a","task":"test_phase","broad_category":"S","image_png":"S_Dolomite_13.png","image_id":397,"category_name":"Dolomite","category":25,"distinct_rating":1.77,"distinct_type":"Bottom","item_type":"Foil","rt":624,"stimulus":"Stimuli_Rocks480/S_Dolomite_13.png","response":"l","trial_type":"image-keyboard-response","trial_index":169,"plugin_version":"2.1.0","time_elapsed":261770,"subject_id":"92287","group":"Group2","condition":"1_Rep","full_date":"2026-01-27T13:35:02.431Z","date":"2026-01-27","time":"13:35:02","cor_ans":false},{"trial_type":"html-keyboard-response","rt":null,"stimulus":"<p style=\"color: red; font-size: 50px; font-weight: bold;\">Incorrect</p>","response":null,"trial_index":170,"plugin_version":"2.1.0","time_elapsed":262272,"subject_id":"92287","group":"Group2","condition":"1_Rep","full_date":"2026-01-27T13:35:02.431Z","date":"2026-01-27","time":"13:35:02"},{"correct_response":"l","task":"test_phase","broad_category":"I","image_png":"I_Rhyolite_08.png","image_id":152,"category_name":"Rhyolite","category":10,"distinct_rating":1.38,"distinct_type":"Bottom","item_type":"Target","rt":912,"stimulus":"Stimuli_Rocks480/I_Rhyolite_08.png","response":"a","trial_type":"image-keyboard-response","trial_index":171,"plugin_version":"2.1.0","time_elapsed":263186,"subject_id":"92287","group":"Group2","condition":"1_Rep","full_date":"2026-01-27T13:35:02.431Z","date":"2026-01-27","time":"13:35:02","cor_ans":false},{"trial_type":"html-keyboard-response","rt":null,"stimulus":"<p style=\"color: red; font-size: 50px; font-weight: bold;\">Incorrect</p>","response":null,"trial_index":172,"plugin_version":"2.1.0","time_elapsed":263689,"subject_id":"92287","group":"Group2","condition":"1_Rep","full_date":"2026-01-27T13:35:02.431Z","date":"2026-01-27","time":"13:35:02"},{"correct_response":"a","task":"test_phase","broad_category":"S","image_png":"S_Sandstone_16.png","image_id":464,"category_name":"Sandstone","category":29,"distinct_rating":1.93,"distinct_type":"Bottom","item_type":"Foil","rt":1041,"stimulus":"Stimuli_Rocks480/S_Sandstone_16.png","response":"l","trial_type":"image-keyboard-response","trial_index":173,"plugin_version":"2.1.0","time_elapsed":264732,"subject_id":"92287","group":"Group2","condition":"1_Rep","full_date":"2026-01-27T13:35:02.431Z","date":"2026-01-27","time":"13:35:02","cor_ans":false},{"trial_type":"html-keyboard-response","rt":null,"stimulus":"<p style=\"color: red; font-size: 50px; font-weight: bold;\">Incorrect</p>","response":null,"trial_index":174,"plugin_version":"2.1.0","time_elapsed":265234,"subject_id":"92287","group":"Group2","condition":"1_Rep","full_date":"2026-01-27T13:35:02.431Z","date":"2026-01-27","time":"13:35:02"},{"correct_response":"l","task":"test_phase","broad_category":"I","image_png":"I_Peridotite_13.png","image_id":125,"category_name":"Peridotite","category":8,"distinct_rating":7.28,"distinct_type":"Top","item_type":"Target","rt":904,"stimulus":"Stimuli_Rocks480/I_Peridotite_13.png","response":"l","trial_type":"image-keyboard-response","trial_index":175,"plugin_version":"2.1.0","time_elapsed":266141,"subject_id":"92287","group":"Group2","condition":"1_Rep","full_date":"2026-01-27T13:35:02.431Z","date":"2026-01-27","time":"13:35:02","cor_ans":true},{"trial_type":"html-keyboard-response","rt":null,"stimulus":"<p style=\"color: green; font-size: 50px; font-weight: bold;\">Correct</p>","response":null,"trial_index":176,"plugin_version":"2.1.0","time_elapsed":266643,"subject_id":"92287","group":"Group2","condition":"1_Rep","full_date":"2026-01-27T13:35:02.431Z","date":"2026-01-27","time":"13:35:02"},{"correct_response":"a","task":"test_phase","broad_category":"I","image_png":"I_Diorite_05.png","image_id":37,"category_name":"Diorite","category":3,"distinct_rating":3.08,"distinct_type":"Bottom","item_type":"Foil","rt":919,"stimulus":"Stimuli_Rocks480/I_Diorite_05.png","response":"l","trial_type":"image-keyboard-response","trial_index":177,"plugin_version":"2.1.0","time_elapsed":267565,"subject_id":"92287","group":"Group2","condition":"1_Rep","full_date":"2026-01-27T13:35:02.431Z","date":"2026-01-27","time":"13:35:02","cor_ans":false},{"trial_type":"html-keyboard-response","rt":null,"stimulus":"<p style=\"color: red; font-size: 50px; font-weight: bold;\">Incorrect</p>","response":null,"trial_index":178,"plugin_version":"2.1.0","time_elapsed":268067,"subject_id":"92287","group":"Group2","condition":"1_Rep","full_date":"2026-01-27T13:35:02.431Z","date":"2026-01-27","time":"13:35:02"},{"correct_response":"a","task":"test_phase","broad_category":"S","image_png":"S_Conglomerate_05.png","image_id":373,"category_name":"Conglomerate","category":24,"distinct_rating":7.32,"distinct_type":"Top","item_type":"Foil","rt":838,"stimulus":"Stimuli_Rocks480/S_Conglomerate_05.png","response":"l","trial_type":"image-keyboard-response","trial_index":179,"plugin_version":"2.1.0","time_elapsed":268907,"subject_id":"92287","group":"Group2","condition":"1_Rep","full_date":"2026-01-27T13:35:02.431Z","date":"2026-01-27","time":"13:35:02","cor_ans":false},{"trial_type":"html-keyboard-response","rt":null,"stimulus":"<p style=\"color: red; font-size: 50px; font-weight: bold;\">Incorrect</p>","response":null,"trial_index":180,"plugin_version":"2.1.0","time_elapsed":269409,"subject_id":"92287","group":"Group2","condition":"1_Rep","full_date":"2026-01-27T13:35:02.431Z","date":"2026-01-27","time":"13:35:02"},{"correct_response":"l","task":"test_phase","broad_category":"I","image_png":"I_Basalt_13.png","image_id":29,"category_name":"Basalt","category":2,"distinct_rating":2.68,"distinct_type":"Bottom","item_type":"Target","rt":499,"stimulus":"Stimuli_Rocks480/I_Basalt_13.png","response":"a","trial_type":"image-keyboard-response","trial_index":181,"plugin_version":"2.1.0","time_elapsed":269911,"subject_id":"92287","group":"Group2","condition":"1_Rep","full_date":"2026-01-27T13:35:02.431Z","date":"2026-01-27","time":"13:35:02","cor_ans":false},{"trial_type":"html-keyboard-response","rt":null,"stimulus":"<p style=\"color: red; font-size: 50px; font-weight: bold;\">Incorrect</p>","response":null,"trial_index":182,"plugin_version":"2.1.0","time_elapsed":270413,"subject_id":"92287","group":"Group2","condition":"1_Rep","full_date":"2026-01-27T13:35:02.431Z","date":"2026-01-27","time":"13:35:02"},{"correct_response":"l","task":"test_phase","broad_category":"M","image_png":"M_Gneiss_14.png","image_id":206,"category_name":"Gneiss","category":13,"distinct_rating":3.41,"distinct_type":"Bottom","item_type":"Target","rt":680,"stimulus":"Stimuli_Rocks480/M_Gneiss_14.png","response":"l","trial_type":"image-keyboard-response","trial_index":183,"plugin_version":"2.1.0","time_elapsed":271096,"subject_id":"92287","group":"Group2","condition":"1_Rep","full_date":"2026-01-27T13:35:02.431Z","date":"2026-01-27","time":"13:35:02","cor_ans":true},{"trial_type":"html-keyboard-response","rt":null,"stimulus":"<p style=\"color: green; font-size: 50px; font-weight: bold;\">Correct</p>","response":null,"trial_index":184,"plugin_version":"2.1.0","time_elapsed":271598,"subject_id":"92287","group":"Group2","condition":"1_Rep","full_date":"2026-01-27T13:35:02.431Z","date":"2026-01-27","time":"13:35:02"},{"correct_response":"l","task":"test_phase","broad_category":"I","image_png":"I_Pegmatite_11.png","image_id":107,"category_name":"Pegmatite","category":7,"distinct_rating":7.11,"distinct_type":"Top","item_type":"Target","rt":1340,"stimulus":"Stimuli_Rocks480/I_Pegmatite_11.png","response":"l","trial_type":"image-keyboard-response","trial_index":185,"plugin_version":"2.1.0","time_elapsed":272941,"subject_id":"92287","group":"Group2","condition":"1_Rep","full_date":"2026-01-27T13:35:02.431Z","date":"2026-01-27","time":"13:35:02","cor_ans":true},{"trial_type":"html-keyboard-response","rt":null,"stimulus":"<p style=\"color: green; font-size: 50px; font-weight: bold;\">Correct</p>","response":null,"trial_index":186,"plugin_version":"2.1.0","time_elapsed":273443,"subject_id":"92287","group":"Group2","condition":"1_Rep","full_date":"2026-01-27T13:35:02.431Z","date":"2026-01-27","time":"13:35:02"},{"correct_response":"a","task":"test_phase","broad_category":"S","image_png":"S_Shale_01.png","image_id":465,"category_name":"Shale","category":30,"distinct_rating":2.7,"distinct_type":"Bottom","item_type":"Foil","rt":1015,"stimulus":"Stimuli_Rocks480/S_Shale_01.png","response":"l","trial_type":"image-keyboard-response","trial_index":187,"plugin_version":"2.1.0","time_elapsed":274461,"subject_id":"92287","group":"Group2","condition":"1_Rep","full_date":"2026-01-27T13:35:02.431Z","date":"2026-01-27","time":"13:35:02","cor_ans":false},{"trial_type":"html-keyboard-response","rt":null,"stimulus":"<p style=\"color: red; font-size: 50px; font-weight: bold;\">Incorrect</p>","response":null,"trial_index":188,"plugin_version":"2.1.0","time_elapsed":274962,"subject_id":"92287","group":"Group2","condition":"1_Rep","full_date":"2026-01-27T13:35:02.431Z","date":"2026-01-27","time":"13:35:02"},{"correct_response":"a","task":"test_phase","broad_category":"I","image_png":"I_Basalt_01.png","image_id":17,"category_name":"Basalt","category":2,"distinct_rating":1.92,"distinct_type":"Bottom","item_type":"Foil","rt":1038,"stimulus":"Stimuli_Rocks480/I_Basalt_01.png","response":"l","trial_type":"image-keyboard-response","trial_index":189,"plugin_version":"2.1.0","time_elapsed":276003,"subject_id":"92287","group":"Group2","condition":"1_Rep","full_date":"2026-01-27T13:35:02.431Z","date":"2026-01-27","time":"13:35:02","cor_ans":false},{"trial_type":"html-keyboard-response","rt":null,"stimulus":"<p style=\"color: red; font-size: 50px; font-weight: bold;\">Incorrect</p>","response":null,"trial_index":190,"plugin_version":"2.1.0","time_elapsed":276506,"subject_id":"92287","group":"Group2","condition":"1_Rep","full_date":"2026-01-27T13:35:02.431Z","date":"2026-01-27","time":"13:35:02"},{"correct_response":"l","task":"test_phase","broad_category":"I","image_png":"I_Rhyolite_10.png","image_id":154,"category_name":"Rhyolite","category":10,"distinct_rating":2.88,"distinct_type":"Bottom","item_type":"Target","rt":1328,"stimulus":"Stimuli_Rocks480/I_Rhyolite_10.png","response":"l","trial_type":"image-keyboard-response","trial_index":191,"plugin_version":"2.1.0","time_elapsed":277837,"subject_id":"92287","group":"Group2","condition":"1_Rep","full_date":"2026-01-27T13:35:02.431Z","date":"2026-01-27","time":"13:35:02","cor_ans":true},{"trial_type":"html-keyboard-response","rt":null,"stimulus":"<p style=\"color: green; font-size: 50px; font-weight: bold;\">Correct</p>","response":null,"trial_index":192,"plugin_version":"2.1.0","time_elapsed":278339,"subject_id":"92287","group":"Group2","condition":"1_Rep","full_date":"2026-01-27T13:35:02.431Z","date":"2026-01-27","time":"13:35:02"},{"correct_response":"l","task":"test_phase","broad_category":"M","image_png":"M_Phyllite_05.png","image_id":261,"category_name":"Phyllite","category":17,"distinct_rating":2.14,"distinct_type":"Bottom","item_type":"Target","rt":1827,"stimulus":"Stimuli_Rocks480/M_Phyllite_05.png","response":"l","trial_type":"image-keyboard-response","trial_index":193,"plugin_version":"2.1.0","time_elapsed":280168,"subject_id":"92287","group":"Group2","condition":"1_Rep","full_date":"2026-01-27T13:35:02.431Z","date":"2026-01-27","time":"13:35:02","cor_ans":true},{"trial_type":"html-keyboard-response","rt":null,"stimulus":"<p style=\"color: green; font-size: 50px; font-weight: bold;\">Correct</p>","response":null,"trial_index":194,"plugin_version":"2.1.0","time_elapsed":280670,"subject_id":"92287","group":"Group2","condition":"1_Rep","full_date":"2026-01-27T13:35:02.431Z","date":"2026-01-27","time":"13:35:02"},{"correct_response":"a","task":"test_phase","broad_category":"M","image_png":"M_Quartzite_08.png","image_id":280,"category_name":"Quartzite","category":18,"distinct_rating":2.15,"distinct_type":"Bottom","item_type":"Foil","rt":1438,"stimulus":"Stimuli_Rocks480/M_Quartzite_08.png","response":"l","trial_type":"image-keyboard-response","trial_index":195,"plugin_version":"2.1.0","time_elapsed":282111,"subject_id":"92287","group":"Group2","condition":"1_Rep","full_date":"2026-01-27T13:35:02.431Z","date":"2026-01-27","time":"13:35:02","cor_ans":false},{"trial_type":"html-keyboard-response","rt":null,"stimulus":"<p style=\"color: red; font-size: 50px; font-weight: bold;\">Incorrect</p>","response":null,"trial_index":196,"plugin_version":"2.1.0","time_elapsed":282613,"subject_id":"92287","group":"Group2","condition":"1_Rep","full_date":"2026-01-27T13:35:02.431Z","date":"2026-01-27","time":"13:35:02"},{"correct_response":"l","task":"test_phase","broad_category":"S","image_png":"S_Shale_02.png","image_id":466,"category_name":"Shale","category":30,"distinct_rating":2.9,"distinct_type":"Bottom","item_type":"Target","rt":677,"stimulus":"Stimuli_Rocks480/S_Shale_02.png","response":"a","trial_type":"image-keyboard-response","trial_index":197,"plugin_version":"2.1.0","time_elapsed":283292,"subject_id":"92287","group":"Group2","condition":"1_Rep","full_date":"2026-01-27T13:35:02.431Z","date":"2026-01-27","time":"13:35:02","cor_ans":false},{"trial_type":"html-keyboard-response","rt":null,"stimulus":"<p style=\"color: red; font-size: 50px; font-weight: bold;\">Incorrect</p>","response":null,"trial_index":198,"plugin_version":"2.1.0","time_elapsed":283795,"subject_id":"92287","group":"Group2","condition":"1_Rep","full_date":"2026-01-27T13:35:02.431Z","date":"2026-01-27","time":"13:35:02"},{"correct_response":"a","task":"test_phase","broad_category":"S","image_png":"S_Sandstone_15.png","image_id":463,"category_name":"Sandstone","category":29,"distinct_rating":2,"distinct_type":"Bottom","item_type":"Foil","rt":1081,"stimulus":"Stimuli_Rocks480/S_Sandstone_15.png","response":"l","trial_type":"image-keyboard-response","trial_index":199,"plugin_version":"2.1.0","time_elapsed":284878,"subject_id":"92287","group":"Group2","condition":"1_Rep","full_date":"2026-01-27T13:35:02.431Z","date":"2026-01-27","time":"13:35:02","cor_ans":false},{"trial_type":"html-keyboard-response","rt":null,"stimulus":"<p style=\"color: red; font-size: 50px; font-weight: bold;\">Incorrect</p>","response":null,"trial_index":200,"plugin_version":"2.1.0","time_elapsed":285380,"subject_id":"92287","group":"Group2","condition":"1_Rep","full_date":"2026-01-27T13:35:02.431Z","date":"2026-01-27","time":"13:35:02"},{"correct_response":"a","task":"test_phase","broad_category":"S","image_png":"S_Breccia_11.png","image_id":347,"category_name":"Breccia","category":22,"distinct_rating":6.7,"distinct_type":"Top","item_type":"Foil","rt":836,"stimulus":"Stimuli_Rocks480/S_Breccia_11.png","response":"a","trial_type":"image-keyboard-response","trial_index":201,"plugin_version":"2.1.0","time_elapsed":286219,"subject_id":"92287","group":"Group2","condition":"1_Rep","full_date":"2026-01-27T13:35:02.431Z","date":"2026-01-27","time":"13:35:02","cor_ans":true},{"trial_type":"html-keyboard-response","rt":null,"stimulus":"<p style=\"color: green; font-size: 50px; font-weight: bold;\">Correct</p>","response":null,"trial_index":202,"plugin_version":"2.1.0","time_elapsed":286721,"subject_id":"92287","group":"Group2","condition":"1_Rep","full_date":"2026-01-27T13:35:02.431Z","date":"2026-01-27","time":"13:35:02"},{"correct_response":"a","task":"test_phase","broad_category":"I","image_png":"I_Diorite_04.png","image_id":36,"category_name":"Diorite","category":3,"distinct_rating":2.98,"distinct_type":"Bottom","item_type":"Foil","rt":1173,"stimulus":"Stimuli_Rocks480/I_Diorite_04.png","response":"l","trial_type":"image-keyboard-response","trial_index":203,"plugin_version":"2.1.0","time_elapsed":287897,"subject_id":"92287","group":"Group2","condition":"1_Rep","full_date":"2026-01-27T13:35:02.431Z","date":"2026-01-27","time":"13:35:02","cor_ans":false},{"trial_type":"html-keyboard-response","rt":null,"stimulus":"<p style=\"color: red; font-size: 50px; font-weight: bold;\">Incorrect</p>","response":null,"trial_index":204,"plugin_version":"2.1.0","time_elapsed":288399,"subject_id":"92287","group":"Group2","condition":"1_Rep","full_date":"2026-01-27T13:35:02.431Z","date":"2026-01-27","time":"13:35:02"},{"correct_response":"a","task":"test_phase","broad_category":"M","image_png":"M_Gneiss_13.png","image_id":205,"category_name":"Gneiss","category":13,"distinct_rating":3.26,"distinct_type":"Bottom","item_type":"Foil","rt":755,"stimulus":"Stimuli_Rocks480/M_Gneiss_13.png","response":"a","trial_type":"image-keyboard-response","trial_index":205,"plugin_version":"2.1.0","time_elapsed":289157,"subject_id":"92287","group":"Group2","condition":"1_Rep","full_date":"2026-01-27T13:35:02.431Z","date":"2026-01-27","time":"13:35:02","cor_ans":true},{"trial_type":"html-keyboard-response","rt":null,"stimulus":"<p style=\"color: green; font-size: 50px; font-weight: bold;\">Correct</p>","response":null,"trial_index":206,"plugin_version":"2.1.0","time_elapsed":289659,"subject_id":"92287","group":"Group2","condition":"1_Rep","full_date":"2026-01-27T13:35:02.431Z","date":"2026-01-27","time":"13:35:02"},{"correct_response":"l","task":"test_phase","broad_category":"I","image_png":"I_Rhyolite_05.png","image_id":149,"category_name":"Rhyolite","category":10,"distinct_rating":3.02,"distinct_type":"Bottom","item_type":"Target","rt":998,"stimulus":"Stimuli_Rocks480/I_Rhyolite_05.png","response":"a","trial_type":"image-keyboard-response","trial_index":207,"plugin_version":"2.1.0","time_elapsed":290660,"subject_id":"92287","group":"Group2","condition":"1_Rep","full_date":"2026-01-27T13:35:02.431Z","date":"2026-01-27","time":"13:35:02","cor_ans":false},{"trial_type":"html-keyboard-response","rt":null,"stimulus":"<p style=\"color: red; font-size: 50px; font-weight: bold;\">Incorrect</p>","response":null,"trial_index":208,"plugin_version":"2.1.0","time_elapsed":291162,"subject_id":"92287","group":"Group2","condition":"1_Rep","full_date":"2026-01-27T13:35:02.431Z","date":"2026-01-27","time":"13:35:02"},{"correct_response":"a","task":"test_phase","broad_category":"S","image_png":"S_Sandstone_03.png","image_id":451,"category_name":"Sandstone","category":29,"distinct_rating":1.86,"distinct_type":"Bottom","item_type":"Foil","rt":781,"stimulus":"Stimuli_Rocks480/S_Sandstone_03.png","response":"a","trial_type":"image-keyboard-response","trial_index":209,"plugin_version":"2.1.0","time_elapsed":291946,"subject_id":"92287","group":"Group2","condition":"1_Rep","full_date":"2026-01-27T13:35:02.431Z","date":"2026-01-27","time":"13:35:02","cor_ans":true},{"trial_type":"html-keyboard-response","rt":null,"stimulus":"<p style=\"color: green; font-size: 50px; font-weight: bold;\">Correct</p>","response":null,"trial_index":210,"plugin_version":"2.1.0","time_elapsed":292448,"subject_id":"92287","group":"Group2","condition":"1_Rep","full_date":"2026-01-27T13:35:02.431Z","date":"2026-01-27","time":"13:35:02"},{"correct_response":"a","task":"test_phase","broad_category":"M","image_png":"M_Phyllite_10.png","image_id":266,"category_name":"Phyllite","category":17,"distinct_rating":2.6,"distinct_type":"Bottom","item_type":"Foil","rt":1841,"stimulus":"Stimuli_Rocks480/M_Phyllite_10.png","response":"l","trial_type":"image-keyboard-response","trial_index":211,"plugin_version":"2.1.0","time_elapsed":294291,"subject_id":"92287","group":"Group2","condition":"1_Rep","full_date":"2026-01-27T13:35:02.431Z","date":"2026-01-27","time":"13:35:02","cor_ans":false},{"trial_type":"html-keyboard-response","rt":null,"stimulus":"<p style=\"color: red; font-size: 50px; font-weight: bold;\">Incorrect</p>","response":null,"trial_index":212,"plugin_version":"2.1.0","time_elapsed":294794,"subject_id":"92287","group":"Group2","condition":"1_Rep","full_date":"2026-01-27T13:35:02.431Z","date":"2026-01-27","time":"13:35:02"},{"correct_response":"l","task":"test_phase","broad_category":"I","image_png":"I_Diorite_01.png","image_id":33,"category_name":"Diorite","category":3,"distinct_rating":2.97,"distinct_type":"Bottom","item_type":"Target","rt":1002,"stimulus":"Stimuli_Rocks480/I_Diorite_01.png","response":"l","trial_type":"image-keyboard-response","trial_index":213,"plugin_version":"2.1.0","time_elapsed":295798,"subject_id":"92287","group":"Group2","condition":"1_Rep","full_date":"2026-01-27T13:35:02.431Z","date":"2026-01-27","time":"13:35:02","cor_ans":true},{"trial_type":"html-keyboard-response","rt":null,"stimulus":"<p style=\"color: green; font-size: 50px; font-weight: bold;\">Correct</p>","response":null,"trial_index":214,"plugin_version":"2.1.0","time_elapsed":296300,"subject_id":"92287","group":"Group2","condition":"1_Rep","full_date":"2026-01-27T13:35:02.431Z","date":"2026-01-27","time":"13:35:02"},{"correct_response":"l","task":"test_phase","broad_category":"M","image_png":"M_Marble_03.png","image_id":227,"category_name":"Marble","category":15,"distinct_rating":2.67,"distinct_type":"Bottom","item_type":"Target","rt":933,"stimulus":"Stimuli_Rocks480/M_Marble_03.png","response":"a","trial_type":"image-keyboard-response","trial_index":215,"plugin_version":"2.1.0","time_elapsed":297236,"subject_id":"92287","group":"Group2","condition":"1_Rep","full_date":"2026-01-27T13:35:02.431Z","date":"2026-01-27","time":"13:35:02","cor_ans":false},{"trial_type":"html-keyboard-response","rt":null,"stimulus":"<p style=\"color: red; font-size: 50px; font-weight: bold;\">Incorrect</p>","response":null,"trial_index":216,"plugin_version":"2.1.0","time_elapsed":297738,"subject_id":"92287","group":"Group2","condition":"1_Rep","full_date":"2026-01-27T13:35:02.431Z","date":"2026-01-27","time":"13:35:02"},{"correct_response":"l","task":"test_phase","broad_category":"I","image_png":"I_Diorite_10.png","image_id":42,"category_name":"Diorite","category":3,"distinct_rating":2.84,"distinct_type":"Bottom","item_type":"Target","rt":801,"stimulus":"Stimuli_Rocks480/I_Diorite_10.png","response":"l","trial_type":"image-keyboard-response","trial_index":217,"plugin_version":"2.1.0","time_elapsed":298541,"subject_id":"92287","group":"Group2","condition":"1_Rep","full_date":"2026-01-27T13:35:02.431Z","date":"2026-01-27","time":"13:35:02","cor_ans":true},{"trial_type":"html-keyboard-response","rt":null,"stimulus":"<p style=\"color: green; font-size: 50px; font-weight: bold;\">Correct</p>","response":null,"trial_index":218,"plugin_version":"2.1.0","time_elapsed":299044,"subject_id":"92287","group":"Group2","condition":"1_Rep","full_date":"2026-01-27T13:35:02.431Z","date":"2026-01-27","time":"13:35:02"},{"correct_response":"l","task":"test_phase","broad_category":"I","image_png":"I_Gabbro_14.png","image_id":62,"category_name":"Gabbro","category":4,"distinct_rating":2.95,"distinct_type":"Bottom","item_type":"Target","rt":640,"stimulus":"Stimuli_Rocks480/I_Gabbro_14.png","response":"l","trial_type":"image-keyboard-response","trial_index":219,"plugin_version":"2.1.0","time_elapsed":299686,"subject_id":"92287","group":"Group2","condition":"1_Rep","full_date":"2026-01-27T13:35:02.431Z","date":"2026-01-27","time":"13:35:02","cor_ans":true},{"trial_type":"html-keyboard-response","rt":null,"stimulus":"<p style=\"color: green; font-size: 50px; font-weight: bold;\">Correct</p>","response":null,"trial_index":220,"plugin_version":"2.1.0","time_elapsed":300188,"subject_id":"92287","group":"Group2","condition":"1_Rep","full_date":"2026-01-27T13:35:02.431Z","date":"2026-01-27","time":"13:35:02"},{"correct_response":"l","task":"test_phase","broad_category":"S","image_png":"S_Shale_07.png","image_id":471,"category_name":"Shale","category":30,"distinct_rating":2.73,"distinct_type":"Bottom","item_type":"Target","rt":720,"stimulus":"Stimuli_Rocks480/S_Shale_07.png","response":"l","trial_type":"image-keyboard-response","trial_index":221,"plugin_version":"2.1.0","time_elapsed":300911,"subject_id":"92287","group":"Group2","condition":"1_Rep","full_date":"2026-01-27T13:35:02.431Z","date":"2026-01-27","time":"13:35:02","cor_ans":true},{"trial_type":"html-keyboard-response","rt":null,"stimulus":"<p style=\"color: green; font-size: 50px; font-weight: bold;\">Correct</p>","response":null,"trial_index":222,"plugin_version":"2.1.0","time_elapsed":301413,"subject_id":"92287","group":"Group2","condition":"1_Rep","full_date":"2026-01-27T13:35:02.431Z","date":"2026-01-27","time":"13:35:02"},{"correct_response":"a","task":"test_phase","broad_category":"I","image_png":"I_Pegmatite_10.png","image_id":106,"category_name":"Pegmatite","category":7,"distinct_rating":7.66,"distinct_type":"Top","item_type":"Foil","rt":1705,"stimulus":"Stimuli_Rocks480/I_Pegmatite_10.png","response":"a","trial_type":"image-keyboard-response","trial_index":223,"plugin_version":"2.1.0","time_elapsed":303120,"subject_id":"92287","group":"Group2","condition":"1_Rep","full_date":"2026-01-27T13:35:02.431Z","date":"2026-01-27","time":"13:35:02","cor_ans":true},{"trial_type":"html-keyboard-response","rt":null,"stimulus":"<p style=\"color: green; font-size: 50px; font-weight: bold;\">Correct</p>","response":null,"trial_index":224,"plugin_version":"2.1.0","time_elapsed":303622,"subject_id":"92287","group":"Group2","condition":"1_Rep","full_date":"2026-01-27T13:35:02.431Z","date":"2026-01-27","time":"13:35:02"},{"correct_response":"a","task":"test_phase","broad_category":"I","image_png":"I_Ande