[{"width":1878,"height":923,"webaudio":true,"browser":"opera","browser_version":"127.0.0","mobile":false,"os":"Windows 10","fullscreen":true,"vsync_rate":168.35,"webcam":false,"microphone":true,"trial_type":"browser-check","trial_index":0,"plugin_version":"2.1.0","time_elapsed":424,"subject_id":"92602","group":"Group2","condition":"1_Rep","full_date":"2026-03-06T20:38:55.870Z","date":"2026-03-06","time":"20:38:55"},{"success":true,"timeout":false,"failed_images":[],"failed_audio":[],"failed_video":[],"trial_type":"preload","trial_index":1,"plugin_version":"2.1.0","time_elapsed":1254,"subject_id":"92602","group":"Group2","condition":"1_Rep","full_date":"2026-03-06T20:38:55.870Z","date":"2026-03-06","time":"20:38:55"},{"rt":6874,"url":"SONA_consent_memorability.html","trial_type":"external-html","trial_index":2,"plugin_version":"2.1.0","time_elapsed":8176,"subject_id":"92602","group":"Group2","condition":"1_Rep","full_date":"2026-03-06T20:38:55.870Z","date":"2026-03-06","time":"20:38:55"},{"success":true,"rt":3439,"trial_type":"fullscreen","trial_index":3,"plugin_version":"2.1.0","time_elapsed":12626,"subject_id":"92602","group":"Group2","condition":"1_Rep","full_date":"2026-03-06T20:38:55.870Z","date":"2026-03-06","time":"20:38:55"},{"rt":22966,"stimulus":"<div style=\"max-width: 760px; margin: auto; font-size: 20px; line-height: 1.5;\">\n      <h1 style=\"text-align:center; font-size: 30px;\">Instructions</h1>\n      <p>\n        Welcome to the study on <b>visual memory</b>. This experiment consists of <b>two phases</b>: \n        a <b>study phase</b> and a <b>test phase</b>.\n      </p>\n      <p>\n        In the study phase, you will see a series of rock images along with their category labels.\n        The images will appear one at a time.\n        <b>Your task</b> is to learn the categories to which the rock images belong \n        and to remember each image as accurately as possible.\n      </p> \n      <p>\n        Note that you will see each image only <b>once</b> during the study phase. \n          So, please pay close attention and try to remember each image carefully.\n      </p>\n      <p>\n        After the study phase, <b>your memory will be tested</b>. \n        Additional instructions for the test phase will be provided at that time.\n      </p>\n      <p>\n        If your computer has multiple <b>language settings</b> (e.g., English and another language),\n        please make sure it is set to English before starting.\n      </p>\n      <p>\n        You can track your progress using the <b>completion bar</b> at the top of the screen. \n        Please note that the bar will refresh when the test phase begins \n        to give you an accurate sense of your progress in both phases.\n      </p> \n      <p>\n        Press the button below when you are ready to begin.\n      </p>\n    </div>","response":0,"trial_type":"html-button-response","trial_index":4,"plugin_version":"2.1.0","time_elapsed":35594,"subject_id":"92602","group":"Group2","condition":"1_Rep","full_date":"2026-03-06T20:38:55.870Z","date":"2026-03-06","time":"20:38:55"},{"rt":null,"stimulus":"<p style=\"font-size: 50px; margin: 0; text-align: center;\">+</p>","response":null,"trial_type":"html-keyboard-response","trial_index":5,"plugin_version":"2.1.0","time_elapsed":36600,"subject_id":"92602","group":"Group2","condition":"1_Rep","full_date":"2026-03-06T20:38:55.870Z","date":"2026-03-06","time":"20:38:55"},{"task":"memory_phase","broad_category":"S","image_png":"S_Sandstone_04.png","image_id":452,"category_name":"Sandstone","category":29,"distinct_rating":1.8,"distinct_type":"Bottom","rt":null,"stimulus":"Stimuli_Rocks480/S_Sandstone_04.png","response":null,"trial_type":"image-keyboard-response","trial_index":6,"plugin_version":"2.1.0","time_elapsed":39105,"subject_id":"92602","group":"Group2","condition":"1_Rep","full_date":"2026-03-06T20:38:55.870Z","date":"2026-03-06","time":"20:38:55"},{"rt":null,"stimulus":"<p style=\"font-size: 50px; margin: 0; text-align: center;\">+</p>","response":null,"trial_type":"html-keyboard-response","trial_index":7,"plugin_version":"2.1.0","time_elapsed":40112,"subject_id":"92602","group":"Group2","condition":"1_Rep","full_date":"2026-03-06T20:38:55.870Z","date":"2026-03-06","time":"20:38:55"},{"task":"memory_phase","broad_category":"I","image_png":"I_Basalt_13.png","image_id":29,"category_name":"Basalt","category":2,"distinct_rating":2.68,"distinct_type":"Bottom","rt":null,"stimulus":"Stimuli_Rocks480/I_Basalt_13.png","response":null,"trial_type":"image-keyboard-response","trial_index":8,"plugin_version":"2.1.0","time_elapsed":42621,"subject_id":"92602","group":"Group2","condition":"1_Rep","full_date":"2026-03-06T20:38:55.870Z","date":"2026-03-06","time":"20:38:55"},{"rt":null,"stimulus":"<p style=\"font-size: 50px; margin: 0; text-align: center;\">+</p>","response":null,"trial_type":"html-keyboard-response","trial_index":9,"plugin_version":"2.1.0","time_elapsed":43637,"subject_id":"92602","group":"Group2","condition":"1_Rep","full_date":"2026-03-06T20:38:55.870Z","date":"2026-03-06","time":"20:38:55"},{"task":"memory_phase","broad_category":"I","image_png":"I_Pumice_01.png","image_id":129,"category_name":"Pumice","category":9,"distinct_rating":3.25,"distinct_type":"Bottom","rt":null,"stimulus":"Stimuli_Rocks480/I_Pumice_01.png","response":null,"trial_type":"image-keyboard-response","trial_index":10,"plugin_version":"2.1.0","time_elapsed":46143,"subject_id":"92602","group":"Group2","condition":"1_Rep","full_date":"2026-03-06T20:38:55.870Z","date":"2026-03-06","time":"20:38:55"},{"rt":null,"stimulus":"<p style=\"font-size: 50px; margin: 0; text-align: center;\">+</p>","response":null,"trial_type":"html-keyboard-response","trial_index":11,"plugin_version":"2.1.0","time_elapsed":47156,"subject_id":"92602","group":"Group2","condition":"1_Rep","full_date":"2026-03-06T20:38:55.870Z","date":"2026-03-06","time":"20:38:55"},{"task":"memory_phase","broad_category":"I","image_png":"I_Rhyolite_05.png","image_id":149,"category_name":"Rhyolite","category":10,"distinct_rating":3.02,"distinct_type":"Bottom","rt":null,"stimulus":"Stimuli_Rocks480/I_Rhyolite_05.png","response":null,"trial_type":"image-keyboard-response","trial_index":12,"plugin_version":"2.1.0","time_elapsed":49663,"subject_id":"92602","group":"Group2","condition":"1_Rep","full_date":"2026-03-06T20:38:55.870Z","date":"2026-03-06","time":"20:38:55"},{"rt":null,"stimulus":"<p style=\"font-size: 50px; margin: 0; text-align: center;\">+</p>","response":null,"trial_type":"html-keyboard-response","trial_index":13,"plugin_version":"2.1.0","time_elapsed":50671,"subject_id":"92602","group":"Group2","condition":"1_Rep","full_date":"2026-03-06T20:38:55.870Z","date":"2026-03-06","time":"20:38:55"},{"task":"memory_phase","broad_category":"S","image_png":"S_Chert_13.png","image_id":365,"category_name":"Chert","category":23,"distinct_rating":6.57,"distinct_type":"Top","rt":null,"stimulus":"Stimuli_Rocks480/S_Chert_13.png","response":null,"trial_type":"image-keyboard-response","trial_index":14,"plugin_version":"2.1.0","time_elapsed":53176,"subject_id":"92602","group":"Group2","condition":"1_Rep","full_date":"2026-03-06T20:38:55.870Z","date":"2026-03-06","time":"20:38:55"},{"rt":null,"stimulus":"<p style=\"font-size: 50px; margin: 0; text-align: center;\">+</p>","response":null,"trial_type":"html-keyboard-response","trial_index":15,"plugin_version":"2.1.0","time_elapsed":54179,"subject_id":"92602","group":"Group2","condition":"1_Rep","full_date":"2026-03-06T20:38:55.870Z","date":"2026-03-06","time":"20:38:55"},{"task":"memory_phase","broad_category":"I","image_png":"I_Gabbro_02.png","image_id":50,"category_name":"Gabbro","category":4,"distinct_rating":2.73,"distinct_type":"Bottom","rt":null,"stimulus":"Stimuli_Rocks480/I_Gabbro_02.png","response":null,"trial_type":"image-keyboard-response","trial_index":16,"plugin_version":"2.1.0","time_elapsed":56689,"subject_id":"92602","group":"Group2","condition":"1_Rep","full_date":"2026-03-06T20:38:55.870Z","date":"2026-03-06","time":"20:38:55"},{"rt":null,"stimulus":"<p style=\"font-size: 50px; margin: 0; text-align: center;\">+</p>","response":null,"trial_type":"html-keyboard-response","trial_index":17,"plugin_version":"2.1.0","time_elapsed":57701,"subject_id":"92602","group":"Group2","condition":"1_Rep","full_date":"2026-03-06T20:38:55.870Z","date":"2026-03-06","time":"20:38:55"},{"task":"memory_phase","broad_category":"I","image_png":"I_Pumice_13.png","image_id":141,"category_name":"Pumice","category":9,"distinct_rating":3.12,"distinct_type":"Bottom","rt":null,"stimulus":"Stimuli_Rocks480/I_Pumice_13.png","response":null,"trial_type":"image-keyboard-response","trial_index":18,"plugin_version":"2.1.0","time_elapsed":60200,"subject_id":"92602","group":"Group2","condition":"1_Rep","full_date":"2026-03-06T20:38:55.870Z","date":"2026-03-06","time":"20:38:55"},{"rt":null,"stimulus":"<p style=\"font-size: 50px; margin: 0; text-align: center;\">+</p>","response":null,"trial_type":"html-keyboard-response","trial_index":19,"plugin_version":"2.1.0","time_elapsed":61213,"subject_id":"92602","group":"Group2","condition":"1_Rep","full_date":"2026-03-06T20:38:55.870Z","date":"2026-03-06","time":"20:38:55"},{"task":"memory_phase","broad_category":"M","image_png":"M_Phyllite_05.png","image_id":261,"category_name":"Phyllite","category":17,"distinct_rating":2.14,"distinct_type":"Bottom","rt":null,"stimulus":"Stimuli_Rocks480/M_Phyllite_05.png","response":null,"trial_type":"image-keyboard-response","trial_index":20,"plugin_version":"2.1.0","time_elapsed":63727,"subject_id":"92602","group":"Group2","condition":"1_Rep","full_date":"2026-03-06T20:38:55.870Z","date":"2026-03-06","time":"20:38:55"},{"rt":null,"stimulus":"<p style=\"font-size: 50px; margin: 0; text-align: center;\">+</p>","response":null,"trial_type":"html-keyboard-response","trial_index":21,"plugin_version":"2.1.0","time_elapsed":64741,"subject_id":"92602","group":"Group2","condition":"1_Rep","full_date":"2026-03-06T20:38:55.870Z","date":"2026-03-06","time":"20:38:55"},{"task":"memory_phase","broad_category":"M","image_png":"M_Phyllite_13.png","image_id":269,"category_name":"Phyllite","category":17,"distinct_rating":2.8,"distinct_type":"Bottom","rt":null,"stimulus":"Stimuli_Rocks480/M_Phyllite_13.png","response":null,"trial_type":"image-keyboard-response","trial_index":22,"plugin_version":"2.1.0","time_elapsed":67242,"subject_id":"92602","group":"Group2","condition":"1_Rep","full_date":"2026-03-06T20:38:55.870Z","date":"2026-03-06","time":"20:38:55"},{"rt":null,"stimulus":"<p style=\"font-size: 50px; margin: 0; text-align: center;\">+</p>","response":null,"trial_type":"html-keyboard-response","trial_index":23,"plugin_version":"2.1.0","time_elapsed":68256,"subject_id":"92602","group":"Group2","condition":"1_Rep","full_date":"2026-03-06T20:38:55.870Z","date":"2026-03-06","time":"20:38:55"},{"task":"memory_phase","broad_category":"S","image_png":"S_Sandstone_08.png","image_id":456,"category_name":"Sandstone","category":29,"distinct_rating":1.5,"distinct_type":"Bottom","rt":null,"stimulus":"Stimuli_Rocks480/S_Sandstone_08.png","response":null,"trial_type":"image-keyboard-response","trial_index":24,"plugin_version":"2.1.0","time_elapsed":70767,"subject_id":"92602","group":"Group2","condition":"1_Rep","full_date":"2026-03-06T20:38:55.870Z","date":"2026-03-06","time":"20:38:55"},{"rt":null,"stimulus":"<p style=\"font-size: 50px; margin: 0; text-align: center;\">+</p>","response":null,"trial_type":"html-keyboard-response","trial_index":25,"plugin_version":"2.1.0","time_elapsed":71776,"subject_id":"92602","group":"Group2","condition":"1_Rep","full_date":"2026-03-06T20:38:55.870Z","date":"2026-03-06","time":"20:38:55"},{"task":"memory_phase","broad_category":"M","image_png":"M_Slate_14.png","image_id":318,"category_name":"Slate","category":20,"distinct_rating":2.58,"distinct_type":"Bottom","rt":null,"stimulus":"Stimuli_Rocks480/M_Slate_14.png","response":null,"trial_type":"image-keyboard-response","trial_index":26,"plugin_version":"2.1.0","time_elapsed":74290,"subject_id":"92602","group":"Group2","condition":"1_Rep","full_date":"2026-03-06T20:38:55.870Z","date":"2026-03-06","time":"20:38:55"},{"rt":null,"stimulus":"<p style=\"font-size: 50px; margin: 0; text-align: center;\">+</p>","response":null,"trial_type":"html-keyboard-response","trial_index":27,"plugin_version":"2.1.0","time_elapsed":75298,"subject_id":"92602","group":"Group2","condition":"1_Rep","full_date":"2026-03-06T20:38:55.870Z","date":"2026-03-06","time":"20:38:55"},{"task":"memory_phase","broad_category":"I","image_png":"I_Andesite_09.png","image_id":9,"category_name":"Andesite","category":1,"distinct_rating":2.49,"distinct_type":"Bottom","rt":null,"stimulus":"Stimuli_Rocks480/I_Andesite_09.png","response":null,"trial_type":"image-keyboard-response","trial_index":28,"plugin_version":"2.1.0","time_elapsed":77802,"subject_id":"92602","group":"Group2","condition":"1_Rep","full_date":"2026-03-06T20:38:55.870Z","date":"2026-03-06","time":"20:38:55"},{"rt":null,"stimulus":"<p style=\"font-size: 50px; margin: 0; text-align: center;\">+</p>","response":null,"trial_type":"html-keyboard-response","trial_index":29,"plugin_version":"2.1.0","time_elapsed":78814,"subject_id":"92602","group":"Group2","condition":"1_Rep","full_date":"2026-03-06T20:38:55.870Z","date":"2026-03-06","time":"20:38:55"},{"task":"memory_phase","broad_category":"M","image_png":"M_Slate_04.png","image_id":308,"category_name":"Slate","category":20,"distinct_rating":2.2,"distinct_type":"Bottom","rt":null,"stimulus":"Stimuli_Rocks480/M_Slate_04.png","response":null,"trial_type":"image-keyboard-response","trial_index":30,"plugin_version":"2.1.0","time_elapsed":81322,"subject_id":"92602","group":"Group2","condition":"1_Rep","full_date":"2026-03-06T20:38:55.870Z","date":"2026-03-06","time":"20:38:55"},{"rt":null,"stimulus":"<p style=\"font-size: 50px; margin: 0; text-align: center;\">+</p>","response":null,"trial_type":"html-keyboard-response","trial_index":31,"plugin_version":"2.1.0","time_elapsed":82336,"subject_id":"92602","group":"Group2","condition":"1_Rep","full_date":"2026-03-06T20:38:55.870Z","date":"2026-03-06","time":"20:38:55"},{"task":"memory_phase","broad_category":"S","image_png":"S_Conglomerate_14.png","image_id":382,"category_name":"Conglomerate","category":24,"distinct_rating":6.86,"distinct_type":"Top","rt":null,"stimulus":"Stimuli_Rocks480/S_Conglomerate_14.png","response":null,"trial_type":"image-keyboard-response","trial_index":32,"plugin_version":"2.1.0","time_elapsed":84844,"subject_id":"92602","group":"Group2","condition":"1_Rep","full_date":"2026-03-06T20:38:55.870Z","date":"2026-03-06","time":"20:38:55"},{"rt":null,"stimulus":"<p style=\"font-size: 50px; margin: 0; text-align: center;\">+</p>","response":null,"trial_type":"html-keyboard-response","trial_index":33,"plugin_version":"2.1.0","time_elapsed":85857,"subject_id":"92602","group":"Group2","condition":"1_Rep","full_date":"2026-03-06T20:38:55.870Z","date":"2026-03-06","time":"20:38:55"},{"task":"memory_phase","broad_category":"M","image_png":"M_Gneiss_10.png","image_id":202,"category_name":"Gneiss","category":13,"distinct_rating":3.09,"distinct_type":"Bottom","rt":null,"stimulus":"Stimuli_Rocks480/M_Gneiss_10.png","response":null,"trial_type":"image-keyboard-response","trial_index":34,"plugin_version":"2.1.0","time_elapsed":88370,"subject_id":"92602","group":"Group2","condition":"1_Rep","full_date":"2026-03-06T20:38:55.870Z","date":"2026-03-06","time":"20:38:55"},{"rt":null,"stimulus":"<p style=\"font-size: 50px; margin: 0; text-align: center;\">+</p>","response":null,"trial_type":"html-keyboard-response","trial_index":35,"plugin_version":"2.1.0","time_elapsed":89384,"subject_id":"92602","group":"Group2","condition":"1_Rep","full_date":"2026-03-06T20:38:55.870Z","date":"2026-03-06","time":"20:38:55"},{"task":"memory_phase","broad_category":"S","image_png":"S_Shale_07.png","image_id":471,"category_name":"Shale","category":30,"distinct_rating":2.73,"distinct_type":"Bottom","rt":null,"stimulus":"Stimuli_Rocks480/S_Shale_07.png","response":null,"trial_type":"image-keyboard-response","trial_index":36,"plugin_version":"2.1.0","time_elapsed":91898,"subject_id":"92602","group":"Group2","condition":"1_Rep","full_date":"2026-03-06T20:38:55.870Z","date":"2026-03-06","time":"20:38:55"},{"rt":null,"stimulus":"<p style=\"font-size: 50px; margin: 0; text-align: center;\">+</p>","response":null,"trial_type":"html-keyboard-response","trial_index":37,"plugin_version":"2.1.0","time_elapsed":92912,"subject_id":"92602","group":"Group2","condition":"1_Rep","full_date":"2026-03-06T20:38:55.870Z","date":"2026-03-06","time":"20:38:55"},{"task":"memory_phase","broad_category":"M","image_png":"M_Quartzite_15.png","image_id":287,"category_name":"Quartzite","category":18,"distinct_rating":2.19,"distinct_type":"Bottom","rt":null,"stimulus":"Stimuli_Rocks480/M_Quartzite_15.png","response":null,"trial_type":"image-keyboard-response","trial_index":38,"plugin_version":"2.1.0","time_elapsed":95419,"subject_id":"92602","group":"Group2","condition":"1_Rep","full_date":"2026-03-06T20:38:55.870Z","date":"2026-03-06","time":"20:38:55"},{"rt":null,"stimulus":"<p style=\"font-size: 50px; margin: 0; text-align: center;\">+</p>","response":null,"trial_type":"html-keyboard-response","trial_index":39,"plugin_version":"2.1.0","time_elapsed":96427,"subject_id":"92602","group":"Group2","condition":"1_Rep","full_date":"2026-03-06T20:38:55.870Z","date":"2026-03-06","time":"20:38:55"},{"task":"memory_phase","broad_category":"I","image_png":"I_Pumice_14.png","image_id":142,"category_name":"Pumice","category":9,"distinct_rating":3.22,"distinct_type":"Bottom","rt":null,"stimulus":"Stimuli_Rocks480/I_Pumice_14.png","response":null,"trial_type":"image-keyboard-response","trial_index":40,"plugin_version":"2.1.0","time_elapsed":98936,"subject_id":"92602","group":"Group2","condition":"1_Rep","full_date":"2026-03-06T20:38:55.870Z","date":"2026-03-06","time":"20:38:55"},{"rt":null,"stimulus":"<p style=\"font-size: 50px; margin: 0; text-align: center;\">+</p>","response":null,"trial_type":"html-keyboard-response","trial_index":41,"plugin_version":"2.1.0","time_elapsed":99947,"subject_id":"92602","group":"Group2","condition":"1_Rep","full_date":"2026-03-06T20:38:55.870Z","date":"2026-03-06","time":"20:38:55"},{"task":"memory_phase","broad_category":"I","image_png":"I_Peridotite_13.png","image_id":125,"category_name":"Peridotite","category":8,"distinct_rating":7.28,"distinct_type":"Top","rt":null,"stimulus":"Stimuli_Rocks480/I_Peridotite_13.png","response":null,"trial_type":"image-keyboard-response","trial_index":42,"plugin_version":"2.1.0","time_elapsed":102449,"subject_id":"92602","group":"Group2","condition":"1_Rep","full_date":"2026-03-06T20:38:55.870Z","date":"2026-03-06","time":"20:38:55"},{"rt":null,"stimulus":"<p style=\"font-size: 50px; margin: 0; text-align: center;\">+</p>","response":null,"trial_type":"html-keyboard-response","trial_index":43,"plugin_version":"2.1.0","time_elapsed":103463,"subject_id":"92602","group":"Group2","condition":"1_Rep","full_date":"2026-03-06T20:38:55.870Z","date":"2026-03-06","time":"20:38:55"},{"task":"memory_phase","broad_category":"M","image_png":"M_Gneiss_14.png","image_id":206,"category_name":"Gneiss","category":13,"distinct_rating":3.41,"distinct_type":"Bottom","rt":null,"stimulus":"Stimuli_Rocks480/M_Gneiss_14.png","response":null,"trial_type":"image-keyboard-response","trial_index":44,"plugin_version":"2.1.0","time_elapsed":105979,"subject_id":"92602","group":"Group2","condition":"1_Rep","full_date":"2026-03-06T20:38:55.870Z","date":"2026-03-06","time":"20:38:55"},{"rt":null,"stimulus":"<p style=\"font-size: 50px; margin: 0; text-align: center;\">+</p>","response":null,"trial_type":"html-keyboard-response","trial_index":45,"plugin_version":"2.1.0","time_elapsed":106990,"subject_id":"92602","group":"Group2","condition":"1_Rep","full_date":"2026-03-06T20:38:55.870Z","date":"2026-03-06","time":"20:38:55"},{"task":"memory_phase","broad_category":"S","image_png":"S_Sandstone_11.png","image_id":459,"category_name":"Sandstone","category":29,"distinct_rating":1.82,"distinct_type":"Bottom","rt":null,"stimulus":"Stimuli_Rocks480/S_Sandstone_11.png","response":null,"trial_type":"image-keyboard-response","trial_index":46,"plugin_version":"2.1.0","time_elapsed":109506,"subject_id":"92602","group":"Group2","condition":"1_Rep","full_date":"2026-03-06T20:38:55.870Z","date":"2026-03-06","time":"20:38:55"},{"rt":null,"stimulus":"<p style=\"font-size: 50px; margin: 0; text-align: center;\">+</p>","response":null,"trial_type":"html-keyboard-response","trial_index":47,"plugin_version":"2.1.0","time_elapsed":110509,"subject_id":"92602","group":"Group2","condition":"1_Rep","full_date":"2026-03-06T20:38:55.870Z","date":"2026-03-06","time":"20:38:55"},{"task":"memory_phase","broad_category":"I","image_png":"I_Basalt_10.png","image_id":26,"category_name":"Basalt","category":2,"distinct_rating":2.76,"distinct_type":"Bottom","rt":null,"stimulus":"Stimuli_Rocks480/I_Basalt_10.png","response":null,"trial_type":"image-keyboard-response","trial_index":48,"plugin_version":"2.1.0","time_elapsed":113024,"subject_id":"92602","group":"Group2","condition":"1_Rep","full_date":"2026-03-06T20:38:55.870Z","date":"2026-03-06","time":"20:38:55"},{"rt":null,"stimulus":"<p style=\"font-size: 50px; margin: 0; text-align: center;\">+</p>","response":null,"trial_type":"html-keyboard-response","trial_index":49,"plugin_version":"2.1.0","time_elapsed":114040,"subject_id":"92602","group":"Group2","condition":"1_Rep","full_date":"2026-03-06T20:38:55.870Z","date":"2026-03-06","time":"20:38:55"},{"task":"memory_phase","broad_category":"I","image_png":"I_Basalt_08.png","image_id":24,"category_name":"Basalt","category":2,"distinct_rating":2.31,"distinct_type":"Bottom","rt":null,"stimulus":"Stimuli_Rocks480/I_Basalt_08.png","response":null,"trial_type":"image-keyboard-response","trial_index":50,"plugin_version":"2.1.0","time_elapsed":116554,"subject_id":"92602","group":"Group2","condition":"1_Rep","full_date":"2026-03-06T20:38:55.870Z","date":"2026-03-06","time":"20:38:55"},{"rt":null,"stimulus":"<p style=\"font-size: 50px; margin: 0; text-align: center;\">+</p>","response":null,"trial_type":"html-keyboard-response","trial_index":51,"plugin_version":"2.1.0","time_elapsed":117566,"subject_id":"92602","group":"Group2","condition":"1_Rep","full_date":"2026-03-06T20:38:55.870Z","date":"2026-03-06","time":"20:38:55"},{"task":"memory_phase","broad_category":"S","image_png":"S_Dolomite_01.png","image_id":385,"category_name":"Dolomite","category":25,"distinct_rating":1.43,"distinct_type":"Bottom","rt":null,"stimulus":"Stimuli_Rocks480/S_Dolomite_01.png","response":null,"trial_type":"image-keyboard-response","trial_index":52,"plugin_version":"2.1.0","time_elapsed":120075,"subject_id":"92602","group":"Group2","condition":"1_Rep","full_date":"2026-03-06T20:38:55.870Z","date":"2026-03-06","time":"20:38:55"},{"rt":null,"stimulus":"<p style=\"font-size: 50px; margin: 0; text-align: center;\">+</p>","response":null,"trial_type":"html-keyboard-response","trial_index":53,"plugin_version":"2.1.0","time_elapsed":121084,"subject_id":"92602","group":"Group2","condition":"1_Rep","full_date":"2026-03-06T20:38:55.870Z","date":"2026-03-06","time":"20:38:55"},{"task":"memory_phase","broad_category":"S","image_png":"S_Shale_02.png","image_id":466,"category_name":"Shale","category":30,"distinct_rating":2.9,"distinct_type":"Bottom","rt":null,"stimulus":"Stimuli_Rocks480/S_Shale_02.png","response":null,"trial_type":"image-keyboard-response","trial_index":54,"plugin_version":"2.1.0","time_elapsed":123592,"subject_id":"92602","group":"Group2","condition":"1_Rep","full_date":"2026-03-06T20:38:55.870Z","date":"2026-03-06","time":"20:38:55"},{"rt":2572,"stimulus":"<p style=\"max-width: 760px; margin: auto; font-size: 35px; line-height: 1.5;\">\n                Press SPACE to continue study phase\n              </p>","response":" ","trial_type":"html-keyboard-response","trial_index":55,"plugin_version":"2.1.0","time_elapsed":126166,"subject_id":"92602","group":"Group2","condition":"1_Rep","full_date":"2026-03-06T20:38:55.870Z","date":"2026-03-06","time":"20:38:55"},{"rt":null,"stimulus":"<p style=\"font-size: 50px; margin: 0; text-align: center;\">+</p>","response":null,"trial_type":"html-keyboard-response","trial_index":56,"plugin_version":"2.1.0","time_elapsed":127173,"subject_id":"92602","group":"Group2","condition":"1_Rep","full_date":"2026-03-06T20:38:55.870Z","date":"2026-03-06","time":"20:38:55"},{"task":"memory_phase","broad_category":"I","image_png":"I_Pegmatite_03.png","image_id":99,"category_name":"Pegmatite","category":7,"distinct_rating":7.24,"distinct_type":"Top","rt":null,"stimulus":"Stimuli_Rocks480/I_Pegmatite_03.png","response":null,"trial_type":"image-keyboard-response","trial_index":57,"plugin_version":"2.1.0","time_elapsed":129687,"subject_id":"92602","group":"Group2","condition":"1_Rep","full_date":"2026-03-06T20:38:55.870Z","date":"2026-03-06","time":"20:38:55"},{"rt":null,"stimulus":"<p style=\"font-size: 50px; margin: 0; text-align: center;\">+</p>","response":null,"trial_type":"html-keyboard-response","trial_index":58,"plugin_version":"2.1.0","time_elapsed":130696,"subject_id":"92602","group":"Group2","condition":"1_Rep","full_date":"2026-03-06T20:38:55.870Z","date":"2026-03-06","time":"20:38:55"},{"task":"memory_phase","broad_category":"I","image_png":"I_Obsidian_06.png","image_id":86,"category_name":"Obsidian","category":6,"distinct_rating":8.01,"distinct_type":"Top","rt":null,"stimulus":"Stimuli_Rocks480/I_Obsidian_06.png","response":null,"trial_type":"image-keyboard-response","trial_index":59,"plugin_version":"2.1.0","time_elapsed":133198,"subject_id":"92602","group":"Group2","condition":"1_Rep","full_date":"2026-03-06T20:38:55.870Z","date":"2026-03-06","time":"20:38:55"},{"rt":null,"stimulus":"<p style=\"font-size: 50px; margin: 0; text-align: center;\">+</p>","response":null,"trial_type":"html-keyboard-response","trial_index":60,"plugin_version":"2.1.0","time_elapsed":134212,"subject_id":"92602","group":"Group2","condition":"1_Rep","full_date":"2026-03-06T20:38:55.870Z","date":"2026-03-06","time":"20:38:55"},{"task":"memory_phase","broad_category":"I","image_png":"I_Gabbro_12.png","image_id":60,"category_name":"Gabbro","category":4,"distinct_rating":2.6,"distinct_type":"Bottom","rt":null,"stimulus":"Stimuli_Rocks480/I_Gabbro_12.png","response":null,"trial_type":"image-keyboard-response","trial_index":61,"plugin_version":"2.1.0","time_elapsed":136725,"subject_id":"92602","group":"Group2","condition":"1_Rep","full_date":"2026-03-06T20:38:55.870Z","date":"2026-03-06","time":"20:38:55"},{"rt":null,"stimulus":"<p style=\"font-size: 50px; margin: 0; text-align: center;\">+</p>","response":null,"trial_type":"html-keyboard-response","trial_index":62,"plugin_version":"2.1.0","time_elapsed":137732,"subject_id":"92602","group":"Group2","condition":"1_Rep","full_date":"2026-03-06T20:38:55.870Z","date":"2026-03-06","time":"20:38:55"},{"task":"memory_phase","broad_category":"M","image_png":"M_Marble_14.png","image_id":238,"category_name":"Marble","category":15,"distinct_rating":3.31,"distinct_type":"Bottom","rt":null,"stimulus":"Stimuli_Rocks480/M_Marble_14.png","response":null,"trial_type":"image-keyboard-response","trial_index":63,"plugin_version":"2.1.0","time_elapsed":140234,"subject_id":"92602","group":"Group2","condition":"1_Rep","full_date":"2026-03-06T20:38:55.870Z","date":"2026-03-06","time":"20:38:55"},{"rt":null,"stimulus":"<p style=\"font-size: 50px; margin: 0; text-align: center;\">+</p>","response":null,"trial_type":"html-keyboard-response","trial_index":64,"plugin_version":"2.1.0","time_elapsed":141251,"subject_id":"92602","group":"Group2","condition":"1_Rep","full_date":"2026-03-06T20:38:55.870Z","date":"2026-03-06","time":"20:38:55"},{"task":"memory_phase","broad_category":"S","image_png":"S_Rock Salt_15.png","image_id":447,"category_name":"Rock Salt","category":28,"distinct_rating":7.79,"distinct_type":"Top","rt":null,"stimulus":"Stimuli_Rocks480/S_Rock Salt_15.png","response":null,"trial_type":"image-keyboard-response","trial_index":65,"plugin_version":"2.1.0","time_elapsed":143754,"subject_id":"92602","group":"Group2","condition":"1_Rep","full_date":"2026-03-06T20:38:55.870Z","date":"2026-03-06","time":"20:38:55"},{"rt":null,"stimulus":"<p style=\"font-size: 50px; margin: 0; text-align: center;\">+</p>","response":null,"trial_type":"html-keyboard-response","trial_index":66,"plugin_version":"2.1.0","time_elapsed":144761,"subject_id":"92602","group":"Group2","condition":"1_Rep","full_date":"2026-03-06T20:38:55.870Z","date":"2026-03-06","time":"20:38:55"},{"task":"memory_phase","broad_category":"S","image_png":"S_Shale_03.png","image_id":467,"category_name":"Shale","category":30,"distinct_rating":1.95,"distinct_type":"Bottom","rt":null,"stimulus":"Stimuli_Rocks480/S_Shale_03.png","response":null,"trial_type":"image-keyboard-response","trial_index":67,"plugin_version":"2.1.0","time_elapsed":147266,"subject_id":"92602","group":"Group2","condition":"1_Rep","full_date":"2026-03-06T20:38:55.870Z","date":"2026-03-06","time":"20:38:55"},{"rt":null,"stimulus":"<p style=\"font-size: 50px; margin: 0; text-align: center;\">+</p>","response":null,"trial_type":"html-keyboard-response","trial_index":68,"plugin_version":"2.1.0","time_elapsed":148278,"subject_id":"92602","group":"Group2","condition":"1_Rep","full_date":"2026-03-06T20:38:55.870Z","date":"2026-03-06","time":"20:38:55"},{"task":"memory_phase","broad_category":"I","image_png":"I_Rhyolite_10.png","image_id":154,"category_name":"Rhyolite","category":10,"distinct_rating":2.88,"distinct_type":"Bottom","rt":null,"stimulus":"Stimuli_Rocks480/I_Rhyolite_10.png","response":null,"trial_type":"image-keyboard-response","trial_index":69,"plugin_version":"2.1.0","time_elapsed":150780,"subject_id":"92602","group":"Group2","condition":"1_Rep","full_date":"2026-03-06T20:38:55.870Z","date":"2026-03-06","time":"20:38:55"},{"rt":null,"stimulus":"<p style=\"font-size: 50px; margin: 0; text-align: center;\">+</p>","response":null,"trial_type":"html-keyboard-response","trial_index":70,"plugin_version":"2.1.0","time_elapsed":151786,"subject_id":"92602","group":"Group2","condition":"1_Rep","full_date":"2026-03-06T20:38:55.870Z","date":"2026-03-06","time":"20:38:55"},{"task":"memory_phase","broad_category":"I","image_png":"I_Gabbro_14.png","image_id":62,"category_name":"Gabbro","category":4,"distinct_rating":2.95,"distinct_type":"Bottom","rt":null,"stimulus":"Stimuli_Rocks480/I_Gabbro_14.png","response":null,"trial_type":"image-keyboard-response","trial_index":71,"plugin_version":"2.1.0","time_elapsed":154291,"subject_id":"92602","group":"Group2","condition":"1_Rep","full_date":"2026-03-06T20:38:55.870Z","date":"2026-03-06","time":"20:38:55"},{"rt":null,"stimulus":"<p style=\"font-size: 50px; margin: 0; text-align: center;\">+</p>","response":null,"trial_type":"html-keyboard-response","trial_index":72,"plugin_version":"2.1.0","time_elapsed":155296,"subject_id":"92602","group":"Group2","condition":"1_Rep","full_date":"2026-03-06T20:38:55.870Z","date":"2026-03-06","time":"20:38:55"},{"task":"memory_phase","broad_category":"I","image_png":"I_Pegmatite_11.png","image_id":107,"category_name":"Pegmatite","category":7,"distinct_rating":7.11,"distinct_type":"Top","rt":null,"stimulus":"Stimuli_Rocks480/I_Pegmatite_11.png","response":null,"trial_type":"image-keyboard-response","trial_index":73,"plugin_version":"2.1.0","time_elapsed":157811,"subject_id":"92602","group":"Group2","condition":"1_Rep","full_date":"2026-03-06T20:38:55.870Z","date":"2026-03-06","time":"20:38:55"},{"rt":null,"stimulus":"<p style=\"font-size: 50px; margin: 0; text-align: center;\">+</p>","response":null,"trial_type":"html-keyboard-response","trial_index":74,"plugin_version":"2.1.0","time_elapsed":158817,"subject_id":"92602","group":"Group2","condition":"1_Rep","full_date":"2026-03-06T20:38:55.870Z","date":"2026-03-06","time":"20:38:55"},{"task":"memory_phase","broad_category":"S","image_png":"S_Dolomite_16.png","image_id":400,"category_name":"Dolomite","category":25,"distinct_rating":1.71,"distinct_type":"Bottom","rt":null,"stimulus":"Stimuli_Rocks480/S_Dolomite_16.png","response":null,"trial_type":"image-keyboard-response","trial_index":75,"plugin_version":"2.1.0","time_elapsed":161327,"subject_id":"92602","group":"Group2","condition":"1_Rep","full_date":"2026-03-06T20:38:55.870Z","date":"2026-03-06","time":"20:38:55"},{"rt":null,"stimulus":"<p style=\"font-size: 50px; margin: 0; text-align: center;\">+</p>","response":null,"trial_type":"html-keyboard-response","trial_index":76,"plugin_version":"2.1.0","time_elapsed":162339,"subject_id":"92602","group":"Group2","condition":"1_Rep","full_date":"2026-03-06T20:38:55.870Z","date":"2026-03-06","time":"20:38:55"},{"task":"memory_phase","broad_category":"I","image_png":"I_Diorite_01.png","image_id":33,"category_name":"Diorite","category":3,"distinct_rating":2.97,"distinct_type":"Bottom","rt":null,"stimulus":"Stimuli_Rocks480/I_Diorite_01.png","response":null,"trial_type":"image-keyboard-response","trial_index":77,"plugin_version":"2.1.0","time_elapsed":164854,"subject_id":"92602","group":"Group2","condition":"1_Rep","full_date":"2026-03-06T20:38:55.870Z","date":"2026-03-06","time":"20:38:55"},{"rt":null,"stimulus":"<p style=\"font-size: 50px; margin: 0; text-align: center;\">+</p>","response":null,"trial_type":"html-keyboard-response","trial_index":78,"plugin_version":"2.1.0","time_elapsed":165868,"subject_id":"92602","group":"Group2","condition":"1_Rep","full_date":"2026-03-06T20:38:55.870Z","date":"2026-03-06","time":"20:38:55"},{"task":"memory_phase","broad_category":"M","image_png":"M_Marble_02.png","image_id":226,"category_name":"Marble","category":15,"distinct_rating":3.2,"distinct_type":"Bottom","rt":null,"stimulus":"Stimuli_Rocks480/M_Marble_02.png","response":null,"trial_type":"image-keyboard-response","trial_index":79,"plugin_version":"2.1.0","time_elapsed":168384,"subject_id":"92602","group":"Group2","condition":"1_Rep","full_date":"2026-03-06T20:38:55.870Z","date":"2026-03-06","time":"20:38:55"},{"rt":null,"stimulus":"<p style=\"font-size: 50px; margin: 0; text-align: center;\">+</p>","response":null,"trial_type":"html-keyboard-response","trial_index":80,"plugin_version":"2.1.0","time_elapsed":169395,"subject_id":"92602","group":"Group2","condition":"1_Rep","full_date":"2026-03-06T20:38:55.870Z","date":"2026-03-06","time":"20:38:55"},{"task":"memory_phase","broad_category":"M","image_png":"M_Phyllite_02.png","image_id":258,"category_name":"Phyllite","category":17,"distinct_rating":2.89,"distinct_type":"Bottom","rt":null,"stimulus":"Stimuli_Rocks480/M_Phyllite_02.png","response":null,"trial_type":"image-keyboard-response","trial_index":81,"plugin_version":"2.1.0","time_elapsed":171909,"subject_id":"92602","group":"Group2","condition":"1_Rep","full_date":"2026-03-06T20:38:55.870Z","date":"2026-03-06","time":"20:38:55"},{"rt":null,"stimulus":"<p style=\"font-size: 50px; margin: 0; text-align: center;\">+</p>","response":null,"trial_type":"html-keyboard-response","trial_index":82,"plugin_version":"2.1.0","time_elapsed":172921,"subject_id":"92602","group":"Group2","condition":"1_Rep","full_date":"2026-03-06T20:38:55.870Z","date":"2026-03-06","time":"20:38:55"},{"task":"memory_phase","broad_category":"M","image_png":"M_Slate_10.png","image_id":314,"category_name":"Slate","category":20,"distinct_rating":1.94,"distinct_type":"Bottom","rt":null,"stimulus":"Stimuli_Rocks480/M_Slate_10.png","response":null,"trial_type":"image-keyboard-response","trial_index":83,"plugin_version":"2.1.0","time_elapsed":175434,"subject_id":"92602","group":"Group2","condition":"1_Rep","full_date":"2026-03-06T20:38:55.870Z","date":"2026-03-06","time":"20:38:55"},{"rt":null,"stimulus":"<p style=\"font-size: 50px; margin: 0; text-align: center;\">+</p>","response":null,"trial_type":"html-keyboard-response","trial_index":84,"plugin_version":"2.1.0","time_elapsed":176442,"subject_id":"92602","group":"Group2","condition":"1_Rep","full_date":"2026-03-06T20:38:55.870Z","date":"2026-03-06","time":"20:38:55"},{"task":"memory_phase","broad_category":"I","image_png":"I_Andesite_04.png","image_id":4,"category_name":"Andesite","category":1,"distinct_rating":3.18,"distinct_type":"Bottom","rt":null,"stimulus":"Stimuli_Rocks480/I_Andesite_04.png","response":null,"trial_type":"image-keyboard-response","trial_index":85,"plugin_version":"2.1.0","time_elapsed":178951,"subject_id":"92602","group":"Group2","condition":"1_Rep","full_date":"2026-03-06T20:38:55.870Z","date":"2026-03-06","time":"20:38:55"},{"rt":null,"stimulus":"<p style=\"font-size: 50px; margin: 0; text-align: center;\">+</p>","response":null,"trial_type":"html-keyboard-response","trial_index":86,"plugin_version":"2.1.0","time_elapsed":179966,"subject_id":"92602","group":"Group2","condition":"1_Rep","full_date":"2026-03-06T20:38:55.870Z","date":"2026-03-06","time":"20:38:55"},{"task":"memory_phase","broad_category":"I","image_png":"I_Diorite_10.png","image_id":42,"category_name":"Diorite","category":3,"distinct_rating":2.84,"distinct_type":"Bottom","rt":null,"stimulus":"Stimuli_Rocks480/I_Diorite_10.png","response":null,"trial_type":"image-keyboard-response","trial_index":87,"plugin_version":"2.1.0","time_elapsed":182469,"subject_id":"92602","group":"Group2","condition":"1_Rep","full_date":"2026-03-06T20:38:55.870Z","date":"2026-03-06","time":"20:38:55"},{"rt":null,"stimulus":"<p style=\"font-size: 50px; margin: 0; text-align: center;\">+</p>","response":null,"trial_type":"html-keyboard-response","trial_index":88,"plugin_version":"2.1.0","time_elapsed":183481,"subject_id":"92602","group":"Group2","condition":"1_Rep","full_date":"2026-03-06T20:38:55.870Z","date":"2026-03-06","time":"20:38:55"},{"task":"memory_phase","broad_category":"I","image_png":"I_Andesite_03.png","image_id":3,"category_name":"Andesite","category":1,"distinct_rating":3.17,"distinct_type":"Bottom","rt":null,"stimulus":"Stimuli_Rocks480/I_Andesite_03.png","response":null,"trial_type":"image-keyboard-response","trial_index":89,"plugin_version":"2.1.0","time_elapsed":185991,"subject_id":"92602","group":"Group2","condition":"1_Rep","full_date":"2026-03-06T20:38:55.870Z","date":"2026-03-06","time":"20:38:55"},{"rt":null,"stimulus":"<p style=\"font-size: 50px; margin: 0; text-align: center;\">+</p>","response":null,"trial_type":"html-keyboard-response","trial_index":90,"plugin_version":"2.1.0","time_elapsed":187003,"subject_id":"92602","group":"Group2","condition":"1_Rep","full_date":"2026-03-06T20:38:55.870Z","date":"2026-03-06","time":"20:38:55"},{"task":"memory_phase","broad_category":"M","image_png":"M_Quartzite_12.png","image_id":284,"category_name":"Quartzite","category":18,"distinct_rating":1.92,"distinct_type":"Bottom","rt":null,"stimulus":"Stimuli_Rocks480/M_Quartzite_12.png","response":null,"trial_type":"image-keyboard-response","trial_index":91,"plugin_version":"2.1.0","time_elapsed":189515,"subject_id":"92602","group":"Group2","condition":"1_Rep","full_date":"2026-03-06T20:38:55.870Z","date":"2026-03-06","time":"20:38:55"},{"rt":null,"stimulus":"<p style=\"font-size: 50px; margin: 0; text-align: center;\">+</p>","response":null,"trial_type":"html-keyboard-response","trial_index":92,"plugin_version":"2.1.0","time_elapsed":190524,"subject_id":"92602","group":"Group2","condition":"1_Rep","full_date":"2026-03-06T20:38:55.870Z","date":"2026-03-06","time":"20:38:55"},{"task":"memory_phase","broad_category":"I","image_png":"I_Diorite_15.png","image_id":47,"category_name":"Diorite","category":3,"distinct_rating":3.05,"distinct_type":"Bottom","rt":null,"stimulus":"Stimuli_Rocks480/I_Diorite_15.png","response":null,"trial_type":"image-keyboard-response","trial_index":93,"plugin_version":"2.1.0","time_elapsed":193034,"subject_id":"92602","group":"Group2","condition":"1_Rep","full_date":"2026-03-06T20:38:55.870Z","date":"2026-03-06","time":"20:38:55"},{"rt":null,"stimulus":"<p style=\"font-size: 50px; margin: 0; text-align: center;\">+</p>","response":null,"trial_type":"html-keyboard-response","trial_index":94,"plugin_version":"2.1.0","time_elapsed":194046,"subject_id":"92602","group":"Group2","condition":"1_Rep","full_date":"2026-03-06T20:38:55.870Z","date":"2026-03-06","time":"20:38:55"},{"task":"memory_phase","broad_category":"S","image_png":"S_Dolomite_07.png","image_id":391,"category_name":"Dolomite","category":25,"distinct_rating":1.73,"distinct_type":"Bottom","rt":null,"stimulus":"Stimuli_Rocks480/S_Dolomite_07.png","response":null,"trial_type":"image-keyboard-response","trial_index":95,"plugin_version":"2.1.0","time_elapsed":196553,"subject_id":"92602","group":"Group2","condition":"1_Rep","full_date":"2026-03-06T20:38:55.870Z","date":"2026-03-06","time":"20:38:55"},{"rt":null,"stimulus":"<p style=\"font-size: 50px; margin: 0; text-align: center;\">+</p>","response":null,"trial_type":"html-keyboard-response","trial_index":96,"plugin_version":"2.1.0","time_elapsed":197561,"subject_id":"92602","group":"Group2","condition":"1_Rep","full_date":"2026-03-06T20:38:55.870Z","date":"2026-03-06","time":"20:38:55"},{"task":"memory_phase","broad_category":"M","image_png":"M_Gneiss_15.png","image_id":207,"category_name":"Gneiss","category":13,"distinct_rating":3.11,"distinct_type":"Bottom","rt":null,"stimulus":"Stimuli_Rocks480/M_Gneiss_15.png","response":null,"trial_type":"image-keyboard-response","trial_index":97,"plugin_version":"2.1.0","time_elapsed":200074,"subject_id":"92602","group":"Group2","condition":"1_Rep","full_date":"2026-03-06T20:38:55.870Z","date":"2026-03-06","time":"20:38:55"},{"rt":null,"stimulus":"<p style=\"font-size: 50px; margin: 0; text-align: center;\">+</p>","response":null,"trial_type":"html-keyboard-response","trial_index":98,"plugin_version":"2.1.0","time_elapsed":201082,"subject_id":"92602","group":"Group2","condition":"1_Rep","full_date":"2026-03-06T20:38:55.870Z","date":"2026-03-06","time":"20:38:55"},{"task":"memory_phase","broad_category":"S","image_png":"S_Rock Salt_13.png","image_id":445,"category_name":"Rock Salt","category":28,"distinct_rating":7.58,"distinct_type":"Top","rt":null,"stimulus":"Stimuli_Rocks480/S_Rock Salt_13.png","response":null,"trial_type":"image-keyboard-response","trial_index":99,"plugin_version":"2.1.0","time_elapsed":203598,"subject_id":"92602","group":"Group2","condition":"1_Rep","full_date":"2026-03-06T20:38:55.870Z","date":"2026-03-06","time":"20:38:55"},{"rt":null,"stimulus":"<p style=\"font-size: 50px; margin: 0; text-align: center;\">+</p>","response":null,"trial_type":"html-keyboard-response","trial_index":100,"plugin_version":"2.1.0","time_elapsed":204608,"subject_id":"92602","group":"Group2","condition":"1_Rep","full_date":"2026-03-06T20:38:55.870Z","date":"2026-03-06","time":"20:38:55"},{"task":"memory_phase","broad_category":"M","image_png":"M_Marble_03.png","image_id":227,"category_name":"Marble","category":15,"distinct_rating":2.67,"distinct_type":"Bottom","rt":null,"stimulus":"Stimuli_Rocks480/M_Marble_03.png","response":null,"trial_type":"image-keyboard-response","trial_index":101,"plugin_version":"2.1.0","time_elapsed":207122,"subject_id":"92602","group":"Group2","condition":"1_Rep","full_date":"2026-03-06T20:38:55.870Z","date":"2026-03-06","time":"20:38:55"},{"rt":null,"stimulus":"<p style=\"font-size: 50px; margin: 0; text-align: center;\">+</p>","response":null,"trial_type":"html-keyboard-response","trial_index":102,"plugin_version":"2.1.0","time_elapsed":208129,"subject_id":"92602","group":"Group2","condition":"1_Rep","full_date":"2026-03-06T20:38:55.870Z","date":"2026-03-06","time":"20:38:55"},{"task":"memory_phase","broad_category":"M","image_png":"M_Quartzite_07.png","image_id":279,"category_name":"Quartzite","category":18,"distinct_rating":1.97,"distinct_type":"Bottom","rt":null,"stimulus":"Stimuli_Rocks480/M_Quartzite_07.png","response":null,"trial_type":"image-keyboard-response","trial_index":103,"plugin_version":"2.1.0","time_elapsed":210636,"subject_id":"92602","group":"Group2","condition":"1_Rep","full_date":"2026-03-06T20:38:55.870Z","date":"2026-03-06","time":"20:38:55"},{"rt":null,"stimulus":"<p style=\"font-size: 50px; margin: 0; text-align: center;\">+</p>","response":null,"trial_type":"html-keyboard-response","trial_index":104,"plugin_version":"2.1.0","time_elapsed":211653,"subject_id":"92602","group":"Group2","condition":"1_Rep","full_date":"2026-03-06T20:38:55.870Z","date":"2026-03-06","time":"20:38:55"},{"task":"memory_phase","broad_category":"I","image_png":"I_Rhyolite_08.png","image_id":152,"category_name":"Rhyolite","category":10,"distinct_rating":1.38,"distinct_type":"Bottom","rt":null,"stimulus":"Stimuli_Rocks480/I_Rhyolite_08.png","response":null,"trial_type":"image-keyboard-response","trial_index":105,"plugin_version":"2.1.0","time_elapsed":214161,"subject_id":"92602","group":"Group2","condition":"1_Rep","full_date":"2026-03-06T20:38:55.870Z","date":"2026-03-06","time":"20:38:55"},{"rt":8685,"stimulus":"<div style=\"max-width: 760px; margin: auto; font-size: 20px; line-height: 1.5;\">\n      <h1 style=\"text-align:center; font-size: 30px;\">Instructions for the Test Phase</h1>\n      <p>\n        The study phase is now complete.\n      </p>\n      <p>\n        In the test phase, you will again see a series of rock images. \n        Some will be ones you saw before - during the study phase, while others will be new.  \n        <b>Your task</b> is to decide whether you have seen each image before by pressing the corresponding key on your keyboard:<br><br>\n          <b>A</b> - NO (you did not see this image before)<br>\n          <b>L</b> - YES (you saw this image before)<br><br>\n        The test will proceed at your own pace. You will receive feedback after each response.  \n        Please try to respond <b>as accurately as possible</b>.\n      </p>\n      <p>\n        <b>Reminder:</b> If your computer has multiple language settings (e.g., English and another language),\n        please ensure it is set to English during the test phase.\n      </p>\n      <p>\n        You can track your progress using the <b>completion bar</b> at the top of the screen.  \n        Note that it has been refreshed to reflect your progress during this final phase.\n      </p>\n      <p>\n        Press the button below when you are ready to continue.\n      </p>\n    </div>","response":0,"trial_type":"html-button-response","trial_index":106,"plugin_version":"2.1.0","time_elapsed":222849,"subject_id":"92602","group":"Group2","condition":"1_Rep","full_date":"2026-03-06T20:38:55.870Z","date":"2026-03-06","time":"20:38:55"},{"correct_response":"l","task":"test_phase","broad_category":"I","image_png":"I_Gabbro_14.png","image_id":62,"category_name":"Gabbro","category":4,"distinct_rating":2.95,"distinct_type":"Bottom","item_type":"Target","rt":2427,"stimulus":"Stimuli_Rocks480/I_Gabbro_14.png","response":"l","trial_type":"image-keyboard-response","trial_index":107,"plugin_version":"2.1.0","time_elapsed":225277,"subject_id":"92602","group":"Group2","condition":"1_Rep","full_date":"2026-03-06T20:38:55.870Z","date":"2026-03-06","time":"20:38:55","cor_ans":true},{"trial_type":"html-keyboard-response","rt":null,"stimulus":"<p style=\"color: green; font-size: 50px; font-weight: bold;\">Correct</p>","response":null,"trial_index":108,"plugin_version":"2.1.0","time_elapsed":225780,"subject_id":"92602","group":"Group2","condition":"1_Rep","full_date":"2026-03-06T20:38:55.870Z","date":"2026-03-06","time":"20:38:55"},{"correct_response":"l","task":"test_phase","broad_category":"S","image_png":"S_Chert_13.png","image_id":365,"category_name":"Chert","category":23,"distinct_rating":6.57,"distinct_type":"Top","item_type":"Target","rt":1336,"stimulus":"Stimuli_Rocks480/S_Chert_13.png","response":"l","trial_type":"image-keyboard-response","trial_index":109,"plugin_version":"2.1.0","time_elapsed":227118,"subject_id":"92602","group":"Group2","condition":"1_Rep","full_date":"2026-03-06T20:38:55.870Z","date":"2026-03-06","time":"20:38:55","cor_ans":true},{"trial_type":"html-keyboard-response","rt":null,"stimulus":"<p style=\"color: green; font-size: 50px; font-weight: bold;\">Correct</p>","response":null,"trial_index":110,"plugin_version":"2.1.0","time_elapsed":227622,"subject_id":"92602","group":"Group2","condition":"1_Rep","full_date":"2026-03-06T20:38:55.870Z","date":"2026-03-06","time":"20:38:55"},{"correct_response":"a","task":"test_phase","broad_category":"M","image_png":"M_Marble_06.png","image_id":230,"category_name":"Marble","category":15,"distinct_rating":3.4,"distinct_type":"Bottom","item_type":"Foil","rt":2346,"stimulus":"Stimuli_Rocks480/M_Marble_06.png","response":"a","trial_type":"image-keyboard-response","trial_index":111,"plugin_version":"2.1.0","time_elapsed":229970,"subject_id":"92602","group":"Group2","condition":"1_Rep","full_date":"2026-03-06T20:38:55.870Z","date":"2026-03-06","time":"20:38:55","cor_ans":true},{"trial_type":"html-keyboard-response","rt":null,"stimulus":"<p style=\"color: green; font-size: 50px; font-weight: bold;\">Correct</p>","response":null,"trial_index":112,"plugin_version":"2.1.0","time_elapsed":230483,"subject_id":"92602","group":"Group2","condition":"1_Rep","full_date":"2026-03-06T20:38:55.870Z","date":"2026-03-06","time":"20:38:55"},{"correct_response":"l","task":"test_phase","broad_category":"S","image_png":"S_Sandstone_04.png","image_id":452,"category_name":"Sandstone","category":29,"distinct_rating":1.8,"distinct_type":"Bottom","item_type":"Target","rt":6356,"stimulus":"Stimuli_Rocks480/S_Sandstone_04.png","response":"a","trial_type":"image-keyboard-response","trial_index":113,"plugin_version":"2.1.0","time_elapsed":236841,"subject_id":"92602","group":"Group2","condition":"1_Rep","full_date":"2026-03-06T20:38:55.870Z","date":"2026-03-06","time":"20:38:55","cor_ans":false},{"trial_type":"html-keyboard-response","rt":null,"stimulus":"<p style=\"color: red; font-size: 50px; font-weight: bold;\">Incorrect</p>","response":null,"trial_index":114,"plugin_version":"2.1.0","time_elapsed":237351,"subject_id":"92602","group":"Group2","condition":"1_Rep","full_date":"2026-03-06T20:38:55.870Z","date":"2026-03-06","time":"20:38:55"},{"correct_response":"a","task":"test_phase","broad_category":"M","image_png":"M_Phyllite_07.png","image_id":263,"category_name":"Phyllite","category":17,"distinct_rating":2.59,"distinct_type":"Bottom","item_type":"Foil","rt":2447,"stimulus":"Stimuli_Rocks480/M_Phyllite_07.png","response":"l","trial_type":"image-keyboard-response","trial_index":115,"plugin_version":"2.1.0","time_elapsed":239799,"subject_id":"92602","group":"Group2","condition":"1_Rep","full_date":"2026-03-06T20:38:55.870Z","date":"2026-03-06","time":"20:38:55","cor_ans":false},{"trial_type":"html-keyboard-response","rt":null,"stimulus":"<p style=\"color: red; font-size: 50px; font-weight: bold;\">Incorrect</p>","response":null,"trial_index":116,"plugin_version":"2.1.0","time_elapsed":240308,"subject_id":"92602","group":"Group2","condition":"1_Rep","full_date":"2026-03-06T20:38:55.870Z","date":"2026-03-06","time":"20:38:55"},{"correct_response":"a","task":"test_phase","broad_category":"I","image_png":"I_Gabbro_16.png","image_id":64,"category_name":"Gabbro","category":4,"distinct_rating":2.52,"distinct_type":"Bottom","item_type":"Foil","rt":1159,"stimulus":"Stimuli_Rocks480/I_Gabbro_16.png","response":"l","trial_type":"image-keyboard-response","trial_index":117,"plugin_version":"2.1.0","time_elapsed":241469,"subject_id":"92602","group":"Group2","condition":"1_Rep","full_date":"2026-03-06T20:38:55.870Z","date":"2026-03-06","time":"20:38:55","cor_ans":false},{"trial_type":"html-keyboard-response","rt":null,"stimulus":"<p style=\"color: red; font-size: 50px; font-weight: bold;\">Incorrect</p>","response":null,"trial_index":118,"plugin_version":"2.1.0","time_elapsed":241975,"subject_id":"92602","group":"Group2","condition":"1_Rep","full_date":"2026-03-06T20:38:55.870Z","date":"2026-03-06","time":"20:38:55"},{"correct_response":"a","task":"test_phase","broad_category":"S","image_png":"S_Shale_01.png","image_id":465,"category_name":"Shale","category":30,"distinct_rating":2.7,"distinct_type":"Bottom","item_type":"Foil","rt":1506,"stimulus":"Stimuli_Rocks480/S_Shale_01.png","response":"a","trial_type":"image-keyboard-response","trial_index":119,"plugin_version":"2.1.0","time_elapsed":243479,"subject_id":"92602","group":"Group2","condition":"1_Rep","full_date":"2026-03-06T20:38:55.870Z","date":"2026-03-06","time":"20:38:55","cor_ans":true},{"trial_type":"html-keyboard-response","rt":null,"stimulus":"<p style=\"color: green; font-size: 50px; font-weight: bold;\">Correct</p>","response":null,"trial_index":120,"plugin_version":"2.1.0","time_elapsed":243983,"subject_id":"92602","group":"Group2","condition":"1_Rep","full_date":"2026-03-06T20:38:55.870Z","date":"2026-03-06","time":"20:38:55"},{"correct_response":"l","task":"test_phase","broad_category":"M","image_png":"M_Marble_03.png","image_id":227,"category_name":"Marble","category":15,"distinct_rating":2.67,"distinct_type":"Bottom","item_type":"Target","rt":1355,"stimulus":"Stimuli_Rocks480/M_Marble_03.png","response":"l","trial_type":"image-keyboard-response","trial_index":121,"plugin_version":"2.1.0","time_elapsed":245339,"subject_id":"92602","group":"Group2","condition":"1_Rep","full_date":"2026-03-06T20:38:55.870Z","date":"2026-03-06","time":"20:38:55","cor_ans":true},{"trial_type":"html-keyboard-response","rt":null,"stimulus":"<p style=\"color: green; font-size: 50px; font-weight: bold;\">Correct</p>","response":null,"trial_index":122,"plugin_version":"2.1.0","time_elapsed":245849,"subject_id":"92602","group":"Group2","condition":"1_Rep","full_date":"2026-03-06T20:38:55.870Z","date":"2026-03-06","time":"20:38:55"},{"correct_response":"a","task":"test_phase","broad_category":"M","image_png":"M_Marble_04.png","image_id":228,"category_name":"Marble","category":15,"distinct_rating":3.15,"distinct_type":"Bottom","item_type":"Foil","rt":1080,"stimulus":"Stimuli_Rocks480/M_Marble_04.png","response":"l","trial_type":"image-keyboard-response","trial_index":123,"plugin_version":"2.1.0","time_elapsed":246930,"subject_id":"92602","group":"Group2","condition":"1_Rep","full_date":"2026-03-06T20:38:55.870Z","date":"2026-03-06","time":"20:38:55","cor_ans":false},{"trial_type":"html-keyboard-response","rt":null,"stimulus":"<p style=\"color: red; font-size: 50px; font-weight: bold;\">Incorrect</p>","response":null,"trial_index":124,"plugin_version":"2.1.0","time_elapsed":247438,"subject_id":"92602","group":"Group2","condition":"1_Rep","full_date":"2026-03-06T20:38:55.870Z","date":"2026-03-06","time":"20:38:55"},{"correct_response":"l","task":"test_phase","broad_category":"I","image_png":"I_Diorite_10.png","image_id":42,"category_name":"Diorite","category":3,"distinct_rating":2.84,"distinct_type":"Bottom","item_type":"Target","rt":819,"stimulus":"Stimuli_Rocks480/I_Diorite_10.png","response":"l","trial_type":"image-keyboard-response","trial_index":125,"plugin_version":"2.1.0","time_elapsed":248258,"subject_id":"92602","group":"Group2","condition":"1_Rep","full_date":"2026-03-06T20:38:55.870Z","date":"2026-03-06","time":"20:38:55","cor_ans":true},{"trial_type":"html-keyboard-response","rt":null,"stimulus":"<p style=\"color: green; font-size: 50px; font-weight: bold;\">Correct</p>","response":null,"trial_index":126,"plugin_version":"2.1.0","time_elapsed":248772,"subject_id":"92602","group":"Group2","condition":"1_Rep","full_date":"2026-03-06T20:38:55.870Z","date":"2026-03-06","time":"20:38:55"},{"correct_response":"a","task":"test_phase","broad_category":"I","image_png":"I_Diorite_03.png","image_id":35,"category_name":"Diorite","category":3,"distinct_rating":3.14,"distinct_type":"Bottom","item_type":"Foil","rt":1300,"stimulus":"Stimuli_Rocks480/I_Diorite_03.png","response":"a","trial_type":"image-keyboard-response","trial_index":127,"plugin_version":"2.1.0","time_elapsed":250074,"subject_id":"92602","group":"Group2","condition":"1_Rep","full_date":"2026-03-06T20:38:55.870Z","date":"2026-03-06","time":"20:38:55","cor_ans":true},{"trial_type":"html-keyboard-response","rt":null,"stimulus":"<p style=\"color: green; font-size: 50px; font-weight: bold;\">Correct</p>","response":null,"trial_index":128,"plugin_version":"2.1.0","time_elapsed":250584,"subject_id":"92602","group":"Group2","condition":"1_Rep","full_date":"2026-03-06T20:38:55.870Z","date":"2026-03-06","time":"20:38:55"},{"correct_response":"a","task":"test_phase","broad_category":"M","image_png":"M_Gneiss_05.png","image_id":197,"category_name":"Gneiss","category":13,"distinct_rating":2.97,"distinct_type":"Bottom","item_type":"Foil","rt":1891,"stimulus":"Stimuli_Rocks480/M_Gneiss_05.png","response":"a","trial_type":"image-keyboard-response","trial_index":129,"plugin_version":"2.1.0","time_elapsed":252476,"subject_id":"92602","group":"Group2","condition":"1_Rep","full_date":"2026-03-06T20:38:55.870Z","date":"2026-03-06","time":"20:38:55","cor_ans":true},{"trial_type":"html-keyboard-response","rt":null,"stimulus":"<p style=\"color: green; font-size: 50px; font-weight: bold;\">Correct</p>","response":null,"trial_index":130,"plugin_version":"2.1.0","time_elapsed":252990,"subject_id":"92602","group":"Group2","condition":"1_Rep","full_date":"2026-03-06T20:38:55.870Z","date":"2026-03-06","time":"20:38:55"},{"correct_response":"l","task":"test_phase","broad_category":"S","image_png":"S_Shale_07.png","image_id":471,"category_name":"Shale","category":30,"distinct_rating":2.73,"distinct_type":"Bottom","item_type":"Target","rt":1236,"stimulus":"Stimuli_Rocks480/S_Shale_07.png","response":"l","trial_type":"image-keyboard-response","trial_index":131,"plugin_version":"2.1.0","time_elapsed":254228,"subject_id":"92602","group":"Group2","condition":"1_Rep","full_date":"2026-03-06T20:38:55.870Z","date":"2026-03-06","time":"20:38:55","cor_ans":true},{"trial_type":"html-keyboard-response","rt":null,"stimulus":"<p style=\"color: green; font-size: 50px; font-weight: bold;\">Correct</p>","response":null,"trial_index":132,"plugin_version":"2.1.0","time_elapsed":254735,"subject_id":"92602","group":"Group2","condition":"1_Rep","full_date":"2026-03-06T20:38:55.870Z","date":"2026-03-06","time":"20:38:55"},{"correct_response":"l","task":"test_phase","broad_category":"M","image_png":"M_Slate_14.png","image_id":318,"category_name":"Slate","category":20,"distinct_rating":2.58,"distinct_type":"Bottom","item_type":"Target","rt":944,"stimulus":"Stimuli_Rocks480/M_Slate_14.png","response":"l","trial_type":"image-keyboard-response","trial_index":133,"plugin_version":"2.1.0","time_elapsed":255680,"subject_id":"92602","group":"Group2","condition":"1_Rep","full_date":"2026-03-06T20:38:55.870Z","date":"2026-03-06","time":"20:38:55","cor_ans":true},{"trial_type":"html-keyboard-response","rt":null,"stimulus":"<p style=\"color: green; font-size: 50px; font-weight: bold;\">Correct</p>","response":null,"trial_index":134,"plugin_version":"2.1.0","time_elapsed":256190,"subject_id":"92602","group":"Group2","condition":"1_Rep","full_date":"2026-03-06T20:38:55.870Z","date":"2026-03-06","time":"20:38:55"},{"correct_response":"a","task":"test_phase","broad_category":"M","image_png":"M_Quartzite_08.png","image_id":280,"category_name":"Quartzite","category":18,"distinct_rating":2.15,"distinct_type":"Bottom","item_type":"Foil","rt":809,"stimulus":"Stimuli_Rocks480/M_Quartzite_08.png","response":"l","trial_type":"image-keyboard-response","trial_index":135,"plugin_version":"2.1.0","time_elapsed":257001,"subject_id":"92602","group":"Group2","condition":"1_Rep","full_date":"2026-03-06T20:38:55.870Z","date":"2026-03-06","time":"20:38:55","cor_ans":false},{"trial_type":"html-keyboard-response","rt":null,"stimulus":"<p style=\"color: red; font-size: 50px; font-weight: bold;\">Incorrect</p>","response":null,"trial_index":136,"plugin_version":"2.1.0","time_elapsed":257505,"subject_id":"92602","group":"Group2","condition":"1_Rep","full_date":"2026-03-06T20:38:55.870Z","date":"2026-03-06","time":"20:38:55"},{"correct_response":"l","task":"test_phase","broad_category":"M","image_png":"M_Slate_10.png","image_id":314,"category_name":"Slate","category":20,"distinct_rating":1.94,"distinct_type":"Bottom","item_type":"Target","rt":764,"stimulus":"Stimuli_Rocks480/M_Slate_10.png","response":"l","trial_type":"image-keyboard-response","trial_index":137,"plugin_version":"2.1.0","time_elapsed":258270,"subject_id":"92602","group":"Group2","condition":"1_Rep","full_date":"2026-03-06T20:38:55.870Z","date":"2026-03-06","time":"20:38:55","cor_ans":true},{"trial_type":"html-keyboard-response","rt":null,"stimulus":"<p style=\"color: green; font-size: 50px; font-weight: bold;\">Correct</p>","response":null,"trial_index":138,"plugin_version":"2.1.0","time_elapsed":258785,"subject_id":"92602","group":"Group2","condition":"1_Rep","full_date":"2026-03-06T20:38:55.870Z","date":"2026-03-06","time":"20:38:55"},{"correct_response":"a","task":"test_phase","broad_category":"M","image_png":"M_Gneiss_06.png","image_id":198,"category_name":"Gneiss","category":13,"distinct_rating":2.65,"distinct_type":"Bottom","item_type":"Foil","rt":847,"stimulus":"Stimuli_Rocks480/M_Gneiss_06.png","response":"a","trial_type":"image-keyboard-response","trial_index":139,"plugin_version":"2.1.0","time_elapsed":259633,"subject_id":"92602","group":"Group2","condition":"1_Rep","full_date":"2026-03-06T20:38:55.870Z","date":"2026-03-06","time":"20:38:55","cor_ans":true},{"trial_type":"html-keyboard-response","rt":null,"stimulus":"<p style=\"color: green; font-size: 50px; font-weight: bold;\">Correct</p>","response":null,"trial_index":140,"plugin_version":"2.1.0","time_elapsed":260135,"subject_id":"92602","group":"Group2","condition":"1_Rep","full_date":"2026-03-06T20:38:55.870Z","date":"2026-03-06","time":"20:38:55"},{"correct_response":"a","task":"test_phase","broad_category":"S","image_png":"S_Dolomite_12.png","image_id":396,"category_name":"Dolomite","category":25,"distinct_rating":1.85,"distinct_type":"Bottom","item_type":"Foil","rt":3367,"stimulus":"Stimuli_Rocks480/S_Dolomite_12.png","response":"a","trial_type":"image-keyboard-response","trial_index":141,"plugin_version":"2.1.0","time_elapsed":263503,"subject_id":"92602","group":"Group2","condition":"1_Rep","full_date":"2026-03-06T20:38:55.870Z","date":"2026-03-06","time":"20:38:55","cor_ans":true},{"trial_type":"html-keyboard-response","rt":null,"stimulus":"<p style=\"color: green; font-size: 50px; font-weight: bold;\">Correct</p>","response":null,"trial_index":142,"plugin_version":"2.1.0","time_elapsed":264008,"subject_id":"92602","group":"Group2","condition":"1_Rep","full_date":"2026-03-06T20:38:55.870Z","date":"2026-03-06","time":"20:38:55"},{"correct_response":"a","task":"test_phase","broad_category":"I","image_png":"I_Gabbro_11.png","image_id":59,"category_name":"Gabbro","category":4,"distinct_rating":1.99,"distinct_type":"Bottom","item_type":"Foil","rt":1051,"stimulus":"Stimuli_Rocks480/I_Gabbro_11.png","response":"l","trial_type":"image-keyboard-response","trial_index":143,"plugin_version":"2.1.0","time_elapsed":265062,"subject_id":"92602","group":"Group2","condition":"1_Rep","full_date":"2026-03-06T20:38:55.870Z","date":"2026-03-06","time":"20:38:55","cor_ans":false},{"trial_type":"html-keyboard-response","rt":null,"stimulus":"<p style=\"color: red; font-size: 50px; font-weight: bold;\">Incorrect</p>","response":null,"trial_index":144,"plugin_version":"2.1.0","time_elapsed":265566,"subject_id":"92602","group":"Group2","condition":"1_Rep","full_date":"2026-03-06T20:38:55.870Z","date":"2026-03-06","time":"20:38:55"},{"correct_response":"l","task":"test_phase","broad_category":"M","image_png":"M_Phyllite_05.png","image_id":261,"category_name":"Phyllite","category":17,"distinct_rating":2.14,"distinct_type":"Bottom","item_type":"Target","rt":866,"stimulus":"Stimuli_Rocks480/M_Phyllite_05.png","response":"l","trial_type":"image-keyboard-response","trial_index":145,"plugin_version":"2.1.0","time_elapsed":266434,"subject_id":"92602","group":"Group2","condition":"1_Rep","full_date":"2026-03-06T20:38:55.870Z","date":"2026-03-06","time":"20:38:55","cor_ans":true},{"trial_type":"html-keyboard-response","rt":null,"stimulus":"<p style=\"color: green; font-size: 50px; font-weight: bold;\">Correct</p>","response":null,"trial_index":146,"plugin_version":"2.1.0","time_elapsed":266943,"subject_id":"92602","group":"Group2","condition":"1_Rep","full_date":"2026-03-06T20:38:55.870Z","date":"2026-03-06","time":"20:38:55"},{"correct_response":"a","task":"test_phase","broad_category":"I","image_png":"I_Diorite_05.png","image_id":37,"category_name":"Diorite","category":3,"distinct_rating":3.08,"distinct_type":"Bottom","item_type":"Foil","rt":810,"stimulus":"Stimuli_Rocks480/I_Diorite_05.png","response":"l","trial_type":"image-keyboard-response","trial_index":147,"plugin_version":"2.1.0","time_elapsed":267755,"subject_id":"92602","group":"Group2","condition":"1_Rep","full_date":"2026-03-06T20:38:55.870Z","date":"2026-03-06","time":"20:38:55","cor_ans":false},{"trial_type":"html-keyboard-response","rt":null,"stimulus":"<p style=\"color: red; font-size: 50px; font-weight: bold;\">Incorrect</p>","response":null,"trial_index":148,"plugin_version":"2.1.0","time_elapsed":268263,"subject_id":"92602","group":"Group2","condition":"1_Rep","full_date":"2026-03-06T20:38:55.870Z","date":"2026-03-06","time":"20:38:55"},{"correct_response":"a","task":"test_phase","broad_category":"M","image_png":"M_Quartzite_05.png","image_id":277,"category_name":"Quartzite","category":18,"distinct_rating":2.23,"distinct_type":"Bottom","item_type":"Foil","rt":991,"stimulus":"Stimuli_Rocks480/M_Quartzite_05.png","response":"a","trial_type":"image-keyboard-response","trial_index":149,"plugin_version":"2.1.0","time_elapsed":269255,"subject_id":"92602","group":"Group2","condition":"1_Rep","full_date":"2026-03-06T20:38:55.870Z","date":"2026-03-06","time":"20:38:55","cor_ans":true},{"trial_type":"html-keyboard-response","rt":null,"stimulus":"<p style=\"color: green; font-size: 50px; font-weight: bold;\">Correct</p>","response":null,"trial_index":150,"plugin_version":"2.1.0","time_elapsed":269760,"subject_id":"92602","group":"Group2","condition":"1_Rep","full_date":"2026-03-06T20:38:55.870Z","date":"2026-03-06","time":"20:38:55"},{"correct_response":"a","task":"test_phase","broad_category":"I","image_png":"I_Gabbro_08.png","image_id":56,"category_name":"Gabbro","category":4,"distinct_rating":3.02,"distinct_type":"Bottom","item_type":"Foil","rt":1592,"stimulus":"Stimuli_Rocks480/I_Gabbro_08.png","response":"a","trial_type":"image-keyboard-response","trial_index":151,"plugin_version":"2.1.0","time_elapsed":271354,"subject_id":"92602","group":"Group2","condition":"1_Rep","full_date":"2026-03-06T20:38:55.870Z","date":"2026-03-06","time":"20:38:55","cor_ans":true},{"trial_type":"html-keyboard-response","rt":null,"stimulus":"<p style=\"color: green; font-size: 50px; font-weight: bold;\">Correct</p>","response":null,"trial_index":152,"plugin_version":"2.1.0","time_elapsed":271863,"subject_id":"92602","group":"Group2","condition":"1_Rep","full_date":"2026-03-06T20:38:55.870Z","date":"2026-03-06","time":"20:38:55"},{"correct_response":"l","task":"test_phase","broad_category":"M","image_png":"M_Gneiss_15.png","image_id":207,"category_name":"Gneiss","category":13,"distinct_rating":3.11,"distinct_type":"Bottom","item_type":"Target","rt":881,"stimulus":"Stimuli_Rocks480/M_Gneiss_15.png","response":"l","trial_type":"image-keyboard-response","trial_index":153,"plugin_version":"2.1.0","time_elapsed":272745,"subject_id":"92602","group":"Group2","condition":"1_Rep","full_date":"2026-03-06T20:38:55.870Z","date":"2026-03-06","time":"20:38:55","cor_ans":true},{"trial_type":"html-keyboard-response","rt":null,"stimulus":"<p style=\"color: green; font-size: 50px; font-weight: bold;\">Correct</p>","response":null,"trial_index":154,"plugin_version":"2.1.0","time_elapsed":273251,"subject_id":"92602","group":"Group2","condition":"1_Rep","full_date":"2026-03-06T20:38:55.870Z","date":"2026-03-06","time":"20:38:55"},{"correct_response":"l","task":"test_phase","broad_category":"S","image_png":"S_Dolomite_16.png","image_id":400,"category_name":"Dolomite","category":25,"distinct_rating":1.71,"distinct_type":"Bottom","item_type":"Target","rt":1728,"stimulus":"Stimuli_Rocks480/S_Dolomite_16.png","response":"l","trial_type":"image-keyboard-response","trial_index":155,"plugin_version":"2.1.0","time_elapsed":274980,"subject_id":"92602","group":"Group2","condition":"1_Rep","full_date":"2026-03-06T20:38:55.870Z","date":"2026-03-06","time":"20:38:55","cor_ans":true},{"trial_type":"html-keyboard-response","rt":null,"stimulus":"<p style=\"color: green; font-size: 50px; font-weight: bold;\">Correct</p>","response":null,"trial_index":156,"plugin_version":"2.1.0","time_elapsed":275493,"subject_id":"92602","group":"Group2","condition":"1_Rep","full_date":"2026-03-06T20:38:55.870Z","date":"2026-03-06","time":"20:38:55"},{"correct_response":"a","task":"test_phase","broad_category":"I","image_png":"I_Andesite_10.png","image_id":10,"category_name":"Andesite","category":1,"distinct_rating":3.15,"distinct_type":"Bottom","item_type":"Foil","rt":1001,"stimulus":"Stimuli_Rocks480/I_Andesite_10.png","response":"a","trial_type":"image-keyboard-response","trial_index":157,"plugin_version":"2.1.0","time_elapsed":276496,"subject_id":"92602","group":"Group2","condition":"1_Rep","full_date":"2026-03-06T20:38:55.870Z","date":"2026-03-06","time":"20:38:55","cor_ans":true},{"trial_type":"html-keyboard-response","rt":null,"stimulus":"<p style=\"color: green; font-size: 50px; font-weight: bold;\">Correct</p>","response":null,"trial_index":158,"plugin_version":"2.1.0","time_elapsed":277002,"subject_id":"92602","group":"Group2","condition":"1_Rep","full_date":"2026-03-06T20:38:55.870Z","date":"2026-03-06","time":"20:38:55"},{"correct_response":"a","task":"test_phase","broad_category":"I","image_png":"I_Pegmatite_16.png","image_id":112,"category_name":"Pegmatite","category":7,"distinct_rating":7.03,"distinct_type":"Top","item_type":"Foil","rt":862,"stimulus":"Stimuli_Rocks480/I_Pegmatite_16.png","response":"a","trial_type":"image-keyboard-response","trial_index":159,"plugin_version":"2.1.0","time_elapsed":277865,"subject_id":"92602","group":"Group2","condition":"1_Rep","full_date":"2026-03-06T20:38:55.870Z","date":"2026-03-06","time":"20:38:55","cor_ans":true},{"trial_type":"html-keyboard-response","rt":null,"stimulus":"<p style=\"color: green; font-size: 50px; font-weight: bold;\">Correct</p>","response":null,"trial_index":160,"plugin_version":"2.1.0","time_elapsed":278378,"subject_id":"92602","group":"Group2","condition":"1_Rep","full_date":"2026-03-06T20:38:55.870Z","date":"2026-03-06","time":"20:38:55"},{"correct_response":"l","task":"test_phase","broad_category":"I","image_png":"I_Andesite_09.png","image_id":9,"category_name":"Andesite","category":1,"distinct_rating":2.49,"distinct_type":"Bottom","item_type":"Target","rt":2910,"stimulus":"Stimuli_Rocks480/I_Andesite_09.png","response":"a","trial_type":"image-keyboard-response","trial_index":161,"plugin_version":"2.1.0","time_elapsed":281290,"subject_id":"92602","group":"Group2","condition":"1_Rep","full_date":"2026-03-06T20:38:55.870Z","date":"2026-03-06","time":"20:38:55","cor_ans":false},{"trial_type":"html-keyboard-response","rt":null,"stimulus":"<p style=\"color: red; font-size: 50px; font-weight: bold;\">Incorrect</p>","response":null,"trial_index":162,"plugin_version":"2.1.0","time_elapsed":281795,"subject_id":"92602","group":"Group2","condition":"1_Rep","full_date":"2026-03-06T20:38:55.870Z","date":"2026-03-06","time":"20:38:55"},{"correct_response":"l","task":"test_phase","broad_category":"I","image_png":"I_Gabbro_12.png","image_id":60,"category_name":"Gabbro","category":4,"distinct_rating":2.6,"distinct_type":"Bottom","item_type":"Target","rt":1040,"stimulus":"Stimuli_Rocks480/I_Gabbro_12.png","response":"l","trial_type":"image-keyboard-response","trial_index":163,"plugin_version":"2.1.0","time_elapsed":282836,"subject_id":"92602","group":"Group2","condition":"1_Rep","full_date":"2026-03-06T20:38:55.870Z","date":"2026-03-06","time":"20:38:55","cor_ans":true},{"trial_type":"html-keyboard-response","rt":null,"stimulus":"<p style=\"color: green; font-size: 50px; font-weight: bold;\">Correct</p>","response":null,"trial_index":164,"plugin_version":"2.1.0","time_elapsed":283342,"subject_id":"92602","group":"Group2","condition":"1_Rep","full_date":"2026-03-06T20:38:55.870Z","date":"2026-03-06","time":"20:38:55"},{"correct_response":"a","task":"test_phase","broad_category":"S","image_png":"S_Dolomite_13.png","image_id":397,"category_name":"Dolomite","category":25,"distinct_rating":1.77,"distinct_type":"Bottom","item_type":"Foil","rt":1860,"stimulus":"Stimuli_Rocks480/S_Dolomite_13.png","response":"l","trial_type":"image-keyboard-response","trial_index":165,"plugin_version":"2.1.0","time_elapsed":285203,"subject_id":"92602","group":"Group2","condition":"1_Rep","full_date":"2026-03-06T20:38:55.870Z","date":"2026-03-06","time":"20:38:55","cor_ans":false},{"trial_type":"html-keyboard-response","rt":null,"stimulus":"<p style=\"color: red; font-size: 50px; font-weight: bold;\">Incorrect</p>","response":null,"trial_index":166,"plugin_version":"2.1.0","time_elapsed":285713,"subject_id":"92602","group":"Group2","condition":"1_Rep","full_date":"2026-03-06T20:38:55.870Z","date":"2026-03-06","time":"20:38:55"},{"correct_response":"l","task":"test_phase","broad_category":"S","image_png":"S_Rock Salt_13.png","image_id":445,"category_name":"Rock Salt","category":28,"distinct_rating":7.58,"distinct_type":"Top","item_type":"Target","rt":711,"stimulus":"Stimuli_Rocks480/S_Rock Salt_13.png","response":"l","trial_type":"image-keyboard-response","trial_index":167,"plugin_version":"2.1.0","time_elapsed":286424,"subject_id":"92602","group":"Group2","condition":"1_Rep","full_date":"2026-03-06T20:38:55.870Z","date":"2026-03-06","time":"20:38:55","cor_ans":true},{"trial_type":"html-keyboard-response","rt":null,"stimulus":"<p style=\"color: green; font-size: 50px; font-weight: bold;\">Correct</p>","response":null,"trial_index":168,"plugin_version":"2.1.0","time_elapsed":286930,"subject_id":"92602","group":"Group2","condition":"1_Rep","full_date":"2026-03-06T20:38:55.870Z","date":"2026-03-06","time":"20:38:55"},{"correct_response":"a","task":"test_phase","broad_category":"M","image_png":"M_Slate_03.png","image_id":307,"category_name":"Slate","category":20,"distinct_rating":1.87,"distinct_type":"Bottom","item_type":"Foil","rt":1198,"stimulus":"Stimuli_Rocks480/M_Slate_03.png","response":"l","trial_type":"image-keyboard-response","trial_index":169,"plugin_version":"2.1.0","time_elapsed":288130,"subject_id":"92602","group":"Group2","condition":"1_Rep","full_date":"2026-03-06T20:38:55.870Z","date":"2026-03-06","time":"20:38:55","cor_ans":false},{"trial_type":"html-keyboard-response","rt":null,"stimulus":"<p style=\"color: red; font-size: 50px; font-weight: bold;\">Incorrect</p>","response":null,"trial_index":170,"plugin_version":"2.1.0","time_elapsed":288641,"subject_id":"92602","group":"Group2","condition":"1_Rep","full_date":"2026-03-06T20:38:55.870Z","date":"2026-03-06","time":"20:38:55"},{"correct_response":"a","task":"test_phase","broad_category":"I","image_png":"I_Rhyolite_16.png","image_id":160,"category_name":"Rhyolite","category":10,"distinct_rating":2.19,"distinct_type":"Bottom","item_type":"Foil","rt":898,"stimulus":"Stimuli_Rocks480/I_Rhyolite_16.png","response":"a","trial_type":"image-keyboard-response","trial_index":171,"plugin_version":"2.1.0","time_elapsed":289540,"subject_id":"92602","group":"Group2","condition":"1_Rep","full_date":"2026-03-06T20:38:55.870Z","date":"2026-03-06","time":"20:38:55","cor_ans":true},{"trial_type":"html-keyboard-response","rt":null,"stimulus":"<p style=\"color: green; font-size: 50px; font-weight: bold;\">Correct</p>","response":null,"trial_index":172,"plugin_version":"2.1.0","time_elapsed":290045,"subject_id":"92602","group":"Group2","condition":"1_Rep","full_date":"2026-03-06T20:38:55.870Z","date":"2026-03-06","time":"20:38:55"},{"correct_response":"l","task":"test_phase","broad_category":"M","image_png":"M_Marble_02.png","image_id":226,"category_name":"Marble","category":15,"distinct_rating":3.2,"distinct_type":"Bottom","item_type":"Target","rt":794,"stimulus":"Stimuli_Rocks480/M_Marble_02.png","response":"l","trial_type":"image-keyboard-response","trial_index":173,"plugin_version":"2.1.0","time_elapsed":290840,"subject_id":"92602","group":"Group2","condition":"1_Rep","full_date":"2026-03-06T20:38:55.870Z","date":"2026-03-06","time":"20:38:55","cor_ans":true},{"trial_type":"html-keyboard-response","rt":null,"stimulus":"<p style=\"color: green; font-size: 50px; font-weight: bold;\">Correct</p>","response":null,"trial_index":174,"plugin_version":"2.1.0","time_elapsed":291349,"subject_id":"92602","group":"Group2","condition":"1_Rep","full_date":"2026-03-06T20:38:55.870Z","date":"2026-03-06","time":"20:38:55"},{"correct_response":"l","task":"test_phase","broad_category":"S","image_png":"S_Rock Salt_15.png","image_id":447,"category_name":"Rock Salt","category":28,"distinct_rating":7.79,"distinct_type":"Top","item_type":"Target","rt":753,"stimulus":"Stimuli_Rocks480/S_Rock Salt_15.png","response":"l","trial_type":"image-keyboard-response","trial_index":175,"plugin_version":"2.1.0","time_elapsed":292104,"subject_id":"92602","group":"Group2","condition":"1_Rep","full_date":"2026-03-06T20:38:55.870Z","date":"2026-03-06","time":"20:38:55","cor_ans":true},{"trial_type":"html-keyboard-response","rt":null,"stimulus":"<p style=\"color: green; font-size: 50px; font-weight: bold;\">Correct</p>","response":null,"trial_index":176,"plugin_version":"2.1.0","time_elapsed":292609,"subject_id":"92602","group":"Group2","condition":"1_Rep","full_date":"2026-03-06T20:38:55.870Z","date":"2026-03-06","time":"20:38:55"},{"correct_response":"l","task":"test_phase","broad_category":"S","image_png":"S_Conglomerate_14.png","image_id":382,"category_name":"Conglomerate","category":24,"distinct_rating":6.86,"distinct_type":"Top","item_type":"Target","rt":785,"stimulus":"Stimuli_Rocks480/S_Conglomerate_14.png","response":"l","trial_type":"image-keyboard-response","trial_index":177,"plugin_version":"2.1.0","time_elapsed":293395,"subject_id":"92602","group":"Group2","condition":"1_Rep","full_date":"2026-03-06T20:38:55.870Z","date":"2026-03-06","time":"20:38:55","cor_ans":true},{"trial_type":"html-keyboard-response","rt":null,"stimulus":"<p style=\"color: green; font-size: 50px; font-weight: bold;\">Correct</p>","response":null,"trial_index":178,"plugin_version":"2.1.0","time_elapsed":293900,"subject_id":"92602","group":"Group2","condition":"1_Rep","full_date":"2026-03-06T20:38:55.870Z","date":"2026-03-06","time":"20:38:55"},{"correct_response":"a","task":"test_phase","broad_category":"S","image_png":"S_Rock Gypsum_04.png","image_id":420,"category_name":"Rock Gypsum","category":27,"distinct_rating":7.61,"distinct_type":"Top","item_type":"Foil","rt":924,"stimulus":"Stimuli_Rocks480/S_Rock Gypsum_04.png","response":"a","trial_type":"image-keyboard-response","trial_index":179,"plugin_version":"2.1.0","time_elapsed":294825,"subject_id":"92602","group":"Group2","condition":"1_Rep","full_date":"2026-03-06T20:38:55.870Z","date":"2026-03-06","time":"20:38:55","cor_ans":true},{"trial_type":"html-keyboard-response","rt":null,"stimulus":"<p style=\"color: green; font-size: 50px; font-weight: bold;\">Correct</p>","response":null,"trial_index":180,"plugin_version":"2.1.0","time_elapsed":295330,"subject_id":"92602","group":"Group2","condition":"1_Rep","full_date":"2026-03-06T20:38:55.870Z","date":"2026-03-06","time":"20:38:55"},{"correct_response":"a","task":"test_phase","broad_category":"S","image_png":"S_Conglomerate_05.png","image_id":373,"category_name":"Conglomerate","category":24,"distinct_rating":7.32,"distinct_type":"Top","item_type":"Foil","rt":849,"stimulus":"Stimuli_Rocks480/S_Conglomerate_05.png","response":"a","trial_type":"image-keyboard-response","trial_index":181,"plugin_version":"2.1.0","time_elapsed":296181,"subject_id":"92602","group":"Group2","condition":"1_Rep","full_date":"2026-03-06T20:38:55.870Z","date":"2026-03-06","time":"20:38:55","cor_ans":true},{"trial_type":"html-keyboard-response","rt":null,"stimulus":"<p style=\"color: green; font-size: 50px; font-weight: bold;\">Correct</p>","response":null,"trial_index":182,"plugin_version":"2.1.0","time_elapsed":296697,"subject_id":"92602","group":"Group2","condition":"1_Rep","full_date":"2026-03-06T20:38:55.870Z","date":"2026-03-06","time":"20:38:55"},{"correct_response":"l","task":"test_phase","broad_category":"I","image_png":"I_Pegmatite_03.png","image_id":99,"category_name":"Pegmatite","category":7,"distinct_rating":7.24,"distinct_type":"Top","item_type":"Target","rt":712,"stimulus":"Stimuli_Rocks480/I_Pegmatite_03.png","response":"a","trial_type":"image-keyboard-response","trial_index":183,"plugin_version":"2.1.0","time_elapsed":297410,"subject_id":"92602","group":"Group2","condition":"1_Rep","full_date":"2026-03-06T20:38:55.870Z","date":"2026-03-06","time":"20:38:55","cor_ans":false},{"trial_type":"html-keyboard-response","rt":null,"stimulus":"<p style=\"color: red; font-size: 50px; font-weight: bold;\">Incorrect</p>","response":null,"trial_index":184,"plugin_version":"2.1.0","time_elapsed":297920,"subject_id":"92602","group":"Group2","condition":"1_Rep","full_date":"2026-03-06T20:38:55.870Z","date":"2026-03-06","time":"20:38:55"},{"correct_response":"a","task":"test_phase","broad_category":"S","image_png":"S_Rock Salt_01.png","image_id":433,"category_name":"Rock Salt","category":28,"distinct_rating":7.18,"distinct_type":"Top","item_type":"Foil","rt":876,"stimulus":"Stimuli_Rocks480/S_Rock Salt_01.png","response":"a","trial_type":"image-keyboard-response","trial_index":185,"plugin_version":"2.1.0","time_elapsed":298797,"subject_id":"92602","group":"Group2","condition":"1_Rep","full_date":"2026-03-06T20:38:55.870Z","date":"2026-03-06","time":"20:38:55","cor_ans":true},{"trial_type":"html-keyboard-response","rt":null,"stimulus":"<p style=\"color: green; font-size: 50px; font-weight: bold;\">Correct</p>","response":null,"trial_index":186,"plugin_version":"2.1.0","time_elapsed":299300,"subject_id":"92602","group":"Group2","condition":"1_Rep","full_date":"2026-03-06T20:38:55.870Z","date":"2026-03-06","time":"20:38:55"},{"correct_response":"l","task":"test_phase","broad_category":"M","image_png":"M_Quartzite_07.png","image_id":279,"category_name":"Quartzite","category":18,"distinct_rating":1.97,"distinct_type":"Bottom","item_type":"Target","rt":2857,"stimulus":"Stimuli_Rocks480/M_Quartzite_07.png","response":"l","trial_type":"image-keyboard-response","trial_index":187,"plugin_version":"2.1.0","time_elapsed":302159,"subject_id":"92602","group":"Group2","condition":"1_Rep","full_date":"2026-03-06T20:38:55.870Z","date":"2026-03-06","time":"20:38:55","cor_ans":true},{"trial_type":"html-keyboard-response","rt":null,"stimulus":"<p style=\"color: green; font-size: 50px; font-weight: bold;\">Correct</p>","response":null,"trial_index":188,"plugin_version":"2.1.0","time_elapsed":302664,"subject_id":"92602","group":"Group2","condition":"1_Rep","full_date":"2026-03-06T20:38:55.870Z","date":"2026-03-06","time":"20:38:55"},{"correct_response":"l","task":"test_phase","broad_category":"I","image_png":"I_Pumice_13.png","image_id":141,"category_name":"Pumice","category":9,"distinct_rating":3.12,"distinct_type":"Bottom","item_type":"Target","rt":1423,"stimulus":"Stimuli_Rocks480/I_Pumice_13.png","response":"l","trial_type":"image-keyboard-response","trial_index":189,"plugin_version":"2.1.0","time_elapsed":304084,"subject_id":"92602","group":"Group2","condition":"1_Rep","full_date":"2026-03-06T20:38:55.870Z","date":"2026-03-06","time":"20:38:55","cor_ans":true},{"trial_type":"html-keyboard-response","rt":null,"stimulus":"<p style=\"color: green; font-size: 50px; font-weight: bold;\">Correct</p>","response":null,"trial_index":190,"plugin_version":"2.1.0","time_elapsed":304594,"subject_id":"92602","group":"Group2","condition":"1_Rep","full_date":"2026-03-06T20:38:55.870Z","date":"2026-03-06","time":"20:38:55"},{"correct_response":"a","task":"test_phase","broad_category":"S","image_png":"S_Sandstone_15.png","image_id":463,"category_name":"Sandstone","category":29,"distinct_rating":2,"distinct_type":"Bottom","item_type":"Foil","rt":845,"stimulus":"Stimuli_Rocks480/S_Sandstone_15.png","response":"a","trial_type":"image-keyboard-response","trial_index":191,"plugin_version":"2.1.0","time_elapsed":305441,"subject_id":"92602","group":"Group2","condition":"1_Rep","full_date":"2026-03-06T20:38:55.870Z","date":"2026-03-06","time":"20:38:55","cor_ans":true},{"trial_type":"html-keyboard-response","rt":null,"stimulus":"<p style=\"color: green; font-size: 50px; font-weight: bold;\">Correct</p>","response":null,"trial_index":192,"plugin_version":"2.1.0","time_elapsed":305945,"subject_id":"92602","group":"Group2","condition":"1_Rep","full_date":"2026-03-06T20:38:55.870Z","date":"2026-03-06","time":"20:38:55"},{"correct_response":"a","task":"test_phase","broad_category":"I","image_png":"I_Rhyolite_11.png","image_id":155,"category_name":"Rhyolite","category":10,"distinct_rating":1.73,"distinct_type":"Bottom","item_type":"Foil","rt":1196,"stimulus":"Stimuli_Rocks480/I_Rhyolite_11.png","response":"l","trial_type":"image-keyboard-response","trial_index":193,"plugin_version":"2.1.0","time_elapsed":307141,"subject_id":"92602","group":"Group2","condition":"1_Rep","full_date":"2026-03-06T20:38:55.870Z","date":"2026-03-06","time":"20:38:55","cor_ans":false},{"trial_type":"html-keyboard-response","rt":null,"stimulus":"<p style=\"color: red; font-size: 50px; font-weight: bold;\">Incorrect</p>","response":null,"trial_index":194,"plugin_version":"2.1.0","time_elapsed":307653,"subject_id":"92602","group":"Group2","condition":"1_Rep","full_date":"2026-03-06T20:38:55.870Z","date":"2026-03-06","time":"20:38:55"},{"correct_response":"l","task":"test_phase","broad_category":"M","image_png":"M_Slate_04.png","image_id":308,"category_name":"Slate","category":20,"distinct_rating":2.2,"distinct_type":"Bottom","item_type":"Target","rt":693,"stimulus":"Stimuli_Rocks480/M_Slate_04.png","response":"l","trial_type":"image-keyboard-response","trial_index":195,"plugin_version":"2.1.0","time_elapsed":308348,"subject_id":"92602","group":"Group2","condition":"1_Rep","full_date":"2026-03-06T20:38:55.870Z","date":"2026-03-06","time":"20:38:55","cor_ans":true},{"trial_type":"html-keyboard-response","rt":null,"stimulus":"<p style=\"color: green; font-size: 50px; font-weight: bold;\">Correct</p>","response":null,"trial_index":196,"plugin_version":"2.1.0","time_elapsed":308861,"subject_id":"92602","group":"Group2","condition":"1_Rep","full_date":"2026-03-06T20:38:55.870Z","date":"2026-03-06","time":"20:38:55"},{"correct_response":"a","task":"test_phase","broad_category":"S","image_png":"S_Shale_08.png","image_id":472,"category_name":"Shale","category":30,"distinct_rating":2.55,"distinct_type":"Bottom","item_type":"Foil","rt":1018,"stimulus":"Stimuli_Rocks480/S_Shale_08.png","response":"a","trial_type":"image-keyboard-response","trial_index":197,"plugin_version":"2.1.0","time_elapsed":309881,"subject_id":"92602","group":"Group2","condition":"1_Rep","full_date":"2026-03-06T20:38:55.870Z","date":"2026-03-06","time":"20:38:55","cor_ans":true},{"trial_type":"html-keyboard-response","rt":null,"stimulus":"<p style=\"color: green; font-size: 50px; font-weight: bold;\">Correct</p>","response":null,"trial_index":198,"plugin_version":"2.1.0","time_elapsed":310396,"subject_id":"92602","group":"Group2","condition":"1_Rep","full_date":"2026-03-06T20:38:55.870Z","date":"2026-03-06","time":"20:38:55"},{"correct_response":"a","task":"test_phase","broad_category":"I","image_png":"I_Basalt_01.png","image_id":17,"category_name":"Basalt","category":2,"distinct_rating":1.92,"distinct_type":"Bottom","item_type":"Foil","rt":898,"stimulus":"Stimuli_Rocks480/I_Basalt_01.png","response":"a","trial_type":"image-keyboard-response","trial_index":199,"plugin_version":"2.1.0","time_elapsed":311295,"subject_id":"92602","group":"Group2","condition":"1_Rep","full_date":"2026-03-06T20:38:55.870Z","date":"2026-03-06","time":"20:38:55","cor_ans":true},{"trial_type":"html-keyboard-response","rt":null,"stimulus":"<p style=\"color: green; font-size: 50px; font-weight: bold;\">Correct</p>","response":null,"trial_index":200,"plugin_version":"2.1.0","time_elapsed":311801,"subject_id":"92602","group":"Group2","condition":"1_Rep","full_date":"2026-03-06T20:38:55.870Z","date":"2026-03-06","time":"20:38:55"},{"correct_response":"l","task":"test_phase","broad_category":"M","image_png":"M_Phyllite_02.png","image_id":258,"category_name":"Phyllite","category":17,"distinct_rating":2.89,"distinct_type":"Bottom","item_type":"Target","rt":797,"stimulus":"Stimuli_Rocks480/M_Phyllite_02.png","response":"a","trial_type":"image-keyboard-response","trial_index":201,"plugin_version":"2.1.0","time_elapsed":312600,"subject_id":"92602","group":"Group2","condition":"1_Rep","full_date":"2026-03-06T20:38:55.870Z","date":"2026-03-06","time":"20:38:55","cor_ans":false},{"trial_type":"html-keyboard-response","rt":null,"stimulus":"<p style=\"color: red; font-size: 50px; font-weight: bold;\">Incorrect</p>","response":null,"trial_index":202,"plugin_version":"2.1.0","time_elapsed":313110,"subject_id":"92602","group":"Group2","condition":"1_Rep","full_date":"2026-03-06T20:38:55.870Z","date":"2026-03-06","time":"20:38:55"},{"correct_response":"l","task":"test_phase","broad_category":"I","image_png":"I_Diorite_01.png","image_id":33,"category_name":"Diorite","category":3,"distinct_rating":2.97,"distinct_type":"Bottom","item_type":"Target","rt":787,"stimulus":"Stimuli_Rocks480/I_Diorite_01.png","response":"l","trial_type":"image-keyboard-response","trial_index":203,"plugin_version":"2.1.0","time_elapsed":313899,"subject_id":"92602","group":"Group2","condition":"1_Rep","full_date":"2026-03-06T20:38:55.870Z","date":"2026-03-06","time":"20:38:55","cor_ans":true},{"trial_type":"html-keyboard-response","rt":null,"stimulus":"<p style=\"color: green; font-size: 50px; font-weight: bold;\">Correct</p>","response":null,"trial_index":204,"plugin_version":"2.1.0","time_elapsed":314413,"subject_id":"92602","group":"Group2","condition":"1_Rep","full_date":"2026-03-06T20:38:55.870Z","date":"2026-03-06","time":"20:38:55"},{"correct_response":"l","task":"test_phase","broad_category":"S","image_png":"S_Dolomite_01.png","image_id":385,"category_name":"Dolomite","category":25,"distinct_rating":1.43,"distinct_type":"Bottom","item_type":"Target","rt":853,"stimulus":"Stimuli_Rocks480/S_Dolomite_01.png","response":"l","trial_type":"image-keyboard-response","trial_index":205,"plugin_version":"2.1.0","time_elapsed":315268,"subject_id":"92602","group":"Group2","condition":"1_Rep","full_date":"2026-03-06T20:38:55.870Z","date":"2026-03-06","time":"20:38:55","cor_ans":true},{"trial_type":"html-keyboard-response","rt":null,"stimulus":"<p style=\"color: green; font-size: 50px; font-weight: bold;\">Correct</p>","response":null,"trial_index":206,"plugin_version":"2.1.0","time_elapsed":315777,"subject_id":"92602","group":"Group2","condition":"1_Rep","full_date":"2026-03-06T20:38:55.870Z","date":"2026-03-06","time":"20:38:55"},{"correct_response":"l","task":"test_phase","broad_category":"I","image_png":"I_Rhyolite_05.png","image_id":149,"category_name":"Rhyolite","category":10,"distinct_rating":3.02,"distinct_type":"Bottom","item_type":"Target","rt":796,"stimulus":"Stimuli_Rocks480/I_Rhyolite_05.png","response":"l","trial_type":"image-keyboard-response","trial_index":207,"plugin_version":"2.1.0","time_elapsed":316574,"subject_id":"92602","group":"Group2","condition":"1_Rep","full_date":"2026-03-06T20:38:55.870Z","date":"2026-03-06","time":"20:38:55","cor_ans":true},{"trial_type":"html-keyboard-response","rt":null,"stimulus":"<p style=\"color: green; font-size: 50px; font-weight: bold;\">Correct</p>","response":null,"trial_index":208,"plugin_version":"2.1.0","time_elapsed":317078,"subject_id":"92602","group":"Group2","condition":"1_Rep","full_date":"2026-03-06T20:38:55.870Z","date":"2026-03-06","time":"20:38:55"},{"correct_response":"l","task":"test_phase","broad_category":"S","image_png":"S_Dolomite_07.png","image_id":391,"category_name":"Dolomite","category":25,"distinct_rating":1.73,"distinct_type":"Bottom","item_type":"Target","rt":766,"stimulus":"Stimuli_Rocks480/S_Dolomite_07.png","response":"a","trial_type":"image-keyboard-response","trial_index":209,"plugin_version":"2.1.0","time_elapsed":317845,"subject_id":"92602","group":"Group2","condition":"1_Rep","full_date":"2026-03-06T20:38:55.870Z","date":"2026-03-06","time":"20:38:55","cor_ans":false},{"trial_type":"html-keyboard-response","rt":null,"stimulus":"<p style=\"color: red; font-size: 50px; font-weight: bold;\">Incorrect</p>","response":null,"trial_index":210,"plugin_version":"2.1.0","time_elapsed":318351,"subject_id":"92602","group":"Group2","condition":"1_Rep","full_date":"2026-03-06T20:38:55.870Z","date":"2026-03-06","time":"20:38:55"},{"correct_response":"a","task":"test_phase","broad_category":"S","image_png":"S_Chert_10.png","image_id":362,"category_name":"Chert","category":23,"distinct_rating":7.17,"distinct_type":"Top","item_type":"Foil","rt":968,"stimulus":"Stimuli_Rocks480/S_Chert_10.png","response":"a","trial_type":"image-keyboard-response","trial_index":211,"plugin_version":"2.1.0","time_elapsed":319321,"subject_id":"92602","group":"Group2","condition":"1_Rep","full_date":"2026-03-06T20:38:55.870Z","date":"2026-03-06","time":"20:38:55","cor_ans":true},{"trial_type":"html-keyboard-response","rt":null,"stimulus":"<p style=\"color: green; font-size: 50px; font-weight: bold;\">Correct</p>","response":null,"trial_index":212,"plugin_version":"2.1.0","time_elapsed":319832,"subject_id":"92602","group":"Group2","condition":"1_Rep","full_date":"2026-03-06T20:38:55.870Z","date":"2026-03-06","time":"20:38:55"},{"correct_response":"l","task":"test_phase","broad_category":"I","image_png":"I_Diorite_15.png","image_id":47,"category_name":"Diorite","category":3,"distinct_rating":3.05,"distinct_type":"Bottom","item_type":"Target","rt":701,"stimulus":"Stimuli_Rocks480/I_Diorite_15.png","response":"l","trial_type":"image-keyboard-response","trial_index":213,"plugin_version":"2.1.0","time_elapsed":320535,"subject_id":"92602","group":"Group2","condition":"1_Rep","full_date":"2026-03-06T20:38:55.870Z","date":"2026-03-06","time":"20:38:55","cor_ans":true},{"trial_type":"html-keyboard-response","rt":null,"stimulus":"<p style=\"color: green; font-size: 50px; font-weight: bold;\">Correct</p>","response":null,"trial_index":214,"plugin_version":"2.1.0","time_elapsed":321043,"subject_id":"92602","group":"Group2","condition":"1_Rep","full_date":"2026-03-06T20:38:55.870Z","date":"2026-03-06","time":"20:38:55"},{"correct_response":"a","task":"test_phase","broad_category":"I","image_png":"I_Obsidian_05.png","image_id":85,"category_name":"Obsidian","category":6,"distinct_rating":7.32,"distinct_type":"Top","item_type":"Foil","rt":680,"stimulus":"Stimuli_Rocks480/I_Obsidian_05.png","response":"a","trial_type":"image-keyboard-response","trial_index":215,"plugin_version":"2.1.0","time_elapsed":321724,"subject_id":"92602","group":"Group2","condition":"1_Rep","full_date":"2026-03-06T20:38:55.870Z","date":"2026-03-06","time":"20:38:55","cor_ans":true},{"trial_type":"html-keyboard-response","rt":null,"stimulus":"<p style=\"color: green; font-size: 50px; font-weight: bold;\">Correct</p>","response":null,"trial_index":216,"plugin_version":"2.1.0","time_elapsed":322230,"subject_id":"92602","group":"Group2","condition":"1_Rep","full_date":"2026-03-06T20:38:55.870Z","date":"2026-03-06","time":"20:38:55"},{"correct_response":"a","task":"test_phase","broad_category":"M","image_png":"M_Gneiss_13.png","image_id":205,"category_name":"Gneiss","category":13,"distinct_rating":3.26,"distinct_type":"Bottom","item_type":"Foil","rt":1073,"stimulus":"Stimuli_Rocks480/M_Gneiss_13.png","response":"l","trial_type":"image-keyboard-response","trial_index":217,"plugin_version":"2.1.0","time_elapsed":323305,"subject_id":"92602","group":"Group2","condition":"1_Rep","full_date":"2026-03-06T20:38:55.870Z","date":"2026-03-06","time":"20:38:55","cor_ans":false},{"trial_type":"html-keyboard-response","rt":null,"stimulus":"<p style=\"color: red; font-size: 50px; font-weight: bold;\">Incorrect</p>","response":null,"trial_index":218,"plugin_version":"2.1.0","time_elapsed":323812,"subject_id":"92602","group":"Group2","condition":"1_Rep","full_date":"2026-03-06T20:38:55.870Z","date":"2026-03-06","time":"20:38:55"},{"correct_response":"l","task":"test_phase","broad_category":"I","image_png":"I_Pumice_14.png","image_id":142,"category_name":"Pumice","category":9,"distinct_rating":3.22,"distinct_type":"Bottom","item_type":"Target","rt":780,"stimulus":"Stimuli_Rocks480/I_Pumice_14.png","response":"l","trial_type":"image-keyboard-response","trial_index":219,"plugin_version":"2.1.0","time_elapsed":324594,"subject_id":"92602","group":"Group2","condition":"1_Rep","full_date":"2026-03-06T20:38:55.870Z","date":"2026-03-06","time":"20:38:55","cor_ans":true},{"trial_type":"html-keyboard-response","rt":null,"stimulus":"<p style=\"color: green; font-size: 50px; font-weight: bold;\">Correct</p>","response":null,"trial_index":220,"plugin_version":"2.1.0","time_elapsed":325096,"subject_id":"92602","group":"Group2","condition":"1_Rep","full_date":"2026-03-06T20:38:55.870Z","date":"2026-03-06","time":"20:38:55"},{"correct_response":"a","task":"test_phase","broad_category":"S","image_png":"S_Breccia_11.png","image_id":347,"category_name":"Breccia","category":22,"distinct_rating":6.7,"distinct_type":"Top","item_type":"Foil","rt":682,"stimulus":"Stimuli_Rocks480/S_Breccia_11.png","response":"a","trial_type":"image-keyboard-response","trial_index":221,"plugin_version":"2.1.0","time_elapsed":325779,"subject_id":"92602","group":"Group2","condition":"1_Rep","full_date":"2026-03-06T20:38:55.870Z","date":"2026-03-06","time":"20:38:55","cor_ans":true},{"trial_type":"html-keyboard-response","rt":null,"stimulus":"<p style=\"color: green; font-size: 50px; font-weight: bold;\">Correct</p>","response":null,"trial_index":222,"plugin_version":"2.1.0","time_elapsed":326285,"subject_id":"92602","group":"Group2","condition":"1_Rep","full_date":"2026-03-06T20:38:55.870Z","date":"2026-03-06","time":"20:38:55"},{"correct_response":"l","task":"test_phase","broad_category":"S","image_png":"S_Shale_02.png","image_id":466,"category_name":"Shale","category":30,"distinct_rating":2.9,"distinct_type":"Bottom","item_type":"Target","rt":1091,"stimulus":"Stimuli_Rocks480/S_Shale_02.png","response":"a","trial_type":"image-keyboard-response","trial_index":223,"plugin_version":"2.1.0","time_elapsed":327378,"subject_id":"92602","group":"Group2","condition":"1_Rep","full_date":"2026-03-06T20:38:55.870Z","date":"2026-03-06","time":"20:38:55","cor_ans":false},{"trial_type":"html-keyboard-response","rt":null,"stimulus":"<p style=\"color: red; font-size: 50px; font-weight: bold;\">Incorrect</p>","response":null,"trial_index":224,"plugin_version":"2.1.0","time_elapsed":327892,"subject_id":"92602","group":"Group2","condition":"1_Rep","full_date":"2026-03-06T20:38:55.870Z","date":"2026-03-06","time":"20:38:55"},{"correct_response":"a","task":"test_phase","broad_category":"M","image_png":"M_Quartzite_13.png",