[{"width":1435,"height":696,"webaudio":true,"browser":"chrome","browser_version":"145.0.0","mobile":false,"os":"Mac OS","fullscreen":true,"vsync_rate":59.99,"webcam":true,"microphone":true,"trial_type":"browser-check","trial_index":0,"plugin_version":"2.1.0","time_elapsed":1008,"subject_id":"92545","group":"Group1","condition":"1_Rep","full_date":"2026-03-11T17:42:35.277Z","date":"2026-03-11","time":"17:42:35"},{"success":true,"timeout":false,"failed_images":[],"failed_audio":[],"failed_video":[],"trial_type":"preload","trial_index":1,"plugin_version":"2.1.0","time_elapsed":2800,"subject_id":"92545","group":"Group1","condition":"1_Rep","full_date":"2026-03-11T17:42:35.277Z","date":"2026-03-11","time":"17:42:35"},{"rt":507683,"url":"SONA_consent_memorability.html","trial_type":"external-html","trial_index":2,"plugin_version":"2.1.0","time_elapsed":510542,"subject_id":"92545","group":"Group1","condition":"1_Rep","full_date":"2026-03-11T17:42:35.277Z","date":"2026-03-11","time":"17:42:35"},{"success":true,"rt":1909,"trial_type":"fullscreen","trial_index":3,"plugin_version":"2.1.0","time_elapsed":513460,"subject_id":"92545","group":"Group1","condition":"1_Rep","full_date":"2026-03-11T17:42:35.277Z","date":"2026-03-11","time":"17:42:35"},{"rt":155809,"stimulus":"<div style=\"max-width: 760px; margin: auto; font-size: 20px; line-height: 1.5;\">\n      <h1 style=\"text-align:center; font-size: 30px;\">Instructions</h1>\n      <p>\n        Welcome to the study on <b>visual memory</b>. This experiment consists of <b>two phases</b>: \n        a <b>study phase</b> and a <b>test phase</b>.\n      </p>\n      <p>\n        In the study phase, you will see a series of rock images along with their category labels.\n        The images will appear one at a time.\n        <b>Your task</b> is to learn the categories to which the rock images belong \n        and to remember each image as accurately as possible.\n      </p> \n      <p>\n        Note that you will see each image only <b>once</b> during the study phase. \n          So, please pay close attention and try to remember each image carefully.\n      </p>\n      <p>\n        After the study phase, <b>your memory will be tested</b>. \n        Additional instructions for the test phase will be provided at that time.\n      </p>\n      <p>\n        If your computer has multiple <b>language settings</b> (e.g., English and another language),\n        please make sure it is set to English before starting.\n      </p>\n      <p>\n        You can track your progress using the <b>completion bar</b> at the top of the screen. \n        Please note that the bar will refresh when the test phase begins \n        to give you an accurate sense of your progress in both phases.\n      </p> \n      <p>\n        Press the button below when you are ready to begin.\n      </p>\n    </div>","response":0,"trial_type":"html-button-response","trial_index":4,"plugin_version":"2.1.0","time_elapsed":669275,"subject_id":"92545","group":"Group1","condition":"1_Rep","full_date":"2026-03-11T17:42:35.277Z","date":"2026-03-11","time":"17:42:35"},{"rt":null,"stimulus":"<p style=\"font-size: 50px; margin: 0; text-align: center;\">+</p>","response":null,"trial_type":"html-keyboard-response","trial_index":5,"plugin_version":"2.1.0","time_elapsed":670281,"subject_id":"92545","group":"Group1","condition":"1_Rep","full_date":"2026-03-11T17:42:35.277Z","date":"2026-03-11","time":"17:42:35"},{"task":"memory_phase","broad_category":"M","image_png":"M_Slate_15.png","image_id":319,"category_name":"Slate","category":20,"distinct_rating":2.13,"distinct_type":"Bottom","rt":null,"stimulus":"Stimuli_Rocks480/M_Slate_15.png","response":null,"trial_type":"image-keyboard-response","trial_index":6,"plugin_version":"2.1.0","time_elapsed":672785,"subject_id":"92545","group":"Group1","condition":"1_Rep","full_date":"2026-03-11T17:42:35.277Z","date":"2026-03-11","time":"17:42:35"},{"rt":null,"stimulus":"<p style=\"font-size: 50px; margin: 0; text-align: center;\">+</p>","response":null,"trial_type":"html-keyboard-response","trial_index":7,"plugin_version":"2.1.0","time_elapsed":673789,"subject_id":"92545","group":"Group1","condition":"1_Rep","full_date":"2026-03-11T17:42:35.277Z","date":"2026-03-11","time":"17:42:35"},{"task":"memory_phase","broad_category":"M","image_png":"M_Quartzite_13.png","image_id":285,"category_name":"Quartzite","category":18,"distinct_rating":2.27,"distinct_type":"Bottom","rt":null,"stimulus":"Stimuli_Rocks480/M_Quartzite_13.png","response":null,"trial_type":"image-keyboard-response","trial_index":8,"plugin_version":"2.1.0","time_elapsed":676294,"subject_id":"92545","group":"Group1","condition":"1_Rep","full_date":"2026-03-11T17:42:35.277Z","date":"2026-03-11","time":"17:42:35"},{"rt":null,"stimulus":"<p style=\"font-size: 50px; margin: 0; text-align: center;\">+</p>","response":null,"trial_type":"html-keyboard-response","trial_index":9,"plugin_version":"2.1.0","time_elapsed":677298,"subject_id":"92545","group":"Group1","condition":"1_Rep","full_date":"2026-03-11T17:42:35.277Z","date":"2026-03-11","time":"17:42:35"},{"task":"memory_phase","broad_category":"S","image_png":"S_Shale_12.png","image_id":476,"category_name":"Shale","category":30,"distinct_rating":2.48,"distinct_type":"Bottom","rt":null,"stimulus":"Stimuli_Rocks480/S_Shale_12.png","response":null,"trial_type":"image-keyboard-response","trial_index":10,"plugin_version":"2.1.0","time_elapsed":679801,"subject_id":"92545","group":"Group1","condition":"1_Rep","full_date":"2026-03-11T17:42:35.277Z","date":"2026-03-11","time":"17:42:35"},{"rt":null,"stimulus":"<p style=\"font-size: 50px; margin: 0; text-align: center;\">+</p>","response":null,"trial_type":"html-keyboard-response","trial_index":11,"plugin_version":"2.1.0","time_elapsed":680805,"subject_id":"92545","group":"Group1","condition":"1_Rep","full_date":"2026-03-11T17:42:35.277Z","date":"2026-03-11","time":"17:42:35"},{"task":"memory_phase","broad_category":"M","image_png":"M_Slate_11.png","image_id":315,"category_name":"Slate","category":20,"distinct_rating":2.75,"distinct_type":"Bottom","rt":null,"stimulus":"Stimuli_Rocks480/M_Slate_11.png","response":null,"trial_type":"image-keyboard-response","trial_index":12,"plugin_version":"2.1.0","time_elapsed":683309,"subject_id":"92545","group":"Group1","condition":"1_Rep","full_date":"2026-03-11T17:42:35.277Z","date":"2026-03-11","time":"17:42:35"},{"rt":null,"stimulus":"<p style=\"font-size: 50px; margin: 0; text-align: center;\">+</p>","response":null,"trial_type":"html-keyboard-response","trial_index":13,"plugin_version":"2.1.0","time_elapsed":684311,"subject_id":"92545","group":"Group1","condition":"1_Rep","full_date":"2026-03-11T17:42:35.277Z","date":"2026-03-11","time":"17:42:35"},{"task":"memory_phase","broad_category":"I","image_png":"I_Rhyolite_14.png","image_id":158,"category_name":"Rhyolite","category":10,"distinct_rating":2.59,"distinct_type":"Bottom","rt":null,"stimulus":"Stimuli_Rocks480/I_Rhyolite_14.png","response":null,"trial_type":"image-keyboard-response","trial_index":14,"plugin_version":"2.1.0","time_elapsed":686815,"subject_id":"92545","group":"Group1","condition":"1_Rep","full_date":"2026-03-11T17:42:35.277Z","date":"2026-03-11","time":"17:42:35"},{"rt":null,"stimulus":"<p style=\"font-size: 50px; margin: 0; text-align: center;\">+</p>","response":null,"trial_type":"html-keyboard-response","trial_index":15,"plugin_version":"2.1.0","time_elapsed":687818,"subject_id":"92545","group":"Group1","condition":"1_Rep","full_date":"2026-03-11T17:42:35.277Z","date":"2026-03-11","time":"17:42:35"},{"task":"memory_phase","broad_category":"M","image_png":"M_Marble_16.png","image_id":240,"category_name":"Marble","category":15,"distinct_rating":2.57,"distinct_type":"Bottom","rt":null,"stimulus":"Stimuli_Rocks480/M_Marble_16.png","response":null,"trial_type":"image-keyboard-response","trial_index":16,"plugin_version":"2.1.0","time_elapsed":690323,"subject_id":"92545","group":"Group1","condition":"1_Rep","full_date":"2026-03-11T17:42:35.277Z","date":"2026-03-11","time":"17:42:35"},{"rt":null,"stimulus":"<p style=\"font-size: 50px; margin: 0; text-align: center;\">+</p>","response":null,"trial_type":"html-keyboard-response","trial_index":17,"plugin_version":"2.1.0","time_elapsed":691326,"subject_id":"92545","group":"Group1","condition":"1_Rep","full_date":"2026-03-11T17:42:35.277Z","date":"2026-03-11","time":"17:42:35"},{"task":"memory_phase","broad_category":"I","image_png":"I_Andesite_06.png","image_id":6,"category_name":"Andesite","category":1,"distinct_rating":3.17,"distinct_type":"Bottom","rt":null,"stimulus":"Stimuli_Rocks480/I_Andesite_06.png","response":null,"trial_type":"image-keyboard-response","trial_index":18,"plugin_version":"2.1.0","time_elapsed":693830,"subject_id":"92545","group":"Group1","condition":"1_Rep","full_date":"2026-03-11T17:42:35.277Z","date":"2026-03-11","time":"17:42:35"},{"rt":null,"stimulus":"<p style=\"font-size: 50px; margin: 0; text-align: center;\">+</p>","response":null,"trial_type":"html-keyboard-response","trial_index":19,"plugin_version":"2.1.0","time_elapsed":694833,"subject_id":"92545","group":"Group1","condition":"1_Rep","full_date":"2026-03-11T17:42:35.277Z","date":"2026-03-11","time":"17:42:35"},{"task":"memory_phase","broad_category":"M","image_png":"M_Phyllite_03.png","image_id":259,"category_name":"Phyllite","category":17,"distinct_rating":2.5,"distinct_type":"Bottom","rt":null,"stimulus":"Stimuli_Rocks480/M_Phyllite_03.png","response":null,"trial_type":"image-keyboard-response","trial_index":20,"plugin_version":"2.1.0","time_elapsed":697336,"subject_id":"92545","group":"Group1","condition":"1_Rep","full_date":"2026-03-11T17:42:35.277Z","date":"2026-03-11","time":"17:42:35"},{"rt":null,"stimulus":"<p style=\"font-size: 50px; margin: 0; text-align: center;\">+</p>","response":null,"trial_type":"html-keyboard-response","trial_index":21,"plugin_version":"2.1.0","time_elapsed":698340,"subject_id":"92545","group":"Group1","condition":"1_Rep","full_date":"2026-03-11T17:42:35.277Z","date":"2026-03-11","time":"17:42:35"},{"task":"memory_phase","broad_category":"I","image_png":"I_Obsidian_05.png","image_id":85,"category_name":"Obsidian","category":6,"distinct_rating":7.32,"distinct_type":"Top","rt":null,"stimulus":"Stimuli_Rocks480/I_Obsidian_05.png","response":null,"trial_type":"image-keyboard-response","trial_index":22,"plugin_version":"2.1.0","time_elapsed":700843,"subject_id":"92545","group":"Group1","condition":"1_Rep","full_date":"2026-03-11T17:42:35.277Z","date":"2026-03-11","time":"17:42:35"},{"rt":null,"stimulus":"<p style=\"font-size: 50px; margin: 0; text-align: center;\">+</p>","response":null,"trial_type":"html-keyboard-response","trial_index":23,"plugin_version":"2.1.0","time_elapsed":701846,"subject_id":"92545","group":"Group1","condition":"1_Rep","full_date":"2026-03-11T17:42:35.277Z","date":"2026-03-11","time":"17:42:35"},{"task":"memory_phase","broad_category":"M","image_png":"M_Quartzite_08.png","image_id":280,"category_name":"Quartzite","category":18,"distinct_rating":2.15,"distinct_type":"Bottom","rt":null,"stimulus":"Stimuli_Rocks480/M_Quartzite_08.png","response":null,"trial_type":"image-keyboard-response","trial_index":24,"plugin_version":"2.1.0","time_elapsed":704351,"subject_id":"92545","group":"Group1","condition":"1_Rep","full_date":"2026-03-11T17:42:35.277Z","date":"2026-03-11","time":"17:42:35"},{"rt":null,"stimulus":"<p style=\"font-size: 50px; margin: 0; text-align: center;\">+</p>","response":null,"trial_type":"html-keyboard-response","trial_index":25,"plugin_version":"2.1.0","time_elapsed":705354,"subject_id":"92545","group":"Group1","condition":"1_Rep","full_date":"2026-03-11T17:42:35.277Z","date":"2026-03-11","time":"17:42:35"},{"task":"memory_phase","broad_category":"S","image_png":"S_Shale_01.png","image_id":465,"category_name":"Shale","category":30,"distinct_rating":2.7,"distinct_type":"Bottom","rt":null,"stimulus":"Stimuli_Rocks480/S_Shale_01.png","response":null,"trial_type":"image-keyboard-response","trial_index":26,"plugin_version":"2.1.0","time_elapsed":707857,"subject_id":"92545","group":"Group1","condition":"1_Rep","full_date":"2026-03-11T17:42:35.277Z","date":"2026-03-11","time":"17:42:35"},{"rt":null,"stimulus":"<p style=\"font-size: 50px; margin: 0; text-align: center;\">+</p>","response":null,"trial_type":"html-keyboard-response","trial_index":27,"plugin_version":"2.1.0","time_elapsed":708860,"subject_id":"92545","group":"Group1","condition":"1_Rep","full_date":"2026-03-11T17:42:35.277Z","date":"2026-03-11","time":"17:42:35"},{"task":"memory_phase","broad_category":"S","image_png":"S_Dolomite_13.png","image_id":397,"category_name":"Dolomite","category":25,"distinct_rating":1.77,"distinct_type":"Bottom","rt":null,"stimulus":"Stimuli_Rocks480/S_Dolomite_13.png","response":null,"trial_type":"image-keyboard-response","trial_index":28,"plugin_version":"2.1.0","time_elapsed":711364,"subject_id":"92545","group":"Group1","condition":"1_Rep","full_date":"2026-03-11T17:42:35.277Z","date":"2026-03-11","time":"17:42:35"},{"rt":null,"stimulus":"<p style=\"font-size: 50px; margin: 0; text-align: center;\">+</p>","response":null,"trial_type":"html-keyboard-response","trial_index":29,"plugin_version":"2.1.0","time_elapsed":712366,"subject_id":"92545","group":"Group1","condition":"1_Rep","full_date":"2026-03-11T17:42:35.277Z","date":"2026-03-11","time":"17:42:35"},{"task":"memory_phase","broad_category":"I","image_png":"I_Pumice_08.png","image_id":136,"category_name":"Pumice","category":9,"distinct_rating":3.1,"distinct_type":"Bottom","rt":null,"stimulus":"Stimuli_Rocks480/I_Pumice_08.png","response":null,"trial_type":"image-keyboard-response","trial_index":30,"plugin_version":"2.1.0","time_elapsed":714870,"subject_id":"92545","group":"Group1","condition":"1_Rep","full_date":"2026-03-11T17:42:35.277Z","date":"2026-03-11","time":"17:42:35"},{"rt":null,"stimulus":"<p style=\"font-size: 50px; margin: 0; text-align: center;\">+</p>","response":null,"trial_type":"html-keyboard-response","trial_index":31,"plugin_version":"2.1.0","time_elapsed":715873,"subject_id":"92545","group":"Group1","condition":"1_Rep","full_date":"2026-03-11T17:42:35.277Z","date":"2026-03-11","time":"17:42:35"},{"task":"memory_phase","broad_category":"M","image_png":"M_Phyllite_07.png","image_id":263,"category_name":"Phyllite","category":17,"distinct_rating":2.59,"distinct_type":"Bottom","rt":null,"stimulus":"Stimuli_Rocks480/M_Phyllite_07.png","response":null,"trial_type":"image-keyboard-response","trial_index":32,"plugin_version":"2.1.0","time_elapsed":718377,"subject_id":"92545","group":"Group1","condition":"1_Rep","full_date":"2026-03-11T17:42:35.277Z","date":"2026-03-11","time":"17:42:35"},{"rt":null,"stimulus":"<p style=\"font-size: 50px; margin: 0; text-align: center;\">+</p>","response":null,"trial_type":"html-keyboard-response","trial_index":33,"plugin_version":"2.1.0","time_elapsed":719380,"subject_id":"92545","group":"Group1","condition":"1_Rep","full_date":"2026-03-11T17:42:35.277Z","date":"2026-03-11","time":"17:42:35"},{"task":"memory_phase","broad_category":"M","image_png":"M_Gneiss_13.png","image_id":205,"category_name":"Gneiss","category":13,"distinct_rating":3.26,"distinct_type":"Bottom","rt":null,"stimulus":"Stimuli_Rocks480/M_Gneiss_13.png","response":null,"trial_type":"image-keyboard-response","trial_index":34,"plugin_version":"2.1.0","time_elapsed":721883,"subject_id":"92545","group":"Group1","condition":"1_Rep","full_date":"2026-03-11T17:42:35.277Z","date":"2026-03-11","time":"17:42:35"},{"rt":null,"stimulus":"<p style=\"font-size: 50px; margin: 0; text-align: center;\">+</p>","response":null,"trial_type":"html-keyboard-response","trial_index":35,"plugin_version":"2.1.0","time_elapsed":722886,"subject_id":"92545","group":"Group1","condition":"1_Rep","full_date":"2026-03-11T17:42:35.277Z","date":"2026-03-11","time":"17:42:35"},{"task":"memory_phase","broad_category":"I","image_png":"I_Pegmatite_16.png","image_id":112,"category_name":"Pegmatite","category":7,"distinct_rating":7.03,"distinct_type":"Top","rt":null,"stimulus":"Stimuli_Rocks480/I_Pegmatite_16.png","response":null,"trial_type":"image-keyboard-response","trial_index":36,"plugin_version":"2.1.0","time_elapsed":725389,"subject_id":"92545","group":"Group1","condition":"1_Rep","full_date":"2026-03-11T17:42:35.277Z","date":"2026-03-11","time":"17:42:35"},{"rt":null,"stimulus":"<p style=\"font-size: 50px; margin: 0; text-align: center;\">+</p>","response":null,"trial_type":"html-keyboard-response","trial_index":37,"plugin_version":"2.1.0","time_elapsed":726392,"subject_id":"92545","group":"Group1","condition":"1_Rep","full_date":"2026-03-11T17:42:35.277Z","date":"2026-03-11","time":"17:42:35"},{"task":"memory_phase","broad_category":"S","image_png":"S_Dolomite_14.png","image_id":398,"category_name":"Dolomite","category":25,"distinct_rating":1.43,"distinct_type":"Bottom","rt":null,"stimulus":"Stimuli_Rocks480/S_Dolomite_14.png","response":null,"trial_type":"image-keyboard-response","trial_index":38,"plugin_version":"2.1.0","time_elapsed":728896,"subject_id":"92545","group":"Group1","condition":"1_Rep","full_date":"2026-03-11T17:42:35.277Z","date":"2026-03-11","time":"17:42:35"},{"rt":null,"stimulus":"<p style=\"font-size: 50px; margin: 0; text-align: center;\">+</p>","response":null,"trial_type":"html-keyboard-response","trial_index":39,"plugin_version":"2.1.0","time_elapsed":729899,"subject_id":"92545","group":"Group1","condition":"1_Rep","full_date":"2026-03-11T17:42:35.277Z","date":"2026-03-11","time":"17:42:35"},{"task":"memory_phase","broad_category":"S","image_png":"S_Sandstone_16.png","image_id":464,"category_name":"Sandstone","category":29,"distinct_rating":1.93,"distinct_type":"Bottom","rt":null,"stimulus":"Stimuli_Rocks480/S_Sandstone_16.png","response":null,"trial_type":"image-keyboard-response","trial_index":40,"plugin_version":"2.1.0","time_elapsed":732404,"subject_id":"92545","group":"Group1","condition":"1_Rep","full_date":"2026-03-11T17:42:35.277Z","date":"2026-03-11","time":"17:42:35"},{"rt":null,"stimulus":"<p style=\"font-size: 50px; margin: 0; text-align: center;\">+</p>","response":null,"trial_type":"html-keyboard-response","trial_index":41,"plugin_version":"2.1.0","time_elapsed":733407,"subject_id":"92545","group":"Group1","condition":"1_Rep","full_date":"2026-03-11T17:42:35.277Z","date":"2026-03-11","time":"17:42:35"},{"task":"memory_phase","broad_category":"I","image_png":"I_Pumice_11.png","image_id":139,"category_name":"Pumice","category":9,"distinct_rating":1.74,"distinct_type":"Bottom","rt":null,"stimulus":"Stimuli_Rocks480/I_Pumice_11.png","response":null,"trial_type":"image-keyboard-response","trial_index":42,"plugin_version":"2.1.0","time_elapsed":735911,"subject_id":"92545","group":"Group1","condition":"1_Rep","full_date":"2026-03-11T17:42:35.277Z","date":"2026-03-11","time":"17:42:35"},{"rt":null,"stimulus":"<p style=\"font-size: 50px; margin: 0; text-align: center;\">+</p>","response":null,"trial_type":"html-keyboard-response","trial_index":43,"plugin_version":"2.1.0","time_elapsed":736915,"subject_id":"92545","group":"Group1","condition":"1_Rep","full_date":"2026-03-11T17:42:35.277Z","date":"2026-03-11","time":"17:42:35"},{"task":"memory_phase","broad_category":"M","image_png":"M_Gneiss_05.png","image_id":197,"category_name":"Gneiss","category":13,"distinct_rating":2.97,"distinct_type":"Bottom","rt":null,"stimulus":"Stimuli_Rocks480/M_Gneiss_05.png","response":null,"trial_type":"image-keyboard-response","trial_index":44,"plugin_version":"2.1.0","time_elapsed":739418,"subject_id":"92545","group":"Group1","condition":"1_Rep","full_date":"2026-03-11T17:42:35.277Z","date":"2026-03-11","time":"17:42:35"},{"rt":null,"stimulus":"<p style=\"font-size: 50px; margin: 0; text-align: center;\">+</p>","response":null,"trial_type":"html-keyboard-response","trial_index":45,"plugin_version":"2.1.0","time_elapsed":740421,"subject_id":"92545","group":"Group1","condition":"1_Rep","full_date":"2026-03-11T17:42:35.277Z","date":"2026-03-11","time":"17:42:35"},{"task":"memory_phase","broad_category":"S","image_png":"S_Sandstone_15.png","image_id":463,"category_name":"Sandstone","category":29,"distinct_rating":2,"distinct_type":"Bottom","rt":null,"stimulus":"Stimuli_Rocks480/S_Sandstone_15.png","response":null,"trial_type":"image-keyboard-response","trial_index":46,"plugin_version":"2.1.0","time_elapsed":742925,"subject_id":"92545","group":"Group1","condition":"1_Rep","full_date":"2026-03-11T17:42:35.277Z","date":"2026-03-11","time":"17:42:35"},{"rt":null,"stimulus":"<p style=\"font-size: 50px; margin: 0; text-align: center;\">+</p>","response":null,"trial_type":"html-keyboard-response","trial_index":47,"plugin_version":"2.1.0","time_elapsed":743928,"subject_id":"92545","group":"Group1","condition":"1_Rep","full_date":"2026-03-11T17:42:35.277Z","date":"2026-03-11","time":"17:42:35"},{"task":"memory_phase","broad_category":"I","image_png":"I_Andesite_10.png","image_id":10,"category_name":"Andesite","category":1,"distinct_rating":3.15,"distinct_type":"Bottom","rt":null,"stimulus":"Stimuli_Rocks480/I_Andesite_10.png","response":null,"trial_type":"image-keyboard-response","trial_index":48,"plugin_version":"2.1.0","time_elapsed":746432,"subject_id":"92545","group":"Group1","condition":"1_Rep","full_date":"2026-03-11T17:42:35.277Z","date":"2026-03-11","time":"17:42:35"},{"rt":null,"stimulus":"<p style=\"font-size: 50px; margin: 0; text-align: center;\">+</p>","response":null,"trial_type":"html-keyboard-response","trial_index":49,"plugin_version":"2.1.0","time_elapsed":747436,"subject_id":"92545","group":"Group1","condition":"1_Rep","full_date":"2026-03-11T17:42:35.277Z","date":"2026-03-11","time":"17:42:35"},{"task":"memory_phase","broad_category":"M","image_png":"M_Marble_06.png","image_id":230,"category_name":"Marble","category":15,"distinct_rating":3.4,"distinct_type":"Bottom","rt":null,"stimulus":"Stimuli_Rocks480/M_Marble_06.png","response":null,"trial_type":"image-keyboard-response","trial_index":50,"plugin_version":"2.1.0","time_elapsed":749940,"subject_id":"92545","group":"Group1","condition":"1_Rep","full_date":"2026-03-11T17:42:35.277Z","date":"2026-03-11","time":"17:42:35"},{"rt":null,"stimulus":"<p style=\"font-size: 50px; margin: 0; text-align: center;\">+</p>","response":null,"trial_type":"html-keyboard-response","trial_index":51,"plugin_version":"2.1.0","time_elapsed":750943,"subject_id":"92545","group":"Group1","condition":"1_Rep","full_date":"2026-03-11T17:42:35.277Z","date":"2026-03-11","time":"17:42:35"},{"task":"memory_phase","broad_category":"S","image_png":"S_Chert_10.png","image_id":362,"category_name":"Chert","category":23,"distinct_rating":7.17,"distinct_type":"Top","rt":null,"stimulus":"Stimuli_Rocks480/S_Chert_10.png","response":null,"trial_type":"image-keyboard-response","trial_index":52,"plugin_version":"2.1.0","time_elapsed":753446,"subject_id":"92545","group":"Group1","condition":"1_Rep","full_date":"2026-03-11T17:42:35.277Z","date":"2026-03-11","time":"17:42:35"},{"rt":null,"stimulus":"<p style=\"font-size: 50px; margin: 0; text-align: center;\">+</p>","response":null,"trial_type":"html-keyboard-response","trial_index":53,"plugin_version":"2.1.0","time_elapsed":754450,"subject_id":"92545","group":"Group1","condition":"1_Rep","full_date":"2026-03-11T17:42:35.277Z","date":"2026-03-11","time":"17:42:35"},{"task":"memory_phase","broad_category":"I","image_png":"I_Pumice_12.png","image_id":140,"category_name":"Pumice","category":9,"distinct_rating":2.97,"distinct_type":"Bottom","rt":null,"stimulus":"Stimuli_Rocks480/I_Pumice_12.png","response":null,"trial_type":"image-keyboard-response","trial_index":54,"plugin_version":"2.1.0","time_elapsed":756954,"subject_id":"92545","group":"Group1","condition":"1_Rep","full_date":"2026-03-11T17:42:35.277Z","date":"2026-03-11","time":"17:42:35"},{"rt":66248,"stimulus":"<p style=\"max-width: 760px; margin: auto; font-size: 35px; line-height: 1.5;\">\n                Press SPACE to continue study phase\n              </p>","response":" ","trial_type":"html-keyboard-response","trial_index":55,"plugin_version":"2.1.0","time_elapsed":823204,"subject_id":"92545","group":"Group1","condition":"1_Rep","full_date":"2026-03-11T17:42:35.277Z","date":"2026-03-11","time":"17:42:35"},{"rt":null,"stimulus":"<p style=\"font-size: 50px; margin: 0; text-align: center;\">+</p>","response":null,"trial_type":"html-keyboard-response","trial_index":56,"plugin_version":"2.1.0","time_elapsed":824207,"subject_id":"92545","group":"Group1","condition":"1_Rep","full_date":"2026-03-11T17:42:35.277Z","date":"2026-03-11","time":"17:42:35"},{"task":"memory_phase","broad_category":"S","image_png":"S_Breccia_11.png","image_id":347,"category_name":"Breccia","category":22,"distinct_rating":6.7,"distinct_type":"Top","rt":null,"stimulus":"Stimuli_Rocks480/S_Breccia_11.png","response":null,"trial_type":"image-keyboard-response","trial_index":57,"plugin_version":"2.1.0","time_elapsed":826710,"subject_id":"92545","group":"Group1","condition":"1_Rep","full_date":"2026-03-11T17:42:35.277Z","date":"2026-03-11","time":"17:42:35"},{"rt":null,"stimulus":"<p style=\"font-size: 50px; margin: 0; text-align: center;\">+</p>","response":null,"trial_type":"html-keyboard-response","trial_index":58,"plugin_version":"2.1.0","time_elapsed":827714,"subject_id":"92545","group":"Group1","condition":"1_Rep","full_date":"2026-03-11T17:42:35.277Z","date":"2026-03-11","time":"17:42:35"},{"task":"memory_phase","broad_category":"I","image_png":"I_Gabbro_16.png","image_id":64,"category_name":"Gabbro","category":4,"distinct_rating":2.52,"distinct_type":"Bottom","rt":null,"stimulus":"Stimuli_Rocks480/I_Gabbro_16.png","response":null,"trial_type":"image-keyboard-response","trial_index":59,"plugin_version":"2.1.0","time_elapsed":830217,"subject_id":"92545","group":"Group1","condition":"1_Rep","full_date":"2026-03-11T17:42:35.277Z","date":"2026-03-11","time":"17:42:35"},{"rt":null,"stimulus":"<p style=\"font-size: 50px; margin: 0; text-align: center;\">+</p>","response":null,"trial_type":"html-keyboard-response","trial_index":60,"plugin_version":"2.1.0","time_elapsed":831221,"subject_id":"92545","group":"Group1","condition":"1_Rep","full_date":"2026-03-11T17:42:35.277Z","date":"2026-03-11","time":"17:42:35"},{"task":"memory_phase","broad_category":"M","image_png":"M_Slate_03.png","image_id":307,"category_name":"Slate","category":20,"distinct_rating":1.87,"distinct_type":"Bottom","rt":null,"stimulus":"Stimuli_Rocks480/M_Slate_03.png","response":null,"trial_type":"image-keyboard-response","trial_index":61,"plugin_version":"2.1.0","time_elapsed":833725,"subject_id":"92545","group":"Group1","condition":"1_Rep","full_date":"2026-03-11T17:42:35.277Z","date":"2026-03-11","time":"17:42:35"},{"rt":null,"stimulus":"<p style=\"font-size: 50px; margin: 0; text-align: center;\">+</p>","response":null,"trial_type":"html-keyboard-response","trial_index":62,"plugin_version":"2.1.0","time_elapsed":834728,"subject_id":"92545","group":"Group1","condition":"1_Rep","full_date":"2026-03-11T17:42:35.277Z","date":"2026-03-11","time":"17:42:35"},{"task":"memory_phase","broad_category":"I","image_png":"I_Diorite_03.png","image_id":35,"category_name":"Diorite","category":3,"distinct_rating":3.14,"distinct_type":"Bottom","rt":null,"stimulus":"Stimuli_Rocks480/I_Diorite_03.png","response":null,"trial_type":"image-keyboard-response","trial_index":63,"plugin_version":"2.1.0","time_elapsed":837232,"subject_id":"92545","group":"Group1","condition":"1_Rep","full_date":"2026-03-11T17:42:35.277Z","date":"2026-03-11","time":"17:42:35"},{"rt":null,"stimulus":"<p style=\"font-size: 50px; margin: 0; text-align: center;\">+</p>","response":null,"trial_type":"html-keyboard-response","trial_index":64,"plugin_version":"2.1.0","time_elapsed":838235,"subject_id":"92545","group":"Group1","condition":"1_Rep","full_date":"2026-03-11T17:42:35.277Z","date":"2026-03-11","time":"17:42:35"},{"task":"memory_phase","broad_category":"M","image_png":"M_Gneiss_06.png","image_id":198,"category_name":"Gneiss","category":13,"distinct_rating":2.65,"distinct_type":"Bottom","rt":null,"stimulus":"Stimuli_Rocks480/M_Gneiss_06.png","response":null,"trial_type":"image-keyboard-response","trial_index":65,"plugin_version":"2.1.0","time_elapsed":840739,"subject_id":"92545","group":"Group1","condition":"1_Rep","full_date":"2026-03-11T17:42:35.277Z","date":"2026-03-11","time":"17:42:35"},{"rt":null,"stimulus":"<p style=\"font-size: 50px; margin: 0; text-align: center;\">+</p>","response":null,"trial_type":"html-keyboard-response","trial_index":66,"plugin_version":"2.1.0","time_elapsed":841742,"subject_id":"92545","group":"Group1","condition":"1_Rep","full_date":"2026-03-11T17:42:35.277Z","date":"2026-03-11","time":"17:42:35"},{"task":"memory_phase","broad_category":"S","image_png":"S_Shale_08.png","image_id":472,"category_name":"Shale","category":30,"distinct_rating":2.55,"distinct_type":"Bottom","rt":null,"stimulus":"Stimuli_Rocks480/S_Shale_08.png","response":null,"trial_type":"image-keyboard-response","trial_index":67,"plugin_version":"2.1.0","time_elapsed":844245,"subject_id":"92545","group":"Group1","condition":"1_Rep","full_date":"2026-03-11T17:42:35.277Z","date":"2026-03-11","time":"17:42:35"},{"rt":null,"stimulus":"<p style=\"font-size: 50px; margin: 0; text-align: center;\">+</p>","response":null,"trial_type":"html-keyboard-response","trial_index":68,"plugin_version":"2.1.0","time_elapsed":845248,"subject_id":"92545","group":"Group1","condition":"1_Rep","full_date":"2026-03-11T17:42:35.277Z","date":"2026-03-11","time":"17:42:35"},{"task":"memory_phase","broad_category":"S","image_png":"S_Dolomite_12.png","image_id":396,"category_name":"Dolomite","category":25,"distinct_rating":1.85,"distinct_type":"Bottom","rt":null,"stimulus":"Stimuli_Rocks480/S_Dolomite_12.png","response":null,"trial_type":"image-keyboard-response","trial_index":69,"plugin_version":"2.1.0","time_elapsed":847751,"subject_id":"92545","group":"Group1","condition":"1_Rep","full_date":"2026-03-11T17:42:35.277Z","date":"2026-03-11","time":"17:42:35"},{"rt":null,"stimulus":"<p style=\"font-size: 50px; margin: 0; text-align: center;\">+</p>","response":null,"trial_type":"html-keyboard-response","trial_index":70,"plugin_version":"2.1.0","time_elapsed":848755,"subject_id":"92545","group":"Group1","condition":"1_Rep","full_date":"2026-03-11T17:42:35.277Z","date":"2026-03-11","time":"17:42:35"},{"task":"memory_phase","broad_category":"I","image_png":"I_Pegmatite_10.png","image_id":106,"category_name":"Pegmatite","category":7,"distinct_rating":7.66,"distinct_type":"Top","rt":null,"stimulus":"Stimuli_Rocks480/I_Pegmatite_10.png","response":null,"trial_type":"image-keyboard-response","trial_index":71,"plugin_version":"2.1.0","time_elapsed":851258,"subject_id":"92545","group":"Group1","condition":"1_Rep","full_date":"2026-03-11T17:42:35.277Z","date":"2026-03-11","time":"17:42:35"},{"rt":null,"stimulus":"<p style=\"font-size: 50px; margin: 0; text-align: center;\">+</p>","response":null,"trial_type":"html-keyboard-response","trial_index":72,"plugin_version":"2.1.0","time_elapsed":852261,"subject_id":"92545","group":"Group1","condition":"1_Rep","full_date":"2026-03-11T17:42:35.277Z","date":"2026-03-11","time":"17:42:35"},{"task":"memory_phase","broad_category":"I","image_png":"I_Gabbro_08.png","image_id":56,"category_name":"Gabbro","category":4,"distinct_rating":3.02,"distinct_type":"Bottom","rt":null,"stimulus":"Stimuli_Rocks480/I_Gabbro_08.png","response":null,"trial_type":"image-keyboard-response","trial_index":73,"plugin_version":"2.1.0","time_elapsed":854765,"subject_id":"92545","group":"Group1","condition":"1_Rep","full_date":"2026-03-11T17:42:35.277Z","date":"2026-03-11","time":"17:42:35"},{"rt":null,"stimulus":"<p style=\"font-size: 50px; margin: 0; text-align: center;\">+</p>","response":null,"trial_type":"html-keyboard-response","trial_index":74,"plugin_version":"2.1.0","time_elapsed":855768,"subject_id":"92545","group":"Group1","condition":"1_Rep","full_date":"2026-03-11T17:42:35.277Z","date":"2026-03-11","time":"17:42:35"},{"task":"memory_phase","broad_category":"S","image_png":"S_Rock Gypsum_04.png","image_id":420,"category_name":"Rock Gypsum","category":27,"distinct_rating":7.61,"distinct_type":"Top","rt":null,"stimulus":"Stimuli_Rocks480/S_Rock Gypsum_04.png","response":null,"trial_type":"image-keyboard-response","trial_index":75,"plugin_version":"2.1.0","time_elapsed":858272,"subject_id":"92545","group":"Group1","condition":"1_Rep","full_date":"2026-03-11T17:42:35.277Z","date":"2026-03-11","time":"17:42:35"},{"rt":null,"stimulus":"<p style=\"font-size: 50px; margin: 0; text-align: center;\">+</p>","response":null,"trial_type":"html-keyboard-response","trial_index":76,"plugin_version":"2.1.0","time_elapsed":859275,"subject_id":"92545","group":"Group1","condition":"1_Rep","full_date":"2026-03-11T17:42:35.277Z","date":"2026-03-11","time":"17:42:35"},{"task":"memory_phase","broad_category":"I","image_png":"I_Gabbro_11.png","image_id":59,"category_name":"Gabbro","category":4,"distinct_rating":1.99,"distinct_type":"Bottom","rt":null,"stimulus":"Stimuli_Rocks480/I_Gabbro_11.png","response":null,"trial_type":"image-keyboard-response","trial_index":77,"plugin_version":"2.1.0","time_elapsed":861777,"subject_id":"92545","group":"Group1","condition":"1_Rep","full_date":"2026-03-11T17:42:35.277Z","date":"2026-03-11","time":"17:42:35"},{"rt":null,"stimulus":"<p style=\"font-size: 50px; margin: 0; text-align: center;\">+</p>","response":null,"trial_type":"html-keyboard-response","trial_index":78,"plugin_version":"2.1.0","time_elapsed":862781,"subject_id":"92545","group":"Group1","condition":"1_Rep","full_date":"2026-03-11T17:42:35.277Z","date":"2026-03-11","time":"17:42:35"},{"task":"memory_phase","broad_category":"S","image_png":"S_Rock Salt_01.png","image_id":433,"category_name":"Rock Salt","category":28,"distinct_rating":7.18,"distinct_type":"Top","rt":null,"stimulus":"Stimuli_Rocks480/S_Rock Salt_01.png","response":null,"trial_type":"image-keyboard-response","trial_index":79,"plugin_version":"2.1.0","time_elapsed":865284,"subject_id":"92545","group":"Group1","condition":"1_Rep","full_date":"2026-03-11T17:42:35.277Z","date":"2026-03-11","time":"17:42:35"},{"rt":null,"stimulus":"<p style=\"font-size: 50px; margin: 0; text-align: center;\">+</p>","response":null,"trial_type":"html-keyboard-response","trial_index":80,"plugin_version":"2.1.0","time_elapsed":866287,"subject_id":"92545","group":"Group1","condition":"1_Rep","full_date":"2026-03-11T17:42:35.277Z","date":"2026-03-11","time":"17:42:35"},{"task":"memory_phase","broad_category":"S","image_png":"S_Conglomerate_05.png","image_id":373,"category_name":"Conglomerate","category":24,"distinct_rating":7.32,"distinct_type":"Top","rt":null,"stimulus":"Stimuli_Rocks480/S_Conglomerate_05.png","response":null,"trial_type":"image-keyboard-response","trial_index":81,"plugin_version":"2.1.0","time_elapsed":868791,"subject_id":"92545","group":"Group1","condition":"1_Rep","full_date":"2026-03-11T17:42:35.277Z","date":"2026-03-11","time":"17:42:35"},{"rt":null,"stimulus":"<p style=\"font-size: 50px; margin: 0; text-align: center;\">+</p>","response":null,"trial_type":"html-keyboard-response","trial_index":82,"plugin_version":"2.1.0","time_elapsed":869795,"subject_id":"92545","group":"Group1","condition":"1_Rep","full_date":"2026-03-11T17:42:35.277Z","date":"2026-03-11","time":"17:42:35"},{"task":"memory_phase","broad_category":"M","image_png":"M_Quartzite_05.png","image_id":277,"category_name":"Quartzite","category":18,"distinct_rating":2.23,"distinct_type":"Bottom","rt":null,"stimulus":"Stimuli_Rocks480/M_Quartzite_05.png","response":null,"trial_type":"image-keyboard-response","trial_index":83,"plugin_version":"2.1.0","time_elapsed":872298,"subject_id":"92545","group":"Group1","condition":"1_Rep","full_date":"2026-03-11T17:42:35.277Z","date":"2026-03-11","time":"17:42:35"},{"rt":null,"stimulus":"<p style=\"font-size: 50px; margin: 0; text-align: center;\">+</p>","response":null,"trial_type":"html-keyboard-response","trial_index":84,"plugin_version":"2.1.0","time_elapsed":873302,"subject_id":"92545","group":"Group1","condition":"1_Rep","full_date":"2026-03-11T17:42:35.277Z","date":"2026-03-11","time":"17:42:35"},{"task":"memory_phase","broad_category":"I","image_png":"I_Basalt_01.png","image_id":17,"category_name":"Basalt","category":2,"distinct_rating":1.92,"distinct_type":"Bottom","rt":null,"stimulus":"Stimuli_Rocks480/I_Basalt_01.png","response":null,"trial_type":"image-keyboard-response","trial_index":85,"plugin_version":"2.1.0","time_elapsed":875805,"subject_id":"92545","group":"Group1","condition":"1_Rep","full_date":"2026-03-11T17:42:35.277Z","date":"2026-03-11","time":"17:42:35"},{"rt":null,"stimulus":"<p style=\"font-size: 50px; margin: 0; text-align: center;\">+</p>","response":null,"trial_type":"html-keyboard-response","trial_index":86,"plugin_version":"2.1.0","time_elapsed":876808,"subject_id":"92545","group":"Group1","condition":"1_Rep","full_date":"2026-03-11T17:42:35.277Z","date":"2026-03-11","time":"17:42:35"},{"task":"memory_phase","broad_category":"M","image_png":"M_Marble_04.png","image_id":228,"category_name":"Marble","category":15,"distinct_rating":3.15,"distinct_type":"Bottom","rt":null,"stimulus":"Stimuli_Rocks480/M_Marble_04.png","response":null,"trial_type":"image-keyboard-response","trial_index":87,"plugin_version":"2.1.0","time_elapsed":879311,"subject_id":"92545","group":"Group1","condition":"1_Rep","full_date":"2026-03-11T17:42:35.277Z","date":"2026-03-11","time":"17:42:35"},{"rt":null,"stimulus":"<p style=\"font-size: 50px; margin: 0; text-align: center;\">+</p>","response":null,"trial_type":"html-keyboard-response","trial_index":88,"plugin_version":"2.1.0","time_elapsed":880315,"subject_id":"92545","group":"Group1","condition":"1_Rep","full_date":"2026-03-11T17:42:35.277Z","date":"2026-03-11","time":"17:42:35"},{"task":"memory_phase","broad_category":"I","image_png":"I_Diorite_04.png","image_id":36,"category_name":"Diorite","category":3,"distinct_rating":2.98,"distinct_type":"Bottom","rt":null,"stimulus":"Stimuli_Rocks480/I_Diorite_04.png","response":null,"trial_type":"image-keyboard-response","trial_index":89,"plugin_version":"2.1.0","time_elapsed":882818,"subject_id":"92545","group":"Group1","condition":"1_Rep","full_date":"2026-03-11T17:42:35.277Z","date":"2026-03-11","time":"17:42:35"},{"rt":null,"stimulus":"<p style=\"font-size: 50px; margin: 0; text-align: center;\">+</p>","response":null,"trial_type":"html-keyboard-response","trial_index":90,"plugin_version":"2.1.0","time_elapsed":883821,"subject_id":"92545","group":"Group1","condition":"1_Rep","full_date":"2026-03-11T17:42:35.277Z","date":"2026-03-11","time":"17:42:35"},{"task":"memory_phase","broad_category":"I","image_png":"I_Basalt_02.png","image_id":18,"category_name":"Basalt","category":2,"distinct_rating":1.84,"distinct_type":"Bottom","rt":null,"stimulus":"Stimuli_Rocks480/I_Basalt_02.png","response":null,"trial_type":"image-keyboard-response","trial_index":91,"plugin_version":"2.1.0","time_elapsed":886325,"subject_id":"92545","group":"Group1","condition":"1_Rep","full_date":"2026-03-11T17:42:35.277Z","date":"2026-03-11","time":"17:42:35"},{"rt":null,"stimulus":"<p style=\"font-size: 50px; margin: 0; text-align: center;\">+</p>","response":null,"trial_type":"html-keyboard-response","trial_index":92,"plugin_version":"2.1.0","time_elapsed":887329,"subject_id":"92545","group":"Group1","condition":"1_Rep","full_date":"2026-03-11T17:42:35.277Z","date":"2026-03-11","time":"17:42:35"},{"task":"memory_phase","broad_category":"I","image_png":"I_Rhyolite_11.png","image_id":155,"category_name":"Rhyolite","category":10,"distinct_rating":1.73,"distinct_type":"Bottom","rt":null,"stimulus":"Stimuli_Rocks480/I_Rhyolite_11.png","response":null,"trial_type":"image-keyboard-response","trial_index":93,"plugin_version":"2.1.0","time_elapsed":889832,"subject_id":"92545","group":"Group1","condition":"1_Rep","full_date":"2026-03-11T17:42:35.277Z","date":"2026-03-11","time":"17:42:35"},{"rt":null,"stimulus":"<p style=\"font-size: 50px; margin: 0; text-align: center;\">+</p>","response":null,"trial_type":"html-keyboard-response","trial_index":94,"plugin_version":"2.1.0","time_elapsed":890835,"subject_id":"92545","group":"Group1","condition":"1_Rep","full_date":"2026-03-11T17:42:35.277Z","date":"2026-03-11","time":"17:42:35"},{"task":"memory_phase","broad_category":"M","image_png":"M_Phyllite_10.png","image_id":266,"category_name":"Phyllite","category":17,"distinct_rating":2.6,"distinct_type":"Bottom","rt":null,"stimulus":"Stimuli_Rocks480/M_Phyllite_10.png","response":null,"trial_type":"image-keyboard-response","trial_index":95,"plugin_version":"2.1.0","time_elapsed":893339,"subject_id":"92545","group":"Group1","condition":"1_Rep","full_date":"2026-03-11T17:42:35.277Z","date":"2026-03-11","time":"17:42:35"},{"rt":null,"stimulus":"<p style=\"font-size: 50px; margin: 0; text-align: center;\">+</p>","response":null,"trial_type":"html-keyboard-response","trial_index":96,"plugin_version":"2.1.0","time_elapsed":894341,"subject_id":"92545","group":"Group1","condition":"1_Rep","full_date":"2026-03-11T17:42:35.277Z","date":"2026-03-11","time":"17:42:35"},{"task":"memory_phase","broad_category":"I","image_png":"I_Andesite_08.png","image_id":8,"category_name":"Andesite","category":1,"distinct_rating":1.95,"distinct_type":"Bottom","rt":null,"stimulus":"Stimuli_Rocks480/I_Andesite_08.png","response":null,"trial_type":"image-keyboard-response","trial_index":97,"plugin_version":"2.1.0","time_elapsed":896845,"subject_id":"92545","group":"Group1","condition":"1_Rep","full_date":"2026-03-11T17:42:35.277Z","date":"2026-03-11","time":"17:42:35"},{"rt":null,"stimulus":"<p style=\"font-size: 50px; margin: 0; text-align: center;\">+</p>","response":null,"trial_type":"html-keyboard-response","trial_index":98,"plugin_version":"2.1.0","time_elapsed":897848,"subject_id":"92545","group":"Group1","condition":"1_Rep","full_date":"2026-03-11T17:42:35.277Z","date":"2026-03-11","time":"17:42:35"},{"task":"memory_phase","broad_category":"S","image_png":"S_Sandstone_03.png","image_id":451,"category_name":"Sandstone","category":29,"distinct_rating":1.86,"distinct_type":"Bottom","rt":null,"stimulus":"Stimuli_Rocks480/S_Sandstone_03.png","response":null,"trial_type":"image-keyboard-response","trial_index":99,"plugin_version":"2.1.0","time_elapsed":900351,"subject_id":"92545","group":"Group1","condition":"1_Rep","full_date":"2026-03-11T17:42:35.277Z","date":"2026-03-11","time":"17:42:35"},{"rt":null,"stimulus":"<p style=\"font-size: 50px; margin: 0; text-align: center;\">+</p>","response":null,"trial_type":"html-keyboard-response","trial_index":100,"plugin_version":"2.1.0","time_elapsed":901354,"subject_id":"92545","group":"Group1","condition":"1_Rep","full_date":"2026-03-11T17:42:35.277Z","date":"2026-03-11","time":"17:42:35"},{"task":"memory_phase","broad_category":"I","image_png":"I_Rhyolite_16.png","image_id":160,"category_name":"Rhyolite","category":10,"distinct_rating":2.19,"distinct_type":"Bottom","rt":null,"stimulus":"Stimuli_Rocks480/I_Rhyolite_16.png","response":null,"trial_type":"image-keyboard-response","trial_index":101,"plugin_version":"2.1.0","time_elapsed":903857,"subject_id":"92545","group":"Group1","condition":"1_Rep","full_date":"2026-03-11T17:42:35.277Z","date":"2026-03-11","time":"17:42:35"},{"rt":null,"stimulus":"<p style=\"font-size: 50px; margin: 0; text-align: center;\">+</p>","response":null,"trial_type":"html-keyboard-response","trial_index":102,"plugin_version":"2.1.0","time_elapsed":904860,"subject_id":"92545","group":"Group1","condition":"1_Rep","full_date":"2026-03-11T17:42:35.277Z","date":"2026-03-11","time":"17:42:35"},{"task":"memory_phase","broad_category":"I","image_png":"I_Basalt_09.png","image_id":25,"category_name":"Basalt","category":2,"distinct_rating":1.89,"distinct_type":"Bottom","rt":null,"stimulus":"Stimuli_Rocks480/I_Basalt_09.png","response":null,"trial_type":"image-keyboard-response","trial_index":103,"plugin_version":"2.1.0","time_elapsed":907364,"subject_id":"92545","group":"Group1","condition":"1_Rep","full_date":"2026-03-11T17:42:35.277Z","date":"2026-03-11","time":"17:42:35"},{"rt":null,"stimulus":"<p style=\"font-size: 50px; margin: 0; text-align: center;\">+</p>","response":null,"trial_type":"html-keyboard-response","trial_index":104,"plugin_version":"2.1.0","time_elapsed":908367,"subject_id":"92545","group":"Group1","condition":"1_Rep","full_date":"2026-03-11T17:42:35.277Z","date":"2026-03-11","time":"17:42:35"},{"task":"memory_phase","broad_category":"I","image_png":"I_Diorite_05.png","image_id":37,"category_name":"Diorite","category":3,"distinct_rating":3.08,"distinct_type":"Bottom","rt":null,"stimulus":"Stimuli_Rocks480/I_Diorite_05.png","response":null,"trial_type":"image-keyboard-response","trial_index":105,"plugin_version":"2.1.0","time_elapsed":910871,"subject_id":"92545","group":"Group1","condition":"1_Rep","full_date":"2026-03-11T17:42:35.277Z","date":"2026-03-11","time":"17:42:35"},{"rt":66585,"stimulus":"<div style=\"max-width: 760px; margin: auto; font-size: 20px; line-height: 1.5;\">\n      <h1 style=\"text-align:center; font-size: 30px;\">Instructions for the Test Phase</h1>\n      <p>\n        The study phase is now complete.\n      </p>\n      <p>\n        In the test phase, you will again see a series of rock images. \n        Some will be ones you saw before - during the study phase, while others will be new.  \n        <b>Your task</b> is to decide whether you have seen each image before by pressing the corresponding key on your keyboard:<br><br>\n          <b>A</b> - NO (you did not see this image before)<br>\n          <b>L</b> - YES (you saw this image before)<br><br>\n        The test will proceed at your own pace. You will receive feedback after each response.  \n        Please try to respond <b>as accurately as possible</b>.\n      </p>\n      <p>\n        <b>Reminder:</b> If your computer has multiple language settings (e.g., English and another language),\n        please ensure it is set to English during the test phase.\n      </p>\n      <p>\n        You can track your progress using the <b>completion bar</b> at the top of the screen.  \n        Note that it has been refreshed to reflect your progress during this final phase.\n      </p>\n      <p>\n        Press the button below when you are ready to continue.\n      </p>\n    </div>","response":0,"trial_type":"html-button-response","trial_index":106,"plugin_version":"2.1.0","time_elapsed":977461,"subject_id":"92545","group":"Group1","condition":"1_Rep","full_date":"2026-03-11T17:42:35.277Z","date":"2026-03-11","time":"17:42:35"},{"correct_response":"l","task":"test_phase","broad_category":"M","image_png":"M_Marble_16.png","image_id":240,"category_name":"Marble","category":15,"distinct_rating":2.57,"distinct_type":"Bottom","item_type":"Target","rt":4986,"stimulus":"Stimuli_Rocks480/M_Marble_16.png","response":"l","trial_type":"image-keyboard-response","trial_index":107,"plugin_version":"2.1.0","time_elapsed":982451,"subject_id":"92545","group":"Group1","condition":"1_Rep","full_date":"2026-03-11T17:42:35.277Z","date":"2026-03-11","time":"17:42:35","cor_ans":true},{"trial_type":"html-keyboard-response","rt":null,"stimulus":"<p style=\"color: green; font-size: 50px; font-weight: bold;\">Correct</p>","response":null,"trial_index":108,"plugin_version":"2.1.0","time_elapsed":982954,"subject_id":"92545","group":"Group1","condition":"1_Rep","full_date":"2026-03-11T17:42:35.277Z","date":"2026-03-11","time":"17:42:35"},{"correct_response":"a","task":"test_phase","broad_category":"I","image_png":"I_Andesite_09.png","image_id":9,"category_name":"Andesite","category":1,"distinct_rating":2.49,"distinct_type":"Bottom","item_type":"Foil","rt":1472,"stimulus":"Stimuli_Rocks480/I_Andesite_09.png","response":"l","trial_type":"image-keyboard-response","trial_index":109,"plugin_version":"2.1.0","time_elapsed":984427,"subject_id":"92545","group":"Group1","condition":"1_Rep","full_date":"2026-03-11T17:42:35.277Z","date":"2026-03-11","time":"17:42:35","cor_ans":false},{"trial_type":"html-keyboard-response","rt":null,"stimulus":"<p style=\"color: red; font-size: 50px; font-weight: bold;\">Incorrect</p>","response":null,"trial_index":110,"plugin_version":"2.1.0","time_elapsed":984929,"subject_id":"92545","group":"Group1","condition":"1_Rep","full_date":"2026-03-11T17:42:35.277Z","date":"2026-03-11","time":"17:42:35"},{"correct_response":"l","task":"test_phase","broad_category":"I","image_png":"I_Obsidian_05.png","image_id":85,"category_name":"Obsidian","category":6,"distinct_rating":7.32,"distinct_type":"Top","item_type":"Target","rt":756,"stimulus":"Stimuli_Rocks480/I_Obsidian_05.png","response":"l","trial_type":"image-keyboard-response","trial_index":111,"plugin_version":"2.1.0","time_elapsed":985686,"subject_id":"92545","group":"Group1","condition":"1_Rep","full_date":"2026-03-11T17:42:35.277Z","date":"2026-03-11","time":"17:42:35","cor_ans":true},{"trial_type":"html-keyboard-response","rt":null,"stimulus":"<p style=\"color: green; font-size: 50px; font-weight: bold;\">Correct</p>","response":null,"trial_index":112,"plugin_version":"2.1.0","time_elapsed":986188,"subject_id":"92545","group":"Group1","condition":"1_Rep","full_date":"2026-03-11T17:42:35.277Z","date":"2026-03-11","time":"17:42:35"},{"correct_response":"a","task":"test_phase","broad_category":"M","image_png":"M_Gneiss_10.png","image_id":202,"category_name":"Gneiss","category":13,"distinct_rating":3.09,"distinct_type":"Bottom","item_type":"Foil","rt":988,"stimulus":"Stimuli_Rocks480/M_Gneiss_10.png","response":"a","trial_type":"image-keyboard-response","trial_index":113,"plugin_version":"2.1.0","time_elapsed":987177,"subject_id":"92545","group":"Group1","condition":"1_Rep","full_date":"2026-03-11T17:42:35.277Z","date":"2026-03-11","time":"17:42:35","cor_ans":true},{"trial_type":"html-keyboard-response","rt":null,"stimulus":"<p style=\"color: green; font-size: 50px; font-weight: bold;\">Correct</p>","response":null,"trial_index":114,"plugin_version":"2.1.0","time_elapsed":987679,"subject_id":"92545","group":"Group1","condition":"1_Rep","full_date":"2026-03-11T17:42:35.277Z","date":"2026-03-11","time":"17:42:35"},{"correct_response":"a","task":"test_phase","broad_category":"I","image_png":"I_Basalt_13.png","image_id":29,"category_name":"Basalt","category":2,"distinct_rating":2.68,"distinct_type":"Bottom","item_type":"Foil","rt":846,"stimulus":"Stimuli_Rocks480/I_Basalt_13.png","response":"a","trial_type":"image-keyboard-response","trial_index":115,"plugin_version":"2.1.0","time_elapsed":988527,"subject_id":"92545","group":"Group1","condition":"1_Rep","full_date":"2026-03-11T17:42:35.277Z","date":"2026-03-11","time":"17:42:35","cor_ans":true},{"trial_type":"html-keyboard-response","rt":null,"stimulus":"<p style=\"color: green; font-size: 50px; font-weight: bold;\">Correct</p>","response":null,"trial_index":116,"plugin_version":"2.1.0","time_elapsed":989029,"subject_id":"92545","group":"Group1","condition":"1_Rep","full_date":"2026-03-11T17:42:35.277Z","date":"2026-03-11","time":"17:42:35"},{"correct_response":"a","task":"test_phase","broad_category":"I","image_png":"I_Diorite_01.png","image_id":33,"category_name":"Diorite","category":3,"distinct_rating":2.97,"distinct_type":"Bottom","item_type":"Foil","rt":894,"stimulus":"Stimuli_Rocks480/I_Diorite_01.png","response":"a","trial_type":"image-keyboard-response","trial_index":117,"plugin_version":"2.1.0","time_elapsed":989925,"subject_id":"92545","group":"Group1","condition":"1_Rep","full_date":"2026-03-11T17:42:35.277Z","date":"2026-03-11","time":"17:42:35","cor_ans":true},{"trial_type":"html-keyboard-response","rt":null,"stimulus":"<p style=\"color: green; font-size: 50px; font-weight: bold;\">Correct</p>","response":null,"trial_index":118,"plugin_version":"2.1.0","time_elapsed":990427,"subject_id":"92545","group":"Group1","condition":"1_Rep","full_date":"2026-03-11T17:42:35.277Z","date":"2026-03-11","time":"17:42:35"},{"correct_response":"l","task":"test_phase","broad_category":"I","image_png":"I_Pegmatite_16.png","image_id":112,"category_name":"Pegmatite","category":7,"distinct_rating":7.03,"distinct_type":"Top","item_type":"Target","rt":1627,"stimulus":"Stimuli_Rocks480/I_Pegmatite_16.png","response":"a","trial_type":"image-keyboard-response","trial_index":119,"plugin_version":"2.1.0","time_elapsed":992056,"subject_id":"92545","group":"Group1","condition":"1_Rep","full_date":"2026-03-11T17:42:35.277Z","date":"2026-03-11","time":"17:42:35","cor_ans":false},{"trial_type":"html-keyboard-response","rt":null,"stimulus":"<p style=\"color: red; font-size: 50px; font-weight: bold;\">Incorrect</p>","response":null,"trial_index":120,"plugin_version":"2.1.0","time_elapsed":992558,"subject_id":"92545","group":"Group1","condition":"1_Rep","full_date":"2026-03-11T17:42:35.277Z","date":"2026-03-11","time":"17:42:35"},{"correct_response":"a","task":"test_phase","broad_category":"S","image_png":"S_Dolomite_07.png","image_id":391,"category_name":"Dolomite","category":25,"distinct_rating":1.73,"distinct_type":"Bottom","item_type":"Foil","rt":706,"stimulus":"Stimuli_Rocks480/S_Dolomite_07.png","response":"l","trial_type":"image-keyboard-response","trial_index":121,"plugin_version":"2.1.0","time_elapsed":993267,"subject_id":"92545","group":"Group1","condition":"1_Rep","full_date":"2026-03-11T17:42:35.277Z","date":"2026-03-11","time":"17:42:35","cor_ans":false},{"trial_type":"html-keyboard-response","rt":null,"stimulus":"<p style=\"color: red; font-size: 50px; font-weight: bold;\">Incorrect</p>","response":null,"trial_index":122,"plugin_version":"2.1.0","time_elapsed":993769,"subject_id":"92545","group":"Group1","condition":"1_Rep","full_date":"2026-03-11T17:42:35.277Z","date":"2026-03-11","time":"17:42:35"},{"correct_response":"a","task":"test_phase","broad_category":"I","image_png":"I_Gabbro_12.png","image_id":60,"category_name":"Gabbro","category":4,"distinct_rating":2.6,"distinct_type":"Bottom","item_type":"Foil","rt":835,"stimulus":"Stimuli_Rocks480/I_Gabbro_12.png","response":"l","trial_type":"image-keyboard-response","trial_index":123,"plugin_version":"2.1.0","time_elapsed":994606,"subject_id":"92545","group":"Group1","condition":"1_Rep","full_date":"2026-03-11T17:42:35.277Z","date":"2026-03-11","time":"17:42:35","cor_ans":false},{"trial_type":"html-keyboard-response","rt":null,"stimulus":"<p style=\"color: red; font-size: 50px; font-weight: bold;\">Incorrect</p>","response":null,"trial_index":124,"plugin_version":"2.1.0","time_elapsed":995108,"subject_id":"92545","group":"Group1","condition":"1_Rep","full_date":"2026-03-11T17:42:35.277Z","date":"2026-03-11","time":"17:42:35"},{"correct_response":"l","task":"test_phase","broad_category":"S","image_png":"S_Dolomite_12.png","image_id":396,"category_name":"Dolomite","category":25,"distinct_rating":1.85,"distinct_type":"Bottom","item_type":"Target","rt":587,"stimulus":"Stimuli_Rocks480/S_Dolomite_12.png","response":"l","trial_type":"image-keyboard-response","trial_index":125,"plugin_version":"2.1.0","time_elapsed":995697,"subject_id":"92545","group":"Group1","condition":"1_Rep","full_date":"2026-03-11T17:42:35.277Z","date":"2026-03-11","time":"17:42:35","cor_ans":true},{"trial_type":"html-keyboard-response","rt":null,"stimulus":"<p style=\"color: green; font-size: 50px; font-weight: bold;\">Correct</p>","response":null,"trial_index":126,"plugin_version":"2.1.0","time_elapsed":996200,"subject_id":"92545","group":"Group1","condition":"1_Rep","full_date":"2026-03-11T17:42:35.277Z","date":"2026-03-11","time":"17:42:35"},{"correct_response":"l","task":"test_phase","broad_category":"M","image_png":"M_Marble_06.png","image_id":230,"category_name":"Marble","category":15,"distinct_rating":3.4,"distinct_type":"Bottom","item_type":"Target","rt":936,"stimulus":"Stimuli_Rocks480/M_Marble_06.png","response":"a","trial_type":"image-keyboard-response","trial_index":127,"plugin_version":"2.1.0","time_elapsed":997138,"subject_id":"92545","group":"Group1","condition":"1_Rep","full_date":"2026-03-11T17:42:35.277Z","date":"2026-03-11","time":"17:42:35","cor_ans":false},{"trial_type":"html-keyboard-response","rt":null,"stimulus":"<p style=\"color: red; font-size: 50px; font-weight: bold;\">Incorrect</p>","response":null,"trial_index":128,"plugin_version":"2.1.0","time_elapsed":997640,"subject_id":"92545","group":"Group1","condition":"1_Rep","full_date":"2026-03-11T17:42:35.277Z","date":"2026-03-11","time":"17:42:35"},{"correct_response":"l","task":"test_phase","broad_category":"S","image_png":"S_Conglomerate_05.png","image_id":373,"category_name":"Conglomerate","category":24,"distinct_rating":7.32,"distinct_type":"Top","item_type":"Target","rt":790,"stimulus":"Stimuli_Rocks480/S_Conglomerate_05.png","response":"l","trial_type":"image-keyboard-response","trial_index":129,"plugin_version":"2.1.0","time_elapsed":998433,"subject_id":"92545","group":"Group1","condition":"1_Rep","full_date":"2026-03-11T17:42:35.277Z","date":"2026-03-11","time":"17:42:35","cor_ans":true},{"trial_type":"html-keyboard-response","rt":null,"stimulus":"<p style=\"color: green; font-size: 50px; font-weight: bold;\">Correct</p>","response":null,"trial_index":130,"plugin_version":"2.1.0","time_elapsed":998934,"subject_id":"92545","group":"Group1","condition":"1_Rep","full_date":"2026-03-11T17:42:35.277Z","date":"2026-03-11","time":"17:42:35"},{"correct_response":"l","task":"test_phase","broad_category":"S","image_png":"S_Rock Salt_01.png","image_id":433,"category_name":"Rock Salt","category":28,"distinct_rating":7.18,"distinct_type":"Top","item_type":"Target","rt":966,"stimulus":"Stimuli_Rocks480/S_Rock Salt_01.png","response":"l","trial_type":"image-keyboard-response","trial_index":131,"plugin_version":"2.1.0","time_elapsed":999902,"subject_id":"92545","group":"Group1","condition":"1_Rep","full_date":"2026-03-11T17:42:35.277Z","date":"2026-03-11","time":"17:42:35","cor_ans":true},{"trial_type":"html-keyboard-response","rt":null,"stimulus":"<p style=\"color: green; font-size: 50px; font-weight: bold;\">Correct</p>","response":null,"trial_index":132,"plugin_version":"2.1.0","time_elapsed":1000404,"subject_id":"92545","group":"Group1","condition":"1_Rep","full_date":"2026-03-11T17:42:35.277Z","date":"2026-03-11","time":"17:42:35"},{"correct_response":"l","task":"test_phase","broad_category":"I","image_png":"I_Pumice_12.png","image_id":140,"category_name":"Pumice","category":9,"distinct_rating":2.97,"distinct_type":"Bottom","item_type":"Target","rt":1479,"stimulus":"Stimuli_Rocks480/I_Pumice_12.png","response":"a","trial_type":"image-keyboard-response","trial_index":133,"plugin_version":"2.1.0","time_elapsed":1001885,"subject_id":"92545","group":"Group1","condition":"1_Rep","full_date":"2026-03-11T17:42:35.277Z","date":"2026-03-11","time":"17:42:35","cor_ans":false},{"trial_type":"html-keyboard-response","rt":null,"stimulus":"<p style=\"color: red; font-size: 50px; font-weight: bold;\">Incorrect</p>","response":null,"trial_index":134,"plugin_version":"2.1.0","time_elapsed":1002386,"subject_id":"92545","group":"Group1","condition":"1_Rep","full_date":"2026-03-11T17:42:35.277Z","date":"2026-03-11","time":"17:42:35"},{"correct_response":"a","task":"test_phase","broad_category":"I","image_png":"I_Diorite_10.png","image_id":42,"category_name":"Diorite","category":3,"distinct_rating":2.84,"distinct_type":"Bottom","item_type":"Foil","rt":1980,"stimulus":"Stimuli_Rocks480/I_Diorite_10.png","response":"a","trial_type":"image-keyboard-response","trial_index":135,"plugin_version":"2.1.0","time_elapsed":1004368,"subject_id":"92545","group":"Group1","condition":"1_Rep","full_date":"2026-03-11T17:42:35.277Z","date":"2026-03-11","time":"17:42:35","cor_ans":true},{"trial_type":"html-keyboard-response","rt":null,"stimulus":"<p style=\"color: green; font-size: 50px; font-weight: bold;\">Correct</p>","response":null,"trial_index":136,"plugin_version":"2.1.0","time_elapsed":1004870,"subject_id":"92545","group":"Group1","condition":"1_Rep","full_date":"2026-03-11T17:42:35.277Z","date":"2026-03-11","time":"17:42:35"},{"correct_response":"a","task":"test_phase","broad_category":"S","image_png":"S_Chert_13.png","image_id":365,"category_name":"Chert","category":23,"distinct_rating":6.57,"distinct_type":"Top","item_type":"Foil","rt":796,"stimulus":"Stimuli_Rocks480/S_Chert_13.png","response":"a","trial_type":"image-keyboard-response","trial_index":137,"plugin_version":"2.1.0","time_elapsed":1005668,"subject_id":"92545","group":"Group1","condition":"1_Rep","full_date":"2026-03-11T17:42:35.277Z","date":"2026-03-11","time":"17:42:35","cor_ans":true},{"trial_type":"html-keyboard-response","rt":null,"stimulus":"<p style=\"color: green; font-size: 50px; font-weight: bold;\">Correct</p>","response":null,"trial_index":138,"plugin_version":"2.1.0","time_elapsed":1006170,"subject_id":"92545","group":"Group1","condition":"1_Rep","full_date":"2026-03-11T17:42:35.277Z","date":"2026-03-11","time":"17:42:35"},{"correct_response":"l","task":"test_phase","broad_category":"S","image_png":"S_Dolomite_13.png","image_id":397,"category_name":"Dolomite","category":25,"distinct_rating":1.77,"distinct_type":"Bottom","item_type":"Target","rt":762,"stimulus":"Stimuli_Rocks480/S_Dolomite_13.png","response":"l","trial_type":"image-keyboard-response","trial_index":139,"plugin_version":"2.1.0","time_elapsed":1006934,"subject_id":"92545","group":"Group1","condition":"1_Rep","full_date":"2026-03-11T17:42:35.277Z","date":"2026-03-11","time":"17:42:35","cor_ans":true},{"trial_type":"html-keyboard-response","rt":null,"stimulus":"<p style=\"color: green; font-size: 50px; font-weight: bold;\">Correct</p>","response":null,"trial_index":140,"plugin_version":"2.1.0","time_elapsed":1007436,"subject_id":"92545","group":"Group1","condition":"1_Rep","full_date":"2026-03-11T17:42:35.277Z","date":"2026-03-11","time":"17:42:35"},{"correct_response":"l","task":"test_phase","broad_category":"M","image_png":"M_Slate_03.png","image_id":307,"category_name":"Slate","category":20,"distinct_rating":1.87,"distinct_type":"Bottom","item_type":"Target","rt":625,"stimulus":"Stimuli_Rocks480/M_Slate_03.png","response":"l","trial_type":"image-keyboard-response","trial_index":141,"plugin_version":"2.1.0","time_elapsed":1008062,"subject_id":"92545","group":"Group1","condition":"1_Rep","full_date":"2026-03-11T17:42:35.277Z","date":"2026-03-11","time":"17:42:35","cor_ans":true},{"trial_type":"html-keyboard-response","rt":null,"stimulus":"<p style=\"color: green; font-size: 50px; font-weight: bold;\">Correct</p>","response":null,"trial_index":142,"plugin_version":"2.1.0","time_elapsed":1008564,"subject_id":"92545","group":"Group1","condition":"1_Rep","full_date":"2026-03-11T17:42:35.277Z","date":"2026-03-11","time":"17:42:35"},{"correct_response":"l","task":"test_phase","broad_category":"I","image_png":"I_Pegmatite_10.png","image_id":106,"category_name":"Pegmatite","category":7,"distinct_rating":7.66,"distinct_type":"Top","item_type":"Target","rt":728,"stimulus":"Stimuli_Rocks480/I_Pegmatite_10.png","response":"a","trial_type":"image-keyboard-response","trial_index":143,"plugin_version":"2.1.0","time_elapsed":1009294,"subject_id":"92545","group":"Group1","condition":"1_Rep","full_date":"2026-03-11T17:42:35.277Z","date":"2026-03-11","time":"17:42:35","cor_ans":false},{"trial_type":"html-keyboard-response","rt":null,"stimulus":"<p style=\"color: red; font-size: 50px; font-weight: bold;\">Incorrect</p>","response":null,"trial_index":144,"plugin_version":"2.1.0","time_elapsed":1009796,"subject_id":"92545","group":"Group1","condition":"1_Rep","full_date":"2026-03-11T17:42:35.277Z","date":"2026-03-11","time":"17:42:35"},{"correct_response":"a","task":"test_phase","broad_category":"I","image_png":"I_Pegmatite_03.png","image_id":99,"category_name":"Pegmatite","category":7,"distinct_rating":7.24,"distinct_type":"Top","item_type":"Foil","rt":1577,"stimulus":"Stimuli_Rocks480/I_Pegmatite_03.png","response":"a","trial_type":"image-keyboard-response","trial_index":145,"plugin_version":"2.1.0","time_elapsed":1011376,"subject_id":"92545","group":"Group1","condition":"1_Rep","full_date":"2026-03-11T17:42:35.277Z","date":"2026-03-11","time":"17:42:35","cor_ans":true},{"trial_type":"html-keyboard-response","rt":null,"stimulus":"<p style=\"color: green; font-size: 50px; font-weight: bold;\">Correct</p>","response":null,"trial_index":146,"plugin_version":"2.1.0","time_elapsed":1011878,"subject_id":"92545","group":"Group1","condition":"1_Rep","full_date":"2026-03-11T17:42:35.277Z","date":"2026-03-11","time":"17:42:35"},{"correct_response":"l","task":"test_phase","broad_category":"M","image_png":"M_Marble_04.png","image_id":228,"category_name":"Marble","category":15,"distinct_rating":3.15,"distinct_type":"Bottom","item_type":"Target","rt":712,"stimulus":"Stimuli_Rocks480/M_Marble_04.png","response":"l","trial_type":"image-keyboard-response","trial_index":147,"plugin_version":"2.1.0","time_elapsed":1012592,"subject_id":"92545","group":"Group1","condition":"1_Rep","full_date":"2026-03-11T17:42:35.277Z","date":"2026-03-11","time":"17:42:35","cor_ans":true},{"trial_type":"html-keyboard-response","rt":null,"stimulus":"<p style=\"color: green; font-size: 50px; font-weight: bold;\">Correct</p>","response":null,"trial_index":148,"plugin_version":"2.1.0","time_elapsed":1013094,"subject_id":"92545","group":"Group1","condition":"1_Rep","full_date":"2026-03-11T17:42:35.277Z","date":"2026-03-11","time":"17:42:35"},{"correct_response":"l","task":"test_phase","broad_category":"M","image_png":"M_Phyllite_03.png","image_id":259,"category_name":"Phyllite","category":17,"distinct_rating":2.5,"distinct_type":"Bottom","item_type":"Target","rt":620,"stimulus":"Stimuli_Rocks480/M_Phyllite_03.png","response":"l","trial_type":"image-keyboard-response","trial_index":149,"plugin_version":"2.1.0","time_elapsed":1013716,"subject_id":"92545","group":"Group1","condition":"1_Rep","full_date":"2026-03-11T17:42:35.277Z","date":"2026-03-11","time":"17:42:35","cor_ans":true},{"trial_type":"html-keyboard-response","rt":null,"stimulus":"<p style=\"color: green; font-size: 50px; font-weight: bold;\">Correct</p>","response":null,"trial_index":150,"plugin_version":"2.1.0","time_elapsed":1014218,"subject_id":"92545","group":"Group1","condition":"1_Rep","full_date":"2026-03-11T17:42:35.277Z","date":"2026-03-11","time":"17:42:35"},{"correct_response":"a","task":"test_phase","broad_category":"S","image_png":"S_Shale_07.png","image_id":471,"category_name":"Shale","category":30,"distinct_rating":2.73,"distinct_type":"Bottom","item_type":"Foil","rt":1073,"stimulus":"Stimuli_Rocks480/S_Shale_07.png","response":"a","trial_type":"image-keyboard-response","trial_index":151,"plugin_version":"2.1.0","time_elapsed":1015292,"subject_id":"92545","group":"Group1","condition":"1_Rep","full_date":"2026-03-11T17:42:35.277Z","date":"2026-03-11","time":"17:42:35","cor_ans":true},{"trial_type":"html-keyboard-response","rt":null,"stimulus":"<p style=\"color: green; font-size: 50px; font-weight: bold;\">Correct</p>","response":null,"trial_index":152,"plugin_version":"2.1.0","time_elapsed":1015794,"subject_id":"92545","group":"Group1","condition":"1_Rep","full_date":"2026-03-11T17:42:35.277Z","date":"2026-03-11","time":"17:42:35"},{"correct_response":"l","task":"test_phase","broad_category":"M","image_png":"M_Phyllite_07.png","image_id":263,"category_name":"Phyllite","category":17,"distinct_rating":2.59,"distinct_type":"Bottom","item_type":"Target","rt":733,"stimulus":"Stimuli_Rocks480/M_Phyllite_07.png","response":"l","trial_type":"image-keyboard-response","trial_index":153,"plugin_version":"2.1.0","time_elapsed":1016528,"subject_id":"92545","group":"Group1","condition":"1_Rep","full_date":"2026-03-11T17:42:35.277Z","date":"2026-03-11","time":"17:42:35","cor_ans":true},{"trial_type":"html-keyboard-response","rt":null,"stimulus":"<p style=\"color: green; font-size: 50px; font-weight: bold;\">Correct</p>","response":null,"trial_index":154,"plugin_version":"2.1.0","time_elapsed":1017030,"subject_id":"92545","group":"Group1","condition":"1_Rep","full_date":"2026-03-11T17:42:35.277Z","date":"2026-03-11","time":"17:42:35"},{"correct_response":"l","task":"test_phase","broad_category":"I","image_png":"I_Andesite_10.png","image_id":10,"category_name":"Andesite","category":1,"distinct_rating":3.15,"distinct_type":"Bottom","item_type":"Target","rt":951,"stimulus":"Stimuli_Rocks480/I_Andesite_10.png","response":"l","trial_type":"image-keyboard-response","trial_index":155,"plugin_version":"2.1.0","time_elapsed":1017983,"subject_id":"92545","group":"Group1","condition":"1_Rep","full_date":"2026-03-11T17:42:35.277Z","date":"2026-03-11","time":"17:42:35","cor_ans":true},{"trial_type":"html-keyboard-response","rt":null,"stimulus":"<p style=\"color: green; font-size: 50px; font-weight: bold;\">Correct</p>","response":null,"trial_index":156,"plugin_version":"2.1.0","time_elapsed":1018484,"subject_id":"92545","group":"Group1","condition":"1_Rep","full_date":"2026-03-11T17:42:35.277Z","date":"2026-03-11","time":"17:42:35"},{"correct_response":"a","task":"test_phase","broad_category":"I","image_png":"I_Pumice_14.png","image_id":142,"category_name":"Pumice","category":9,"distinct_rating":3.22,"distinct_type":"Bottom","item_type":"Foil","rt":1160,"stimulus":"Stimuli_Rocks480/I_Pumice_14.png","response":"l","trial_type":"image-keyboard-response","trial_index":157,"plugin_version":"2.1.0","time_elapsed":1019646,"subject_id":"92545","group":"Group1","condition":"1_Rep","full_date":"2026-03-11T17:42:35.277Z","date":"2026-03-11","time":"17:42:35","cor_ans":false},{"trial_type":"html-keyboard-response","rt":null,"stimulus":"<p style=\"color: red; font-size: 50px; font-weight: bold;\">Incorrect</p>","response":null,"trial_index":158,"plugin_version":"2.1.0","time_elapsed":1020148,"subject_id":"92545","group":"Group1","condition":"1_Rep","full_date":"2026-03-11T17:42:35.277Z","date":"2026-03-11","time":"17:42:35"},{"correct_response":"l","task":"test_phase","broad_category":"S","image_png":"S_Sandstone_03.png","image_id":451,"category_name":"Sandstone","category":29,"distinct_rating":1.86,"distinct_type":"Bottom","item_type":"Target","rt":1067,"stimulus":"Stimuli_Rocks480/S_Sandstone_03.png","response":"l","trial_type":"image-keyboard-response","trial_index":159,"plugin_version":"2.1.0","time_elapsed":1021217,"subject_id":"92545","group":"Group1","condition":"1_Rep","full_date":"2026-03-11T17:42:35.277Z","date":"2026-03-11","time":"17:42:35","cor_ans":true},{"trial_type":"html-keyboard-response","rt":null,"stimulus":"<p style=\"color: green; font-size: 50px; font-weight: bold;\">Correct</p>","response":null,"trial_index":160,"plugin_version":"2.1.0","time_elapsed":1021720,"subject_id":"92545","group":"Group1","condition":"1_Rep","full_date":"2026-03-11T17:42:35.277Z","date":"2026-03-11","time":"17:42:35"},{"correct_response":"l","task":"test_phase","broad_category":"M","image_png":"M_Gneiss_06.png","image_id":198,"category_name":"Gneiss","category":13,"distinct_rating":2.65,"distinct_type":"Bottom","item_type":"Target","rt":791,"stimulus":"Stimuli_Rocks480/M_Gneiss_06.png","response":"a","trial_type":"image-keyboard-response","trial_index":161,"plugin_version":"2.1.0","time_elapsed":1022513,"subject_id":"92545","group":"Group1","condition":"1_Rep","full_date":"2026-03-11T17:42:35.277Z","date":"2026-03-11","time":"17:42:35","cor_ans":false},{"trial_type":"html-keyboard-response","rt":null,"stimulus":"<p style=\"color: red; font-size: 50px; font-weight: bold;\">Incorrect</p>","response":null,"trial_index":162,"plugin_version":"2.1.0","time_elapsed":1023014,"subject_id":"92545","group":"Group1","condition":"1_Rep","full_date":"2026-03-11T17:42:35.277Z","date":"2026-03-11","time":"17:42:35"},{"correct_response":"a","task":"test_phase","broad_category":"S","image_png":"S_Dolomite_16.png","image_id":400,"category_name":"Dolomite","category":25,"distinct_rating":1.71,"distinct_type":"Bottom","item_type":"Foil","rt":987,"stimulus":"Stimuli_Rocks480/S_Dolomite_16.png","response":"l","trial_type":"image-keyboard-response","trial_index":163,"plugin_version":"2.1.0","time_elapsed":1024004,"subject_id":"92545","group":"Group1","condition":"1_Rep","full_date":"2026-03-11T17:42:35.277Z","date":"2026-03-11","time":"17:42:35","cor_ans":false},{"trial_type":"html-keyboard-response","rt":null,"stimulus":"<p style=\"color: red; font-size: 50px; font-weight: bold;\">Incorrect</p>","response":null,"trial_index":164,"plugin_version":"2.1.0","time_elapsed":1024505,"subject_id":"92545","group":"Group1","condition":"1_Rep","full_date":"2026-03-11T17:42:35.277Z","date":"2026-03-11","time":"17:42:35"},{"correct_response":"a","task":"test_phase","broad_category":"S","image_png":"S_Dolomite_01.png","image_id":385,"category_name":"Dolomite","category":25,"distinct_rating":1.43,"distinct_type":"Bottom","item_type":"Foil","rt":900,"stimulus":"Stimuli_Rocks480/S_Dolomite_01.png","response":"l","trial_type":"image-keyboard-response","trial_index":165,"plugin_version":"2.1.0","time_elapsed":1025406,"subject_id":"92545","group":"Group1","condition":"1_Rep","full_date":"2026-03-11T17:42:35.277Z","date":"2026-03-11","time":"17:42:35","cor_ans":false},{"trial_type":"html-keyboard-response","rt":null,"stimulus":"<p style=\"color: red; font-size: 50px; font-weight: bold;\">Incorrect</p>","response":null,"trial_index":166,"plugin_version":"2.1.0","time_elapsed":1025908,"subject_id":"92545","group":"Group1","condition":"1_Rep","full_date":"2026-03-11T17:42:35.277Z","date":"2026-03-11","time":"17:42:35"},{"correct_response":"a","task":"test_phase","broad_category":"M","image_png":"M_Quartzite_07.png","image_id":279,"category_name":"Quartzite","category":18,"distinct_rating":1.97,"distinct_type":"Bottom","item_type":"Foil","rt":1038,"stimulus":"Stimuli_Rocks480/M_Quartzite_07.png","response":"a","trial_type":"image-keyboard-response","trial_index":167,"plugin_version":"2.1.0","time_elapsed":1026949,"subject_id":"92545","group":"Group1","condition":"1_Rep","full_date":"2026-03-11T17:42:35.277Z","date":"2026-03-11","time":"17:42:35","cor_ans":true},{"trial_type":"html-keyboard-response","rt":null,"stimulus":"<p style=\"color: green; font-size: 50px; font-weight: bold;\">Correct</p>","response":null,"trial_index":168,"plugin_version":"2.1.0","time_elapsed":1027451,"subject_id":"92545","group":"Group1","condition":"1_Rep","full_date":"2026-03-11T17:42:35.277Z","date":"2026-03-11","time":"17:42:35"},{"correct_response":"l","task":"test_phase","broad_category":"M","image_png":"M_Quartzite_13.png","image_id":285,"category_name":"Quartzite","category":18,"distinct_rating":2.27,"distinct_type":"Bottom","item_type":"Target","rt":1025,"stimulus":"Stimuli_Rocks480/M_Quartzite_13.png","response":"l","trial_type":"image-keyboard-response","trial_index":169,"plugin_version":"2.1.0","time_elapsed":1028478,"subject_id":"92545","group":"Group1","condition":"1_Rep","full_date":"2026-03-11T17:42:35.277Z","date":"2026-03-11","time":"17:42:35","cor_ans":true},{"trial_type":"html-keyboard-response","rt":null,"stimulus":"<p style=\"color: green; font-size: 50px; font-weight: bold;\">Correct</p>","response":null,"trial_index":170,"plugin_version":"2.1.0","time_elapsed":1028980,"subject_id":"92545","group":"Group1","condition":"1_Rep","full_date":"2026-03-11T17:42:35.277Z","date":"2026-03-11","time":"17:42:35"},{"correct_response":"a","task":"test_phase","broad_category":"M","image_png":"M_Slate_10.png","image_id":314,"category_name":"Slate","category":20,"distinct_rating":1.94,"distinct_type":"Bottom","item_type":"Foil","rt":1005,"stimulus":"Stimuli_Rocks480/M_Slate_10.png","response":"a","trial_type":"image-keyboard-response","trial_index":171,"plugin_version":"2.1.0","time_elapsed":1029987,"subject_id":"92545","group":"Group1","condition":"1_Rep","full_date":"2026-03-11T17:42:35.277Z","date":"2026-03-11","time":"17:42:35","cor_ans":true},{"trial_type":"html-keyboard-response","rt":null,"stimulus":"<p style=\"color: green; font-size: 50px; font-weight: bold;\">Correct</p>","response":null,"trial_index":172,"plugin_version":"2.1.0","time_elapsed":1030489,"subject_id":"92545","group":"Group1","condition":"1_Rep","full_date":"2026-03-11T17:42:35.277Z","date":"2026-03-11","time":"17:42:35"},{"correct_response":"l","task":"test_phase","broad_category":"M","image_png":"M_Phyllite_10.png","image_id":266,"category_name":"Phyllite","category":17,"distinct_rating":2.6,"distinct_type":"Bottom","item_type":"Target","rt":786,"stimulus":"Stimuli_Rocks480/M_Phyllite_10.png","response":"a","trial_type":"image-keyboard-response","trial_index":173,"plugin_version":"2.1.0","time_elapsed":1031277,"subject_id":"92545","group":"Group1","condition":"1_Rep","full_date":"2026-03-11T17:42:35.277Z","date":"2026-03-11","time":"17:42:35","cor_ans":false},{"trial_type":"html-keyboard-response","rt":null,"stimulus":"<p style=\"color: red; font-size: 50px; font-weight: bold;\">Incorrect</p>","response":null,"trial_index":174,"plugin_version":"2.1.0","time_elapsed":1031779,"subject_id":"92545","group":"Group1","condition":"1_Rep","full_date":"2026-03-11T17:42:35.277Z","date":"2026-03-11","time":"17:42:35"},{"correct_response":"a","task":"test_phase","broad_category":"S","image_png":"S_Sandstone_04.png","image_id":452,"category_name":"Sandstone","category":29,"distinct_rating":1.8,"distinct_type":"Bottom","item_type":"Foil","rt":611,"stimulus":"Stimuli_Rocks480/S_Sandstone_04.png","response":"l","trial_type":"image-keyboard-response","trial_index":175,"plugin_version":"2.1.0","time_elapsed":1032391,"subject_id":"92545","group":"Group1","condition":"1_Rep","full_date":"2026-03-11T17:42:35.277Z","date":"2026-03-11","time":"17:42:35","cor_ans":false},{"trial_type":"html-keyboard-response","rt":null,"stimulus":"<p style=\"color: red; font-size: 50px; font-weight: bold;\">Incorrect</p>","response":null,"trial_index":176,"plugin_version":"2.1.0","time_elapsed":1032894,"subject_id":"92545","group":"Group1","condition":"1_Rep","full_date":"2026-03-11T17:42:35.277Z","date":"2026-03-11","time":"17:42:35"},{"correct_response":"l","task":"test_phase","broad_category":"S","image_png":"S_Dolomite_14.png","image_id":398,"category_name":"Dolomite","category":25,"distinct_rating":1.43,"distinct_type":"Bottom","item_type":"Target","rt":1000,"stimulus":"Stimuli_Rocks480/S_Dolomite_14.png","response":"l","trial_type":"image-keyboard-response","trial_index":177,"plugin_version":"2.1.0","time_elapsed":1033895,"subject_id":"92545","group":"Group1","condition":"1_Rep","full_date":"2026-03-11T17:42:35.277Z","date":"2026-03-11","time":"17:42:35","cor_ans":true},{"trial_type":"html-keyboard-response","rt":null,"stimulus":"<p style=\"color: green; font-size: 50px; font-weight: bold;\">Correct</p>","response":null,"trial_index":178,"plugin_version":"2.1.0","time_elapsed":1034398,"subject_id":"92545","group":"Group1","condition":"1_Rep","full_date":"2026-03-11T17:42:35.277Z","date":"2026-03-11","time":"17:42:35"},{"correct_response":"a","task":"test_phase","broad_category":"I","image_png":"I_Basalt_10.png","image_id":26,"category_name":"Basalt","category":2,"distinct_rating":2.76,"distinct_type":"Bottom","item_type":"Foil","rt":1131,"stimulus":"Stimuli_Rocks480/I_Basalt_10.png","response":"a","trial_type":"image-keyboard-response","trial_index":179,"plugin_version":"2.1.0","time_elapsed":1035531,"subject_id":"92545","group":"Group1","condition":"1_Rep","full_date":"2026-03-11T17:42:35.277Z","date":"2026-03-11","time":"17:42:35","cor_ans":true},{"trial_type":"html-keyboard-response","rt":null,"stimulus":"<p style=\"color: green; font-size: 50px; font-weight: bold;\">Correct</p>","response":null,"trial_index":180,"plugin_version":"2.1.0","time_elapsed":1036032,"subject_id":"92545","group":"Group1","condition":"1_Rep","full_date":"2026-03-11T17:42:35.277Z","date":"2026-03-11","time":"17:42:35"},{"correct_response":"l","task":"test_phase","broad_category":"I","image_png":"I_Basalt_01.png","image_id":17,"category_name":"Basalt","category":2,"distinct_rating":1.92,"distinct_type":"Bottom","item_type":"Target","rt":728,"stimulus":"Stimuli_Rocks480/I_Basalt_01.png","response":"l","trial_type":"image-keyboard-response","trial_index":181,"plugin_version":"2.1.0","time_elapsed":1036762,"subject_id":"92545","group":"Group1","condition":"1_Rep","full_date":"2026-03-11T17:42:35.277Z","date":"2026-03-11","time":"17:42:35","cor_ans":true},{"trial_type":"html-keyboard-response","rt":null,"stimulus":"<p style=\"color: green; font-size: 50px; font-weight: bold;\">Correct</p>","response":null,"trial_index":182,"plugin_version":"2.1.0","time_elapsed":1037263,"subject_id":"92545","group":"Group1","condition":"1_Rep","full_date":"2026-03-11T17:42:35.277Z","date":"2026-03-11","time":"17:42:35"},{"correct_response":"a","task":"test_phase","broad_category":"I","image_png":"I_Andesite_03.png","image_id":3,"category_name":"Andesite","category":1,"distinct_rating":3.17,"distinct_type":"Bottom","item_type":"Foil","rt":847,"stimulus":"Stimuli_Rocks480/I_Andesite_03.png","response":"a","trial_type":"image-keyboard-response","trial_index":183,"plugin_version":"2.1.0","time_elapsed":1038112,"subject_id":"92545","group":"Group1","condition":"1_Rep","full_date":"2026-03-11T17:42:35.277Z","date":"2026-03-11","time":"17:42:35","cor_ans":true},{"trial_type":"html-keyboard-response","rt":null,"stimulus":"<p style=\"color: green; font-size: 50px; font-weight: bold;\">Correct</p>","response":null,"trial_index":184,"plugin_version":"2.1.0","time_elapsed":1038614,"subject_id":"92545","group":"Group1","condition":"1_Rep","full_date":"2026-03-11T17:42:35.277Z","date":"2026-03-11","time":"17:42:35"},{"correct_response":"a","task":"test_phase","broad_category":"I","image_png":"I_Gabbro_14.png","image_id":62,"category_name":"Gabbro","category":4,"distinct_rating":2.95,"distinct_type":"Bottom","item_type":"Foil","rt":671,"stimulus":"Stimuli_Rocks480/I_Gabbro_14.png","response":"l","trial_type":"image-keyboard-response","trial_index":185,"plugin_version":"2.1.0","time_elapsed":1039286,"subject_id":"92545","group":"Group1","condition":"1_Rep","full_date":"2026-03-11T17:42:35.277Z","date":"2026-03-11","time":"17:42:35","cor_ans":false},{"trial_type":"html-keyboard-response","rt":null,"stimulus":"<p style=\"color: red; font-size: 50px; font-weight: bold;\">Incorrect</p>","response":null,"trial_index":186,"plugin_version":"2.1.0","time_elapsed":1039789,"subject_id":"92545","group":"Group1","condition":"1_Rep","full_date":"2026-03-11T17:42:35.277Z","date":"2026-03-11","time":"17:42:35"},{"correct_response":"a","task":"test_phase","broad_category":"M","image_png":"M_Gneiss_14.png","image_id":206,"category_name":"Gneiss","category":13,"distinct_rating":3.41,"distinct_type":"Bottom","item_type":"Foil","rt":819,"stimulus":"Stimuli_Rocks480/M_Gneiss_14.png","response":"l","trial_type":"image-keyboard-response","trial_index":187,"plugin_version":"2.1.0","time_elapsed":1040610,"subject_id":"92545","group":"Group1","condition":"1_Rep","full_date":"2026-03-11T17:42:35.277Z","date":"2026-03-11","time":"17:42:35","cor_ans":false},{"trial_type":"html-keyboard-response","rt":null,"stimulus":"<p style=\"color: red; font-size: 50px; font-weight: bold;\">Incorrect</p>","response":null,"trial_index":188,"plugin_version":"2.1.0","time_elapsed":1041111,"subject_id":"92545","group":"Group1","condition":"1_Rep","full_date":"2026-03-11T17:42:35.277Z","date":"2026-03-11","time":"17:42:35"},{"correct_response":"l","task":"test_phase","broad_category":"I","image_png":"I_Rhyolite_14.png","image_id":158,"category_name":"Rhyolite","category":10,"distinct_rating":2.59,"distinct_type":"Bottom","item_type":"Target","rt":737,"stimulus":"Stimuli_Rocks480/I_Rhyolite_14.png","response":"a","trial_type":"image-keyboard-response","trial_index":189,"plugin_version":"2.1.0","time_elapsed":1041851,"subject_id":"92545","group":"Group1","condition":"1_Rep","full_date":"2026-03-11T17:42:35.277Z","date":"2026-03-11","time":"17:42:35","cor_ans":false},{"trial_type":"html-keyboard-response","rt":null,"stimulus":"<p style=\"color: red; font-size: 50px; font-weight: bold;\">Incorrect</p>","response":null,"trial_index":190,"plugin_version":"2.1.0","time_elapsed":1042353,"subject_id":"92545","group":"Group1","condition":"1_Rep","full_date":"2026-03-11T17:42:35.277Z","date":"2026-03-11","time":"17:42:35"},{"correct_response":"a","task":"test_phase","broad_category":"S","image_png":"S_Sandstone_11.png","image_id":459,"category_name":"Sandstone","category":29,"distinct_rating":1.82,"distinct_type":"Bottom","item_type":"Foil","rt":882,"stimulus":"Stimuli_Rocks480/S_Sandstone_11.png","response":"a","trial_type":"image-keyboard-response","trial_index":191,"plugin_version":"2.1.0","time_elapsed":1043237,"subject_id":"92545","group":"Group1","condition":"1_Rep","full_date":"2026-03-11T17:42:35.277Z","date":"2026-03-11","time":"17:42:35","cor_ans":true},{"trial_type":"html-keyboard-response","rt":null,"stimulus":"<p style=\"color: green; font-size: 50px; font-weight: bold;\">Correct</p>","response":null,"trial_index":192,"plugin_version":"2.1.0","time_elapsed":1043740,"subject_id":"92545","group":"Group1","condition":"1_Rep","full_date":"2026-03-11T17:42:35.277Z","date":"2026-03-11","time":"17:42:35"},{"correct_response":"a","task":"test_phase","broad_category":"I","image_png":"I_Andesite_04.png","image_id":4,"category_name":"Andesite","category":1,"distinct_rating":3.18,"distinct_type":"Bottom","item_type":"Foil","rt":989,"stimulus":"Stimuli_Rocks480/I_Andesite_04.png","response":"l","trial_type":"image-keyboard-response","trial_index":193,"plugin_version":"2.1.0","time_elapsed":1044731,"subject_id":"92545","group":"Group1","condition":"1_Rep","full_date":"2026-03-11T17:42:35.277Z","date":"2026-03-11","time":"17:42:35","cor_ans":false},{"trial_type":"html-keyboard-response","rt":null,"stimulus":"<p style=\"color: red; font-size: 50px; font-weight: bold;\">Incorrect</p>","response":null,"trial_index":194,"plugin_version":"2.1.0","time_elapsed":1045232,"subject_id":"92545","group":"Group1","condition":"1_Rep","full_date":"2026-03-11T17:42:35.277Z","date":"2026-03-11","time":"17:42:35"},{"correct_response":"a","task":"test_phase","broad_category":"I","image_png":"I_Rhyolite_10.png","image_id":154,"category_name":"Rhyolite","category":10,"distinct_rating":2.88,"distinct_type":"Bottom","item_type":"Foil","rt":854,"stimulus":"Stimuli_Rocks480/I_Rhyolite_10.png","response":"a","trial_type":"image-keyboard-response","trial_index":195,"plugin_version":"2.1.0","time_elapsed":1046087,"subject_id":"92545","group":"Group1","condition":"1_Rep","full_date":"2026-03-11T17:42:35.277Z","date":"2026-03-11","time":"17:42:35","cor_ans":true},{"trial_type":"html-keyboard-response","rt":null,"stimulus":"<p style=\"color: green; font-size: 50px; font-weight: bold;\">Correct</p>","response":null,"trial_index":196,"plugin_version":"2.1.0","time_elapsed":1046588,"subject_id":"92545","group":"Group1","condition":"1_Rep","full_date":"2026-03-11T17:42:35.277Z","date":"2026-03-11","time":"17:42:35"},{"correct_response":"a","task":"test_phase","broad_category":"S","image_png":"S_Shale_02.png","image_id":466,"category_name":"Shale","category":30,"distinct_rating":2.9,"distinct_type":"Bottom","item_type":"Foil","rt":853,"stimulus":"Stimuli_Rocks480/S_Shale_02.png","response":"l","trial_type":"image-keyboard-response","trial_index":197,"plugin_version":"2.1.0","time_elapsed":1047444,"subject_id":"92545","group":"Group1","condition":"1_Rep","full_date":"2026-03-11T17:42:35.277Z","date":"2026-03-11","time":"17:42:35","cor_ans":false},{"trial_type":"html-keyboard-response","rt":null,"stimulus":"<p style=\"color: red; font-size: 50px; font-weight: bold;\">Incorrect</p>","response":null,"trial_index":198,"plugin_version":"2.1.0","time_elapsed":1047945,"subject_id":"92545","group":"Group1","condition":"1_Rep","full_date":"2026-03-11T17:42:35.277Z","date":"2026-03-11","time":"17:42:35"},{"correct_response":"a","task":"test_phase","broad_category":"M","image_png":"M_Quartzite_15.png","image_id":287,"category_name":"Quartzite","category":18,"distinct_rating":2.19,"distinct_type":"Bottom","item_type":"Foil","rt":872,"stimulus":"Stimuli_Rocks480/M_Quartzite_15.png","response":"a","trial_type":"image-keyboard-response","trial_index":199,"plugin_version":"2.1.0","time_elapsed":1048819,"subject_id":"92545","group":"Group1","condition":"1_Rep","full_date":"2026-03-11T17:42:35.277Z","date":"2026-03-11","time":"17:42:35","cor_ans":true},{"trial_type":"html-keyboard-response","rt":null,"stimulus":"<p style=\"color: green; font-size: 50px; font-weight: bold;\">Correct</p>","response":null,"trial_index":200,"plugin_version":"2.1.0","time_elapsed":1049321,"subject_id":"92545","group":"Group1","condition":"1_Rep","full_date":"2026-03-11T17:42:35.277Z","date":"2026-03-11","time":"17:42:35"},{"correct_response":"a","task":"test_phase","broad_category":"S","image_png":"S_Rock Salt_13.png","image_id":445,"category_name":"Rock Salt","category":28,"distinct_rating":7.58,"distinct_type":"Top","item_type":"Foil","rt":1152,"stimulus":"Stimuli_Rocks480/S_Rock Salt_13.png","response":"a","trial_type":"image-keyboard-response","trial_index":201,"plugin_version":"2.1.0","time_elapsed":1050475,"subject_id":"92545","group":"Group1","condition":"1_Rep","full_date":"2026-03-11T17:42:35.277Z","date":"2026-03-11","time":"17:42:35","cor_ans":true},{"trial_type":"html-keyboard-response","rt":null,"stimulus":"<p style=\"color: green; font-size: 50px; font-weight: bold;\">Correct</p>","response":null,"trial_index":202,"plugin_version":"2.1.0","time_elapsed":1050977,"subject_id":"92545","group":"Group1","condition":"1_Rep","full_date":"2026-03-11T17:42:35.277Z","date":"2026-03-11","time":"17:42:35"},{"correct_response":"a","task":"test_phase","broad_category":"S","image_png":"S_Rock Salt_15.png","image_id":447,"category_name":"Rock Salt","category":28,"distinct_rating":7.79,"distinct_type":"Top","item_type":"Foil","rt":1213,"stimulus":"Stimuli_Rocks480/S_Rock Salt_15.png","response":"a","trial_type":"image-keyboard-response","trial_index":203,"plugin_version":"2.1.0","time_elapsed":1052192,"subject_id":"92545","group":"Group1","condition":"1_Rep","full_date":"2026-03-11T17:42:35.277Z","date":"2026-03-11","time":"17:42:35","cor_ans":true},{"trial_type":"html-keyboard-response","rt":null,"stimulus":"<p style=\"color: green; font-size: 50px; font-weight: bold;\">Correct</p>","response":null,"trial_index":204,"plugin_version":"2.1.0","time_elapsed":1052694,"subject_id":"92545","group":"Group1","condition":"1_Rep","full_date":"2026-03-11T17:42:35.277Z","date":"2026-03-11","time":"17:42:35"},{"correct_response":"l","task":"test_phase","broad_category":"S","image_png":"S_Sandstone_15.png","image_id":463,"category_name":"Sandstone","category":29,"distinct_rating":2,"distinct_type":"Bottom","item_type":"Target","rt":767,"stimulus":"Stimuli_Rocks480/S_Sandstone_15.png","response":"l","trial_type":"image-keyboard-response","trial_index":205,"plugin_version":"2.1.0","time_elapsed":1053463,"subject_id":"92545","group":"Group1","condition":"1_Rep","full_date":"2026-03-11T17:42:35.277Z","date":"2026-03-11","time":"17:42:35","cor_ans":true},{"trial_type":"html-keyboard-response","rt":null,"stimulus":"<p style=\"color: green; font-size: 50px; font-weight: bold;\">Correct</p>","response":null,"trial_index":206,"plugin_version":"2.1.0","time_elapsed":1053965,"subject_id":"92545","group":"Group1","condition":"1_Rep","full_date":"2026-03-11T17:42:35.277Z","date":"2026-03-11","time":"17:42:35"},{"correct_response":"l","task":"test_phase","broad_category":"I","image_png":"I_Diorite_05.png","image_id":37,"category_name":"Diorite","category":3,"distinct_rating":3.08,"distinct_type":"Bottom","item_type":"Target","rt":1106,"stimulus":"Stimuli_Rocks480/I_Diorite_05.png","response":"a","trial_type":"image-keyboard-response","trial_index":207,"plugin_version":"2.1.0","time_elapsed":1055073,"subject_id":"92545","group":"Group1","condition":"1_Rep","full_date":"2026-03-11T17:42:35.277Z","date":"2026-03-11","time":"17:42:35","cor_ans":false},{"trial_type":"html-keyboard-response","rt":null,"stimulus":"<p style=\"color: red; font-size: 50px; font-weight: bold;\">Incorrect</p>","response":null,"trial_index":208,"plugin_version":"2.1.0","time_elapsed":1055574,"subject_id":"92545","group":"Group1","condition":"1_Rep","full_date":"2026-03-11T17:42:35.277Z","date":"2026-03-11","time":"17:42:35"},{"correct_response":"l","task":"test_phase","broad_category":"I","image_png":"I_Gabbro_11.png","image_id":59,"category_name":"Gabbro","category":4,"distinct_rating":1.99,"distinct_type":"Bottom","item_type":"Target","rt":1223,"stimulus":"Stimuli_Rocks480/I_Gabbro_11.png","response":"l","trial_type":"image-keyboard-response","trial_index":209,"plugin_version":"2.1.0","time_elapsed":1056799,"subject_id":"92545","group":"Group1","condition":"1_Rep","full_date":"2026-03-11T17:42:35.277Z","date":"2026-03-11","time":"17:42:35","cor_ans":true},{"trial_type":"html-keyboard-response","rt":null,"stimulus":"<p style=\"color: green; font-size: 50px; font-weight: bold;\">Correct</p>","response":null,"trial_index":210,"plugin_version":"2.1.0","time_elapsed":1057302,"subject_id":"92545","group":"Group1","condition":"1_Rep","full_date":"2026-03-11T17:42:35.277Z","date":"2026-03-11","time":"17:42:35"},{"correct_response":"a","task":"test_phase","broad_category":"M","image_png":"M_Marble_14.png","image_id":238,"category_name":"Marble","category":15,"distinct_rating":3.31,"distinct_type":"Bottom","item_type":"Foil","rt":1783,"stimulus":"Stimuli_Rocks480/M_Marble_14.png","response":"l","trial_type":"image-keyboard-response","trial_index":211,"plugin_version":"2.1.0","time_elapsed":1059087,"subject_id":"92545","group":"Group1","condition":"1_Rep","full_date":"2026-03-11T17:42:35.277Z","date":"2026-03-11","time":"17:42:35","cor_ans":false},{"trial_type":"html-keyboard-response","rt":null,"stimulus":"<p style=\"color: red; font-size: 50px; font-weight: bold;\">Incorrect</p>","response":null,"trial_index":212,"plugin_version":"2.1.0","time_elapsed":1059588,"subject_id":"92545","group":"Group1","condition":"1_Rep","full_date":"2026-03-11T17:42:35.277Z","date":"2026-03-11","time":"17:42:35"},{"correct_response":"l","task":"test_phase","broad_category":"M","image_png":"M_Slate_11.png","image_id":315,"category_name":"Slate","category":20,"distinct_rating":2.75,"distinct_type":"Bottom","item_type":"Target","rt":1713,"stimulus":"Stimuli_Rocks480/M_Slate_11.png","response":"a","trial_type":"image-keyboard-response","trial_index":213,"plugin_version":"2.1.0","time_elapsed":1061303,"subject_id":"92545","group":"Group1","condition":"1_Rep","full_date":"2026-03-11T17:42:35.277Z","date":"2026-03-11","time":"17:42:35","cor_ans":false},{"trial_type":"html-keyboard-response","rt":null,"stimulus":"<p style=\"color: red; font-size: 50px; font-weight: bold;\">Incorrect</p>","response":null,"trial_index":214,"plugin_version":"2.1.0","time_elapsed":1061805,"subject_id":"92545","group":"Group1","condition":"1_Rep","full_date":"2026-03-11T17:42:35.277Z","date":"2026-03-11","time":"17:42:35"},{"correct_response":"a","task":"test_phase","broad_category":"I","image_png":"I_Basalt_08.png","image_id":24,"category_name":"Basalt","category":2,"distinct_rating":2.31,"distinct_type":"Bottom","item_type":"Foil","rt":865,"stimulus":"Stimuli_Rocks480/I_Basalt_08.png","response":"l","trial_type":"image-keyboard-response","trial_index":215,"plugin_version":"2.1.0","time_elapsed":1062672,"subject_id":"92545","group":"Group1","condition":"1_Rep","full_date":"2026-03-11T17:42:35.277Z","date":"2026-03-11","time":"17:42:35","cor_ans":false},{"trial_type":"html-keyboard-response","rt":null,"stimulus":"<p style=\"color: red; font-size: 50px; font-weight: bold;\">Incorrect</p>","response":null,"trial_index":216,"plugin_version":"2.1.0","time_elapsed":1063174,"subject_id":"92545","group":"Group1","condition":"1_Rep","full_date":"2026-03-11T17:42:35.277Z","date":"2026-03-11","time":"17:42:35"},{"correct_response":"a","task":"test_phase","broad_category":"M","image_png":"M_Phyllite_13.png","image_id":269,"category_name":"Phyllite","category":17,"distinct_rating":2.8,"distinct_type":"Bottom","item_type":"Foil","rt":1301,"stimulus":"Stimuli_Rocks480/M_Phyllite_13.png","response":"l","trial_type":"image-keyboard-response","trial_index":217,"plugin_version":"2.1.0","time_elapsed":1064477,"subject_id":"92545","group":"Group1","condition":"1_Rep","full_date":"2026-03-11T17:42:35.277Z","date":"2026-03-11","time":"17:42:35","cor_ans":false},{"trial_type":"html-keyboard-response","rt":null,"stimulus":"<p style=\"color: red; font-size: 50px; font-weight: bold;\">Incorrect</p>","response":null,"trial_index":218,"plugin_version":"2.1.0","time_elapsed":1064980,"subject_id":"92545","group":"Group1","condition":"1_Rep","full_date":"2026-03-11T17:42:35.277Z","date":"2026-03-11","time":"17:42:35"},{"correct_response":"l","task":"test_phase","broad_category":"M","image_png":"M_Slate_15.png","image_id":319,"category_name":"Slate","category":20,"distinct_rating":2.13,"distinct_type":"Bottom","item_type":"Target","rt":764,"stimulus":"Stimuli_Rocks480/M_Slate_15.png","response":"l","trial_type":"image-keyboard-response","trial_index":219,"plugin_version":"2.1.0","time_elapsed":1065746,"subject_id":"92545","group":"Group1","condition":"1_Rep","full_date":"2026-03-11T17:42:35.277Z","date":"2026-03-11","time":"17:42:35","cor_ans":true},{"trial_type":"html-keyboard-response","rt":null,"stimulus":"<p style=\"color: green; font-size: 50px; font-weight: bold;\">Correct</p>","response":null,"trial_index":220,"plugin_version":"2.1.0","time_elapsed":1066248,"subject_id":"92545","group":"Group1","condition":"1_Rep","full_date":"2026-03-11T17:42:35.277Z","date":"2026-03-11","time":"17:42:35"},{"correct_response":"l","task":"test_phase","broad_category":"S","image_png":"S_Sandstone_16.png","image_id":464,"category_name":"Sandstone","category":29,"distinct_rating":1.93,"distinct_type":"Bottom","item_type":"Target","rt":787,"stimulus":"Stimuli_Rocks480/S_Sandstone_16.png","response":"l","trial_type":"image-keyboard-response","trial_index":221,"plugin_version":"2.1.0","time_elapsed":1067037,"subject_id":"92545","group":"Group1","condition":"1_Rep","full_date":"2026-03-11T17:42:35.277Z","date":"2026-03-11","time":"17:42:35","cor_ans":true},{"trial_type":"html-keyboard-response","rt":null,"stimulus":"<p style=\"color: green; font-size: 50px; font-weight: bold;\">Correct</p>","response":null,"trial_index":222,"plugin_version":"2.1.0","time_elapsed":1067538,"subject_id":"92545","group":"Group1","condition":"1_Rep","full_date":"2026-03-11T17:42:35.277Z","date":"2026-03-11","time":"17:42:35"},{"correct_response":"a","task":"test_phase","broad_category":"I","image_png":"I_Rhyolite_08.png","image_id":152,"category_name":"Rhyolite","category":10,"distinct_rating":1.38,"distinct_type":"Bottom","item_type":"Foil","rt":3966,"stimulus":"Stimuli_Rocks480/I_Rhyolite_08.png","response":"a","trial_type":"image-keyboard-response","trial_index":223,"plugin_version":"2.1.0","time_elapsed":1071506,"subject_id":"92545","group":"Group1","condition":"1_Rep","full_date":"2026-03-11T17:42:35.277Z","date":"2026-03-11","time":"17:42:35","cor_ans":true},{"trial_type":"html-keyboard-response","rt":null,"stimulus":"<p style=\"color: green; font-size: 50px; font-weight: bold;\">Correct</p>","response":null,"trial_index":224,"plugin_version":"2.1.0","time_elapsed":1072008,"subject_id":"92545","group":"Group1","condition":"1_Rep","full_date"