[{"width":723,"height":781,"webaudio":true,"browser":"safari","browser_version":"18.5.0","mobile":false,"os":"Mac OS","fullscreen":true,"vsync_rate":38.49,"webcam":true,"microphone":true,"trial_type":"browser-check","trial_index":0,"plugin_version":"2.1.0","time_elapsed":1564,"subject_id":"91931","group":"Group1","condition":"1_Rep","full_date":"2026-02-02T18:20:56.613Z","date":"2026-02-02","time":"18:20:56"},{"success":true,"timeout":false,"failed_images":[],"failed_audio":[],"failed_video":[],"trial_type":"preload","trial_index":1,"plugin_version":"2.1.0","time_elapsed":4315,"subject_id":"91931","group":"Group1","condition":"1_Rep","full_date":"2026-02-02T18:20:56.613Z","date":"2026-02-02","time":"18:20:56"},{"rt":18318,"url":"SONA_consent_memorability.html","trial_type":"external-html","trial_index":2,"plugin_version":"2.1.0","time_elapsed":22684,"subject_id":"91931","group":"Group1","condition":"1_Rep","full_date":"2026-02-02T18:20:56.613Z","date":"2026-02-02","time":"18:20:56"},{"success":true,"rt":2046,"trial_type":"fullscreen","trial_index":3,"plugin_version":"2.1.0","time_elapsed":25734,"subject_id":"91931","group":"Group1","condition":"1_Rep","full_date":"2026-02-02T18:20:56.613Z","date":"2026-02-02","time":"18:20:56"},{"rt":23714,"stimulus":"<div style=\"max-width: 760px; margin: auto; font-size: 20px; line-height: 1.5;\">\n      <h1 style=\"text-align:center; font-size: 30px;\">Instructions</h1>\n      <p>\n        Welcome to the study on <b>visual memory</b>. This experiment consists of <b>two phases</b>: \n        a <b>study phase</b> and a <b>test phase</b>.\n      </p>\n      <p>\n        In the study phase, you will see a series of rock images along with their category labels.\n        The images will appear one at a time.\n        <b>Your task</b> is to learn the categories to which the rock images belong \n        and to remember each image as accurately as possible.\n      </p> \n      <p>\n        Note that you will see each image only <b>once</b> during the study phase. \n          So, please pay close attention and try to remember each image carefully.\n      </p>\n      <p>\n        After the study phase, <b>your memory will be tested</b>. \n        Additional instructions for the test phase will be provided at that time.\n      </p>\n      <p>\n        If your computer has multiple <b>language settings</b> (e.g., English and another language),\n        please make sure it is set to English before starting.\n      </p>\n      <p>\n        You can track your progress using the <b>completion bar</b> at the top of the screen. \n        Please note that the bar will refresh when the test phase begins \n        to give you an accurate sense of your progress in both phases.\n      </p> \n      <p>\n        Press the button below when you are ready to begin.\n      </p>\n    </div>","response":0,"trial_type":"html-button-response","trial_index":4,"plugin_version":"2.1.0","time_elapsed":49451,"subject_id":"91931","group":"Group1","condition":"1_Rep","full_date":"2026-02-02T18:20:56.613Z","date":"2026-02-02","time":"18:20:56"},{"rt":null,"stimulus":"<p style=\"font-size: 50px; margin: 0; text-align: center;\">+</p>","response":null,"trial_type":"html-keyboard-response","trial_index":5,"plugin_version":"2.1.0","time_elapsed":50456,"subject_id":"91931","group":"Group1","condition":"1_Rep","full_date":"2026-02-02T18:20:56.613Z","date":"2026-02-02","time":"18:20:56"},{"task":"memory_phase","broad_category":"I","image_png":"I_Andesite_08.png","image_id":8,"category_name":"Andesite","category":1,"distinct_rating":1.95,"distinct_type":"Bottom","rt":null,"stimulus":"Stimuli_Rocks480/I_Andesite_08.png","response":null,"trial_type":"image-keyboard-response","trial_index":6,"plugin_version":"2.1.0","time_elapsed":52971,"subject_id":"91931","group":"Group1","condition":"1_Rep","full_date":"2026-02-02T18:20:56.613Z","date":"2026-02-02","time":"18:20:56"},{"rt":null,"stimulus":"<p style=\"font-size: 50px; margin: 0; text-align: center;\">+</p>","response":null,"trial_type":"html-keyboard-response","trial_index":7,"plugin_version":"2.1.0","time_elapsed":53974,"subject_id":"91931","group":"Group1","condition":"1_Rep","full_date":"2026-02-02T18:20:56.613Z","date":"2026-02-02","time":"18:20:56"},{"task":"memory_phase","broad_category":"I","image_png":"I_Gabbro_16.png","image_id":64,"category_name":"Gabbro","category":4,"distinct_rating":2.52,"distinct_type":"Bottom","rt":null,"stimulus":"Stimuli_Rocks480/I_Gabbro_16.png","response":null,"trial_type":"image-keyboard-response","trial_index":8,"plugin_version":"2.1.0","time_elapsed":56489,"subject_id":"91931","group":"Group1","condition":"1_Rep","full_date":"2026-02-02T18:20:56.613Z","date":"2026-02-02","time":"18:20:56"},{"rt":null,"stimulus":"<p style=\"font-size: 50px; margin: 0; text-align: center;\">+</p>","response":null,"trial_type":"html-keyboard-response","trial_index":9,"plugin_version":"2.1.0","time_elapsed":57491,"subject_id":"91931","group":"Group1","condition":"1_Rep","full_date":"2026-02-02T18:20:56.613Z","date":"2026-02-02","time":"18:20:56"},{"task":"memory_phase","broad_category":"I","image_png":"I_Basalt_01.png","image_id":17,"category_name":"Basalt","category":2,"distinct_rating":1.92,"distinct_type":"Bottom","rt":null,"stimulus":"Stimuli_Rocks480/I_Basalt_01.png","response":null,"trial_type":"image-keyboard-response","trial_index":10,"plugin_version":"2.1.0","time_elapsed":60009,"subject_id":"91931","group":"Group1","condition":"1_Rep","full_date":"2026-02-02T18:20:56.613Z","date":"2026-02-02","time":"18:20:56"},{"rt":null,"stimulus":"<p style=\"font-size: 50px; margin: 0; text-align: center;\">+</p>","response":null,"trial_type":"html-keyboard-response","trial_index":11,"plugin_version":"2.1.0","time_elapsed":61012,"subject_id":"91931","group":"Group1","condition":"1_Rep","full_date":"2026-02-02T18:20:56.613Z","date":"2026-02-02","time":"18:20:56"},{"task":"memory_phase","broad_category":"M","image_png":"M_Gneiss_05.png","image_id":197,"category_name":"Gneiss","category":13,"distinct_rating":2.97,"distinct_type":"Bottom","rt":null,"stimulus":"Stimuli_Rocks480/M_Gneiss_05.png","response":null,"trial_type":"image-keyboard-response","trial_index":12,"plugin_version":"2.1.0","time_elapsed":63532,"subject_id":"91931","group":"Group1","condition":"1_Rep","full_date":"2026-02-02T18:20:56.613Z","date":"2026-02-02","time":"18:20:56"},{"rt":null,"stimulus":"<p style=\"font-size: 50px; margin: 0; text-align: center;\">+</p>","response":null,"trial_type":"html-keyboard-response","trial_index":13,"plugin_version":"2.1.0","time_elapsed":64534,"subject_id":"91931","group":"Group1","condition":"1_Rep","full_date":"2026-02-02T18:20:56.613Z","date":"2026-02-02","time":"18:20:56"},{"task":"memory_phase","broad_category":"I","image_png":"I_Pumice_12.png","image_id":140,"category_name":"Pumice","category":9,"distinct_rating":2.97,"distinct_type":"Bottom","rt":null,"stimulus":"Stimuli_Rocks480/I_Pumice_12.png","response":null,"trial_type":"image-keyboard-response","trial_index":14,"plugin_version":"2.1.0","time_elapsed":67047,"subject_id":"91931","group":"Group1","condition":"1_Rep","full_date":"2026-02-02T18:20:56.613Z","date":"2026-02-02","time":"18:20:56"},{"rt":null,"stimulus":"<p style=\"font-size: 50px; margin: 0; text-align: center;\">+</p>","response":null,"trial_type":"html-keyboard-response","trial_index":15,"plugin_version":"2.1.0","time_elapsed":68049,"subject_id":"91931","group":"Group1","condition":"1_Rep","full_date":"2026-02-02T18:20:56.613Z","date":"2026-02-02","time":"18:20:56"},{"task":"memory_phase","broad_category":"I","image_png":"I_Rhyolite_14.png","image_id":158,"category_name":"Rhyolite","category":10,"distinct_rating":2.59,"distinct_type":"Bottom","rt":null,"stimulus":"Stimuli_Rocks480/I_Rhyolite_14.png","response":null,"trial_type":"image-keyboard-response","trial_index":16,"plugin_version":"2.1.0","time_elapsed":70562,"subject_id":"91931","group":"Group1","condition":"1_Rep","full_date":"2026-02-02T18:20:56.613Z","date":"2026-02-02","time":"18:20:56"},{"rt":null,"stimulus":"<p style=\"font-size: 50px; margin: 0; text-align: center;\">+</p>","response":null,"trial_type":"html-keyboard-response","trial_index":17,"plugin_version":"2.1.0","time_elapsed":71564,"subject_id":"91931","group":"Group1","condition":"1_Rep","full_date":"2026-02-02T18:20:56.613Z","date":"2026-02-02","time":"18:20:56"},{"task":"memory_phase","broad_category":"M","image_png":"M_Slate_03.png","image_id":307,"category_name":"Slate","category":20,"distinct_rating":1.87,"distinct_type":"Bottom","rt":null,"stimulus":"Stimuli_Rocks480/M_Slate_03.png","response":null,"trial_type":"image-keyboard-response","trial_index":18,"plugin_version":"2.1.0","time_elapsed":74078,"subject_id":"91931","group":"Group1","condition":"1_Rep","full_date":"2026-02-02T18:20:56.613Z","date":"2026-02-02","time":"18:20:56"},{"rt":null,"stimulus":"<p style=\"font-size: 50px; margin: 0; text-align: center;\">+</p>","response":null,"trial_type":"html-keyboard-response","trial_index":19,"plugin_version":"2.1.0","time_elapsed":75081,"subject_id":"91931","group":"Group1","condition":"1_Rep","full_date":"2026-02-02T18:20:56.613Z","date":"2026-02-02","time":"18:20:56"},{"task":"memory_phase","broad_category":"M","image_png":"M_Phyllite_03.png","image_id":259,"category_name":"Phyllite","category":17,"distinct_rating":2.5,"distinct_type":"Bottom","rt":null,"stimulus":"Stimuli_Rocks480/M_Phyllite_03.png","response":null,"trial_type":"image-keyboard-response","trial_index":20,"plugin_version":"2.1.0","time_elapsed":77595,"subject_id":"91931","group":"Group1","condition":"1_Rep","full_date":"2026-02-02T18:20:56.613Z","date":"2026-02-02","time":"18:20:56"},{"rt":null,"stimulus":"<p style=\"font-size: 50px; margin: 0; text-align: center;\">+</p>","response":null,"trial_type":"html-keyboard-response","trial_index":21,"plugin_version":"2.1.0","time_elapsed":78597,"subject_id":"91931","group":"Group1","condition":"1_Rep","full_date":"2026-02-02T18:20:56.613Z","date":"2026-02-02","time":"18:20:56"},{"task":"memory_phase","broad_category":"M","image_png":"M_Marble_06.png","image_id":230,"category_name":"Marble","category":15,"distinct_rating":3.4,"distinct_type":"Bottom","rt":null,"stimulus":"Stimuli_Rocks480/M_Marble_06.png","response":null,"trial_type":"image-keyboard-response","trial_index":22,"plugin_version":"2.1.0","time_elapsed":81111,"subject_id":"91931","group":"Group1","condition":"1_Rep","full_date":"2026-02-02T18:20:56.613Z","date":"2026-02-02","time":"18:20:56"},{"rt":null,"stimulus":"<p style=\"font-size: 50px; margin: 0; text-align: center;\">+</p>","response":null,"trial_type":"html-keyboard-response","trial_index":23,"plugin_version":"2.1.0","time_elapsed":82113,"subject_id":"91931","group":"Group1","condition":"1_Rep","full_date":"2026-02-02T18:20:56.613Z","date":"2026-02-02","time":"18:20:56"},{"task":"memory_phase","broad_category":"S","image_png":"S_Shale_01.png","image_id":465,"category_name":"Shale","category":30,"distinct_rating":2.7,"distinct_type":"Bottom","rt":null,"stimulus":"Stimuli_Rocks480/S_Shale_01.png","response":null,"trial_type":"image-keyboard-response","trial_index":24,"plugin_version":"2.1.0","time_elapsed":84627,"subject_id":"91931","group":"Group1","condition":"1_Rep","full_date":"2026-02-02T18:20:56.613Z","date":"2026-02-02","time":"18:20:56"},{"rt":null,"stimulus":"<p style=\"font-size: 50px; margin: 0; text-align: center;\">+</p>","response":null,"trial_type":"html-keyboard-response","trial_index":25,"plugin_version":"2.1.0","time_elapsed":85629,"subject_id":"91931","group":"Group1","condition":"1_Rep","full_date":"2026-02-02T18:20:56.613Z","date":"2026-02-02","time":"18:20:56"},{"task":"memory_phase","broad_category":"S","image_png":"S_Rock Gypsum_04.png","image_id":420,"category_name":"Rock Gypsum","category":27,"distinct_rating":7.61,"distinct_type":"Top","rt":null,"stimulus":"Stimuli_Rocks480/S_Rock Gypsum_04.png","response":null,"trial_type":"image-keyboard-response","trial_index":26,"plugin_version":"2.1.0","time_elapsed":88143,"subject_id":"91931","group":"Group1","condition":"1_Rep","full_date":"2026-02-02T18:20:56.613Z","date":"2026-02-02","time":"18:20:56"},{"rt":null,"stimulus":"<p style=\"font-size: 50px; margin: 0; text-align: center;\">+</p>","response":null,"trial_type":"html-keyboard-response","trial_index":27,"plugin_version":"2.1.0","time_elapsed":89146,"subject_id":"91931","group":"Group1","condition":"1_Rep","full_date":"2026-02-02T18:20:56.613Z","date":"2026-02-02","time":"18:20:56"},{"task":"memory_phase","broad_category":"S","image_png":"S_Sandstone_15.png","image_id":463,"category_name":"Sandstone","category":29,"distinct_rating":2,"distinct_type":"Bottom","rt":null,"stimulus":"Stimuli_Rocks480/S_Sandstone_15.png","response":null,"trial_type":"image-keyboard-response","trial_index":28,"plugin_version":"2.1.0","time_elapsed":91663,"subject_id":"91931","group":"Group1","condition":"1_Rep","full_date":"2026-02-02T18:20:56.613Z","date":"2026-02-02","time":"18:20:56"},{"rt":null,"stimulus":"<p style=\"font-size: 50px; margin: 0; text-align: center;\">+</p>","response":null,"trial_type":"html-keyboard-response","trial_index":29,"plugin_version":"2.1.0","time_elapsed":92665,"subject_id":"91931","group":"Group1","condition":"1_Rep","full_date":"2026-02-02T18:20:56.613Z","date":"2026-02-02","time":"18:20:56"},{"task":"memory_phase","broad_category":"I","image_png":"I_Diorite_03.png","image_id":35,"category_name":"Diorite","category":3,"distinct_rating":3.14,"distinct_type":"Bottom","rt":null,"stimulus":"Stimuli_Rocks480/I_Diorite_03.png","response":null,"trial_type":"image-keyboard-response","trial_index":30,"plugin_version":"2.1.0","time_elapsed":95182,"subject_id":"91931","group":"Group1","condition":"1_Rep","full_date":"2026-02-02T18:20:56.613Z","date":"2026-02-02","time":"18:20:56"},{"rt":null,"stimulus":"<p style=\"font-size: 50px; margin: 0; text-align: center;\">+</p>","response":null,"trial_type":"html-keyboard-response","trial_index":31,"plugin_version":"2.1.0","time_elapsed":96185,"subject_id":"91931","group":"Group1","condition":"1_Rep","full_date":"2026-02-02T18:20:56.613Z","date":"2026-02-02","time":"18:20:56"},{"task":"memory_phase","broad_category":"M","image_png":"M_Gneiss_13.png","image_id":205,"category_name":"Gneiss","category":13,"distinct_rating":3.26,"distinct_type":"Bottom","rt":null,"stimulus":"Stimuli_Rocks480/M_Gneiss_13.png","response":null,"trial_type":"image-keyboard-response","trial_index":32,"plugin_version":"2.1.0","time_elapsed":98697,"subject_id":"91931","group":"Group1","condition":"1_Rep","full_date":"2026-02-02T18:20:56.613Z","date":"2026-02-02","time":"18:20:56"},{"rt":null,"stimulus":"<p style=\"font-size: 50px; margin: 0; text-align: center;\">+</p>","response":null,"trial_type":"html-keyboard-response","trial_index":33,"plugin_version":"2.1.0","time_elapsed":99699,"subject_id":"91931","group":"Group1","condition":"1_Rep","full_date":"2026-02-02T18:20:56.613Z","date":"2026-02-02","time":"18:20:56"},{"task":"memory_phase","broad_category":"I","image_png":"I_Pumice_11.png","image_id":139,"category_name":"Pumice","category":9,"distinct_rating":1.74,"distinct_type":"Bottom","rt":null,"stimulus":"Stimuli_Rocks480/I_Pumice_11.png","response":null,"trial_type":"image-keyboard-response","trial_index":34,"plugin_version":"2.1.0","time_elapsed":102208,"subject_id":"91931","group":"Group1","condition":"1_Rep","full_date":"2026-02-02T18:20:56.613Z","date":"2026-02-02","time":"18:20:56"},{"rt":null,"stimulus":"<p style=\"font-size: 50px; margin: 0; text-align: center;\">+</p>","response":null,"trial_type":"html-keyboard-response","trial_index":35,"plugin_version":"2.1.0","time_elapsed":103211,"subject_id":"91931","group":"Group1","condition":"1_Rep","full_date":"2026-02-02T18:20:56.613Z","date":"2026-02-02","time":"18:20:56"},{"task":"memory_phase","broad_category":"M","image_png":"M_Phyllite_07.png","image_id":263,"category_name":"Phyllite","category":17,"distinct_rating":2.59,"distinct_type":"Bottom","rt":null,"stimulus":"Stimuli_Rocks480/M_Phyllite_07.png","response":null,"trial_type":"image-keyboard-response","trial_index":36,"plugin_version":"2.1.0","time_elapsed":105722,"subject_id":"91931","group":"Group1","condition":"1_Rep","full_date":"2026-02-02T18:20:56.613Z","date":"2026-02-02","time":"18:20:56"},{"rt":null,"stimulus":"<p style=\"font-size: 50px; margin: 0; text-align: center;\">+</p>","response":null,"trial_type":"html-keyboard-response","trial_index":37,"plugin_version":"2.1.0","time_elapsed":106724,"subject_id":"91931","group":"Group1","condition":"1_Rep","full_date":"2026-02-02T18:20:56.613Z","date":"2026-02-02","time":"18:20:56"},{"task":"memory_phase","broad_category":"I","image_png":"I_Basalt_02.png","image_id":18,"category_name":"Basalt","category":2,"distinct_rating":1.84,"distinct_type":"Bottom","rt":null,"stimulus":"Stimuli_Rocks480/I_Basalt_02.png","response":null,"trial_type":"image-keyboard-response","trial_index":38,"plugin_version":"2.1.0","time_elapsed":109242,"subject_id":"91931","group":"Group1","condition":"1_Rep","full_date":"2026-02-02T18:20:56.613Z","date":"2026-02-02","time":"18:20:56"},{"rt":null,"stimulus":"<p style=\"font-size: 50px; margin: 0; text-align: center;\">+</p>","response":null,"trial_type":"html-keyboard-response","trial_index":39,"plugin_version":"2.1.0","time_elapsed":110244,"subject_id":"91931","group":"Group1","condition":"1_Rep","full_date":"2026-02-02T18:20:56.613Z","date":"2026-02-02","time":"18:20:56"},{"task":"memory_phase","broad_category":"M","image_png":"M_Gneiss_06.png","image_id":198,"category_name":"Gneiss","category":13,"distinct_rating":2.65,"distinct_type":"Bottom","rt":null,"stimulus":"Stimuli_Rocks480/M_Gneiss_06.png","response":null,"trial_type":"image-keyboard-response","trial_index":40,"plugin_version":"2.1.0","time_elapsed":112762,"subject_id":"91931","group":"Group1","condition":"1_Rep","full_date":"2026-02-02T18:20:56.613Z","date":"2026-02-02","time":"18:20:56"},{"rt":null,"stimulus":"<p style=\"font-size: 50px; margin: 0; text-align: center;\">+</p>","response":null,"trial_type":"html-keyboard-response","trial_index":41,"plugin_version":"2.1.0","time_elapsed":113765,"subject_id":"91931","group":"Group1","condition":"1_Rep","full_date":"2026-02-02T18:20:56.613Z","date":"2026-02-02","time":"18:20:56"},{"task":"memory_phase","broad_category":"I","image_png":"I_Gabbro_11.png","image_id":59,"category_name":"Gabbro","category":4,"distinct_rating":1.99,"distinct_type":"Bottom","rt":null,"stimulus":"Stimuli_Rocks480/I_Gabbro_11.png","response":null,"trial_type":"image-keyboard-response","trial_index":42,"plugin_version":"2.1.0","time_elapsed":116277,"subject_id":"91931","group":"Group1","condition":"1_Rep","full_date":"2026-02-02T18:20:56.613Z","date":"2026-02-02","time":"18:20:56"},{"rt":null,"stimulus":"<p style=\"font-size: 50px; margin: 0; text-align: center;\">+</p>","response":null,"trial_type":"html-keyboard-response","trial_index":43,"plugin_version":"2.1.0","time_elapsed":117279,"subject_id":"91931","group":"Group1","condition":"1_Rep","full_date":"2026-02-02T18:20:56.613Z","date":"2026-02-02","time":"18:20:56"},{"task":"memory_phase","broad_category":"I","image_png":"I_Andesite_06.png","image_id":6,"category_name":"Andesite","category":1,"distinct_rating":3.17,"distinct_type":"Bottom","rt":null,"stimulus":"Stimuli_Rocks480/I_Andesite_06.png","response":null,"trial_type":"image-keyboard-response","trial_index":44,"plugin_version":"2.1.0","time_elapsed":119795,"subject_id":"91931","group":"Group1","condition":"1_Rep","full_date":"2026-02-02T18:20:56.613Z","date":"2026-02-02","time":"18:20:56"},{"rt":null,"stimulus":"<p style=\"font-size: 50px; margin: 0; text-align: center;\">+</p>","response":null,"trial_type":"html-keyboard-response","trial_index":45,"plugin_version":"2.1.0","time_elapsed":120797,"subject_id":"91931","group":"Group1","condition":"1_Rep","full_date":"2026-02-02T18:20:56.613Z","date":"2026-02-02","time":"18:20:56"},{"task":"memory_phase","broad_category":"S","image_png":"S_Conglomerate_05.png","image_id":373,"category_name":"Conglomerate","category":24,"distinct_rating":7.32,"distinct_type":"Top","rt":null,"stimulus":"Stimuli_Rocks480/S_Conglomerate_05.png","response":null,"trial_type":"image-keyboard-response","trial_index":46,"plugin_version":"2.1.0","time_elapsed":123312,"subject_id":"91931","group":"Group1","condition":"1_Rep","full_date":"2026-02-02T18:20:56.613Z","date":"2026-02-02","time":"18:20:56"},{"rt":null,"stimulus":"<p style=\"font-size: 50px; margin: 0; text-align: center;\">+</p>","response":null,"trial_type":"html-keyboard-response","trial_index":47,"plugin_version":"2.1.0","time_elapsed":124314,"subject_id":"91931","group":"Group1","condition":"1_Rep","full_date":"2026-02-02T18:20:56.613Z","date":"2026-02-02","time":"18:20:56"},{"task":"memory_phase","broad_category":"I","image_png":"I_Pumice_08.png","image_id":136,"category_name":"Pumice","category":9,"distinct_rating":3.1,"distinct_type":"Bottom","rt":null,"stimulus":"Stimuli_Rocks480/I_Pumice_08.png","response":null,"trial_type":"image-keyboard-response","trial_index":48,"plugin_version":"2.1.0","time_elapsed":126828,"subject_id":"91931","group":"Group1","condition":"1_Rep","full_date":"2026-02-02T18:20:56.613Z","date":"2026-02-02","time":"18:20:56"},{"rt":null,"stimulus":"<p style=\"font-size: 50px; margin: 0; text-align: center;\">+</p>","response":null,"trial_type":"html-keyboard-response","trial_index":49,"plugin_version":"2.1.0","time_elapsed":127831,"subject_id":"91931","group":"Group1","condition":"1_Rep","full_date":"2026-02-02T18:20:56.613Z","date":"2026-02-02","time":"18:20:56"},{"task":"memory_phase","broad_category":"I","image_png":"I_Pegmatite_10.png","image_id":106,"category_name":"Pegmatite","category":7,"distinct_rating":7.66,"distinct_type":"Top","rt":null,"stimulus":"Stimuli_Rocks480/I_Pegmatite_10.png","response":null,"trial_type":"image-keyboard-response","trial_index":50,"plugin_version":"2.1.0","time_elapsed":130345,"subject_id":"91931","group":"Group1","condition":"1_Rep","full_date":"2026-02-02T18:20:56.613Z","date":"2026-02-02","time":"18:20:56"},{"rt":null,"stimulus":"<p style=\"font-size: 50px; margin: 0; text-align: center;\">+</p>","response":null,"trial_type":"html-keyboard-response","trial_index":51,"plugin_version":"2.1.0","time_elapsed":131347,"subject_id":"91931","group":"Group1","condition":"1_Rep","full_date":"2026-02-02T18:20:56.613Z","date":"2026-02-02","time":"18:20:56"},{"task":"memory_phase","broad_category":"S","image_png":"S_Dolomite_14.png","image_id":398,"category_name":"Dolomite","category":25,"distinct_rating":1.43,"distinct_type":"Bottom","rt":null,"stimulus":"Stimuli_Rocks480/S_Dolomite_14.png","response":null,"trial_type":"image-keyboard-response","trial_index":52,"plugin_version":"2.1.0","time_elapsed":133863,"subject_id":"91931","group":"Group1","condition":"1_Rep","full_date":"2026-02-02T18:20:56.613Z","date":"2026-02-02","time":"18:20:56"},{"rt":null,"stimulus":"<p style=\"font-size: 50px; margin: 0; text-align: center;\">+</p>","response":null,"trial_type":"html-keyboard-response","trial_index":53,"plugin_version":"2.1.0","time_elapsed":134865,"subject_id":"91931","group":"Group1","condition":"1_Rep","full_date":"2026-02-02T18:20:56.613Z","date":"2026-02-02","time":"18:20:56"},{"task":"memory_phase","broad_category":"I","image_png":"I_Rhyolite_16.png","image_id":160,"category_name":"Rhyolite","category":10,"distinct_rating":2.19,"distinct_type":"Bottom","rt":null,"stimulus":"Stimuli_Rocks480/I_Rhyolite_16.png","response":null,"trial_type":"image-keyboard-response","trial_index":54,"plugin_version":"2.1.0","time_elapsed":137378,"subject_id":"91931","group":"Group1","condition":"1_Rep","full_date":"2026-02-02T18:20:56.613Z","date":"2026-02-02","time":"18:20:56"},{"rt":1878,"stimulus":"<p style=\"max-width: 760px; margin: auto; font-size: 35px; line-height: 1.5;\">\n                Press SPACE to continue study phase\n              </p>","response":" ","trial_type":"html-keyboard-response","trial_index":55,"plugin_version":"2.1.0","time_elapsed":139259,"subject_id":"91931","group":"Group1","condition":"1_Rep","full_date":"2026-02-02T18:20:56.613Z","date":"2026-02-02","time":"18:20:56"},{"rt":null,"stimulus":"<p style=\"font-size: 50px; margin: 0; text-align: center;\">+</p>","response":null,"trial_type":"html-keyboard-response","trial_index":56,"plugin_version":"2.1.0","time_elapsed":140261,"subject_id":"91931","group":"Group1","condition":"1_Rep","full_date":"2026-02-02T18:20:56.613Z","date":"2026-02-02","time":"18:20:56"},{"task":"memory_phase","broad_category":"M","image_png":"M_Marble_04.png","image_id":228,"category_name":"Marble","category":15,"distinct_rating":3.15,"distinct_type":"Bottom","rt":null,"stimulus":"Stimuli_Rocks480/M_Marble_04.png","response":null,"trial_type":"image-keyboard-response","trial_index":57,"plugin_version":"2.1.0","time_elapsed":142775,"subject_id":"91931","group":"Group1","condition":"1_Rep","full_date":"2026-02-02T18:20:56.613Z","date":"2026-02-02","time":"18:20:56"},{"rt":null,"stimulus":"<p style=\"font-size: 50px; margin: 0; text-align: center;\">+</p>","response":null,"trial_type":"html-keyboard-response","trial_index":58,"plugin_version":"2.1.0","time_elapsed":143777,"subject_id":"91931","group":"Group1","condition":"1_Rep","full_date":"2026-02-02T18:20:56.613Z","date":"2026-02-02","time":"18:20:56"},{"task":"memory_phase","broad_category":"I","image_png":"I_Rhyolite_11.png","image_id":155,"category_name":"Rhyolite","category":10,"distinct_rating":1.73,"distinct_type":"Bottom","rt":null,"stimulus":"Stimuli_Rocks480/I_Rhyolite_11.png","response":null,"trial_type":"image-keyboard-response","trial_index":59,"plugin_version":"2.1.0","time_elapsed":146291,"subject_id":"91931","group":"Group1","condition":"1_Rep","full_date":"2026-02-02T18:20:56.613Z","date":"2026-02-02","time":"18:20:56"},{"rt":null,"stimulus":"<p style=\"font-size: 50px; margin: 0; text-align: center;\">+</p>","response":null,"trial_type":"html-keyboard-response","trial_index":60,"plugin_version":"2.1.0","time_elapsed":147293,"subject_id":"91931","group":"Group1","condition":"1_Rep","full_date":"2026-02-02T18:20:56.613Z","date":"2026-02-02","time":"18:20:56"},{"task":"memory_phase","broad_category":"M","image_png":"M_Quartzite_13.png","image_id":285,"category_name":"Quartzite","category":18,"distinct_rating":2.27,"distinct_type":"Bottom","rt":null,"stimulus":"Stimuli_Rocks480/M_Quartzite_13.png","response":null,"trial_type":"image-keyboard-response","trial_index":61,"plugin_version":"2.1.0","time_elapsed":149808,"subject_id":"91931","group":"Group1","condition":"1_Rep","full_date":"2026-02-02T18:20:56.613Z","date":"2026-02-02","time":"18:20:56"},{"rt":null,"stimulus":"<p style=\"font-size: 50px; margin: 0; text-align: center;\">+</p>","response":null,"trial_type":"html-keyboard-response","trial_index":62,"plugin_version":"2.1.0","time_elapsed":150810,"subject_id":"91931","group":"Group1","condition":"1_Rep","full_date":"2026-02-02T18:20:56.613Z","date":"2026-02-02","time":"18:20:56"},{"task":"memory_phase","broad_category":"S","image_png":"S_Dolomite_12.png","image_id":396,"category_name":"Dolomite","category":25,"distinct_rating":1.85,"distinct_type":"Bottom","rt":null,"stimulus":"Stimuli_Rocks480/S_Dolomite_12.png","response":null,"trial_type":"image-keyboard-response","trial_index":63,"plugin_version":"2.1.0","time_elapsed":153326,"subject_id":"91931","group":"Group1","condition":"1_Rep","full_date":"2026-02-02T18:20:56.613Z","date":"2026-02-02","time":"18:20:56"},{"rt":null,"stimulus":"<p style=\"font-size: 50px; margin: 0; text-align: center;\">+</p>","response":null,"trial_type":"html-keyboard-response","trial_index":64,"plugin_version":"2.1.0","time_elapsed":154328,"subject_id":"91931","group":"Group1","condition":"1_Rep","full_date":"2026-02-02T18:20:56.613Z","date":"2026-02-02","time":"18:20:56"},{"task":"memory_phase","broad_category":"I","image_png":"I_Diorite_04.png","image_id":36,"category_name":"Diorite","category":3,"distinct_rating":2.98,"distinct_type":"Bottom","rt":null,"stimulus":"Stimuli_Rocks480/I_Diorite_04.png","response":null,"trial_type":"image-keyboard-response","trial_index":65,"plugin_version":"2.1.0","time_elapsed":156843,"subject_id":"91931","group":"Group1","condition":"1_Rep","full_date":"2026-02-02T18:20:56.613Z","date":"2026-02-02","time":"18:20:56"},{"rt":null,"stimulus":"<p style=\"font-size: 50px; margin: 0; text-align: center;\">+</p>","response":null,"trial_type":"html-keyboard-response","trial_index":66,"plugin_version":"2.1.0","time_elapsed":157845,"subject_id":"91931","group":"Group1","condition":"1_Rep","full_date":"2026-02-02T18:20:56.613Z","date":"2026-02-02","time":"18:20:56"},{"task":"memory_phase","broad_category":"I","image_png":"I_Gabbro_08.png","image_id":56,"category_name":"Gabbro","category":4,"distinct_rating":3.02,"distinct_type":"Bottom","rt":null,"stimulus":"Stimuli_Rocks480/I_Gabbro_08.png","response":null,"trial_type":"image-keyboard-response","trial_index":67,"plugin_version":"2.1.0","time_elapsed":160357,"subject_id":"91931","group":"Group1","condition":"1_Rep","full_date":"2026-02-02T18:20:56.613Z","date":"2026-02-02","time":"18:20:56"},{"rt":null,"stimulus":"<p style=\"font-size: 50px; margin: 0; text-align: center;\">+</p>","response":null,"trial_type":"html-keyboard-response","trial_index":68,"plugin_version":"2.1.0","time_elapsed":161360,"subject_id":"91931","group":"Group1","condition":"1_Rep","full_date":"2026-02-02T18:20:56.613Z","date":"2026-02-02","time":"18:20:56"},{"task":"memory_phase","broad_category":"S","image_png":"S_Shale_08.png","image_id":472,"category_name":"Shale","category":30,"distinct_rating":2.55,"distinct_type":"Bottom","rt":null,"stimulus":"Stimuli_Rocks480/S_Shale_08.png","response":null,"trial_type":"image-keyboard-response","trial_index":69,"plugin_version":"2.1.0","time_elapsed":163874,"subject_id":"91931","group":"Group1","condition":"1_Rep","full_date":"2026-02-02T18:20:56.613Z","date":"2026-02-02","time":"18:20:56"},{"rt":null,"stimulus":"<p style=\"font-size: 50px; margin: 0; text-align: center;\">+</p>","response":null,"trial_type":"html-keyboard-response","trial_index":70,"plugin_version":"2.1.0","time_elapsed":164877,"subject_id":"91931","group":"Group1","condition":"1_Rep","full_date":"2026-02-02T18:20:56.613Z","date":"2026-02-02","time":"18:20:56"},{"task":"memory_phase","broad_category":"M","image_png":"M_Marble_16.png","image_id":240,"category_name":"Marble","category":15,"distinct_rating":2.57,"distinct_type":"Bottom","rt":null,"stimulus":"Stimuli_Rocks480/M_Marble_16.png","response":null,"trial_type":"image-keyboard-response","trial_index":71,"plugin_version":"2.1.0","time_elapsed":167393,"subject_id":"91931","group":"Group1","condition":"1_Rep","full_date":"2026-02-02T18:20:56.613Z","date":"2026-02-02","time":"18:20:56"},{"rt":null,"stimulus":"<p style=\"font-size: 50px; margin: 0; text-align: center;\">+</p>","response":null,"trial_type":"html-keyboard-response","trial_index":72,"plugin_version":"2.1.0","time_elapsed":168396,"subject_id":"91931","group":"Group1","condition":"1_Rep","full_date":"2026-02-02T18:20:56.613Z","date":"2026-02-02","time":"18:20:56"},{"task":"memory_phase","broad_category":"I","image_png":"I_Diorite_05.png","image_id":37,"category_name":"Diorite","category":3,"distinct_rating":3.08,"distinct_type":"Bottom","rt":null,"stimulus":"Stimuli_Rocks480/I_Diorite_05.png","response":null,"trial_type":"image-keyboard-response","trial_index":73,"plugin_version":"2.1.0","time_elapsed":170910,"subject_id":"91931","group":"Group1","condition":"1_Rep","full_date":"2026-02-02T18:20:56.613Z","date":"2026-02-02","time":"18:20:56"},{"rt":null,"stimulus":"<p style=\"font-size: 50px; margin: 0; text-align: center;\">+</p>","response":null,"trial_type":"html-keyboard-response","trial_index":74,"plugin_version":"2.1.0","time_elapsed":171912,"subject_id":"91931","group":"Group1","condition":"1_Rep","full_date":"2026-02-02T18:20:56.613Z","date":"2026-02-02","time":"18:20:56"},{"task":"memory_phase","broad_category":"S","image_png":"S_Shale_12.png","image_id":476,"category_name":"Shale","category":30,"distinct_rating":2.48,"distinct_type":"Bottom","rt":null,"stimulus":"Stimuli_Rocks480/S_Shale_12.png","response":null,"trial_type":"image-keyboard-response","trial_index":75,"plugin_version":"2.1.0","time_elapsed":174428,"subject_id":"91931","group":"Group1","condition":"1_Rep","full_date":"2026-02-02T18:20:56.613Z","date":"2026-02-02","time":"18:20:56"},{"rt":null,"stimulus":"<p style=\"font-size: 50px; margin: 0; text-align: center;\">+</p>","response":null,"trial_type":"html-keyboard-response","trial_index":76,"plugin_version":"2.1.0","time_elapsed":175430,"subject_id":"91931","group":"Group1","condition":"1_Rep","full_date":"2026-02-02T18:20:56.613Z","date":"2026-02-02","time":"18:20:56"},{"task":"memory_phase","broad_category":"S","image_png":"S_Sandstone_16.png","image_id":464,"category_name":"Sandstone","category":29,"distinct_rating":1.93,"distinct_type":"Bottom","rt":null,"stimulus":"Stimuli_Rocks480/S_Sandstone_16.png","response":null,"trial_type":"image-keyboard-response","trial_index":77,"plugin_version":"2.1.0","time_elapsed":177941,"subject_id":"91931","group":"Group1","condition":"1_Rep","full_date":"2026-02-02T18:20:56.613Z","date":"2026-02-02","time":"18:20:56"},{"rt":null,"stimulus":"<p style=\"font-size: 50px; margin: 0; text-align: center;\">+</p>","response":null,"trial_type":"html-keyboard-response","trial_index":78,"plugin_version":"2.1.0","time_elapsed":178943,"subject_id":"91931","group":"Group1","condition":"1_Rep","full_date":"2026-02-02T18:20:56.613Z","date":"2026-02-02","time":"18:20:56"},{"task":"memory_phase","broad_category":"M","image_png":"M_Slate_15.png","image_id":319,"category_name":"Slate","category":20,"distinct_rating":2.13,"distinct_type":"Bottom","rt":null,"stimulus":"Stimuli_Rocks480/M_Slate_15.png","response":null,"trial_type":"image-keyboard-response","trial_index":79,"plugin_version":"2.1.0","time_elapsed":181453,"subject_id":"91931","group":"Group1","condition":"1_Rep","full_date":"2026-02-02T18:20:56.613Z","date":"2026-02-02","time":"18:20:56"},{"rt":null,"stimulus":"<p style=\"font-size: 50px; margin: 0; text-align: center;\">+</p>","response":null,"trial_type":"html-keyboard-response","trial_index":80,"plugin_version":"2.1.0","time_elapsed":182456,"subject_id":"91931","group":"Group1","condition":"1_Rep","full_date":"2026-02-02T18:20:56.613Z","date":"2026-02-02","time":"18:20:56"},{"task":"memory_phase","broad_category":"S","image_png":"S_Chert_10.png","image_id":362,"category_name":"Chert","category":23,"distinct_rating":7.17,"distinct_type":"Top","rt":null,"stimulus":"Stimuli_Rocks480/S_Chert_10.png","response":null,"trial_type":"image-keyboard-response","trial_index":81,"plugin_version":"2.1.0","time_elapsed":184972,"subject_id":"91931","group":"Group1","condition":"1_Rep","full_date":"2026-02-02T18:20:56.613Z","date":"2026-02-02","time":"18:20:56"},{"rt":null,"stimulus":"<p style=\"font-size: 50px; margin: 0; text-align: center;\">+</p>","response":null,"trial_type":"html-keyboard-response","trial_index":82,"plugin_version":"2.1.0","time_elapsed":185974,"subject_id":"91931","group":"Group1","condition":"1_Rep","full_date":"2026-02-02T18:20:56.613Z","date":"2026-02-02","time":"18:20:56"},{"task":"memory_phase","broad_category":"S","image_png":"S_Sandstone_03.png","image_id":451,"category_name":"Sandstone","category":29,"distinct_rating":1.86,"distinct_type":"Bottom","rt":null,"stimulus":"Stimuli_Rocks480/S_Sandstone_03.png","response":null,"trial_type":"image-keyboard-response","trial_index":83,"plugin_version":"2.1.0","time_elapsed":188490,"subject_id":"91931","group":"Group1","condition":"1_Rep","full_date":"2026-02-02T18:20:56.613Z","date":"2026-02-02","time":"18:20:56"},{"rt":null,"stimulus":"<p style=\"font-size: 50px; margin: 0; text-align: center;\">+</p>","response":null,"trial_type":"html-keyboard-response","trial_index":84,"plugin_version":"2.1.0","time_elapsed":189492,"subject_id":"91931","group":"Group1","condition":"1_Rep","full_date":"2026-02-02T18:20:56.613Z","date":"2026-02-02","time":"18:20:56"},{"task":"memory_phase","broad_category":"I","image_png":"I_Pegmatite_16.png","image_id":112,"category_name":"Pegmatite","category":7,"distinct_rating":7.03,"distinct_type":"Top","rt":null,"stimulus":"Stimuli_Rocks480/I_Pegmatite_16.png","response":null,"trial_type":"image-keyboard-response","trial_index":85,"plugin_version":"2.1.0","time_elapsed":192010,"subject_id":"91931","group":"Group1","condition":"1_Rep","full_date":"2026-02-02T18:20:56.613Z","date":"2026-02-02","time":"18:20:56"},{"rt":null,"stimulus":"<p style=\"font-size: 50px; margin: 0; text-align: center;\">+</p>","response":null,"trial_type":"html-keyboard-response","trial_index":86,"plugin_version":"2.1.0","time_elapsed":193012,"subject_id":"91931","group":"Group1","condition":"1_Rep","full_date":"2026-02-02T18:20:56.613Z","date":"2026-02-02","time":"18:20:56"},{"task":"memory_phase","broad_category":"I","image_png":"I_Basalt_09.png","image_id":25,"category_name":"Basalt","category":2,"distinct_rating":1.89,"distinct_type":"Bottom","rt":null,"stimulus":"Stimuli_Rocks480/I_Basalt_09.png","response":null,"trial_type":"image-keyboard-response","trial_index":87,"plugin_version":"2.1.0","time_elapsed":195524,"subject_id":"91931","group":"Group1","condition":"1_Rep","full_date":"2026-02-02T18:20:56.613Z","date":"2026-02-02","time":"18:20:56"},{"rt":null,"stimulus":"<p style=\"font-size: 50px; margin: 0; text-align: center;\">+</p>","response":null,"trial_type":"html-keyboard-response","trial_index":88,"plugin_version":"2.1.0","time_elapsed":196526,"subject_id":"91931","group":"Group1","condition":"1_Rep","full_date":"2026-02-02T18:20:56.613Z","date":"2026-02-02","time":"18:20:56"},{"task":"memory_phase","broad_category":"S","image_png":"S_Dolomite_13.png","image_id":397,"category_name":"Dolomite","category":25,"distinct_rating":1.77,"distinct_type":"Bottom","rt":null,"stimulus":"Stimuli_Rocks480/S_Dolomite_13.png","response":null,"trial_type":"image-keyboard-response","trial_index":89,"plugin_version":"2.1.0","time_elapsed":199040,"subject_id":"91931","group":"Group1","condition":"1_Rep","full_date":"2026-02-02T18:20:56.613Z","date":"2026-02-02","time":"18:20:56"},{"rt":null,"stimulus":"<p style=\"font-size: 50px; margin: 0; text-align: center;\">+</p>","response":null,"trial_type":"html-keyboard-response","trial_index":90,"plugin_version":"2.1.0","time_elapsed":200041,"subject_id":"91931","group":"Group1","condition":"1_Rep","full_date":"2026-02-02T18:20:56.613Z","date":"2026-02-02","time":"18:20:56"},{"task":"memory_phase","broad_category":"I","image_png":"I_Andesite_10.png","image_id":10,"category_name":"Andesite","category":1,"distinct_rating":3.15,"distinct_type":"Bottom","rt":null,"stimulus":"Stimuli_Rocks480/I_Andesite_10.png","response":null,"trial_type":"image-keyboard-response","trial_index":91,"plugin_version":"2.1.0","time_elapsed":202555,"subject_id":"91931","group":"Group1","condition":"1_Rep","full_date":"2026-02-02T18:20:56.613Z","date":"2026-02-02","time":"18:20:56"},{"rt":null,"stimulus":"<p style=\"font-size: 50px; margin: 0; text-align: center;\">+</p>","response":null,"trial_type":"html-keyboard-response","trial_index":92,"plugin_version":"2.1.0","time_elapsed":203557,"subject_id":"91931","group":"Group1","condition":"1_Rep","full_date":"2026-02-02T18:20:56.613Z","date":"2026-02-02","time":"18:20:56"},{"task":"memory_phase","broad_category":"I","image_png":"I_Obsidian_05.png","image_id":85,"category_name":"Obsidian","category":6,"distinct_rating":7.32,"distinct_type":"Top","rt":null,"stimulus":"Stimuli_Rocks480/I_Obsidian_05.png","response":null,"trial_type":"image-keyboard-response","trial_index":93,"plugin_version":"2.1.0","time_elapsed":206074,"subject_id":"91931","group":"Group1","condition":"1_Rep","full_date":"2026-02-02T18:20:56.613Z","date":"2026-02-02","time":"18:20:56"},{"rt":null,"stimulus":"<p style=\"font-size: 50px; margin: 0; text-align: center;\">+</p>","response":null,"trial_type":"html-keyboard-response","trial_index":94,"plugin_version":"2.1.0","time_elapsed":207076,"subject_id":"91931","group":"Group1","condition":"1_Rep","full_date":"2026-02-02T18:20:56.613Z","date":"2026-02-02","time":"18:20:56"},{"task":"memory_phase","broad_category":"S","image_png":"S_Breccia_11.png","image_id":347,"category_name":"Breccia","category":22,"distinct_rating":6.7,"distinct_type":"Top","rt":null,"stimulus":"Stimuli_Rocks480/S_Breccia_11.png","response":null,"trial_type":"image-keyboard-response","trial_index":95,"plugin_version":"2.1.0","time_elapsed":209600,"subject_id":"91931","group":"Group1","condition":"1_Rep","full_date":"2026-02-02T18:20:56.613Z","date":"2026-02-02","time":"18:20:56"},{"rt":null,"stimulus":"<p style=\"font-size: 50px; margin: 0; text-align: center;\">+</p>","response":null,"trial_type":"html-keyboard-response","trial_index":96,"plugin_version":"2.1.0","time_elapsed":210602,"subject_id":"91931","group":"Group1","condition":"1_Rep","full_date":"2026-02-02T18:20:56.613Z","date":"2026-02-02","time":"18:20:56"},{"task":"memory_phase","broad_category":"S","image_png":"S_Rock Salt_01.png","image_id":433,"category_name":"Rock Salt","category":28,"distinct_rating":7.18,"distinct_type":"Top","rt":null,"stimulus":"Stimuli_Rocks480/S_Rock Salt_01.png","response":null,"trial_type":"image-keyboard-response","trial_index":97,"plugin_version":"2.1.0","time_elapsed":213120,"subject_id":"91931","group":"Group1","condition":"1_Rep","full_date":"2026-02-02T18:20:56.613Z","date":"2026-02-02","time":"18:20:56"},{"rt":null,"stimulus":"<p style=\"font-size: 50px; margin: 0; text-align: center;\">+</p>","response":null,"trial_type":"html-keyboard-response","trial_index":98,"plugin_version":"2.1.0","time_elapsed":214122,"subject_id":"91931","group":"Group1","condition":"1_Rep","full_date":"2026-02-02T18:20:56.613Z","date":"2026-02-02","time":"18:20:56"},{"task":"memory_phase","broad_category":"M","image_png":"M_Slate_11.png","image_id":315,"category_name":"Slate","category":20,"distinct_rating":2.75,"distinct_type":"Bottom","rt":null,"stimulus":"Stimuli_Rocks480/M_Slate_11.png","response":null,"trial_type":"image-keyboard-response","trial_index":99,"plugin_version":"2.1.0","time_elapsed":216634,"subject_id":"91931","group":"Group1","condition":"1_Rep","full_date":"2026-02-02T18:20:56.613Z","date":"2026-02-02","time":"18:20:56"},{"rt":null,"stimulus":"<p style=\"font-size: 50px; margin: 0; text-align: center;\">+</p>","response":null,"trial_type":"html-keyboard-response","trial_index":100,"plugin_version":"2.1.0","time_elapsed":217637,"subject_id":"91931","group":"Group1","condition":"1_Rep","full_date":"2026-02-02T18:20:56.613Z","date":"2026-02-02","time":"18:20:56"},{"task":"memory_phase","broad_category":"M","image_png":"M_Quartzite_08.png","image_id":280,"category_name":"Quartzite","category":18,"distinct_rating":2.15,"distinct_type":"Bottom","rt":null,"stimulus":"Stimuli_Rocks480/M_Quartzite_08.png","response":null,"trial_type":"image-keyboard-response","trial_index":101,"plugin_version":"2.1.0","time_elapsed":220153,"subject_id":"91931","group":"Group1","condition":"1_Rep","full_date":"2026-02-02T18:20:56.613Z","date":"2026-02-02","time":"18:20:56"},{"rt":null,"stimulus":"<p style=\"font-size: 50px; margin: 0; text-align: center;\">+</p>","response":null,"trial_type":"html-keyboard-response","trial_index":102,"plugin_version":"2.1.0","time_elapsed":221156,"subject_id":"91931","group":"Group1","condition":"1_Rep","full_date":"2026-02-02T18:20:56.613Z","date":"2026-02-02","time":"18:20:56"},{"task":"memory_phase","broad_category":"M","image_png":"M_Phyllite_10.png","image_id":266,"category_name":"Phyllite","category":17,"distinct_rating":2.6,"distinct_type":"Bottom","rt":null,"stimulus":"Stimuli_Rocks480/M_Phyllite_10.png","response":null,"trial_type":"image-keyboard-response","trial_index":103,"plugin_version":"2.1.0","time_elapsed":223670,"subject_id":"91931","group":"Group1","condition":"1_Rep","full_date":"2026-02-02T18:20:56.613Z","date":"2026-02-02","time":"18:20:56"},{"rt":null,"stimulus":"<p style=\"font-size: 50px; margin: 0; text-align: center;\">+</p>","response":null,"trial_type":"html-keyboard-response","trial_index":104,"plugin_version":"2.1.0","time_elapsed":224673,"subject_id":"91931","group":"Group1","condition":"1_Rep","full_date":"2026-02-02T18:20:56.613Z","date":"2026-02-02","time":"18:20:56"},{"task":"memory_phase","broad_category":"M","image_png":"M_Quartzite_05.png","image_id":277,"category_name":"Quartzite","category":18,"distinct_rating":2.23,"distinct_type":"Bottom","rt":null,"stimulus":"Stimuli_Rocks480/M_Quartzite_05.png","response":null,"trial_type":"image-keyboard-response","trial_index":105,"plugin_version":"2.1.0","time_elapsed":227190,"subject_id":"91931","group":"Group1","condition":"1_Rep","full_date":"2026-02-02T18:20:56.613Z","date":"2026-02-02","time":"18:20:56"},{"rt":3687,"stimulus":"<div style=\"max-width: 760px; margin: auto; font-size: 20px; line-height: 1.5;\">\n      <h1 style=\"text-align:center; font-size: 30px;\">Instructions for the Test Phase</h1>\n      <p>\n        The study phase is now complete.\n      </p>\n      <p>\n        In the test phase, you will again see a series of rock images. \n        Some will be ones you saw before - during the study phase, while others will be new.  \n        <b>Your task</b> is to decide whether you have seen each image before by pressing the corresponding key on your keyboard:<br><br>\n          <b>A</b> - NO (you did not see this image before)<br>\n          <b>L</b> - YES (you saw this image before)<br><br>\n        The test will proceed at your own pace. You will receive feedback after each response.  \n        Please try to respond <b>as accurately as possible</b>.\n      </p>\n      <p>\n        <b>Reminder:</b> If your computer has multiple language settings (e.g., English and another language),\n        please ensure it is set to English during the test phase.\n      </p>\n      <p>\n        You can track your progress using the <b>completion bar</b> at the top of the screen.  \n        Note that it has been refreshed to reflect your progress during this final phase.\n      </p>\n      <p>\n        Press the button below when you are ready to continue.\n      </p>\n    </div>","response":0,"trial_type":"html-button-response","trial_index":106,"plugin_version":"2.1.0","time_elapsed":230880,"subject_id":"91931","group":"Group1","condition":"1_Rep","full_date":"2026-02-02T18:20:56.613Z","date":"2026-02-02","time":"18:20:56"},{"correct_response":"a","task":"test_phase","broad_category":"M","image_png":"M_Gneiss_15.png","image_id":207,"category_name":"Gneiss","category":13,"distinct_rating":3.11,"distinct_type":"Bottom","item_type":"Foil","rt":4513,"stimulus":"Stimuli_Rocks480/M_Gneiss_15.png","response":"l","trial_type":"image-keyboard-response","trial_index":107,"plugin_version":"2.1.0","time_elapsed":235405,"subject_id":"91931","group":"Group1","condition":"1_Rep","full_date":"2026-02-02T18:20:56.613Z","date":"2026-02-02","time":"18:20:56","cor_ans":false},{"trial_type":"html-keyboard-response","rt":null,"stimulus":"<p style=\"color: red; font-size: 50px; font-weight: bold;\">Incorrect</p>","response":null,"trial_index":108,"plugin_version":"2.1.0","time_elapsed":235907,"subject_id":"91931","group":"Group1","condition":"1_Rep","full_date":"2026-02-02T18:20:56.613Z","date":"2026-02-02","time":"18:20:56"},{"correct_response":"a","task":"test_phase","broad_category":"M","image_png":"M_Slate_10.png","image_id":314,"category_name":"Slate","category":20,"distinct_rating":1.94,"distinct_type":"Bottom","item_type":"Foil","rt":3127,"stimulus":"Stimuli_Rocks480/M_Slate_10.png","response":"a","trial_type":"image-keyboard-response","trial_index":109,"plugin_version":"2.1.0","time_elapsed":239046,"subject_id":"91931","group":"Group1","condition":"1_Rep","full_date":"2026-02-02T18:20:56.613Z","date":"2026-02-02","time":"18:20:56","cor_ans":true},{"trial_type":"html-keyboard-response","rt":null,"stimulus":"<p style=\"color: green; font-size: 50px; font-weight: bold;\">Correct</p>","response":null,"trial_index":110,"plugin_version":"2.1.0","time_elapsed":239548,"subject_id":"91931","group":"Group1","condition":"1_Rep","full_date":"2026-02-02T18:20:56.613Z","date":"2026-02-02","time":"18:20:56"},{"correct_response":"a","task":"test_phase","broad_category":"S","image_png":"S_Dolomite_16.png","image_id":400,"category_name":"Dolomite","category":25,"distinct_rating":1.71,"distinct_type":"Bottom","item_type":"Foil","rt":1280,"stimulus":"Stimuli_Rocks480/S_Dolomite_16.png","response":"a","trial_type":"image-keyboard-response","trial_index":111,"plugin_version":"2.1.0","time_elapsed":240842,"subject_id":"91931","group":"Group1","condition":"1_Rep","full_date":"2026-02-02T18:20:56.613Z","date":"2026-02-02","time":"18:20:56","cor_ans":true},{"trial_type":"html-keyboard-response","rt":null,"stimulus":"<p style=\"color: green; font-size: 50px; font-weight: bold;\">Correct</p>","response":null,"trial_index":112,"plugin_version":"2.1.0","time_elapsed":241344,"subject_id":"91931","group":"Group1","condition":"1_Rep","full_date":"2026-02-02T18:20:56.613Z","date":"2026-02-02","time":"18:20:56"},{"correct_response":"a","task":"test_phase","broad_category":"M","image_png":"M_Slate_04.png","image_id":308,"category_name":"Slate","category":20,"distinct_rating":2.2,"distinct_type":"Bottom","item_type":"Foil","rt":832,"stimulus":"Stimuli_Rocks480/M_Slate_04.png","response":"l","trial_type":"image-keyboard-response","trial_index":113,"plugin_version":"2.1.0","time_elapsed":242187,"subject_id":"91931","group":"Group1","condition":"1_Rep","full_date":"2026-02-02T18:20:56.613Z","date":"2026-02-02","time":"18:20:56","cor_ans":false},{"trial_type":"html-keyboard-response","rt":null,"stimulus":"<p style=\"color: red; font-size: 50px; font-weight: bold;\">Incorrect</p>","response":null,"trial_index":114,"plugin_version":"2.1.0","time_elapsed":242689,"subject_id":"91931","group":"Group1","condition":"1_Rep","full_date":"2026-02-02T18:20:56.613Z","date":"2026-02-02","time":"18:20:56"},{"correct_response":"l","task":"test_phase","broad_category":"I","image_png":"I_Pegmatite_10.png","image_id":106,"category_name":"Pegmatite","category":7,"distinct_rating":7.66,"distinct_type":"Top","item_type":"Target","rt":930,"stimulus":"Stimuli_Rocks480/I_Pegmatite_10.png","response":"a","trial_type":"image-keyboard-response","trial_index":115,"plugin_version":"2.1.0","time_elapsed":243632,"subject_id":"91931","group":"Group1","condition":"1_Rep","full_date":"2026-02-02T18:20:56.613Z","date":"2026-02-02","time":"18:20:56","cor_ans":false},{"trial_type":"html-keyboard-response","rt":null,"stimulus":"<p style=\"color: red; font-size: 50px; font-weight: bold;\">Incorrect</p>","response":null,"trial_index":116,"plugin_version":"2.1.0","time_elapsed":244134,"subject_id":"91931","group":"Group1","condition":"1_Rep","full_date":"2026-02-02T18:20:56.613Z","date":"2026-02-02","time":"18:20:56"},{"correct_response":"a","task":"test_phase","broad_category":"M","image_png":"M_Phyllite_05.png","image_id":261,"category_name":"Phyllite","category":17,"distinct_rating":2.14,"distinct_type":"Bottom","item_type":"Foil","rt":1010,"stimulus":"Stimuli_Rocks480/M_Phyllite_05.png","response":"l","trial_type":"image-keyboard-response","trial_index":117,"plugin_version":"2.1.0","time_elapsed":245158,"subject_id":"91931","group":"Group1","condition":"1_Rep","full_date":"2026-02-02T18:20:56.613Z","date":"2026-02-02","time":"18:20:56","cor_ans":false},{"trial_type":"html-keyboard-response","rt":null,"stimulus":"<p style=\"color: red; font-size: 50px; font-weight: bold;\">Incorrect</p>","response":null,"trial_index":118,"plugin_version":"2.1.0","time_elapsed":245660,"subject_id":"91931","group":"Group1","condition":"1_Rep","full_date":"2026-02-02T18:20:56.613Z","date":"2026-02-02","time":"18:20:56"},{"correct_response":"a","task":"test_phase","broad_category":"M","image_png":"M_Gneiss_14.png","image_id":206,"category_name":"Gneiss","category":13,"distinct_rating":3.41,"distinct_type":"Bottom","item_type":"Foil","rt":937,"stimulus":"Stimuli_Rocks480/M_Gneiss_14.png","response":"a","trial_type":"image-keyboard-response","trial_index":119,"plugin_version":"2.1.0","time_elapsed":246611,"subject_id":"91931","group":"Group1","condition":"1_Rep","full_date":"2026-02-02T18:20:56.613Z","date":"2026-02-02","time":"18:20:56","cor_ans":true},{"trial_type":"html-keyboard-response","rt":null,"stimulus":"<p style=\"color: green; font-size: 50px; font-weight: bold;\">Correct</p>","response":null,"trial_index":120,"plugin_version":"2.1.0","time_elapsed":247113,"subject_id":"91931","group":"Group1","condition":"1_Rep","full_date":"2026-02-02T18:20:56.613Z","date":"2026-02-02","time":"18:20:56"},{"correct_response":"l","task":"test_phase","broad_category":"S","image_png":"S_Shale_08.png","image_id":472,"category_name":"Shale","category":30,"distinct_rating":2.55,"distinct_type":"Bottom","item_type":"Target","rt":3004,"stimulus":"Stimuli_Rocks480/S_Shale_08.png","response":"a","trial_type":"image-keyboard-response","trial_index":121,"plugin_version":"2.1.0","time_elapsed":250133,"subject_id":"91931","group":"Group1","condition":"1_Rep","full_date":"2026-02-02T18:20:56.613Z","date":"2026-02-02","time":"18:20:56","cor_ans":false},{"trial_type":"html-keyboard-response","rt":null,"stimulus":"<p style=\"color: red; font-size: 50px; font-weight: bold;\">Incorrect</p>","response":null,"trial_index":122,"plugin_version":"2.1.0","time_elapsed":250635,"subject_id":"91931","group":"Group1","condition":"1_Rep","full_date":"2026-02-02T18:20:56.613Z","date":"2026-02-02","time":"18:20:56"},{"correct_response":"a","task":"test_phase","broad_category":"S","image_png":"S_Sandstone_04.png","image_id":452,"category_name":"Sandstone","category":29,"distinct_rating":1.8,"distinct_type":"Bottom","item_type":"Foil","rt":1304,"stimulus":"Stimuli_Rocks480/S_Sandstone_04.png","response":"l","trial_type":"image-keyboard-response","trial_index":123,"plugin_version":"2.1.0","time_elapsed":251955,"subject_id":"91931","group":"Group1","condition":"1_Rep","full_date":"2026-02-02T18:20:56.613Z","date":"2026-02-02","time":"18:20:56","cor_ans":false},{"trial_type":"html-keyboard-response","rt":null,"stimulus":"<p style=\"color: red; font-size: 50px; font-weight: bold;\">Incorrect</p>","response":null,"trial_index":124,"plugin_version":"2.1.0","time_elapsed":252457,"subject_id":"91931","group":"Group1","condition":"1_Rep","full_date":"2026-02-02T18:20:56.613Z","date":"2026-02-02","time":"18:20:56"},{"correct_response":"a","task":"test_phase","broad_category":"M","image_png":"M_Phyllite_13.png","image_id":269,"category_name":"Phyllite","category":17,"distinct_rating":2.8,"distinct_type":"Bottom","item_type":"Foil","rt":942,"stimulus":"Stimuli_Rocks480/M_Phyllite_13.png","response":"a","trial_type":"image-keyboard-response","trial_index":125,"plugin_version":"2.1.0","time_elapsed":253414,"subject_id":"91931","group":"Group1","condition":"1_Rep","full_date":"2026-02-02T18:20:56.613Z","date":"2026-02-02","time":"18:20:56","cor_ans":true},{"trial_type":"html-keyboard-response","rt":null,"stimulus":"<p style=\"color: green; font-size: 50px; font-weight: bold;\">Correct</p>","response":null,"trial_index":126,"plugin_version":"2.1.0","time_elapsed":253915,"subject_id":"91931","group":"Group1","condition":"1_Rep","full_date":"2026-02-02T18:20:56.613Z","date":"2026-02-02","time":"18:20:56"},{"correct_response":"a","task":"test_phase","broad_category":"I","image_png":"I_Pegmatite_11.png","image_id":107,"category_name":"Pegmatite","category":7,"distinct_rating":7.11,"distinct_type":"Top","item_type":"Foil","rt":865,"stimulus":"Stimuli_Rocks480/I_Pegmatite_11.png","response":"a","trial_type":"image-keyboard-response","trial_index":127,"plugin_version":"2.1.0","time_elapsed":254801,"subject_id":"91931","group":"Group1","condition":"1_Rep","full_date":"2026-02-02T18:20:56.613Z","date":"2026-02-02","time":"18:20:56","cor_ans":true},{"trial_type":"html-keyboard-response","rt":null,"stimulus":"<p style=\"color: green; font-size: 50px; font-weight: bold;\">Correct</p>","response":null,"trial_index":128,"plugin_version":"2.1.0","time_elapsed":255303,"subject_id":"91931","group":"Group1","condition":"1_Rep","full_date":"2026-02-02T18:20:56.613Z","date":"2026-02-02","time":"18:20:56"},{"correct_response":"a","task":"test_phase","broad_category":"I","image_png":"I_Basalt_10.png","image_id":26,"category_name":"Basalt","category":2,"distinct_rating":2.76,"distinct_type":"Bottom","item_type":"Foil","rt":1905,"stimulus":"Stimuli_Rocks480/I_Basalt_10.png","response":"a","trial_type":"image-keyboard-response","trial_index":129,"plugin_version":"2.1.0","time_elapsed":257222,"subject_id":"91931","group":"Group1","condition":"1_Rep","full_date":"2026-02-02T18:20:56.613Z","date":"2026-02-02","time":"18:20:56","cor_ans":true},{"trial_type":"html-keyboard-response","rt":null,"stimulus":"<p style=\"color: green; font-size: 50px; font-weight: bold;\">Correct</p>","response":null,"trial_index":130,"plugin_version":"2.1.0","time_elapsed":257724,"subject_id":"91931","group":"Group1","condition":"1_Rep","full_date":"2026-02-02T18:20:56.613Z","date":"2026-02-02","time":"18:20:56"},{"correct_response":"l","task":"test_phase","broad_category":"M","image_png":"M_Slate_15.png","image_id":319,"category_name":"Slate","category":20,"distinct_rating":2.13,"distinct_type":"Bottom","item_type":"Target","rt":1044,"stimulus":"Stimuli_Rocks480/M_Slate_15.png","response":"l","trial_type":"image-keyboard-response","trial_index":131,"plugin_version":"2.1.0","time_elapsed":258779,"subject_id":"91931","group":"Group1","condition":"1_Rep","full_date":"2026-02-02T18:20:56.613Z","date":"2026-02-02","time":"18:20:56","cor_ans":true},{"trial_type":"html-keyboard-response","rt":null,"stimulus":"<p style=\"color: green; font-size: 50px; font-weight: bold;\">Correct</p>","response":null,"trial_index":132,"plugin_version":"2.1.0","time_elapsed":259282,"subject_id":"91931","group":"Group1","condition":"1_Rep","full_date":"2026-02-02T18:20:56.613Z","date":"2026-02-02","time":"18:20:56"},{"correct_response":"a","task":"test_phase","broad_category":"I","image_png":"I_Diorite_15.png","image_id":47,"category_name":"Diorite","category":3,"distinct_rating":3.05,"distinct_type":"Bottom","item_type":"Foil","rt":794,"stimulus":"Stimuli_Rocks480/I_Diorite_15.png","response":"l","trial_type":"image-keyboard-response","trial_index":133,"plugin_version":"2.1.0","time_elapsed":260087,"subject_id":"91931","group":"Group1","condition":"1_Rep","full_date":"2026-02-02T18:20:56.613Z","date":"2026-02-02","time":"18:20:56","cor_ans":false},{"trial_type":"html-keyboard-response","rt":null,"stimulus":"<p style=\"color: red; font-size: 50px; font-weight: bold;\">Incorrect</p>","response":null,"trial_index":134,"plugin_version":"2.1.0","time_elapsed":260590,"subject_id":"91931","group":"Group1","condition":"1_Rep","full_date":"2026-02-02T18:20:56.613Z","date":"2026-02-02","time":"18:20:56"},{"correct_response":"l","task":"test_phase","broad_category":"S","image_png":"S_Dolomite_13.png","image_id":397,"category_name":"Dolomite","category":25,"distinct_rating":1.77,"distinct_type":"Bottom","item_type":"Target","rt":752,"stimulus":"Stimuli_Rocks480/S_Dolomite_13.png","response":"l","trial_type":"image-keyboard-response","trial_index":135,"plugin_version":"2.1.0","time_elapsed":261354,"subject_id":"91931","group":"Group1","condition":"1_Rep","full_date":"2026-02-02T18:20:56.613Z","date":"2026-02-02","time":"18:20:56","cor_ans":true},{"trial_type":"html-keyboard-response","rt":null,"stimulus":"<p style=\"color: green; font-size: 50px; font-weight: bold;\">Correct</p>","response":null,"trial_index":136,"plugin_version":"2.1.0","time_elapsed":261856,"subject_id":"91931","group":"Group1","condition":"1_Rep","full_date":"2026-02-02T18:20:56.613Z","date":"2026-02-02","time":"18:20:56"},{"correct_response":"a","task":"test_phase","broad_category":"I","image_png":"I_Diorite_01.png","image_id":33,"category_name":"Diorite","category":3,"distinct_rating":2.97,"distinct_type":"Bottom","item_type":"Foil","rt":937,"stimulus":"Stimuli_Rocks480/I_Diorite_01.png","response":"a","trial_type":"image-keyboard-response","trial_index":137,"plugin_version":"2.1.0","time_elapsed":262810,"subject_id":"91931","group":"Group1","condition":"1_Rep","full_date":"2026-02-02T18:20:56.613Z","date":"2026-02-02","time":"18:20:56","cor_ans":true},{"trial_type":"html-keyboard-response","rt":null,"stimulus":"<p style=\"color: green; font-size: 50px; font-weight: bold;\">Correct</p>","response":null,"trial_index":138,"plugin_version":"2.1.0","time_elapsed":263313,"subject_id":"91931","group":"Group1","condition":"1_Rep","full_date":"2026-02-02T18:20:56.613Z","date":"2026-02-02","time":"18:20:56"},{"correct_response":"l","task":"test_phase","broad_category":"M","image_png":"M_Phyllite_03.png","image_id":259,"category_name":"Phyllite","category":17,"distinct_rating":2.5,"distinct_type":"Bottom","item_type":"Target","rt":688,"stimulus":"Stimuli_Rocks480/M_Phyllite_03.png","response":"a","trial_type":"image-keyboard-response","trial_index":139,"plugin_version":"2.1.0","time_elapsed":264013,"subject_id":"91931","group":"Group1","condition":"1_Rep","full_date":"2026-02-02T18:20:56.613Z","date":"2026-02-02","time":"18:20:56","cor_ans":false},{"trial_type":"html-keyboard-response","rt":null,"stimulus":"<p style=\"color: red; font-size: 50px; font-weight: bold;\">Incorrect</p>","response":null,"trial_index":140,"plugin_version":"2.1.0","time_elapsed":264515,"subject_id":"91931","group":"Group1","condition":"1_Rep","full_date":"2026-02-02T18:20:56.613Z","date":"2026-02-02","time":"18:20:56"},{"correct_response":"l","task":"test_phase","broad_category":"I","image_png":"I_Andesite_10.png","image_id":10,"category_name":"Andesite","category":1,"distinct_rating":3.15,"distinct_type":"Bottom","item_type":"Target","rt":686,"stimulus":"Stimuli_Rocks480/I_Andesite_10.png","response":"a","trial_type":"image-keyboard-response","trial_index":141,"plugin_version":"2.1.0","time_elapsed":265212,"subject_id":"91931","group":"Group1","condition":"1_Rep","full_date":"2026-02-02T18:20:56.613Z","date":"2026-02-02","time":"18:20:56","cor_ans":false},{"trial_type":"html-keyboard-response","rt":null,"stimulus":"<p style=\"color: red; font-size: 50px; font-weight: bold;\">Incorrect</p>","response":null,"trial_index":142,"plugin_version":"2.1.0","time_elapsed":265715,"subject_id":"91931","group":"Group1","condition":"1_Rep","full_date":"2026-02-02T18:20:56.613Z","date":"2026-02-02","time":"18:20:56"},{"correct_response":"l","task":"test_phase","broad_category":"I","image_png":"I_Gabbro_11.png","image_id":59,"category_name":"Gabbro","category":4,"distinct_rating":1.99,"distinct_type":"Bottom","item_type":"Target","rt":870,"stimulus":"Stimuli_Rocks480/I_Gabbro_11.png","response":"l","trial_type":"image-keyboard-response","trial_index":143,"plugin_version":"2.1.0","time_elapsed":266597,"subject_id":"91931","group":"Group1","condition":"1_Rep","full_date":"2026-02-02T18:20:56.613Z","date":"2026-02-02","time":"18:20:56","cor_ans":true},{"trial_type":"html-keyboard-response","rt":null,"stimulus":"<p style=\"color: green; font-size: 50px; font-weight: bold;\">Correct</p>","response":null,"trial_index":144,"plugin_version":"2.1.0","time_elapsed":267099,"subject_id":"91931","group":"Group1","condition":"1_Rep","full_date":"2026-02-02T18:20:56.613Z","date":"2026-02-02","time":"18:20:56"},{"correct_response":"a","task":"test_phase","broad_category":"M","image_png":"M_Quartzite_15.png","image_id":287,"category_name":"Quartzite","category":18,"distinct_rating":2.19,"distinct_type":"Bottom","item_type":"Foil","rt":702,"stimulus":"Stimuli_Rocks480/M_Quartzite_15.png","response":"a","trial_type":"image-keyboard-response","trial_index":145,"plugin_version":"2.1.0","time_elapsed":267816,"subject_id":"91931","group":"Group1","condition":"1_Rep","full_date":"2026-02-02T18:20:56.613Z","date":"2026-02-02","time":"18:20:56","cor_ans":true},{"trial_type":"html-keyboard-response","rt":null,"stimulus":"<p style=\"color: green; font-size: 50px; font-weight: bold;\">Correct</p>","response":null,"trial_index":146,"plugin_version":"2.1.0","time_elapsed":268318,"subject_id":"91931","group":"Group1","condition":"1_Rep","full_date":"2026-02-02T18:20:56.613Z","date":"2026-02-02","time":"18:20:56"},{"correct_response":"l","task":"test_phase","broad_category":"I","image_png":"I_Basalt_09.png","image_id":25,"category_name":"Basalt","category":2,"distinct_rating":1.89,"distinct_type":"Bottom","item_type":"Target","rt":1018,"stimulus":"Stimuli_Rocks480/I_Basalt_09.png","response":"l","trial_type":"image-keyboard-response","trial_index":147,"plugin_version":"2.1.0","time_elapsed":269348,"subject_id":"91931","group":"Group1","condition":"1_Rep","full_date":"2026-02-02T18:20:56.613Z","date":"2026-02-02","time":"18:20:56","cor_ans":true},{"trial_type":"html-keyboard-response","rt":null,"stimulus":"<p style=\"color: green; font-size: 50px; font-weight: bold;\">Correct</p>","response":null,"trial_index":148,"plugin_version":"2.1.0","time_elapsed":269850,"subject_id":"91931","group":"Group1","condition":"1_Rep","full_date":"2026-02-02T18:20:56.613Z","date":"2026-02-02","time":"18:20:56"},{"correct_response":"l","task":"test_phase","broad_category":"I","image_png":"I_Andesite_06.png","image_id":6,"category_name":"Andesite","category":1,"distinct_rating":3.17,"distinct_type":"Bottom","item_type":"Target","rt":581,"stimulus":"Stimuli_Rocks480/I_Andesite_06.png","response":"l","trial_type":"image-keyboard-response","trial_index":149,"plugin_version":"2.1.0","time_elapsed":270448,"subject_id":"91931","group":"Group1","condition":"1_Rep","full_date":"2026-02-02T18:20:56.613Z","date":"2026-02-02","time":"18:20:56","cor_ans":true},{"trial_type":"html-keyboard-response","rt":null,"stimulus":"<p style=\"color: green; font-size: 50px; font-weight: bold;\">Correct</p>","response":null,"trial_index":150,"plugin_version":"2.1.0","time_elapsed":270951,"subject_id":"91931","group":"Group1","condition":"1_Rep","full_date":"2026-02-02T18:20:56.613Z","date":"2026-02-02","time":"18:20:56"},{"correct_response":"a","task":"test_phase","broad_category":"I","image_png":"I_Gabbro_12.png","image_id":60,"category_name":"Gabbro","category":4,"distinct_rating":2.6,"distinct_type":"Bottom","item_type":"Foil","rt":559,"stimulus":"Stimuli_Rocks480/I_Gabbro_12.png","response":"l","trial_type":"image-keyboard-response","trial_index":151,"plugin_version":"2.1.0","time_elapsed":271527,"subject_id":"91931","group":"Group1","condition":"1_Rep","full_date":"2026-02-02T18:20:56.613Z","date":"2026-02-02","time":"18:20:56","cor_ans":false},{"trial_type":"html-keyboard-response","rt":null,"stimulus":"<p style=\"color: red; font-size: 50px; font-weight: bold;\">Incorrect</p>","response":null,"trial_index":152,"plugin_version":"2.1.0","time_elapsed":272030,"subject_id":"91931","group":"Group1","condition":"1_Rep","full_date":"2026-02-02T18:20:56.613Z","date":"2026-02-02","time":"18:20:56"},{"correct_response":"a","task":"test_phase","broad_category":"I","image_png":"I_Basalt_08.png","image_id":24,"category_name":"Basalt","category":2,"distinct_rating":2.31,"distinct_type":"Bottom","item_type":"Foil","rt":511,"stimulus":"Stimuli_Rocks480/I_Basalt_08.png","response":"a","trial_type":"image-keyboard-response","trial_index":153,"plugin_version":"2.1.0","time_elapsed":272560,"subject_id":"91931","group":"Group1","condition":"1_Rep","full_date":"2026-02-02T18:20:56.613Z","date":"2026-02-02","time":"18:20:56","cor_ans":true},{"trial_type":"html-keyboard-response","rt":null,"stimulus":"<p style=\"color: green; font-size: 50px; font-weight: bold;\">Correct</p>","response":null,"trial_index":154,"plugin_version":"2.1.0","time_elapsed":273062,"subject_id":"91931","group":"Group1","condition":"1_Rep","full_date":"2026-02-02T18:20:56.613Z","date":"2026-02-02","time":"18:20:56"},{"correct_response":"a","task":"test_phase","broad_category":"S","image_png":"S_Dolomite_01.png","image_id":385,"category_name":"Dolomite","category":25,"distinct_rating":1.43,"distinct_type":"Bottom","item_type":"Foil","rt":685,"stimulus":"Stimuli_Rocks480/S_Dolomite_01.png","response":"a","trial_type":"image-keyboard-response","trial_index":155,"plugin_version":"2.1.0","time_elapsed":273763,"subject_id":"91931","group":"Group1","condition":"1_Rep","full_date":"2026-02-02T18:20:56.613Z","date":"2026-02-02","time":"18:20:56","cor_ans":true},{"trial_type":"html-keyboard-response","rt":null,"stimulus":"<p style=\"color: green; font-size: 50px; font-weight: bold;\">Correct</p>","response":null,"trial_index":156,"plugin_version":"2.1.0","time_elapsed":274266,"subject_id":"91931","group":"Group1","condition":"1_Rep","full_date":"2026-02-02T18:20:56.613Z","date":"2026-02-02","time":"18:20:56"},{"correct_response":"a","task":"test_phase","broad_category":"I","image_png":"I_Rhyolite_05.png","image_id":149,"category_name":"Rhyolite","category":10,"distinct_rating":3.02,"distinct_type":"Bottom","item_type":"Foil","rt":613,"stimulus":"Stimuli_Rocks480/I_Rhyolite_05.png","response":"a","trial_type":"image-keyboard-response","trial_index":157,"plugin_version":"2.1.0","time_elapsed":274897,"subject_id":"91931","group":"Group1","condition":"1_Rep","full_date":"2026-02-02T18:20:56.613Z","date":"2026-02-02","time":"18:20:56","cor_ans":true},{"trial_type":"html-keyboard-response","rt":null,"stimulus":"<p style=\"color: green; font-size: 50px; font-weight: bold;\">Correct</p>","response":null,"trial_index":158,"plugin_version":"2.1.0","time_elapsed":275400,"subject_id":"91931","group":"Group1","condition":"1_Rep","full_date":"2026-02-02T18:20:56.613Z","date":"2026-02-02","time":"18:20:56"},{"correct_response":"l","task":"test_phase","broad_category":"S","image_png":"S_Dolomite_14.png","image_id":398,"category_name":"Dolomite","category":25,"distinct_rating":1.43,"distinct_type":"Bottom","item_type":"Target","rt":601,"stimulus":"Stimuli_Rocks480/S_Dolomite_14.png","response":"a","trial_type":"image-keyboard-response","trial_index":159,"plugin_version":"2.1.0","time_elapsed":276014,"subject_id":"91931","group":"Group1","condition":"1_Rep","full_date":"2026-02-02T18:20:56.613Z","date":"2026-02-02","time":"18:20:56","cor_ans":false},{"trial_type":"html-keyboard-response","rt":null,"stimulus":"<p style=\"color: red; font-size: 50px; font-weight: bold;\">Incorrect</p>","response":null,"trial_index":160,"plugin_version":"2.1.0","time_elapsed":276516,"subject_id":"91931","group":"Group1","condition":"1_Rep","full_date":"2026-02-02T18:20:56.613Z","date":"2026-02-02","time":"18:20:56"},{"correct_response":"l","task":"test_phase","broad_category":"S","image_png":"S_Dolomite_12.png","image_id":396,"category_name":"Dolomite","category":25,"distinct_rating":1.85,"distinct_type":"Bottom","item_type":"Target","rt":548,"stimulus":"Stimuli_Rocks480/S_Dolomite_12.png","response":"a","trial_type":"image-keyboard-response","trial_index":161,"plugin_version":"2.1.0","time_elapsed":277078,"subject_id":"91931","group":"Group1","condition":"1_Rep","full_date":"2026-02-02T18:20:56.613Z","date":"2026-02-02","time":"18:20:56","cor_ans":false},{"trial_type":"html-keyboard-response","rt":null,"stimulus":"<p style=\"color: red; font-size: 50px; font-weight: bold;\">Incorrect</p>","response":null,"trial_index":162,"plugin_version":"2.1.0","time_elapsed":277580,"subject_id":"91931","group":"Group1","condition":"1_Rep","full_date":"2026-02-02T18:20:56.613Z","date":"2026-02-02","time":"18:20:56"},{"correct_response":"l","task":"test_phase","broad_category":"I","image_png":"I_Basalt_01.png","image_id":17,"category_name":"Basalt","category":2,"distinct_rating":1.92,"distinct_type":"Bottom","item_type":"Target","rt":315,"stimulus":"Stimuli_Rocks480/I_Basalt_01.png","response":"a","trial_type":"image-keyboard-response","trial_index":163,"plugin_version":"2.1.0","time_elapsed":277911,"subject_id":"91931","group":"Group1","condition":"1_Rep","full_date":"2026-02-02T18:20:56.613Z","date":"2026-02-02","time":"18:20:56","cor_ans":false},{"trial_type":"html-keyboard-response","rt":null,"stimulus":"<p style=\"color: red; font-size: 50px; font-weight: bold;\">Incorrect</p>","response":null,"trial_index":164,"plugin_version":"2.1.0","time_elapsed":278414,"subject_id":"91931","group":"Group1","condition":"1_Rep","full_date":"2026-02-02T18:20:56.613Z","date":"2026-02-02","time":"18:20:56"},{"correct_response":"l","task":"test_phase","broad_category":"S","image_png":"S_Shale_01.png","image_id":465,"category_name":"Shale","category":30,"distinct_rating":2.7,"distinct_type":"Bottom","item_type":"Target","rt":304,"stimulus":"Stimuli_Rocks480/S_Shale_01.png","response":"a","trial_type":"image-keyboard-response","trial_index":165,"plugin_version":"2.1.0","time_elapsed":278730,"subject_id":"91931","group":"Group1","condition":"1_Rep","full_date":"2026-02-02T18:20:56.613Z","date":"2026-02-02","time":"18:20:56","cor_ans":false},{"trial_type":"html-keyboard-response","rt":null,"stimulus":"<p style=\"color: red; font-size: 50px; font-weight: bold;\">Incorrect</p>","response":null,"trial_index":166,"plugin_version":"2.1.0","time_elapsed":279232,"subject_id":"91931","group":"Group1","condition":"1_Rep","full_date":"2026-02-02T18:20:56.613Z","date":"2026-02-02","time":"18:20:56"},{"correct_response":"l","task":"test_phase","broad_category":"M","image_png":"M_Marble_04.png","image_id":228,"category_name":"Marble","category":15,"distinct_rating":3.15,"distinct_type":"Bottom","item_type":"Target","rt":132,"stimulus":"Stimuli_Rocks480/M_Marble_04.png","response":"a","trial_type":"image-keyboard-response","trial_index":167,"plugin_version":"2.1.0","time_elapsed":279379,"subject_id":"91931","group":"Group1","condition":"1_Rep","full_date":"2026-02-02T18:20:56.613Z","date":"2026-02-02","time":"18:20:56","cor_ans":false},{"trial_type":"html-keyboard-response","rt":null,"stimulus":"<p style=\"color: red; font-size: 50px; font-weight: bold;\">Incorrect</p>","response":null,"trial_index":168,"plugin_version":"2.1.0","time_elapsed":279881,"subject_id":"91931","group":"Group1","condition":"1_Rep","full_date":"2026-02-02T18:20:56.613Z","date":"2026-02-02","time":"18:20:56"},{"correct_response":"l","task":"test_phase","broad_category":"I","image_png":"I_Rhyolite_16.png","image_id":160,"category_name":"Rhyolite","category":10,"distinct_rating":2.19,"distinct_type":"Bottom","item_type":"Target","rt":236,"stimulus":"Stimuli_Rocks480/I_Rhyolite_16.png","response":"l","trial_type":"image-keyboard-response","trial_index":169,"plugin_version":"2.1.0","time_elapsed":280128,"subject_id":"91931","group":"Group1","condition":"1_Rep","full_date":"2026-02-02T18:20:56.613Z","date":"2026-02-02","time":"18:20:56","cor_ans":true},{"trial_type":"html-keyboard-response","rt":null,"stimulus":"<p style=\"color: green; font-size: 50px; font-weight: bold;\">Correct</p>","response":null,"trial_index":170,"plugin_version":"2.1.0","time_elapsed":280630,"subject_id":"91931","group":"Group1","condition":"1_Rep","full_date":"2026-02-02T18:20:56.613Z","date":"2026-02-02","time":"18:20:56"},{"correct_response":"a","task":"test_phase","broad_category":"M","image_png":"M_Marble_02.png","image_id":226,"category_name":"Marble","category":15,"distinct_rating":3.2,"distinct_type":"Bottom","item_type":"Foil","rt":732,"stimulus":"Stimuli_Rocks480/M_Marble_02.png","response":"l","trial_type":"image-keyboard-response","trial_index":171,"plugin_version":"2.1.0","time_elapsed":281375,"subject_id":"91931","group":"Group1","condition":"1_Rep","full_date":"2026-02-02T18:20:56.613Z","date":"2026-02-02","time":"18:20:56","cor_ans":false},{"trial_type":"html-keyboard-response","rt":null,"stimulus":"<p style=\"color: red; font-size: 50px; font-weight: bold;\">Incorrect</p>","response":null,"trial_index":172,"plugin_version":"2.1.0","time_elapsed":281877,"subject_id":"91931","group":"Group1","condition":"1_Rep","full_date":"2026-02-02T18:20:56.613Z","date":"2026-02-02","time":"18:20:56"},{"correct_response":"l","task":"test_phase","broad_category":"M","image_png":"M_Gneiss_05.png","image_id":197,"category_name":"Gneiss","category":13,"distinct_rating":2.97,"distinct_type":"Bottom","item_type":"Target","rt":538,"stimulus":"Stimuli_Rocks480/M_Gneiss_05.png","response":"a","trial_type":"image-keyboard-response","trial_index":173,"plugin_version":"2.1.0","time_elapsed":282435,"subject_id":"91931","group":"Group1","condition":"1_Rep","full_date":"2026-02-02T18:20:56.613Z","date":"2026-02-02","time":"18:20:56","cor_ans":false},{"trial_type":"html-keyboard-response","rt":null,"stimulus":"<p style=\"color: red; font-size: 50px; font-weight: bold;\">Incorrect</p>","response":null,"trial_index":174,"plugin_version":"2.1.0","time_elapsed":282937,"subject_id":"91931","group":"Group1","condition":"1_Rep","full_date":"2026-02-02T18:20:56.613Z","date":"2026-02-02","time":"18:20:56"},{"correct_response":"a","task":"test_phase","broad_category":"S","image_png":"S_Rock Salt_15.png","image_id":447,"category_name":"Rock Salt","category":28,"distinct_rating":7.79,"distinct_type":"Top","item_type":"Foil","rt":813,"stimulus":"Stimuli_Rocks480/S_Rock Salt_15.png","response":"l","trial_type":"image-keyboard-response","trial_index":175,"plugin_version":"2.1.0","time_elapsed":283764,"subject_id":"91931","group":"Group1","condition":"1_Rep","full_date":"2026-02-02T18:20:56.613Z","date":"2026-02-02","time":"18:20:56","cor_ans":false},{"trial_type":"html-keyboard-response","rt":null,"stimulus":"<p style=\"color: red; font-size: 50px; font-weight: bold;\">Incorrect</p>","response":null,"trial_index":176,"plugin_version":"2.1.0","time_elapsed":284266,"subject_id":"91931","group":"Group1","condition":"1_Rep","full_date":"2026-02-02T18:20:56.613Z","date":"2026-02-02","time":"18:20:56"},{"correct_response":"l","task":"test_phase","broad_category":"I","image_png":"I_Rhyolite_14.png","image_id":158,"category_name":"Rhyolite","category":10,"distinct_rating":2.59,"distinct_type":"Bottom","item_type":"Target","rt":814,"stimulus":"Stimuli_Rocks480/I_Rhyolite_14.png","response":"a","trial_type":"image-keyboard-response","trial_index":177,"plugin_version":"2.1.0","time_elapsed":285093,"subject_id":"91931","group":"Group1","condition":"1_Rep","full_date":"2026-02-02T18:20:56.613Z","date":"2026-02-02","time":"18:20:56","cor_ans":false},{"trial_type":"html-keyboard-response","rt":null,"stimulus":"<p style=\"color: red; font-size: 50px; font-weight: bold;\">Incorrect</p>","response":null,"trial_index":178,"plugin_version":"2.1.0","time_elapsed":285595,"subject_id":"91931","group":"Group1","condition":"1_Rep","full_date":"2026-02-02T18:20:56.613Z","date":"2026-02-02","time":"18:20:56"},{"correct_response":"l","task":"test_phase","broad_category":"I","image_png":"I_Rhyolite_11.png","image_id":155,"category_name":"Rhyolite","category":10,"distinct_rating":1.73,"distinct_type":"Bottom","item_type":"Target","rt":360,"stimulus":"Stimuli_Rocks480/I_Rhyolite_11.png","response":"a","trial_type":"image-keyboard-response","trial_index":179,"plugin_version":"2.1.0","time_elapsed":285967,"subject_id":"91931","group":"Group1","condition":"1_Rep","full_date":"2026-02-02T18:20:56.613Z","date":"2026-02-02","time":"18:20:56","cor_ans":false},{"trial_type":"html-keyboard-response","rt":null,"stimulus":"<p style=\"color: red; font-size: 50px; font-weight: bold;\">Incorrect</p>","response":null,"trial_index":180,"plugin_version":"2.1.0","time_elapsed":286469,"subject_id":"91931","group":"Group1","condition":"1_Rep","full_date":"2026-02-02T18:20:56.613Z","date":"2026-02-02","time":"18:20:56"},{"correct_response":"l","task":"test_phase","broad_category":"I","image_png":"I_Gabbro_16.png","image_id":64,"category_name":"Gabbro","category":4,"distinct_rating":2.52,"distinct_type":"Bottom","item_type":"Target","rt":245,"stimulus":"Stimuli_Rocks480/I_Gabbro_16.png","response":"a","trial_type":"image-keyboard-response","trial_index":181,"plugin_version":"2.1.0","time_elapsed":286729,"subject_id":"91931","group":"Group1","condition":"1_Rep","full_date":"2026-02-02T18:20:56.613Z","date":"2026-02-02","time":"18:20:56","cor_ans":false},{"trial_type":"html-keyboard-response","rt":null,"stimulus":"<p style=\"color: red; font-size: 50px; font-weight: bold;\">Incorrect</p>","response":null,"trial_index":182,"plugin_version":"2.1.0","time_elapsed":287231,"subject_id":"91931","group":"Group1","condition":"1_Rep","full_date":"2026-02-02T18:20:56.613Z","date":"2026-02-02","time":"18:20:56"},{"correct_response":"l","task":"test_phase","broad_category":"I","image_png":"I_Gabbro_08.png","image_id":56,"category_name":"Gabbro","category":4,"distinct_rating":3.02,"distinct_type":"Bottom","item_type":"Target","rt":922,"stimulus":"Stimuli_Rocks480/I_Gabbro_08.png","response":"l","trial_type":"image-keyboard-response","trial_index":183,"plugin_version":"2.1.0","time_elapsed":288166,"subject_id":"91931","group":"Group1","condition":"1_Rep","full_date":"2026-02-02T18:20:56.613Z","date":"2026-02-02","time":"18:20:56","cor_ans":true},{"trial_type":"html-keyboard-response","rt":null,"stimulus":"<p style=\"color: green; font-size: 50px; font-weight: bold;\">Correct</p>","response":null,"trial_index":184,"plugin_version":"2.1.0","time_elapsed":288668,"subject_id":"91931","group":"Group1","condition":"1_Rep","full_date":"2026-02-02T18:20:56.613Z","date":"2026-02-02","time":"18:20:56"},{"correct_response":"l","task":"test_phase","broad_category":"I","image_png":"I_Diorite_04.png","image_id":36,"category_name":"Diorite","category":3,"distinct_rating":2.98,"distinct_type":"Bottom","item_type":"Target","rt":496,"stimulus":"Stimuli_Rocks480/I_Diorite_04.png","response":"l","trial_type":"image-keyboard-response","trial_index":185,"plugin_version":"2.1.0","time_elapsed":289181,"subject_id":"91931","group":"Group1","condition":"1_Rep","full_date":"2026-02-02T18:20:56.613Z","date":"2026-02-02","time":"18:20:56","cor_ans":true},{"trial_type":"html-keyboard-response","rt":null,"stimulus":"<p style=\"color: green; font-size: 50px; font-weight: bold;\">Correct</p>","response":null,"trial_index":186,"plugin_version":"2.1.0","time_elapsed":289683,"subject_id":"91931","group":"Group1","condition":"1_Rep","full_date":"2026-02-02T18:20:56.613Z","date":"2026-02-02","time":"18:20:56"},{"correct_response":"l","task":"test_phase","broad_category":"I","image_png":"I_Pegmatite_16.png","image_id":112,"category_name":"Pegmatite","category":7,"distinct_rating":7.03,"distinct_type":"Top","item_type":"Target","rt":769,"stimulus":"Stimuli_Rocks480/I_Pegmatite_16.png","response":"l","trial_type":"image-keyboard-response","trial_index":187,"plugin_version":"2.1.0","time_elapsed":290467,"subject_id":"91931","group":"Group1","condition":"1_Rep","full_date":"2026-02-02T18:20:56.613Z","date":"2026-02-02","time":"18:20:56","cor_ans":true},{"trial_type":"html-keyboard-response","rt":null,"stimulus":"<p style=\"color: green; font-size: 50px; font-weight: bold;\">Correct</p>","response":null,"trial_index":188,"plugin_version":"2.1.0","time_elapsed":290970,"subject_id":"91931","group":"Group1","condition":"1_Rep","full_date":"2026-02-02T18:20:56.613Z","date":"2026-02-02","time":"18:20:56"},{"correct_response":"l","task":"test_phase","broad_category":"M","image_png":"M_Quartzite_08.png","image_id":280,"category_name":"Quartzite","category":18,"distinct_rating":2.15,"distinct_type":"Bottom","item_type":"Target","rt":452,"stimulus":"Stimuli_Rocks480/M_Quartzite_08.png","response":"l","trial_type":"image-keyboard-response","trial_index":189,"plugin_version":"2.1.0","time_elapsed":291436,"subject_id":"91931","group":"Group1","condition":"1_Rep","full_date":"2026-02-02T18:20:56.613Z","date":"2026-02-02","time":"18:20:56","cor_ans":true},{"trial_type":"html-keyboard-response","rt":null,"stimulus":"<p style=\"color: green; font-size: 50px; font-weight: bold;\">Correct</p>","response":null,"trial_index":190,"plugin_version":"2.1.0","time_elapsed":291939,"subject_id":"91931","group":"Group1","condition":"1_Rep","full_date":"2026-02-02T18:20:56.613Z","date":"2026-02-02","time":"18:20:56"},{"correct_response":"l","task":"test_phase","broad_category":"I","image_png":"I_Basalt_02.png","image_id":18,"category_name":"Basalt","category":2,"distinct_rating":1.84,"distinct_type":"Bottom","item_type":"Target","rt":565,"stimulus":"Stimuli_Rocks480/I_Basalt_02.png","response":"l","trial_type":"image-keyboard-response","trial_index":191,"plugin_version":"2.1.0","time_elapsed":292518,"subject_id":"91931","group":"Group1","condition":"1_Rep","full_date":"2026-02-02T18:20:56.613Z","date":"2026-02-02","time":"18:20:56","cor_ans":true},{"trial_type":"html-keyboard-response","rt":null,"stimulus":"<p style=\"color: green; font-size: 50px; font-weight: bold;\">Correct</p>","response":null,"trial_index":192,"plugin_version":"2.1.0","time_elapsed":293020,"subject_id":"91931","group":"Group1","condition":"1_Rep","full_date":"2026-02-02T18:20:56.613Z","date":"2026-02-02","time":"18:20:56"},{"correct_response":"a","task":"test_phase","broad_category":"S","image_png":"S_Rock Salt_13.png","image_id":445,"category_name":"Rock Salt","category":28,"distinct_rating":7.58,"distinct_type":"Top","item_type":"Foil","rt":723,"stimulus":"Stimuli_Rocks480/S_Rock Salt_13.png","response":"a","trial_type":"image-keyboard-response","trial_index":193,"plugin_version":"2.1.0","time_elapsed":293758,"subject_id":"91931","group":"Group1","condition":"1_Rep","full_date":"2026-02-02T18:20:56.613Z","date":"2026-02-02","time":"18:20:56","cor_ans":true},{"trial_type":"html-keyboard-response","rt":null,"stimulus":"<p style=\"color: green; font-size: 50px; font-weight: bold;\">Correct</p>","response":null,"trial_index":194,"plugin_version":"2.1.0","time_elapsed":294261,"subject_id":"91931","group":"Group1","condition":"1_Rep","full_date":"2026-02-02T18:20:56.613Z","date":"2026-02-02","time":"18:20:56"},{"correct_response":"a","task":"test_phase","broad_category":"M","image_png":"M_Marble_03.png","image_id":227,"category_name":"Marble","category":15,"distinct_rating":2.67,"distinct_type":"Bottom","item_type":"Foil","rt":627,"stimulus":"Stimuli_Rocks480/M_Marble_03.png","response":"a","trial_type":"image-keyboard-response","trial_index":195,"plugin_version":"2.1.0","time_elapsed":294901,"subject_id":"91931","group":"Group1","condition":"1_Rep","full_date":"2026-02-02T18:20:56.613Z","date":"2026-02-02","time":"18:20:56","cor_ans":true},{"trial_type":"html-keyboard-response","rt":null,"stimulus":"<p style=\"color: green; font-size: 50px; font-weight: bold;\">Correct</p>","response":null,"trial_index":196,"plugin_version":"2.1.0","time_elapsed":295403,"subject_id":"91931","group":"Group1","condition":"1_Rep","full_date":"2026-02-02T18:20:56.613Z","date":"2026-02-02","time":"18:20:56"},{"correct_response":"a","task":"test_phase","broad_category":"S","image_png":"S_Sandstone_11.png","image_id":459,"category_name":"Sandstone","category":29,"distinct_rating":1.82,"distinct_type":"Bottom","item_type":"Foil","rt":689,"stimulus":"Stimuli_Rocks480/S_Sandstone_11.png","response":"l","trial_type":"image-keyboard-response","trial_index":197,"plugin_version":"2.1.0","time_elapsed":296108,"subject_id":"91931","group":"Group1","condition":"1_Rep","full_date":"2026-02-02T18:20:56.613Z","date":"2026-02-02","time":"18:20:56","cor_ans":false},{"trial_type":"html-keyboard-response","rt":null,"stimulus":"<p style=\"color: red; font-size: 50px; font-weight: bold;\">Incorrect</p>","response":null,"trial_index":198,"plugin_version":"2.1.0","time_elapsed":296611,"subject_id":"91931","group":"Group1","condition":"1_Rep","full_date":"2026-02-02T18:20:56.613Z","date":"2026-02-02","time":"18:20:56"},{"correct_response":"a","task":"test_phase","broad_category":"I","image_png":"I_Pumice_13.png","image_id":141,"category_name":"Pumice","category":9,"distinct_rating":3.12,"distinct_type":"Bottom","item_type":"Foil","rt":591,"stimulus":"Stimuli_Rocks480/I_Pumice_13.png","response":"a","trial_type":"image-keyboard-response","trial_index":199,"plugin_version":"2.1.0","time_elapsed":297217,"subject_id":"91931","group":"Group1","condition":"1_Rep","full_date":"2026-02-02T18:20:56.613Z","date":"2026-02-02","time":"18:20:56","cor_ans":true},{"trial_type":"html-keyboard-response","rt":null,"stimulus":"<p style=\"color: green; font-size: 50px; font-weight: bold;\">Correct</p>","response":null,"trial_index":200,"plugin_version":"2.1.0","time_elapsed":297719,"subject_id":"91931","group":"Group1","condition":"1_Rep","full_date":"2026-02-02T18:20:56.613Z","date":"2026-02-02","time":"18:20:56"},{"correct_response":"a","task":"test_phase","broad_category":"I","image_png":"I_Gabbro_02.png","image_id":50,"category_name":"Gabbro","category":4,"distinct_rating":2.73,"distinct_type":"Bottom","item_type":"Foil","rt":960,"stimulus":"Stimuli_Rocks480/I_Gabbro_02.png","response":"a","trial_type":"image-keyboard-response","trial_index":201,"plugin_version":"2.1.0","time_elapsed":298691,"subject_id":"91931","group":"Group1","condition":"1_Rep","full_date":"2026-02-02T18:20:56.613Z","date":"2026-02-02","time":"18:20:56","cor_ans":true},{"trial_type":"html-keyboard-response","rt":null,"stimulus":"<p style=\"color: green; font-size: 50px; font-weight: bold;\">Correct</p>","response":null,"trial_index":202,"plugin_version":"2.1.0","time_elapsed":299194,"subject_id":"91931","group":"Group1","condition":"1_Rep","full_date":"2026-02-02T18:20:56.613Z","date":"2026-02-02","time":"18:20:56"},{"correct_response":"l","task":"test_phase","broad_category":"S","image_png":"S_Rock Salt_01.png","image_id":433,"category_name":"Rock Salt","category":28,"distinct_rating":7.18,"distinct_type":"Top","item_type":"Target","rt":601,"stimulus":"Stimuli_Rocks480/S_Rock Salt_01.png","response":"a","trial_type":"image-keyboard-response","trial_index":203,"plugin_version":"2.1.0","time_elapsed":299811,"subject_id":"91931","group":"Group1","condition":"1_Rep","full_date":"2026-02-02T18:20:56.613Z","date":"2026-02-02","time":"18:20:56","cor_ans":false},{"trial_type":"html-keyboard-response","rt":null,"stimulus":"<p style=\"color: red; font-size: 50px; font-weight: bold;\">Incorrect</p>","response":null,"trial_index":204,"plugin_version":"2.1.0","time_elapsed":300313,"subject_id":"91931","group":"Group1","condition":"1_Rep","full_date":"2026-02-02T18:20:56.613Z","date":"2026-02-02","time":"18:20:56"},{"correct_response":"a","task":"test_phase","broad_category":"I","image_png":"I_Rhyolite_10.png","image_id":154,"category_name":"Rhyolite","category":10,"distinct_rating":2.88,"distinct_type":"Bottom","item_type":"Foil","rt":811,"stimulus":"Stimuli_Rocks480/I_Rhyolite_10.png","response":"l","trial_type":"image-keyboard-response","trial_index":205,"plugin_version":"2.1.0","time_elapsed":301143,"subject_id":"91931","group":"Group1","condition":"1_Rep","full_date":"2026-02-02T18:20:56.613Z","date":"2026-02-02","time":"18:20:56","cor_ans":false},{"trial_type":"html-keyboard-response","rt":null,"stimulus":"<p style=\"color: red; font-size: 50px; font-weight: bold;\">Incorrect</p>","response":null,"trial_index":206,"plugin_version":"2.1.0","time_elapsed":301646,"subject_id":"91931","group":"Group1","condition":"1_Rep","full_date":"2026-02-02T18:20:56.613Z","date":"2026-02-02","time":"18:20:56"},{"correct_response":"a","task":"test_phase","broad_category":"M","image_png":"M_Phyllite_02.png","image_id":258,"category_name":"Phyllite","category":17,"distinct_rating":2.89,"distinct_type":"Bottom","item_type":"Foil","rt":471,"stimulus":"Stimuli_Rocks480/M_Phyllite_02.png","response":"a","trial_type":"image-keyboard-response","trial_index":207,"plugin_version":"2.1.0","time_elapsed":302132,"subject_id":"91931","group":"Group1","condition":"1_Rep","full_date":"2026-02-02T18:20:56.613Z","date":"2026-02-02","time":"18:20:56","cor_ans":true},{"trial_type":"html-keyboard-response","rt":null,"stimulus":"<p style=\"color: green; font-size: 50px; font-weight: bold;\">Correct</p>","response":null,"trial_index":208,"plugin_version":"2.1.0","time_elapsed":302634,"subject_id":"91931","group":"Group1","condition":"1_Rep","full_date":"2026-02-02T18:20:56.613Z","date":"2026-02-02","time":"18:20:56"},{"correct_response":"l","task":"test_phase","broad_category":"S","image_png":"S_Sandstone_03.png","image_id":451,"category_name":"Sandstone","category":29,"distinct_rating":1.86,"distinct_type":"Bottom","item_type":"Target","rt":858,"stimulus":"Stimuli_Rocks480/S_Sandstone_03.png","response":"l","trial_type":"image-keyboard-response","trial_index":209,"plugin_version":"2.1.0","time_elapsed":303506,"subject_id":"91931","group":"Group1","condition":"1_Rep","full_date":"2026-02-02T18:20:56.613Z","date":"2026-02-02","time":"18:20:56","cor_ans":true},{"trial_type":"html-keyboard-response","rt":null,"stimulus":"<p style=\"color: green; font-size: 50px; font-weight: bold;\">Correct</p>","response":null,"trial_index":210,"plugin_version":"2.1.0","time_elapsed":304009,"subject_id":"91931","group":"Group1","condition":"1_Rep","full_date":"2026-02-02T18:20:56.613Z","date":"2026-02-02","time":"18:20:56"},{"correct_response":"a","task":"test_phase","broad_category":"S","image_png":"S_Conglomerate_14.png","image_id":382,"category_name":"Conglomerate","category":24,"distinct_rating":6.86,"distinct_type":"Top","item_type":"Foil","rt":638,"stimulus":"Stimuli_Rocks480/S_Conglomerate_14.png","response":"a","trial_type":"image-keyboard-response","trial_index":211,"plugin_version":"2.1.0","time_elapsed":304661,"subject_id":"91931","group":"Group1","condition":"1_Rep","full_date":"2026-02-02T18:20:56.613Z","date":"2026-02-02","time":"18:20:56","cor_ans":true},{"trial_type":"html-keyboard-response","rt":null,"stimulus":"<p style=\"color: green; font-size: 50px; font-weight: bold;\">Correct</p>","response":null,"trial_index":212,"plugin_version":"2.1.0","time_elapsed":305164,"subject_id":"91931","group":"Group1","condition":"1_Rep","full_date":"2026-02-02T18:20:56.613Z","date":"2026-02-02","time":"18:20:56"},{"correct_response":"a","task":"test_phase","broad_category":"M","image_png":"M_Gneiss_10.png","image_id":202,"category_name":"Gneiss","category":13,"distinct_rating":3.09,"distinct_type":"Bottom","item_type":"Foil","rt":668,"stimulus":"Stimuli_Rocks480/M_Gneiss_10.png","response":"l","trial_type":"image-keyboard-response","trial_index":213,"plugin_version":"2.1.0","time_elapsed":305845,"subject_id":"91931","group":"Group1","condition":"1_Rep","full_date":"2026-02-02T18:20:56.613Z","date":"2026-02-02","time":"18:20:56","cor_ans":false},{"trial_type":"html-keyboard-response","rt":null,"stimulus":"<p style=\"color: red; font-size: 50px; font-weight: bold;\">Incorrect</p>","response":null,"trial_index":214,"plugin_version":"2.1.0","time_elapsed":306348,"subject_id":"91931","group":"Group1","condition":"1_Rep","full_date":"2026-02-02T18:20:56.613Z","date":"2026-02-02","time":"18:20:56"},{"correct_response":"a","task":"test_phase","broad_category":"I","image_png":"I_Gabbro_14.png","image_id":62,"category_name":"Gabbro","category":4,"distinct_rating":2.95,"distinct_type":"Bottom","item_type":"Foil","rt":390,"stimulus":"Stimuli_Rocks480/I_Gabbro_14.png","response":"a","trial_type":"image-keyboard-response","trial_index":215,"plugin_version":"2.1.0","time_elapsed":306753,"subject_id":"91931","group":"Group1","condition":"1_Rep","full_date":"2026-02-02T18:20:56.613Z","date":"2026-02-02","time":"18:20:56","cor_ans":true},{"trial_type":"html-keyboard-response","rt":null,"stimulus":"<p style=\"color: green; font-size: 50px; font-weight: bold;\">Correct</p>","response":null,"trial_index":216,"plugin_version":"2.1.0","time_elapsed":307255,"subject_id":"91931","group":"Group1","condition":"1_Rep","full_date":"2026-02-02T18:20:56.613Z","date":"2026-02-02","time":"18:20:56"},{"correct_response":"l","task":"test_phase","broad_category":"M","image_png":"M_Slate_11.png","image_id":315,"category_name":"Slate","category":20,"distinct_rating":2.75,"distinct_type":"Bottom","item_type":"Target","rt":856,"stimulus":"Stimuli_Rocks480/M_Slate_11.png","response":"a","trial_type":"image-keyboard-response","trial_index":217,"plugin_version":"2.1.0","time_elapsed":308123,"subject_id":"91931","group":"Group1","condition":"1_Rep","full_date":"2026-02-02T18:20:56.613Z","date":"2026-02-02","time":"18:20:56","cor_ans":false},{"trial_type":"html-keyboard-response","rt":null,"stimulus":"<p style=\"color: red; font-size: 50px; font-weight: bold;\">Incorrect</p>","response":null,"trial_index":218,"plugin_version":"2.1.0","time_elapsed":308625,"subject_id":"91931","group":"Group1","condition":"1_Rep","full_date":"2026-02-02T18:20:56.613Z","date":"2026-02-02","time":"18:20:56"},{"correct_response":"a","task":"test_phase","broad_category":"I","image_png":"I_Andesite_09.png","image_id":9,"category_name":"Andesite","category":1,"distinct_rating":2.49,"distinct_type":"Bottom","item_type":"Foil","rt":874,"stimulus":"Stimuli_Rocks480/I_Andesite_09.png","response":"a","trial_type":"image-keyboard-response","trial_index":219,"plugin_version":"2.1.0","time_elapsed":309511,"subject_id":"91931","group":"Group1","condition":"1_Rep","full_date":"2026-02-02T18:20:56.613Z","date":"2026-02-02","time":"18:20:56","cor_ans":true},{"trial_type":"html-keyboard-response","rt":null,"stimulus":"<p style=\"color: green; font-size: 50px; font-weight: bold;\">Correct</p>","response":null,"trial_index":220,"plugin_version":"2.1.0","time_elapsed":310013,"subject_id":"91931","group":"Group1","condition":"1_Rep","full_date":"2026-02-02T18:20:56.613Z","date":"2026-02-02","time":"18:20:56"},{"correct_response":"l","task":"test_phase","broad_category":"M","image_png":"M_Quartzite_05.png","image_id":277,"category_name":"Quartzite","category":18,"distinct_rating":2.23,"distinct_type":"Bottom","item_type":"Target","rt":633,"stimulus":"Stimuli_Rocks480/M_Quartzite_05.png","response":"a","trial_type":"image-keyboard-response","trial_index":221,"plugin_version":"2.1.0","time_elapsed":310662,"subject_id":"91931","group":"Group1","condition":"1_Rep","full_date":"2026-02-02T18:20:56.613Z","date":"2026-02-02","time":"18:20:56","cor_ans":false},{"trial_type":"html-keyboard-response","rt":null,"stimulus":"<p style=\"color: red; font-size: 50px; font-weight: bold;\">Incorrect</p>","response":null,"trial_index":222,"plugin_version":"2.1.0","time_elapsed":311165,"subject_id":"91931","group":"Group1","condition":"1_Rep","full_date":"2026-02-02T18:20:56.613Z","date":"2026-02-02","time":"18:20:56"},{"correct_response":"a","task":"test_phase","broad_category":"I","image_png":"I_Diorite_10.png","image_id":42,"category_name":"Diorite","category":3,"distinct_rating":2.84,"distinct_type":"Bottom","item_type":"Foil","rt":547,"stimulus":"Stimuli_Rocks480/I_Diorite_10.png","response":"l","trial_type":"image-keyboard-response","trial_index":223,"plugin_version":"2.1.0","time_elapsed":311725,"subject_id":"91931","group":"Group1","condition":"1_Rep","full_date":"2026-02-02T18:20:56.613Z","date":"2026-02-02","time":"18:20:56","cor_ans":false},{"trial_type":"html-keyboard-response","rt":null,"stimulus":"<p style=\"color: red; font-size: 50px; font-weight: bold;\">Incorrect</p>","response":null,"trial_index":224,"plugin_version":"2.1.0","time_elapsed":312227,"subject_id":"91931","group":"Group1","condition":"1_Rep","full_date":"2026-02-02T18:20:56.613Z","date":"2026-02-02","time":"18:20:56"},{"correct_response":"a","task":"test_phase","broad_category":"I","image_png":"I_Pegm