[{"width":1272,"height":634,"webaudio":true,"browser":"edge-chromium","browser_version":"145.0.0","mobile":false,"os":"Windows 10","fullscreen":true,"vsync_rate":60.84,"webcam":true,"microphone":true,"trial_type":"browser-check","trial_index":0,"plugin_version":"2.1.0","time_elapsed":1011,"subject_id":"91566","group":"Group1","condition":"1_Rep","full_date":"2026-02-22T16:50:15.020Z","date":"2026-02-22","time":"16:50:15"},{"success":true,"timeout":false,"failed_images":[],"failed_audio":[],"failed_video":[],"trial_type":"preload","trial_index":1,"plugin_version":"2.1.0","time_elapsed":1162,"subject_id":"91566","group":"Group1","condition":"1_Rep","full_date":"2026-02-22T16:50:15.020Z","date":"2026-02-22","time":"16:50:15"},{"rt":3021,"url":"SONA_consent_memorability.html","trial_type":"external-html","trial_index":2,"plugin_version":"2.1.0","time_elapsed":4186,"subject_id":"91566","group":"Group1","condition":"1_Rep","full_date":"2026-02-22T16:50:15.020Z","date":"2026-02-22","time":"16:50:15"},{"success":true,"rt":1085,"trial_type":"fullscreen","trial_index":3,"plugin_version":"2.1.0","time_elapsed":6276,"subject_id":"91566","group":"Group1","condition":"1_Rep","full_date":"2026-02-22T16:50:15.020Z","date":"2026-02-22","time":"16:50:15"},{"rt":1155,"stimulus":"<div style=\"max-width: 760px; margin: auto; font-size: 20px; line-height: 1.5;\">\n      <h1 style=\"text-align:center; font-size: 30px;\">Instructions</h1>\n      <p>\n        Welcome to the study on <b>visual memory</b>. This experiment consists of <b>two phases</b>: \n        a <b>study phase</b> and a <b>test phase</b>.\n      </p>\n      <p>\n        In the study phase, you will see a series of rock images along with their category labels.\n        The images will appear one at a time.\n        <b>Your task</b> is to learn the categories to which the rock images belong \n        and to remember each image as accurately as possible.\n      </p> \n      <p>\n        Note that you will see each image only <b>once</b> during the study phase. \n          So, please pay close attention and try to remember each image carefully.\n      </p>\n      <p>\n        After the study phase, <b>your memory will be tested</b>. \n        Additional instructions for the test phase will be provided at that time.\n      </p>\n      <p>\n        If your computer has multiple <b>language settings</b> (e.g., English and another language),\n        please make sure it is set to English before starting.\n      </p>\n      <p>\n        You can track your progress using the <b>completion bar</b> at the top of the screen. \n        Please note that the bar will refresh when the test phase begins \n        to give you an accurate sense of your progress in both phases.\n      </p> \n      <p>\n        Press the button below when you are ready to begin.\n      </p>\n    </div>","response":0,"trial_type":"html-button-response","trial_index":4,"plugin_version":"2.1.0","time_elapsed":7432,"subject_id":"91566","group":"Group1","condition":"1_Rep","full_date":"2026-02-22T16:50:15.020Z","date":"2026-02-22","time":"16:50:15"},{"rt":null,"stimulus":"<p style=\"font-size: 50px; margin: 0; text-align: center;\">+</p>","response":null,"trial_type":"html-keyboard-response","trial_index":5,"plugin_version":"2.1.0","time_elapsed":8443,"subject_id":"91566","group":"Group1","condition":"1_Rep","full_date":"2026-02-22T16:50:15.020Z","date":"2026-02-22","time":"16:50:15"},{"task":"memory_phase","broad_category":"I","image_png":"I_Andesite_08.png","image_id":8,"category_name":"Andesite","category":1,"distinct_rating":1.95,"distinct_type":"Bottom","rt":null,"stimulus":"Stimuli_Rocks480/I_Andesite_08.png","response":null,"trial_type":"image-keyboard-response","trial_index":6,"plugin_version":"2.1.0","time_elapsed":10960,"subject_id":"91566","group":"Group1","condition":"1_Rep","full_date":"2026-02-22T16:50:15.020Z","date":"2026-02-22","time":"16:50:15"},{"rt":null,"stimulus":"<p style=\"font-size: 50px; margin: 0; text-align: center;\">+</p>","response":null,"trial_type":"html-keyboard-response","trial_index":7,"plugin_version":"2.1.0","time_elapsed":11967,"subject_id":"91566","group":"Group1","condition":"1_Rep","full_date":"2026-02-22T16:50:15.020Z","date":"2026-02-22","time":"16:50:15"},{"task":"memory_phase","broad_category":"M","image_png":"M_Slate_11.png","image_id":315,"category_name":"Slate","category":20,"distinct_rating":2.75,"distinct_type":"Bottom","rt":null,"stimulus":"Stimuli_Rocks480/M_Slate_11.png","response":null,"trial_type":"image-keyboard-response","trial_index":8,"plugin_version":"2.1.0","time_elapsed":14476,"subject_id":"91566","group":"Group1","condition":"1_Rep","full_date":"2026-02-22T16:50:15.020Z","date":"2026-02-22","time":"16:50:15"},{"rt":null,"stimulus":"<p style=\"font-size: 50px; margin: 0; text-align: center;\">+</p>","response":null,"trial_type":"html-keyboard-response","trial_index":9,"plugin_version":"2.1.0","time_elapsed":15493,"subject_id":"91566","group":"Group1","condition":"1_Rep","full_date":"2026-02-22T16:50:15.020Z","date":"2026-02-22","time":"16:50:15"},{"task":"memory_phase","broad_category":"S","image_png":"S_Shale_12.png","image_id":476,"category_name":"Shale","category":30,"distinct_rating":2.48,"distinct_type":"Bottom","rt":null,"stimulus":"Stimuli_Rocks480/S_Shale_12.png","response":null,"trial_type":"image-keyboard-response","trial_index":10,"plugin_version":"2.1.0","time_elapsed":18010,"subject_id":"91566","group":"Group1","condition":"1_Rep","full_date":"2026-02-22T16:50:15.020Z","date":"2026-02-22","time":"16:50:15"},{"rt":null,"stimulus":"<p style=\"font-size: 50px; margin: 0; text-align: center;\">+</p>","response":null,"trial_type":"html-keyboard-response","trial_index":11,"plugin_version":"2.1.0","time_elapsed":19027,"subject_id":"91566","group":"Group1","condition":"1_Rep","full_date":"2026-02-22T16:50:15.020Z","date":"2026-02-22","time":"16:50:15"},{"task":"memory_phase","broad_category":"I","image_png":"I_Obsidian_05.png","image_id":85,"category_name":"Obsidian","category":6,"distinct_rating":7.32,"distinct_type":"Top","rt":null,"stimulus":"Stimuli_Rocks480/I_Obsidian_05.png","response":null,"trial_type":"image-keyboard-response","trial_index":12,"plugin_version":"2.1.0","time_elapsed":21544,"subject_id":"91566","group":"Group1","condition":"1_Rep","full_date":"2026-02-22T16:50:15.020Z","date":"2026-02-22","time":"16:50:15"},{"rt":null,"stimulus":"<p style=\"font-size: 50px; margin: 0; text-align: center;\">+</p>","response":null,"trial_type":"html-keyboard-response","trial_index":13,"plugin_version":"2.1.0","time_elapsed":22560,"subject_id":"91566","group":"Group1","condition":"1_Rep","full_date":"2026-02-22T16:50:15.020Z","date":"2026-02-22","time":"16:50:15"},{"task":"memory_phase","broad_category":"S","image_png":"S_Shale_01.png","image_id":465,"category_name":"Shale","category":30,"distinct_rating":2.7,"distinct_type":"Bottom","rt":null,"stimulus":"Stimuli_Rocks480/S_Shale_01.png","response":null,"trial_type":"image-keyboard-response","trial_index":14,"plugin_version":"2.1.0","time_elapsed":25063,"subject_id":"91566","group":"Group1","condition":"1_Rep","full_date":"2026-02-22T16:50:15.020Z","date":"2026-02-22","time":"16:50:15"},{"rt":null,"stimulus":"<p style=\"font-size: 50px; margin: 0; text-align: center;\">+</p>","response":null,"trial_type":"html-keyboard-response","trial_index":15,"plugin_version":"2.1.0","time_elapsed":26077,"subject_id":"91566","group":"Group1","condition":"1_Rep","full_date":"2026-02-22T16:50:15.020Z","date":"2026-02-22","time":"16:50:15"},{"task":"memory_phase","broad_category":"I","image_png":"I_Pumice_08.png","image_id":136,"category_name":"Pumice","category":9,"distinct_rating":3.1,"distinct_type":"Bottom","rt":null,"stimulus":"Stimuli_Rocks480/I_Pumice_08.png","response":null,"trial_type":"image-keyboard-response","trial_index":16,"plugin_version":"2.1.0","time_elapsed":28593,"subject_id":"91566","group":"Group1","condition":"1_Rep","full_date":"2026-02-22T16:50:15.020Z","date":"2026-02-22","time":"16:50:15"},{"rt":null,"stimulus":"<p style=\"font-size: 50px; margin: 0; text-align: center;\">+</p>","response":null,"trial_type":"html-keyboard-response","trial_index":17,"plugin_version":"2.1.0","time_elapsed":29610,"subject_id":"91566","group":"Group1","condition":"1_Rep","full_date":"2026-02-22T16:50:15.020Z","date":"2026-02-22","time":"16:50:15"},{"task":"memory_phase","broad_category":"I","image_png":"I_Basalt_01.png","image_id":17,"category_name":"Basalt","category":2,"distinct_rating":1.92,"distinct_type":"Bottom","rt":null,"stimulus":"Stimuli_Rocks480/I_Basalt_01.png","response":null,"trial_type":"image-keyboard-response","trial_index":18,"plugin_version":"2.1.0","time_elapsed":32112,"subject_id":"91566","group":"Group1","condition":"1_Rep","full_date":"2026-02-22T16:50:15.020Z","date":"2026-02-22","time":"16:50:15"},{"rt":null,"stimulus":"<p style=\"font-size: 50px; margin: 0; text-align: center;\">+</p>","response":null,"trial_type":"html-keyboard-response","trial_index":19,"plugin_version":"2.1.0","time_elapsed":33127,"subject_id":"91566","group":"Group1","condition":"1_Rep","full_date":"2026-02-22T16:50:15.020Z","date":"2026-02-22","time":"16:50:15"},{"task":"memory_phase","broad_category":"I","image_png":"I_Basalt_02.png","image_id":18,"category_name":"Basalt","category":2,"distinct_rating":1.84,"distinct_type":"Bottom","rt":null,"stimulus":"Stimuli_Rocks480/I_Basalt_02.png","response":null,"trial_type":"image-keyboard-response","trial_index":20,"plugin_version":"2.1.0","time_elapsed":35644,"subject_id":"91566","group":"Group1","condition":"1_Rep","full_date":"2026-02-22T16:50:15.020Z","date":"2026-02-22","time":"16:50:15"},{"rt":null,"stimulus":"<p style=\"font-size: 50px; margin: 0; text-align: center;\">+</p>","response":null,"trial_type":"html-keyboard-response","trial_index":21,"plugin_version":"2.1.0","time_elapsed":36662,"subject_id":"91566","group":"Group1","condition":"1_Rep","full_date":"2026-02-22T16:50:15.020Z","date":"2026-02-22","time":"16:50:15"},{"task":"memory_phase","broad_category":"I","image_png":"I_Pegmatite_16.png","image_id":112,"category_name":"Pegmatite","category":7,"distinct_rating":7.03,"distinct_type":"Top","rt":null,"stimulus":"Stimuli_Rocks480/I_Pegmatite_16.png","response":null,"trial_type":"image-keyboard-response","trial_index":22,"plugin_version":"2.1.0","time_elapsed":39178,"subject_id":"91566","group":"Group1","condition":"1_Rep","full_date":"2026-02-22T16:50:15.020Z","date":"2026-02-22","time":"16:50:15"},{"rt":null,"stimulus":"<p style=\"font-size: 50px; margin: 0; text-align: center;\">+</p>","response":null,"trial_type":"html-keyboard-response","trial_index":23,"plugin_version":"2.1.0","time_elapsed":40195,"subject_id":"91566","group":"Group1","condition":"1_Rep","full_date":"2026-02-22T16:50:15.020Z","date":"2026-02-22","time":"16:50:15"},{"task":"memory_phase","broad_category":"S","image_png":"S_Sandstone_15.png","image_id":463,"category_name":"Sandstone","category":29,"distinct_rating":2,"distinct_type":"Bottom","rt":null,"stimulus":"Stimuli_Rocks480/S_Sandstone_15.png","response":null,"trial_type":"image-keyboard-response","trial_index":24,"plugin_version":"2.1.0","time_elapsed":42711,"subject_id":"91566","group":"Group1","condition":"1_Rep","full_date":"2026-02-22T16:50:15.020Z","date":"2026-02-22","time":"16:50:15"},{"rt":null,"stimulus":"<p style=\"font-size: 50px; margin: 0; text-align: center;\">+</p>","response":null,"trial_type":"html-keyboard-response","trial_index":25,"plugin_version":"2.1.0","time_elapsed":43728,"subject_id":"91566","group":"Group1","condition":"1_Rep","full_date":"2026-02-22T16:50:15.020Z","date":"2026-02-22","time":"16:50:15"},{"task":"memory_phase","broad_category":"I","image_png":"I_Andesite_06.png","image_id":6,"category_name":"Andesite","category":1,"distinct_rating":3.17,"distinct_type":"Bottom","rt":null,"stimulus":"Stimuli_Rocks480/I_Andesite_06.png","response":null,"trial_type":"image-keyboard-response","trial_index":26,"plugin_version":"2.1.0","time_elapsed":46245,"subject_id":"91566","group":"Group1","condition":"1_Rep","full_date":"2026-02-22T16:50:15.020Z","date":"2026-02-22","time":"16:50:15"},{"rt":null,"stimulus":"<p style=\"font-size: 50px; margin: 0; text-align: center;\">+</p>","response":null,"trial_type":"html-keyboard-response","trial_index":27,"plugin_version":"2.1.0","time_elapsed":47257,"subject_id":"91566","group":"Group1","condition":"1_Rep","full_date":"2026-02-22T16:50:15.020Z","date":"2026-02-22","time":"16:50:15"},{"task":"memory_phase","broad_category":"S","image_png":"S_Sandstone_03.png","image_id":451,"category_name":"Sandstone","category":29,"distinct_rating":1.86,"distinct_type":"Bottom","rt":null,"stimulus":"Stimuli_Rocks480/S_Sandstone_03.png","response":null,"trial_type":"image-keyboard-response","trial_index":28,"plugin_version":"2.1.0","time_elapsed":49762,"subject_id":"91566","group":"Group1","condition":"1_Rep","full_date":"2026-02-22T16:50:15.020Z","date":"2026-02-22","time":"16:50:15"},{"rt":null,"stimulus":"<p style=\"font-size: 50px; margin: 0; text-align: center;\">+</p>","response":null,"trial_type":"html-keyboard-response","trial_index":29,"plugin_version":"2.1.0","time_elapsed":50777,"subject_id":"91566","group":"Group1","condition":"1_Rep","full_date":"2026-02-22T16:50:15.020Z","date":"2026-02-22","time":"16:50:15"},{"task":"memory_phase","broad_category":"S","image_png":"S_Chert_10.png","image_id":362,"category_name":"Chert","category":23,"distinct_rating":7.17,"distinct_type":"Top","rt":null,"stimulus":"Stimuli_Rocks480/S_Chert_10.png","response":null,"trial_type":"image-keyboard-response","trial_index":30,"plugin_version":"2.1.0","time_elapsed":53279,"subject_id":"91566","group":"Group1","condition":"1_Rep","full_date":"2026-02-22T16:50:15.020Z","date":"2026-02-22","time":"16:50:15"},{"rt":null,"stimulus":"<p style=\"font-size: 50px; margin: 0; text-align: center;\">+</p>","response":null,"trial_type":"html-keyboard-response","trial_index":31,"plugin_version":"2.1.0","time_elapsed":54294,"subject_id":"91566","group":"Group1","condition":"1_Rep","full_date":"2026-02-22T16:50:15.020Z","date":"2026-02-22","time":"16:50:15"},{"task":"memory_phase","broad_category":"I","image_png":"I_Rhyolite_11.png","image_id":155,"category_name":"Rhyolite","category":10,"distinct_rating":1.73,"distinct_type":"Bottom","rt":null,"stimulus":"Stimuli_Rocks480/I_Rhyolite_11.png","response":null,"trial_type":"image-keyboard-response","trial_index":32,"plugin_version":"2.1.0","time_elapsed":56812,"subject_id":"91566","group":"Group1","condition":"1_Rep","full_date":"2026-02-22T16:50:15.020Z","date":"2026-02-22","time":"16:50:15"},{"rt":null,"stimulus":"<p style=\"font-size: 50px; margin: 0; text-align: center;\">+</p>","response":null,"trial_type":"html-keyboard-response","trial_index":33,"plugin_version":"2.1.0","time_elapsed":57829,"subject_id":"91566","group":"Group1","condition":"1_Rep","full_date":"2026-02-22T16:50:15.020Z","date":"2026-02-22","time":"16:50:15"},{"task":"memory_phase","broad_category":"S","image_png":"S_Shale_08.png","image_id":472,"category_name":"Shale","category":30,"distinct_rating":2.55,"distinct_type":"Bottom","rt":null,"stimulus":"Stimuli_Rocks480/S_Shale_08.png","response":null,"trial_type":"image-keyboard-response","trial_index":34,"plugin_version":"2.1.0","time_elapsed":60346,"subject_id":"91566","group":"Group1","condition":"1_Rep","full_date":"2026-02-22T16:50:15.020Z","date":"2026-02-22","time":"16:50:15"},{"rt":null,"stimulus":"<p style=\"font-size: 50px; margin: 0; text-align: center;\">+</p>","response":null,"trial_type":"html-keyboard-response","trial_index":35,"plugin_version":"2.1.0","time_elapsed":61363,"subject_id":"91566","group":"Group1","condition":"1_Rep","full_date":"2026-02-22T16:50:15.020Z","date":"2026-02-22","time":"16:50:15"},{"task":"memory_phase","broad_category":"S","image_png":"S_Dolomite_14.png","image_id":398,"category_name":"Dolomite","category":25,"distinct_rating":1.43,"distinct_type":"Bottom","rt":null,"stimulus":"Stimuli_Rocks480/S_Dolomite_14.png","response":null,"trial_type":"image-keyboard-response","trial_index":36,"plugin_version":"2.1.0","time_elapsed":63878,"subject_id":"91566","group":"Group1","condition":"1_Rep","full_date":"2026-02-22T16:50:15.020Z","date":"2026-02-22","time":"16:50:15"},{"rt":null,"stimulus":"<p style=\"font-size: 50px; margin: 0; text-align: center;\">+</p>","response":null,"trial_type":"html-keyboard-response","trial_index":37,"plugin_version":"2.1.0","time_elapsed":64879,"subject_id":"91566","group":"Group1","condition":"1_Rep","full_date":"2026-02-22T16:50:15.020Z","date":"2026-02-22","time":"16:50:15"},{"task":"memory_phase","broad_category":"I","image_png":"I_Pumice_12.png","image_id":140,"category_name":"Pumice","category":9,"distinct_rating":2.97,"distinct_type":"Bottom","rt":null,"stimulus":"Stimuli_Rocks480/I_Pumice_12.png","response":null,"trial_type":"image-keyboard-response","trial_index":38,"plugin_version":"2.1.0","time_elapsed":67395,"subject_id":"91566","group":"Group1","condition":"1_Rep","full_date":"2026-02-22T16:50:15.020Z","date":"2026-02-22","time":"16:50:15"},{"rt":null,"stimulus":"<p style=\"font-size: 50px; margin: 0; text-align: center;\">+</p>","response":null,"trial_type":"html-keyboard-response","trial_index":39,"plugin_version":"2.1.0","time_elapsed":68412,"subject_id":"91566","group":"Group1","condition":"1_Rep","full_date":"2026-02-22T16:50:15.020Z","date":"2026-02-22","time":"16:50:15"},{"task":"memory_phase","broad_category":"S","image_png":"S_Dolomite_12.png","image_id":396,"category_name":"Dolomite","category":25,"distinct_rating":1.85,"distinct_type":"Bottom","rt":null,"stimulus":"Stimuli_Rocks480/S_Dolomite_12.png","response":null,"trial_type":"image-keyboard-response","trial_index":40,"plugin_version":"2.1.0","time_elapsed":70929,"subject_id":"91566","group":"Group1","condition":"1_Rep","full_date":"2026-02-22T16:50:15.020Z","date":"2026-02-22","time":"16:50:15"},{"rt":null,"stimulus":"<p style=\"font-size: 50px; margin: 0; text-align: center;\">+</p>","response":null,"trial_type":"html-keyboard-response","trial_index":41,"plugin_version":"2.1.0","time_elapsed":71946,"subject_id":"91566","group":"Group1","condition":"1_Rep","full_date":"2026-02-22T16:50:15.020Z","date":"2026-02-22","time":"16:50:15"},{"task":"memory_phase","broad_category":"I","image_png":"I_Diorite_04.png","image_id":36,"category_name":"Diorite","category":3,"distinct_rating":2.98,"distinct_type":"Bottom","rt":null,"stimulus":"Stimuli_Rocks480/I_Diorite_04.png","response":null,"trial_type":"image-keyboard-response","trial_index":42,"plugin_version":"2.1.0","time_elapsed":74463,"subject_id":"91566","group":"Group1","condition":"1_Rep","full_date":"2026-02-22T16:50:15.020Z","date":"2026-02-22","time":"16:50:15"},{"rt":null,"stimulus":"<p style=\"font-size: 50px; margin: 0; text-align: center;\">+</p>","response":null,"trial_type":"html-keyboard-response","trial_index":43,"plugin_version":"2.1.0","time_elapsed":75480,"subject_id":"91566","group":"Group1","condition":"1_Rep","full_date":"2026-02-22T16:50:15.020Z","date":"2026-02-22","time":"16:50:15"},{"task":"memory_phase","broad_category":"S","image_png":"S_Dolomite_13.png","image_id":397,"category_name":"Dolomite","category":25,"distinct_rating":1.77,"distinct_type":"Bottom","rt":null,"stimulus":"Stimuli_Rocks480/S_Dolomite_13.png","response":null,"trial_type":"image-keyboard-response","trial_index":44,"plugin_version":"2.1.0","time_elapsed":77996,"subject_id":"91566","group":"Group1","condition":"1_Rep","full_date":"2026-02-22T16:50:15.020Z","date":"2026-02-22","time":"16:50:15"},{"rt":null,"stimulus":"<p style=\"font-size: 50px; margin: 0; text-align: center;\">+</p>","response":null,"trial_type":"html-keyboard-response","trial_index":45,"plugin_version":"2.1.0","time_elapsed":79013,"subject_id":"91566","group":"Group1","condition":"1_Rep","full_date":"2026-02-22T16:50:15.020Z","date":"2026-02-22","time":"16:50:15"},{"task":"memory_phase","broad_category":"S","image_png":"S_Conglomerate_05.png","image_id":373,"category_name":"Conglomerate","category":24,"distinct_rating":7.32,"distinct_type":"Top","rt":null,"stimulus":"Stimuli_Rocks480/S_Conglomerate_05.png","response":null,"trial_type":"image-keyboard-response","trial_index":46,"plugin_version":"2.1.0","time_elapsed":81516,"subject_id":"91566","group":"Group1","condition":"1_Rep","full_date":"2026-02-22T16:50:15.020Z","date":"2026-02-22","time":"16:50:15"},{"rt":null,"stimulus":"<p style=\"font-size: 50px; margin: 0; text-align: center;\">+</p>","response":null,"trial_type":"html-keyboard-response","trial_index":47,"plugin_version":"2.1.0","time_elapsed":82530,"subject_id":"91566","group":"Group1","condition":"1_Rep","full_date":"2026-02-22T16:50:15.020Z","date":"2026-02-22","time":"16:50:15"},{"task":"memory_phase","broad_category":"M","image_png":"M_Quartzite_08.png","image_id":280,"category_name":"Quartzite","category":18,"distinct_rating":2.15,"distinct_type":"Bottom","rt":null,"stimulus":"Stimuli_Rocks480/M_Quartzite_08.png","response":null,"trial_type":"image-keyboard-response","trial_index":48,"plugin_version":"2.1.0","time_elapsed":85033,"subject_id":"91566","group":"Group1","condition":"1_Rep","full_date":"2026-02-22T16:50:15.020Z","date":"2026-02-22","time":"16:50:15"},{"rt":null,"stimulus":"<p style=\"font-size: 50px; margin: 0; text-align: center;\">+</p>","response":null,"trial_type":"html-keyboard-response","trial_index":49,"plugin_version":"2.1.0","time_elapsed":86034,"subject_id":"91566","group":"Group1","condition":"1_Rep","full_date":"2026-02-22T16:50:15.020Z","date":"2026-02-22","time":"16:50:15"},{"task":"memory_phase","broad_category":"M","image_png":"M_Gneiss_06.png","image_id":198,"category_name":"Gneiss","category":13,"distinct_rating":2.65,"distinct_type":"Bottom","rt":null,"stimulus":"Stimuli_Rocks480/M_Gneiss_06.png","response":null,"trial_type":"image-keyboard-response","trial_index":50,"plugin_version":"2.1.0","time_elapsed":88546,"subject_id":"91566","group":"Group1","condition":"1_Rep","full_date":"2026-02-22T16:50:15.020Z","date":"2026-02-22","time":"16:50:15"},{"rt":null,"stimulus":"<p style=\"font-size: 50px; margin: 0; text-align: center;\">+</p>","response":null,"trial_type":"html-keyboard-response","trial_index":51,"plugin_version":"2.1.0","time_elapsed":89564,"subject_id":"91566","group":"Group1","condition":"1_Rep","full_date":"2026-02-22T16:50:15.020Z","date":"2026-02-22","time":"16:50:15"},{"task":"memory_phase","broad_category":"M","image_png":"M_Slate_15.png","image_id":319,"category_name":"Slate","category":20,"distinct_rating":2.13,"distinct_type":"Bottom","rt":null,"stimulus":"Stimuli_Rocks480/M_Slate_15.png","response":null,"trial_type":"image-keyboard-response","trial_index":52,"plugin_version":"2.1.0","time_elapsed":92067,"subject_id":"91566","group":"Group1","condition":"1_Rep","full_date":"2026-02-22T16:50:15.020Z","date":"2026-02-22","time":"16:50:15"},{"rt":null,"stimulus":"<p style=\"font-size: 50px; margin: 0; text-align: center;\">+</p>","response":null,"trial_type":"html-keyboard-response","trial_index":53,"plugin_version":"2.1.0","time_elapsed":93080,"subject_id":"91566","group":"Group1","condition":"1_Rep","full_date":"2026-02-22T16:50:15.020Z","date":"2026-02-22","time":"16:50:15"},{"task":"memory_phase","broad_category":"M","image_png":"M_Gneiss_05.png","image_id":197,"category_name":"Gneiss","category":13,"distinct_rating":2.97,"distinct_type":"Bottom","rt":null,"stimulus":"Stimuli_Rocks480/M_Gneiss_05.png","response":null,"trial_type":"image-keyboard-response","trial_index":54,"plugin_version":"2.1.0","time_elapsed":95597,"subject_id":"91566","group":"Group1","condition":"1_Rep","full_date":"2026-02-22T16:50:15.020Z","date":"2026-02-22","time":"16:50:15"},{"rt":1830,"stimulus":"<p style=\"max-width: 760px; margin: auto; font-size: 35px; line-height: 1.5;\">\n                Press SPACE to continue study phase\n              </p>","response":" ","trial_type":"html-keyboard-response","trial_index":55,"plugin_version":"2.1.0","time_elapsed":97428,"subject_id":"91566","group":"Group1","condition":"1_Rep","full_date":"2026-02-22T16:50:15.020Z","date":"2026-02-22","time":"16:50:15"},{"rt":null,"stimulus":"<p style=\"font-size: 50px; margin: 0; text-align: center;\">+</p>","response":null,"trial_type":"html-keyboard-response","trial_index":56,"plugin_version":"2.1.0","time_elapsed":98430,"subject_id":"91566","group":"Group1","condition":"1_Rep","full_date":"2026-02-22T16:50:15.020Z","date":"2026-02-22","time":"16:50:15"},{"task":"memory_phase","broad_category":"M","image_png":"M_Marble_04.png","image_id":228,"category_name":"Marble","category":15,"distinct_rating":3.15,"distinct_type":"Bottom","rt":null,"stimulus":"Stimuli_Rocks480/M_Marble_04.png","response":null,"trial_type":"image-keyboard-response","trial_index":57,"plugin_version":"2.1.0","time_elapsed":100946,"subject_id":"91566","group":"Group1","condition":"1_Rep","full_date":"2026-02-22T16:50:15.020Z","date":"2026-02-22","time":"16:50:15"},{"rt":null,"stimulus":"<p style=\"font-size: 50px; margin: 0; text-align: center;\">+</p>","response":null,"trial_type":"html-keyboard-response","trial_index":58,"plugin_version":"2.1.0","time_elapsed":101964,"subject_id":"91566","group":"Group1","condition":"1_Rep","full_date":"2026-02-22T16:50:15.020Z","date":"2026-02-22","time":"16:50:15"},{"task":"memory_phase","broad_category":"M","image_png":"M_Gneiss_13.png","image_id":205,"category_name":"Gneiss","category":13,"distinct_rating":3.26,"distinct_type":"Bottom","rt":null,"stimulus":"Stimuli_Rocks480/M_Gneiss_13.png","response":null,"trial_type":"image-keyboard-response","trial_index":59,"plugin_version":"2.1.0","time_elapsed":104479,"subject_id":"91566","group":"Group1","condition":"1_Rep","full_date":"2026-02-22T16:50:15.020Z","date":"2026-02-22","time":"16:50:15"},{"rt":null,"stimulus":"<p style=\"font-size: 50px; margin: 0; text-align: center;\">+</p>","response":null,"trial_type":"html-keyboard-response","trial_index":60,"plugin_version":"2.1.0","time_elapsed":105495,"subject_id":"91566","group":"Group1","condition":"1_Rep","full_date":"2026-02-22T16:50:15.020Z","date":"2026-02-22","time":"16:50:15"},{"task":"memory_phase","broad_category":"S","image_png":"S_Breccia_11.png","image_id":347,"category_name":"Breccia","category":22,"distinct_rating":6.7,"distinct_type":"Top","rt":null,"stimulus":"Stimuli_Rocks480/S_Breccia_11.png","response":null,"trial_type":"image-keyboard-response","trial_index":61,"plugin_version":"2.1.0","time_elapsed":108013,"subject_id":"91566","group":"Group1","condition":"1_Rep","full_date":"2026-02-22T16:50:15.020Z","date":"2026-02-22","time":"16:50:15"},{"rt":null,"stimulus":"<p style=\"font-size: 50px; margin: 0; text-align: center;\">+</p>","response":null,"trial_type":"html-keyboard-response","trial_index":62,"plugin_version":"2.1.0","time_elapsed":109030,"subject_id":"91566","group":"Group1","condition":"1_Rep","full_date":"2026-02-22T16:50:15.020Z","date":"2026-02-22","time":"16:50:15"},{"task":"memory_phase","broad_category":"I","image_png":"I_Diorite_05.png","image_id":37,"category_name":"Diorite","category":3,"distinct_rating":3.08,"distinct_type":"Bottom","rt":null,"stimulus":"Stimuli_Rocks480/I_Diorite_05.png","response":null,"trial_type":"image-keyboard-response","trial_index":63,"plugin_version":"2.1.0","time_elapsed":111547,"subject_id":"91566","group":"Group1","condition":"1_Rep","full_date":"2026-02-22T16:50:15.020Z","date":"2026-02-22","time":"16:50:15"},{"rt":null,"stimulus":"<p style=\"font-size: 50px; margin: 0; text-align: center;\">+</p>","response":null,"trial_type":"html-keyboard-response","trial_index":64,"plugin_version":"2.1.0","time_elapsed":112562,"subject_id":"91566","group":"Group1","condition":"1_Rep","full_date":"2026-02-22T16:50:15.020Z","date":"2026-02-22","time":"16:50:15"},{"task":"memory_phase","broad_category":"M","image_png":"M_Quartzite_13.png","image_id":285,"category_name":"Quartzite","category":18,"distinct_rating":2.27,"distinct_type":"Bottom","rt":null,"stimulus":"Stimuli_Rocks480/M_Quartzite_13.png","response":null,"trial_type":"image-keyboard-response","trial_index":65,"plugin_version":"2.1.0","time_elapsed":115080,"subject_id":"91566","group":"Group1","condition":"1_Rep","full_date":"2026-02-22T16:50:15.020Z","date":"2026-02-22","time":"16:50:15"},{"rt":null,"stimulus":"<p style=\"font-size: 50px; margin: 0; text-align: center;\">+</p>","response":null,"trial_type":"html-keyboard-response","trial_index":66,"plugin_version":"2.1.0","time_elapsed":116082,"subject_id":"91566","group":"Group1","condition":"1_Rep","full_date":"2026-02-22T16:50:15.020Z","date":"2026-02-22","time":"16:50:15"},{"task":"memory_phase","broad_category":"S","image_png":"S_Rock Salt_01.png","image_id":433,"category_name":"Rock Salt","category":28,"distinct_rating":7.18,"distinct_type":"Top","rt":null,"stimulus":"Stimuli_Rocks480/S_Rock Salt_01.png","response":null,"trial_type":"image-keyboard-response","trial_index":67,"plugin_version":"2.1.0","time_elapsed":118585,"subject_id":"91566","group":"Group1","condition":"1_Rep","full_date":"2026-02-22T16:50:15.020Z","date":"2026-02-22","time":"16:50:15"},{"rt":null,"stimulus":"<p style=\"font-size: 50px; margin: 0; text-align: center;\">+</p>","response":null,"trial_type":"html-keyboard-response","trial_index":68,"plugin_version":"2.1.0","time_elapsed":119597,"subject_id":"91566","group":"Group1","condition":"1_Rep","full_date":"2026-02-22T16:50:15.020Z","date":"2026-02-22","time":"16:50:15"},{"task":"memory_phase","broad_category":"I","image_png":"I_Rhyolite_16.png","image_id":160,"category_name":"Rhyolite","category":10,"distinct_rating":2.19,"distinct_type":"Bottom","rt":null,"stimulus":"Stimuli_Rocks480/I_Rhyolite_16.png","response":null,"trial_type":"image-keyboard-response","trial_index":69,"plugin_version":"2.1.0","time_elapsed":122107,"subject_id":"91566","group":"Group1","condition":"1_Rep","full_date":"2026-02-22T16:50:15.020Z","date":"2026-02-22","time":"16:50:15"},{"rt":null,"stimulus":"<p style=\"font-size: 50px; margin: 0; text-align: center;\">+</p>","response":null,"trial_type":"html-keyboard-response","trial_index":70,"plugin_version":"2.1.0","time_elapsed":123113,"subject_id":"91566","group":"Group1","condition":"1_Rep","full_date":"2026-02-22T16:50:15.020Z","date":"2026-02-22","time":"16:50:15"},{"task":"memory_phase","broad_category":"M","image_png":"M_Marble_16.png","image_id":240,"category_name":"Marble","category":15,"distinct_rating":2.57,"distinct_type":"Bottom","rt":null,"stimulus":"Stimuli_Rocks480/M_Marble_16.png","response":null,"trial_type":"image-keyboard-response","trial_index":71,"plugin_version":"2.1.0","time_elapsed":125630,"subject_id":"91566","group":"Group1","condition":"1_Rep","full_date":"2026-02-22T16:50:15.020Z","date":"2026-02-22","time":"16:50:15"},{"rt":null,"stimulus":"<p style=\"font-size: 50px; margin: 0; text-align: center;\">+</p>","response":null,"trial_type":"html-keyboard-response","trial_index":72,"plugin_version":"2.1.0","time_elapsed":126648,"subject_id":"91566","group":"Group1","condition":"1_Rep","full_date":"2026-02-22T16:50:15.020Z","date":"2026-02-22","time":"16:50:15"},{"task":"memory_phase","broad_category":"M","image_png":"M_Phyllite_10.png","image_id":266,"category_name":"Phyllite","category":17,"distinct_rating":2.6,"distinct_type":"Bottom","rt":null,"stimulus":"Stimuli_Rocks480/M_Phyllite_10.png","response":null,"trial_type":"image-keyboard-response","trial_index":73,"plugin_version":"2.1.0","time_elapsed":129163,"subject_id":"91566","group":"Group1","condition":"1_Rep","full_date":"2026-02-22T16:50:15.020Z","date":"2026-02-22","time":"16:50:15"},{"rt":null,"stimulus":"<p style=\"font-size: 50px; margin: 0; text-align: center;\">+</p>","response":null,"trial_type":"html-keyboard-response","trial_index":74,"plugin_version":"2.1.0","time_elapsed":130181,"subject_id":"91566","group":"Group1","condition":"1_Rep","full_date":"2026-02-22T16:50:15.020Z","date":"2026-02-22","time":"16:50:15"},{"task":"memory_phase","broad_category":"M","image_png":"M_Marble_06.png","image_id":230,"category_name":"Marble","category":15,"distinct_rating":3.4,"distinct_type":"Bottom","rt":null,"stimulus":"Stimuli_Rocks480/M_Marble_06.png","response":null,"trial_type":"image-keyboard-response","trial_index":75,"plugin_version":"2.1.0","time_elapsed":132695,"subject_id":"91566","group":"Group1","condition":"1_Rep","full_date":"2026-02-22T16:50:15.020Z","date":"2026-02-22","time":"16:50:15"},{"rt":null,"stimulus":"<p style=\"font-size: 50px; margin: 0; text-align: center;\">+</p>","response":null,"trial_type":"html-keyboard-response","trial_index":76,"plugin_version":"2.1.0","time_elapsed":133711,"subject_id":"91566","group":"Group1","condition":"1_Rep","full_date":"2026-02-22T16:50:15.020Z","date":"2026-02-22","time":"16:50:15"},{"task":"memory_phase","broad_category":"I","image_png":"I_Andesite_10.png","image_id":10,"category_name":"Andesite","category":1,"distinct_rating":3.15,"distinct_type":"Bottom","rt":null,"stimulus":"Stimuli_Rocks480/I_Andesite_10.png","response":null,"trial_type":"image-keyboard-response","trial_index":77,"plugin_version":"2.1.0","time_elapsed":136226,"subject_id":"91566","group":"Group1","condition":"1_Rep","full_date":"2026-02-22T16:50:15.020Z","date":"2026-02-22","time":"16:50:15"},{"rt":null,"stimulus":"<p style=\"font-size: 50px; margin: 0; text-align: center;\">+</p>","response":null,"trial_type":"html-keyboard-response","trial_index":78,"plugin_version":"2.1.0","time_elapsed":137230,"subject_id":"91566","group":"Group1","condition":"1_Rep","full_date":"2026-02-22T16:50:15.020Z","date":"2026-02-22","time":"16:50:15"},{"task":"memory_phase","broad_category":"I","image_png":"I_Gabbro_11.png","image_id":59,"category_name":"Gabbro","category":4,"distinct_rating":1.99,"distinct_type":"Bottom","rt":null,"stimulus":"Stimuli_Rocks480/I_Gabbro_11.png","response":null,"trial_type":"image-keyboard-response","trial_index":79,"plugin_version":"2.1.0","time_elapsed":139742,"subject_id":"91566","group":"Group1","condition":"1_Rep","full_date":"2026-02-22T16:50:15.020Z","date":"2026-02-22","time":"16:50:15"},{"rt":null,"stimulus":"<p style=\"font-size: 50px; margin: 0; text-align: center;\">+</p>","response":null,"trial_type":"html-keyboard-response","trial_index":80,"plugin_version":"2.1.0","time_elapsed":140743,"subject_id":"91566","group":"Group1","condition":"1_Rep","full_date":"2026-02-22T16:50:15.020Z","date":"2026-02-22","time":"16:50:15"},{"task":"memory_phase","broad_category":"M","image_png":"M_Slate_03.png","image_id":307,"category_name":"Slate","category":20,"distinct_rating":1.87,"distinct_type":"Bottom","rt":null,"stimulus":"Stimuli_Rocks480/M_Slate_03.png","response":null,"trial_type":"image-keyboard-response","trial_index":81,"plugin_version":"2.1.0","time_elapsed":143245,"subject_id":"91566","group":"Group1","condition":"1_Rep","full_date":"2026-02-22T16:50:15.020Z","date":"2026-02-22","time":"16:50:15"},{"rt":null,"stimulus":"<p style=\"font-size: 50px; margin: 0; text-align: center;\">+</p>","response":null,"trial_type":"html-keyboard-response","trial_index":82,"plugin_version":"2.1.0","time_elapsed":144247,"subject_id":"91566","group":"Group1","condition":"1_Rep","full_date":"2026-02-22T16:50:15.020Z","date":"2026-02-22","time":"16:50:15"},{"task":"memory_phase","broad_category":"M","image_png":"M_Phyllite_07.png","image_id":263,"category_name":"Phyllite","category":17,"distinct_rating":2.59,"distinct_type":"Bottom","rt":null,"stimulus":"Stimuli_Rocks480/M_Phyllite_07.png","response":null,"trial_type":"image-keyboard-response","trial_index":83,"plugin_version":"2.1.0","time_elapsed":146761,"subject_id":"91566","group":"Group1","condition":"1_Rep","full_date":"2026-02-22T16:50:15.020Z","date":"2026-02-22","time":"16:50:15"},{"rt":null,"stimulus":"<p style=\"font-size: 50px; margin: 0; text-align: center;\">+</p>","response":null,"trial_type":"html-keyboard-response","trial_index":84,"plugin_version":"2.1.0","time_elapsed":147763,"subject_id":"91566","group":"Group1","condition":"1_Rep","full_date":"2026-02-22T16:50:15.020Z","date":"2026-02-22","time":"16:50:15"},{"task":"memory_phase","broad_category":"I","image_png":"I_Basalt_09.png","image_id":25,"category_name":"Basalt","category":2,"distinct_rating":1.89,"distinct_type":"Bottom","rt":null,"stimulus":"Stimuli_Rocks480/I_Basalt_09.png","response":null,"trial_type":"image-keyboard-response","trial_index":85,"plugin_version":"2.1.0","time_elapsed":150279,"subject_id":"91566","group":"Group1","condition":"1_Rep","full_date":"2026-02-22T16:50:15.020Z","date":"2026-02-22","time":"16:50:15"},{"rt":null,"stimulus":"<p style=\"font-size: 50px; margin: 0; text-align: center;\">+</p>","response":null,"trial_type":"html-keyboard-response","trial_index":86,"plugin_version":"2.1.0","time_elapsed":151298,"subject_id":"91566","group":"Group1","condition":"1_Rep","full_date":"2026-02-22T16:50:15.020Z","date":"2026-02-22","time":"16:50:15"},{"task":"memory_phase","broad_category":"M","image_png":"M_Phyllite_03.png","image_id":259,"category_name":"Phyllite","category":17,"distinct_rating":2.5,"distinct_type":"Bottom","rt":null,"stimulus":"Stimuli_Rocks480/M_Phyllite_03.png","response":null,"trial_type":"image-keyboard-response","trial_index":87,"plugin_version":"2.1.0","time_elapsed":153801,"subject_id":"91566","group":"Group1","condition":"1_Rep","full_date":"2026-02-22T16:50:15.020Z","date":"2026-02-22","time":"16:50:15"},{"rt":null,"stimulus":"<p style=\"font-size: 50px; margin: 0; text-align: center;\">+</p>","response":null,"trial_type":"html-keyboard-response","trial_index":88,"plugin_version":"2.1.0","time_elapsed":154813,"subject_id":"91566","group":"Group1","condition":"1_Rep","full_date":"2026-02-22T16:50:15.020Z","date":"2026-02-22","time":"16:50:15"},{"task":"memory_phase","broad_category":"I","image_png":"I_Gabbro_16.png","image_id":64,"category_name":"Gabbro","category":4,"distinct_rating":2.52,"distinct_type":"Bottom","rt":null,"stimulus":"Stimuli_Rocks480/I_Gabbro_16.png","response":null,"trial_type":"image-keyboard-response","trial_index":89,"plugin_version":"2.1.0","time_elapsed":157331,"subject_id":"91566","group":"Group1","condition":"1_Rep","full_date":"2026-02-22T16:50:15.020Z","date":"2026-02-22","time":"16:50:15"},{"rt":null,"stimulus":"<p style=\"font-size: 50px; margin: 0; text-align: center;\">+</p>","response":null,"trial_type":"html-keyboard-response","trial_index":90,"plugin_version":"2.1.0","time_elapsed":158342,"subject_id":"91566","group":"Group1","condition":"1_Rep","full_date":"2026-02-22T16:50:15.020Z","date":"2026-02-22","time":"16:50:15"},{"task":"memory_phase","broad_category":"I","image_png":"I_Rhyolite_14.png","image_id":158,"category_name":"Rhyolite","category":10,"distinct_rating":2.59,"distinct_type":"Bottom","rt":null,"stimulus":"Stimuli_Rocks480/I_Rhyolite_14.png","response":null,"trial_type":"image-keyboard-response","trial_index":91,"plugin_version":"2.1.0","time_elapsed":160848,"subject_id":"91566","group":"Group1","condition":"1_Rep","full_date":"2026-02-22T16:50:15.020Z","date":"2026-02-22","time":"16:50:15"},{"rt":null,"stimulus":"<p style=\"font-size: 50px; margin: 0; text-align: center;\">+</p>","response":null,"trial_type":"html-keyboard-response","trial_index":92,"plugin_version":"2.1.0","time_elapsed":161865,"subject_id":"91566","group":"Group1","condition":"1_Rep","full_date":"2026-02-22T16:50:15.020Z","date":"2026-02-22","time":"16:50:15"},{"task":"memory_phase","broad_category":"S","image_png":"S_Sandstone_16.png","image_id":464,"category_name":"Sandstone","category":29,"distinct_rating":1.93,"distinct_type":"Bottom","rt":null,"stimulus":"Stimuli_Rocks480/S_Sandstone_16.png","response":null,"trial_type":"image-keyboard-response","trial_index":93,"plugin_version":"2.1.0","time_elapsed":164380,"subject_id":"91566","group":"Group1","condition":"1_Rep","full_date":"2026-02-22T16:50:15.020Z","date":"2026-02-22","time":"16:50:15"},{"rt":null,"stimulus":"<p style=\"font-size: 50px; margin: 0; text-align: center;\">+</p>","response":null,"trial_type":"html-keyboard-response","trial_index":94,"plugin_version":"2.1.0","time_elapsed":165382,"subject_id":"91566","group":"Group1","condition":"1_Rep","full_date":"2026-02-22T16:50:15.020Z","date":"2026-02-22","time":"16:50:15"},{"task":"memory_phase","broad_category":"I","image_png":"I_Pegmatite_10.png","image_id":106,"category_name":"Pegmatite","category":7,"distinct_rating":7.66,"distinct_type":"Top","rt":null,"stimulus":"Stimuli_Rocks480/I_Pegmatite_10.png","response":null,"trial_type":"image-keyboard-response","trial_index":95,"plugin_version":"2.1.0","time_elapsed":167898,"subject_id":"91566","group":"Group1","condition":"1_Rep","full_date":"2026-02-22T16:50:15.020Z","date":"2026-02-22","time":"16:50:15"},{"rt":null,"stimulus":"<p style=\"font-size: 50px; margin: 0; text-align: center;\">+</p>","response":null,"trial_type":"html-keyboard-response","trial_index":96,"plugin_version":"2.1.0","time_elapsed":168912,"subject_id":"91566","group":"Group1","condition":"1_Rep","full_date":"2026-02-22T16:50:15.020Z","date":"2026-02-22","time":"16:50:15"},{"task":"memory_phase","broad_category":"I","image_png":"I_Pumice_11.png","image_id":139,"category_name":"Pumice","category":9,"distinct_rating":1.74,"distinct_type":"Bottom","rt":null,"stimulus":"Stimuli_Rocks480/I_Pumice_11.png","response":null,"trial_type":"image-keyboard-response","trial_index":97,"plugin_version":"2.1.0","time_elapsed":171426,"subject_id":"91566","group":"Group1","condition":"1_Rep","full_date":"2026-02-22T16:50:15.020Z","date":"2026-02-22","time":"16:50:15"},{"rt":null,"stimulus":"<p style=\"font-size: 50px; margin: 0; text-align: center;\">+</p>","response":null,"trial_type":"html-keyboard-response","trial_index":98,"plugin_version":"2.1.0","time_elapsed":172431,"subject_id":"91566","group":"Group1","condition":"1_Rep","full_date":"2026-02-22T16:50:15.020Z","date":"2026-02-22","time":"16:50:15"},{"task":"memory_phase","broad_category":"I","image_png":"I_Diorite_03.png","image_id":35,"category_name":"Diorite","category":3,"distinct_rating":3.14,"distinct_type":"Bottom","rt":null,"stimulus":"Stimuli_Rocks480/I_Diorite_03.png","response":null,"trial_type":"image-keyboard-response","trial_index":99,"plugin_version":"2.1.0","time_elapsed":174948,"subject_id":"91566","group":"Group1","condition":"1_Rep","full_date":"2026-02-22T16:50:15.020Z","date":"2026-02-22","time":"16:50:15"},{"rt":null,"stimulus":"<p style=\"font-size: 50px; margin: 0; text-align: center;\">+</p>","response":null,"trial_type":"html-keyboard-response","trial_index":100,"plugin_version":"2.1.0","time_elapsed":175955,"subject_id":"91566","group":"Group1","condition":"1_Rep","full_date":"2026-02-22T16:50:15.020Z","date":"2026-02-22","time":"16:50:15"},{"task":"memory_phase","broad_category":"M","image_png":"M_Quartzite_05.png","image_id":277,"category_name":"Quartzite","category":18,"distinct_rating":2.23,"distinct_type":"Bottom","rt":null,"stimulus":"Stimuli_Rocks480/M_Quartzite_05.png","response":null,"trial_type":"image-keyboard-response","trial_index":101,"plugin_version":"2.1.0","time_elapsed":178464,"subject_id":"91566","group":"Group1","condition":"1_Rep","full_date":"2026-02-22T16:50:15.020Z","date":"2026-02-22","time":"16:50:15"},{"rt":null,"stimulus":"<p style=\"font-size: 50px; margin: 0; text-align: center;\">+</p>","response":null,"trial_type":"html-keyboard-response","trial_index":102,"plugin_version":"2.1.0","time_elapsed":179482,"subject_id":"91566","group":"Group1","condition":"1_Rep","full_date":"2026-02-22T16:50:15.020Z","date":"2026-02-22","time":"16:50:15"},{"task":"memory_phase","broad_category":"S","image_png":"S_Rock Gypsum_04.png","image_id":420,"category_name":"Rock Gypsum","category":27,"distinct_rating":7.61,"distinct_type":"Top","rt":null,"stimulus":"Stimuli_Rocks480/S_Rock Gypsum_04.png","response":null,"trial_type":"image-keyboard-response","trial_index":103,"plugin_version":"2.1.0","time_elapsed":181998,"subject_id":"91566","group":"Group1","condition":"1_Rep","full_date":"2026-02-22T16:50:15.020Z","date":"2026-02-22","time":"16:50:15"},{"rt":null,"stimulus":"<p style=\"font-size: 50px; margin: 0; text-align: center;\">+</p>","response":null,"trial_type":"html-keyboard-response","trial_index":104,"plugin_version":"2.1.0","time_elapsed":183015,"subject_id":"91566","group":"Group1","condition":"1_Rep","full_date":"2026-02-22T16:50:15.020Z","date":"2026-02-22","time":"16:50:15"},{"task":"memory_phase","broad_category":"I","image_png":"I_Gabbro_08.png","image_id":56,"category_name":"Gabbro","category":4,"distinct_rating":3.02,"distinct_type":"Bottom","rt":null,"stimulus":"Stimuli_Rocks480/I_Gabbro_08.png","response":null,"trial_type":"image-keyboard-response","trial_index":105,"plugin_version":"2.1.0","time_elapsed":185530,"subject_id":"91566","group":"Group1","condition":"1_Rep","full_date":"2026-02-22T16:50:15.020Z","date":"2026-02-22","time":"16:50:15"},{"rt":17613,"stimulus":"<div style=\"max-width: 760px; margin: auto; font-size: 20px; line-height: 1.5;\">\n      <h1 style=\"text-align:center; font-size: 30px;\">Instructions for the Test Phase</h1>\n      <p>\n        The study phase is now complete.\n      </p>\n      <p>\n        In the test phase, you will again see a series of rock images. \n        Some will be ones you saw before - during the study phase, while others will be new.  \n        <b>Your task</b> is to decide whether you have seen each image before by pressing the corresponding key on your keyboard:<br><br>\n          <b>A</b> - NO (you did not see this image before)<br>\n          <b>L</b> - YES (you saw this image before)<br><br>\n        The test will proceed at your own pace. You will receive feedback after each response.  \n        Please try to respond <b>as accurately as possible</b>.\n      </p>\n      <p>\n        <b>Reminder:</b> If your computer has multiple language settings (e.g., English and another language),\n        please ensure it is set to English during the test phase.\n      </p>\n      <p>\n        You can track your progress using the <b>completion bar</b> at the top of the screen.  \n        Note that it has been refreshed to reflect your progress during this final phase.\n      </p>\n      <p>\n        Press the button below when you are ready to continue.\n      </p>\n    </div>","response":0,"trial_type":"html-button-response","trial_index":106,"plugin_version":"2.1.0","time_elapsed":203146,"subject_id":"91566","group":"Group1","condition":"1_Rep","full_date":"2026-02-22T16:50:15.020Z","date":"2026-02-22","time":"16:50:15"},{"correct_response":"l","task":"test_phase","broad_category":"I","image_png":"I_Gabbro_16.png","image_id":64,"category_name":"Gabbro","category":4,"distinct_rating":2.52,"distinct_type":"Bottom","item_type":"Target","rt":2905,"stimulus":"Stimuli_Rocks480/I_Gabbro_16.png","response":"l","trial_type":"image-keyboard-response","trial_index":107,"plugin_version":"2.1.0","time_elapsed":206055,"subject_id":"91566","group":"Group1","condition":"1_Rep","full_date":"2026-02-22T16:50:15.020Z","date":"2026-02-22","time":"16:50:15","cor_ans":true},{"trial_type":"html-keyboard-response","rt":null,"stimulus":"<p style=\"color: green; font-size: 50px; font-weight: bold;\">Correct</p>","response":null,"trial_index":108,"plugin_version":"2.1.0","time_elapsed":206565,"subject_id":"91566","group":"Group1","condition":"1_Rep","full_date":"2026-02-22T16:50:15.020Z","date":"2026-02-22","time":"16:50:15"},{"correct_response":"a","task":"test_phase","broad_category":"I","image_png":"I_Diorite_15.png","image_id":47,"category_name":"Diorite","category":3,"distinct_rating":3.05,"distinct_type":"Bottom","item_type":"Foil","rt":3367,"stimulus":"Stimuli_Rocks480/I_Diorite_15.png","response":"l","trial_type":"image-keyboard-response","trial_index":109,"plugin_version":"2.1.0","time_elapsed":209934,"subject_id":"91566","group":"Group1","condition":"1_Rep","full_date":"2026-02-22T16:50:15.020Z","date":"2026-02-22","time":"16:50:15","cor_ans":false},{"trial_type":"html-keyboard-response","rt":null,"stimulus":"<p style=\"color: red; font-size: 50px; font-weight: bold;\">Incorrect</p>","response":null,"trial_index":110,"plugin_version":"2.1.0","time_elapsed":210449,"subject_id":"91566","group":"Group1","condition":"1_Rep","full_date":"2026-02-22T16:50:15.020Z","date":"2026-02-22","time":"16:50:15"},{"correct_response":"l","task":"test_phase","broad_category":"M","image_png":"M_Marble_04.png","image_id":228,"category_name":"Marble","category":15,"distinct_rating":3.15,"distinct_type":"Bottom","item_type":"Target","rt":1893,"stimulus":"Stimuli_Rocks480/M_Marble_04.png","response":"l","trial_type":"image-keyboard-response","trial_index":111,"plugin_version":"2.1.0","time_elapsed":212344,"subject_id":"91566","group":"Group1","condition":"1_Rep","full_date":"2026-02-22T16:50:15.020Z","date":"2026-02-22","time":"16:50:15","cor_ans":true},{"trial_type":"html-keyboard-response","rt":null,"stimulus":"<p style=\"color: green; font-size: 50px; font-weight: bold;\">Correct</p>","response":null,"trial_index":112,"plugin_version":"2.1.0","time_elapsed":212847,"subject_id":"91566","group":"Group1","condition":"1_Rep","full_date":"2026-02-22T16:50:15.020Z","date":"2026-02-22","time":"16:50:15"},{"correct_response":"a","task":"test_phase","broad_category":"S","image_png":"S_Sandstone_04.png","image_id":452,"category_name":"Sandstone","category":29,"distinct_rating":1.8,"distinct_type":"Bottom","item_type":"Foil","rt":1827,"stimulus":"Stimuli_Rocks480/S_Sandstone_04.png","response":"a","trial_type":"image-keyboard-response","trial_index":113,"plugin_version":"2.1.0","time_elapsed":214676,"subject_id":"91566","group":"Group1","condition":"1_Rep","full_date":"2026-02-22T16:50:15.020Z","date":"2026-02-22","time":"16:50:15","cor_ans":true},{"trial_type":"html-keyboard-response","rt":null,"stimulus":"<p style=\"color: green; font-size: 50px; font-weight: bold;\">Correct</p>","response":null,"trial_index":114,"plugin_version":"2.1.0","time_elapsed":215180,"subject_id":"91566","group":"Group1","condition":"1_Rep","full_date":"2026-02-22T16:50:15.020Z","date":"2026-02-22","time":"16:50:15"},{"correct_response":"l","task":"test_phase","broad_category":"M","image_png":"M_Quartzite_05.png","image_id":277,"category_name":"Quartzite","category":18,"distinct_rating":2.23,"distinct_type":"Bottom","item_type":"Target","rt":4835,"stimulus":"Stimuli_Rocks480/M_Quartzite_05.png","response":"l","trial_type":"image-keyboard-response","trial_index":115,"plugin_version":"2.1.0","time_elapsed":220018,"subject_id":"91566","group":"Group1","condition":"1_Rep","full_date":"2026-02-22T16:50:15.020Z","date":"2026-02-22","time":"16:50:15","cor_ans":true},{"trial_type":"html-keyboard-response","rt":null,"stimulus":"<p style=\"color: green; font-size: 50px; font-weight: bold;\">Correct</p>","response":null,"trial_index":116,"plugin_version":"2.1.0","time_elapsed":220532,"subject_id":"91566","group":"Group1","condition":"1_Rep","full_date":"2026-02-22T16:50:15.020Z","date":"2026-02-22","time":"16:50:15"},{"correct_response":"l","task":"test_phase","broad_category":"S","image_png":"S_Breccia_11.png","image_id":347,"category_name":"Breccia","category":22,"distinct_rating":6.7,"distinct_type":"Top","item_type":"Target","rt":2011,"stimulus":"Stimuli_Rocks480/S_Breccia_11.png","response":"l","trial_type":"image-keyboard-response","trial_index":117,"plugin_version":"2.1.0","time_elapsed":222545,"subject_id":"91566","group":"Group1","condition":"1_Rep","full_date":"2026-02-22T16:50:15.020Z","date":"2026-02-22","time":"16:50:15","cor_ans":true},{"trial_type":"html-keyboard-response","rt":null,"stimulus":"<p style=\"color: green; font-size: 50px; font-weight: bold;\">Correct</p>","response":null,"trial_index":118,"plugin_version":"2.1.0","time_elapsed":223049,"subject_id":"91566","group":"Group1","condition":"1_Rep","full_date":"2026-02-22T16:50:15.020Z","date":"2026-02-22","time":"16:50:15"},{"correct_response":"l","task":"test_phase","broad_category":"S","image_png":"S_Rock Salt_01.png","image_id":433,"category_name":"Rock Salt","category":28,"distinct_rating":7.18,"distinct_type":"Top","item_type":"Target","rt":922,"stimulus":"Stimuli_Rocks480/S_Rock Salt_01.png","response":"l","trial_type":"image-keyboard-response","trial_index":119,"plugin_version":"2.1.0","time_elapsed":223973,"subject_id":"91566","group":"Group1","condition":"1_Rep","full_date":"2026-02-22T16:50:15.020Z","date":"2026-02-22","time":"16:50:15","cor_ans":true},{"trial_type":"html-keyboard-response","rt":null,"stimulus":"<p style=\"color: green; font-size: 50px; font-weight: bold;\">Correct</p>","response":null,"trial_index":120,"plugin_version":"2.1.0","time_elapsed":224483,"subject_id":"91566","group":"Group1","condition":"1_Rep","full_date":"2026-02-22T16:50:15.020Z","date":"2026-02-22","time":"16:50:15"},{"correct_response":"l","task":"test_phase","broad_category":"S","image_png":"S_Shale_08.png","image_id":472,"category_name":"Shale","category":30,"distinct_rating":2.55,"distinct_type":"Bottom","item_type":"Target","rt":1441,"stimulus":"Stimuli_Rocks480/S_Shale_08.png","response":"a","trial_type":"image-keyboard-response","trial_index":121,"plugin_version":"2.1.0","time_elapsed":225926,"subject_id":"91566","group":"Group1","condition":"1_Rep","full_date":"2026-02-22T16:50:15.020Z","date":"2026-02-22","time":"16:50:15","cor_ans":false},{"trial_type":"html-keyboard-response","rt":null,"stimulus":"<p style=\"color: red; font-size: 50px; font-weight: bold;\">Incorrect</p>","response":null,"trial_index":122,"plugin_version":"2.1.0","time_elapsed":226432,"subject_id":"91566","group":"Group1","condition":"1_Rep","full_date":"2026-02-22T16:50:15.020Z","date":"2026-02-22","time":"16:50:15"},{"correct_response":"a","task":"test_phase","broad_category":"I","image_png":"I_Gabbro_12.png","image_id":60,"category_name":"Gabbro","category":4,"distinct_rating":2.6,"distinct_type":"Bottom","item_type":"Foil","rt":1665,"stimulus":"Stimuli_Rocks480/I_Gabbro_12.png","response":"l","trial_type":"image-keyboard-response","trial_index":123,"plugin_version":"2.1.0","time_elapsed":228098,"subject_id":"91566","group":"Group1","condition":"1_Rep","full_date":"2026-02-22T16:50:15.020Z","date":"2026-02-22","time":"16:50:15","cor_ans":false},{"trial_type":"html-keyboard-response","rt":null,"stimulus":"<p style=\"color: red; font-size: 50px; font-weight: bold;\">Incorrect</p>","response":null,"trial_index":124,"plugin_version":"2.1.0","time_elapsed":228616,"subject_id":"91566","group":"Group1","condition":"1_Rep","full_date":"2026-02-22T16:50:15.020Z","date":"2026-02-22","time":"16:50:15"},{"correct_response":"a","task":"test_phase","broad_category":"I","image_png":"I_Andesite_09.png","image_id":9,"category_name":"Andesite","category":1,"distinct_rating":2.49,"distinct_type":"Bottom","item_type":"Foil","rt":2599,"stimulus":"Stimuli_Rocks480/I_Andesite_09.png","response":"a","trial_type":"image-keyboard-response","trial_index":125,"plugin_version":"2.1.0","time_elapsed":231217,"subject_id":"91566","group":"Group1","condition":"1_Rep","full_date":"2026-02-22T16:50:15.020Z","date":"2026-02-22","time":"16:50:15","cor_ans":true},{"trial_type":"html-keyboard-response","rt":null,"stimulus":"<p style=\"color: green; font-size: 50px; font-weight: bold;\">Correct</p>","response":null,"trial_index":126,"plugin_version":"2.1.0","time_elapsed":231732,"subject_id":"91566","group":"Group1","condition":"1_Rep","full_date":"2026-02-22T16:50:15.020Z","date":"2026-02-22","time":"16:50:15"},{"correct_response":"l","task":"test_phase","broad_category":"I","image_png":"I_Andesite_10.png","image_id":10,"category_name":"Andesite","category":1,"distinct_rating":3.15,"distinct_type":"Bottom","item_type":"Target","rt":1009,"stimulus":"Stimuli_Rocks480/I_Andesite_10.png","response":"a","trial_type":"image-keyboard-response","trial_index":127,"plugin_version":"2.1.0","time_elapsed":232743,"subject_id":"91566","group":"Group1","condition":"1_Rep","full_date":"2026-02-22T16:50:15.020Z","date":"2026-02-22","time":"16:50:15","cor_ans":false},{"trial_type":"html-keyboard-response","rt":null,"stimulus":"<p style=\"color: red; font-size: 50px; font-weight: bold;\">Incorrect</p>","response":null,"trial_index":128,"plugin_version":"2.1.0","time_elapsed":233247,"subject_id":"91566","group":"Group1","condition":"1_Rep","full_date":"2026-02-22T16:50:15.020Z","date":"2026-02-22","time":"16:50:15"},{"correct_response":"l","task":"test_phase","broad_category":"I","image_png":"I_Andesite_08.png","image_id":8,"category_name":"Andesite","category":1,"distinct_rating":1.95,"distinct_type":"Bottom","item_type":"Target","rt":2313,"stimulus":"Stimuli_Rocks480/I_Andesite_08.png","response":"l","trial_type":"image-keyboard-response","trial_index":129,"plugin_version":"2.1.0","time_elapsed":235562,"subject_id":"91566","group":"Group1","condition":"1_Rep","full_date":"2026-02-22T16:50:15.020Z","date":"2026-02-22","time":"16:50:15","cor_ans":true},{"trial_type":"html-keyboard-response","rt":null,"stimulus":"<p style=\"color: green; font-size: 50px; font-weight: bold;\">Correct</p>","response":null,"trial_index":130,"plugin_version":"2.1.0","time_elapsed":236065,"subject_id":"91566","group":"Group1","condition":"1_Rep","full_date":"2026-02-22T16:50:15.020Z","date":"2026-02-22","time":"16:50:15"},{"correct_response":"a","task":"test_phase","broad_category":"S","image_png":"S_Conglomerate_14.png","image_id":382,"category_name":"Conglomerate","category":24,"distinct_rating":6.86,"distinct_type":"Top","item_type":"Foil","rt":1614,"stimulus":"Stimuli_Rocks480/S_Conglomerate_14.png","response":"a","trial_type":"image-keyboard-response","trial_index":131,"plugin_version":"2.1.0","time_elapsed":237682,"subject_id":"91566","group":"Group1","condition":"1_Rep","full_date":"2026-02-22T16:50:15.020Z","date":"2026-02-22","time":"16:50:15","cor_ans":true},{"trial_type":"html-keyboard-response","rt":null,"stimulus":"<p style=\"color: green; font-size: 50px; font-weight: bold;\">Correct</p>","response":null,"trial_index":132,"plugin_version":"2.1.0","time_elapsed":238183,"subject_id":"91566","group":"Group1","condition":"1_Rep","full_date":"2026-02-22T16:50:15.020Z","date":"2026-02-22","time":"16:50:15"},{"correct_response":"l","task":"test_phase","broad_category":"S","image_png":"S_Shale_01.png","image_id":465,"category_name":"Shale","category":30,"distinct_rating":2.7,"distinct_type":"Bottom","item_type":"Target","rt":1193,"stimulus":"Stimuli_Rocks480/S_Shale_01.png","response":"a","trial_type":"image-keyboard-response","trial_index":133,"plugin_version":"2.1.0","time_elapsed":239378,"subject_id":"91566","group":"Group1","condition":"1_Rep","full_date":"2026-02-22T16:50:15.020Z","date":"2026-02-22","time":"16:50:15","cor_ans":false},{"trial_type":"html-keyboard-response","rt":null,"stimulus":"<p style=\"color: red; font-size: 50px; font-weight: bold;\">Incorrect</p>","response":null,"trial_index":134,"plugin_version":"2.1.0","time_elapsed":239882,"subject_id":"91566","group":"Group1","condition":"1_Rep","full_date":"2026-02-22T16:50:15.020Z","date":"2026-02-22","time":"16:50:15"},{"correct_response":"a","task":"test_phase","broad_category":"I","image_png":"I_Gabbro_02.png","image_id":50,"category_name":"Gabbro","category":4,"distinct_rating":2.73,"distinct_type":"Bottom","item_type":"Foil","rt":1372,"stimulus":"Stimuli_Rocks480/I_Gabbro_02.png","response":"a","trial_type":"image-keyboard-response","trial_index":135,"plugin_version":"2.1.0","time_elapsed":241255,"subject_id":"91566","group":"Group1","condition":"1_Rep","full_date":"2026-02-22T16:50:15.020Z","date":"2026-02-22","time":"16:50:15","cor_ans":true},{"trial_type":"html-keyboard-response","rt":null,"stimulus":"<p style=\"color: green; font-size: 50px; font-weight: bold;\">Correct</p>","response":null,"trial_index":136,"plugin_version":"2.1.0","time_elapsed":241757,"subject_id":"91566","group":"Group1","condition":"1_Rep","full_date":"2026-02-22T16:50:15.020Z","date":"2026-02-22","time":"16:50:15"},{"correct_response":"l","task":"test_phase","broad_category":"I","image_png":"I_Basalt_01.png","image_id":17,"category_name":"Basalt","category":2,"distinct_rating":1.92,"distinct_type":"Bottom","item_type":"Target","rt":1100,"stimulus":"Stimuli_Rocks480/I_Basalt_01.png","response":"l","trial_type":"image-keyboard-response","trial_index":137,"plugin_version":"2.1.0","time_elapsed":242859,"subject_id":"91566","group":"Group1","condition":"1_Rep","full_date":"2026-02-22T16:50:15.020Z","date":"2026-02-22","time":"16:50:15","cor_ans":true},{"trial_type":"html-keyboard-response","rt":null,"stimulus":"<p style=\"color: green; font-size: 50px; font-weight: bold;\">Correct</p>","response":null,"trial_index":138,"plugin_version":"2.1.0","time_elapsed":243366,"subject_id":"91566","group":"Group1","condition":"1_Rep","full_date":"2026-02-22T16:50:15.020Z","date":"2026-02-22","time":"16:50:15"},{"correct_response":"a","task":"test_phase","broad_category":"S","image_png":"S_Dolomite_01.png","image_id":385,"category_name":"Dolomite","category":25,"distinct_rating":1.43,"distinct_type":"Bottom","item_type":"Foil","rt":2185,"stimulus":"Stimuli_Rocks480/S_Dolomite_01.png","response":"a","trial_type":"image-keyboard-response","trial_index":139,"plugin_version":"2.1.0","time_elapsed":245553,"subject_id":"91566","group":"Group1","condition":"1_Rep","full_date":"2026-02-22T16:50:15.020Z","date":"2026-02-22","time":"16:50:15","cor_ans":true},{"trial_type":"html-keyboard-response","rt":null,"stimulus":"<p style=\"color: green; font-size: 50px; font-weight: bold;\">Correct</p>","response":null,"trial_index":140,"plugin_version":"2.1.0","time_elapsed":246065,"subject_id":"91566","group":"Group1","condition":"1_Rep","full_date":"2026-02-22T16:50:15.020Z","date":"2026-02-22","time":"16:50:15"},{"correct_response":"a","task":"test_phase","broad_category":"I","image_png":"I_Peridotite_13.png","image_id":125,"category_name":"Peridotite","category":8,"distinct_rating":7.28,"distinct_type":"Top","item_type":"Foil","rt":947,"stimulus":"Stimuli_Rocks480/I_Peridotite_13.png","response":"a","trial_type":"image-keyboard-response","trial_index":141,"plugin_version":"2.1.0","time_elapsed":247013,"subject_id":"91566","group":"Group1","condition":"1_Rep","full_date":"2026-02-22T16:50:15.020Z","date":"2026-02-22","time":"16:50:15","cor_ans":true},{"trial_type":"html-keyboard-response","rt":null,"stimulus":"<p style=\"color: green; font-size: 50px; font-weight: bold;\">Correct</p>","response":null,"trial_index":142,"plugin_version":"2.1.0","time_elapsed":247515,"subject_id":"91566","group":"Group1","condition":"1_Rep","full_date":"2026-02-22T16:50:15.020Z","date":"2026-02-22","time":"16:50:15"},{"correct_response":"l","task":"test_phase","broad_category":"I","image_png":"I_Pumice_08.png","image_id":136,"category_name":"Pumice","category":9,"distinct_rating":3.1,"distinct_type":"Bottom","item_type":"Target","rt":891,"stimulus":"Stimuli_Rocks480/I_Pumice_08.png","response":"a","trial_type":"image-keyboard-response","trial_index":143,"plugin_version":"2.1.0","time_elapsed":248408,"subject_id":"91566","group":"Group1","condition":"1_Rep","full_date":"2026-02-22T16:50:15.020Z","date":"2026-02-22","time":"16:50:15","cor_ans":false},{"trial_type":"html-keyboard-response","rt":null,"stimulus":"<p style=\"color: red; font-size: 50px; font-weight: bold;\">Incorrect</p>","response":null,"trial_index":144,"plugin_version":"2.1.0","time_elapsed":248916,"subject_id":"91566","group":"Group1","condition":"1_Rep","full_date":"2026-02-22T16:50:15.020Z","date":"2026-02-22","time":"16:50:15"},{"correct_response":"a","task":"test_phase","broad_category":"I","image_png":"I_Andesite_03.png","image_id":3,"category_name":"Andesite","category":1,"distinct_rating":3.17,"distinct_type":"Bottom","item_type":"Foil","rt":1027,"stimulus":"Stimuli_Rocks480/I_Andesite_03.png","response":"a","trial_type":"image-keyboard-response","trial_index":145,"plugin_version":"2.1.0","time_elapsed":249944,"subject_id":"91566","group":"Group1","condition":"1_Rep","full_date":"2026-02-22T16:50:15.020Z","date":"2026-02-22","time":"16:50:15","cor_ans":true},{"trial_type":"html-keyboard-response","rt":null,"stimulus":"<p style=\"color: green; font-size: 50px; font-weight: bold;\">Correct</p>","response":null,"trial_index":146,"plugin_version":"2.1.0","time_elapsed":250449,"subject_id":"91566","group":"Group1","condition":"1_Rep","full_date":"2026-02-22T16:50:15.020Z","date":"2026-02-22","time":"16:50:15"},{"correct_response":"l","task":"test_phase","broad_category":"M","image_png":"M_Quartzite_13.png","image_id":285,"category_name":"Quartzite","category":18,"distinct_rating":2.27,"distinct_type":"Bottom","item_type":"Target","rt":1097,"stimulus":"Stimuli_Rocks480/M_Quartzite_13.png","response":"l","trial_type":"image-keyboard-response","trial_index":147,"plugin_version":"2.1.0","time_elapsed":251548,"subject_id":"91566","group":"Group1","condition":"1_Rep","full_date":"2026-02-22T16:50:15.020Z","date":"2026-02-22","time":"16:50:15","cor_ans":true},{"trial_type":"html-keyboard-response","rt":null,"stimulus":"<p style=\"color: green; font-size: 50px; font-weight: bold;\">Correct</p>","response":null,"trial_index":148,"plugin_version":"2.1.0","time_elapsed":252066,"subject_id":"91566","group":"Group1","condition":"1_Rep","full_date":"2026-02-22T16:50:15.020Z","date":"2026-02-22","time":"16:50:15"},{"correct_response":"l","task":"test_phase","broad_category":"M","image_png":"M_Gneiss_05.png","image_id":197,"category_name":"Gneiss","category":13,"distinct_rating":2.97,"distinct_type":"Bottom","item_type":"Target","rt":2249,"stimulus":"Stimuli_Rocks480/M_Gneiss_05.png","response":"l","trial_type":"image-keyboard-response","trial_index":149,"plugin_version":"2.1.0","time_elapsed":254317,"subject_id":"91566","group":"Group1","condition":"1_Rep","full_date":"2026-02-22T16:50:15.020Z","date":"2026-02-22","time":"16:50:15","cor_ans":true},{"trial_type":"html-keyboard-response","rt":null,"stimulus":"<p style=\"color: green; font-size: 50px; font-weight: bold;\">Correct</p>","response":null,"trial_index":150,"plugin_version":"2.1.0","time_elapsed":254833,"subject_id":"91566","group":"Group1","condition":"1_Rep","full_date":"2026-02-22T16:50:15.020Z","date":"2026-02-22","time":"16:50:15"},{"correct_response":"a","task":"test_phase","broad_category":"I","image_png":"I_Pegmatite_03.png","image_id":99,"category_name":"Pegmatite","category":7,"distinct_rating":7.24,"distinct_type":"Top","item_type":"Foil","rt":1207,"stimulus":"Stimuli_Rocks480/I_Pegmatite_03.png","response":"a","trial_type":"image-keyboard-response","trial_index":151,"plugin_version":"2.1.0","time_elapsed":256042,"subject_id":"91566","group":"Group1","condition":"1_Rep","full_date":"2026-02-22T16:50:15.020Z","date":"2026-02-22","time":"16:50:15","cor_ans":true},{"trial_type":"html-keyboard-response","rt":null,"stimulus":"<p style=\"color: green; font-size: 50px; font-weight: bold;\">Correct</p>","response":null,"trial_index":152,"plugin_version":"2.1.0","time_elapsed":256549,"subject_id":"91566","group":"Group1","condition":"1_Rep","full_date":"2026-02-22T16:50:15.020Z","date":"2026-02-22","time":"16:50:15"},{"correct_response":"a","task":"test_phase","broad_category":"I","image_png":"I_Pumice_14.png","image_id":142,"category_name":"Pumice","category":9,"distinct_rating":3.22,"distinct_type":"Bottom","item_type":"Foil","rt":939,"stimulus":"Stimuli_Rocks480/I_Pumice_14.png","response":"a","trial_type":"image-keyboard-response","trial_index":153,"plugin_version":"2.1.0","time_elapsed":257490,"subject_id":"91566","group":"Group1","condition":"1_Rep","full_date":"2026-02-22T16:50:15.020Z","date":"2026-02-22","time":"16:50:15","cor_ans":true},{"trial_type":"html-keyboard-response","rt":null,"stimulus":"<p style=\"color: green; font-size: 50px; font-weight: bold;\">Correct</p>","response":null,"trial_index":154,"plugin_version":"2.1.0","time_elapsed":257999,"subject_id":"91566","group":"Group1","condition":"1_Rep","full_date":"2026-02-22T16:50:15.020Z","date":"2026-02-22","time":"16:50:15"},{"correct_response":"l","task":"test_phase","broad_category":"I","image_png":"I_Obsidian_05.png","image_id":85,"category_name":"Obsidian","category":6,"distinct_rating":7.32,"distinct_type":"Top","item_type":"Target","rt":884,"stimulus":"Stimuli_Rocks480/I_Obsidian_05.png","response":"a","trial_type":"image-keyboard-response","trial_index":155,"plugin_version":"2.1.0","time_elapsed":258884,"subject_id":"91566","group":"Group1","condition":"1_Rep","full_date":"2026-02-22T16:50:15.020Z","date":"2026-02-22","time":"16:50:15","cor_ans":false},{"trial_type":"html-keyboard-response","rt":null,"stimulus":"<p style=\"color: red; font-size: 50px; font-weight: bold;\">Incorrect</p>","response":null,"trial_index":156,"plugin_version":"2.1.0","time_elapsed":259399,"subject_id":"91566","group":"Group1","condition":"1_Rep","full_date":"2026-02-22T16:50:15.020Z","date":"2026-02-22","time":"16:50:15"},{"correct_response":"l","task":"test_phase","broad_category":"I","image_png":"I_Rhyolite_16.png","image_id":160,"category_name":"Rhyolite","category":10,"distinct_rating":2.19,"distinct_type":"Bottom","item_type":"Target","rt":3245,"stimulus":"Stimuli_Rocks480/I_Rhyolite_16.png","response":"l","trial_type":"image-keyboard-response","trial_index":157,"plugin_version":"2.1.0","time_elapsed":262646,"subject_id":"91566","group":"Group1","condition":"1_Rep","full_date":"2026-02-22T16:50:15.020Z","date":"2026-02-22","time":"16:50:15","cor_ans":true},{"trial_type":"html-keyboard-response","rt":null,"stimulus":"<p style=\"color: green; font-size: 50px; font-weight: bold;\">Correct</p>","response":null,"trial_index":158,"plugin_version":"2.1.0","time_elapsed":263149,"subject_id":"91566","group":"Group1","condition":"1_Rep","full_date":"2026-02-22T16:50:15.020Z","date":"2026-02-22","time":"16:50:15"},{"correct_response":"a","task":"test_phase","broad_category":"M","image_png":"M_Gneiss_10.png","image_id":202,"category_name":"Gneiss","category":13,"distinct_rating":3.09,"distinct_type":"Bottom","item_type":"Foil","rt":1094,"stimulus":"Stimuli_Rocks480/M_Gneiss_10.png","response":"l","trial_type":"image-keyboard-response","trial_index":159,"plugin_version":"2.1.0","time_elapsed":264245,"subject_id":"91566","group":"Group1","condition":"1_Rep","full_date":"2026-02-22T16:50:15.020Z","date":"2026-02-22","time":"16:50:15","cor_ans":false},{"trial_type":"html-keyboard-response","rt":null,"stimulus":"<p style=\"color: red; font-size: 50px; font-weight: bold;\">Incorrect</p>","response":null,"trial_index":160,"plugin_version":"2.1.0","time_elapsed":264750,"subject_id":"91566","group":"Group1","condition":"1_Rep","full_date":"2026-02-22T16:50:15.020Z","date":"2026-02-22","time":"16:50:15"},{"correct_response":"l","task":"test_phase","broad_category":"I","image_png":"I_Pumice_11.png","image_id":139,"category_name":"Pumice","category":9,"distinct_rating":1.74,"distinct_type":"Bottom","item_type":"Target","rt":2080,"stimulus":"Stimuli_Rocks480/I_Pumice_11.png","response":"l","trial_type":"image-keyboard-response","trial_index":161,"plugin_version":"2.1.0","time_elapsed":266831,"subject_id":"91566","group":"Group1","condition":"1_Rep","full_date":"2026-02-22T16:50:15.020Z","date":"2026-02-22","time":"16:50:15","cor_ans":true},{"trial_type":"html-keyboard-response","rt":null,"stimulus":"<p style=\"color: green; font-size: 50px; font-weight: bold;\">Correct</p>","response":null,"trial_index":162,"plugin_version":"2.1.0","time_elapsed":267332,"subject_id":"91566","group":"Group1","condition":"1_Rep","full_date":"2026-02-22T16:50:15.020Z","date":"2026-02-22","time":"16:50:15"},{"correct_response":"l","task":"test_phase","broad_category":"M","image_png":"M_Gneiss_06.png","image_id":198,"category_name":"Gneiss","category":13,"distinct_rating":2.65,"distinct_type":"Bottom","item_type":"Target","rt":1629,"stimulus":"Stimuli_Rocks480/M_Gneiss_06.png","response":"a","trial_type":"image-keyboard-response","trial_index":163,"plugin_version":"2.1.0","time_elapsed":268963,"subject_id":"91566","group":"Group1","condition":"1_Rep","full_date":"2026-02-22T16:50:15.020Z","date":"2026-02-22","time":"16:50:15","cor_ans":false},{"trial_type":"html-keyboard-response","rt":null,"stimulus":"<p style=\"color: red; font-size: 50px; font-weight: bold;\">Incorrect</p>","response":null,"trial_index":164,"plugin_version":"2.1.0","time_elapsed":269464,"subject_id":"91566","group":"Group1","condition":"1_Rep","full_date":"2026-02-22T16:50:15.020Z","date":"2026-02-22","time":"16:50:15"},{"correct_response":"a","task":"test_phase","broad_category":"M","image_png":"M_Marble_03.png","image_id":227,"category_name":"Marble","category":15,"distinct_rating":2.67,"distinct_type":"Bottom","item_type":"Foil","rt":1684,"stimulus":"Stimuli_Rocks480/M_Marble_03.png","response":"a","trial_type":"image-keyboard-response","trial_index":165,"plugin_version":"2.1.0","time_elapsed":271149,"subject_id":"91566","group":"Group1","condition":"1_Rep","full_date":"2026-02-22T16:50:15.020Z","date":"2026-02-22","time":"16:50:15","cor_ans":true},{"trial_type":"html-keyboard-response","rt":null,"stimulus":"<p style=\"color: green; font-size: 50px; font-weight: bold;\">Correct</p>","response":null,"trial_index":166,"plugin_version":"2.1.0","time_elapsed":271665,"subject_id":"91566","group":"Group1","condition":"1_Rep","full_date":"2026-02-22T16:50:15.020Z","date":"2026-02-22","time":"16:50:15"},{"correct_response":"a","task":"test_phase","broad_category":"S","image_png":"S_Sandstone_08.png","image_id":456,"category_name":"Sandstone","category":29,"distinct_rating":1.5,"distinct_type":"Bottom","item_type":"Foil","rt":1155,"stimulus":"Stimuli_Rocks480/S_Sandstone_08.png","response":"a","trial_type":"image-keyboard-response","trial_index":167,"plugin_version":"2.1.0","time_elapsed":272822,"subject_id":"91566","group":"Group1","condition":"1_Rep","full_date":"2026-02-22T16:50:15.020Z","date":"2026-02-22","time":"16:50:15","cor_ans":true},{"trial_type":"html-keyboard-response","rt":null,"stimulus":"<p style=\"color: green; font-size: 50px; font-weight: bold;\">Correct</p>","response":null,"trial_index":168,"plugin_version":"2.1.0","time_elapsed":273333,"subject_id":"91566","group":"Group1","condition":"1_Rep","full_date":"2026-02-22T16:50:15.020Z","date":"2026-02-22","time":"16:50:15"},{"correct_response":"l","task":"test_phase","broad_category":"I","image_png":"I_Andesite_06.png","image_id":6,"category_name":"Andesite","category":1,"distinct_rating":3.17,"distinct_type":"Bottom","item_type":"Target","rt":2278,"stimulus":"Stimuli_Rocks480/I_Andesite_06.png","response":"l","trial_type":"image-keyboard-response","trial_index":169,"plugin_version":"2.1.0","time_elapsed":275613,"subject_id":"91566","group":"Group1","condition":"1_Rep","full_date":"2026-02-22T16:50:15.020Z","date":"2026-02-22","time":"16:50:15","cor_ans":true},{"trial_type":"html-keyboard-response","rt":null,"stimulus":"<p style=\"color: green; font-size: 50px; font-weight: bold;\">Correct</p>","response":null,"trial_index":170,"plugin_version":"2.1.0","time_elapsed":276117,"subject_id":"91566","group":"Group1","condition":"1_Rep","full_date":"2026-02-22T16:50:15.020Z","date":"2026-02-22","time":"16:50:15"},{"correct_response":"a","task":"test_phase","broad_category":"M","image_png":"M_Slate_14.png","image_id":318,"category_name":"Slate","category":20,"distinct_rating":2.58,"distinct_type":"Bottom","item_type":"Foil","rt":1411,"stimulus":"Stimuli_Rocks480/M_Slate_14.png","response":"a","trial_type":"image-keyboard-response","trial_index":171,"plugin_version":"2.1.0","time_elapsed":277529,"subject_id":"91566","group":"Group1","condition":"1_Rep","full_date":"2026-02-22T16:50:15.020Z","date":"2026-02-22","time":"16:50:15","cor_ans":true},{"trial_type":"html-keyboard-response","rt":null,"stimulus":"<p style=\"color: green; font-size: 50px; font-weight: bold;\">Correct</p>","response":null,"trial_index":172,"plugin_version":"2.1.0","time_elapsed":278031,"subject_id":"91566","group":"Group1","condition":"1_Rep","full_date":"2026-02-22T16:50:15.020Z","date":"2026-02-22","time":"16:50:15"},{"correct_response":"a","task":"test_phase","broad_category":"I","image_png":"I_Rhyolite_08.png","image_id":152,"category_name":"Rhyolite","category":10,"distinct_rating":1.38,"distinct_type":"Bottom","item_type":"Foil","rt":3810,"stimulus":"Stimuli_Rocks480/I_Rhyolite_08.png","response":"l","trial_type":"image-keyboard-response","trial_index":173,"plugin_version":"2.1.0","time_elapsed":281843,"subject_id":"91566","group":"Group1","condition":"1_Rep","full_date":"2026-02-22T16:50:15.020Z","date":"2026-02-22","time":"16:50:15","cor_ans":false},{"trial_type":"html-keyboard-response","rt":null,"stimulus":"<p style=\"color: red; font-size: 50px; font-weight: bold;\">Incorrect</p>","response":null,"trial_index":174,"plugin_version":"2.1.0","time_elapsed":282350,"subject_id":"91566","group":"Group1","condition":"1_Rep","full_date":"2026-02-22T16:50:15.020Z","date":"2026-02-22","time":"16:50:15"},{"correct_response":"a","task":"test_phase","broad_category":"M","image_png":"M_Phyllite_13.png","image_id":269,"category_name":"Phyllite","category":17,"distinct_rating":2.8,"distinct_type":"Bottom","item_type":"Foil","rt":1185,"stimulus":"Stimuli_Rocks480/M_Phyllite_13.png","response":"l","trial_type":"image-keyboard-response","trial_index":175,"plugin_version":"2.1.0","time_elapsed":283537,"subject_id":"91566","group":"Group1","condition":"1_Rep","full_date":"2026-02-22T16:50:15.020Z","date":"2026-02-22","time":"16:50:15","cor_ans":false},{"trial_type":"html-keyboard-response","rt":null,"stimulus":"<p style=\"color: red; font-size: 50px; font-weight: bold;\">Incorrect</p>","response":null,"trial_index":176,"plugin_version":"2.1.0","time_elapsed":284044,"subject_id":"91566","group":"Group1","condition":"1_Rep","full_date":"2026-02-22T16:50:15.020Z","date":"2026-02-22","time":"16:50:15"},{"correct_response":"a","task":"test_phase","broad_category":"M","image_png":"M_Phyllite_05.png","image_id":261,"category_name":"Phyllite","category":17,"distinct_rating":2.14,"distinct_type":"Bottom","item_type":"Foil","rt":977,"stimulus":"Stimuli_Rocks480/M_Phyllite_05.png","response":"a","trial_type":"image-keyboard-response","trial_index":177,"plugin_version":"2.1.0","time_elapsed":285022,"subject_id":"91566","group":"Group1","condition":"1_Rep","full_date":"2026-02-22T16:50:15.020Z","date":"2026-02-22","time":"16:50:15","cor_ans":true},{"trial_type":"html-keyboard-response","rt":null,"stimulus":"<p style=\"color: green; font-size: 50px; font-weight: bold;\">Correct</p>","response":null,"trial_index":178,"plugin_version":"2.1.0","time_elapsed":285534,"subject_id":"91566","group":"Group1","condition":"1_Rep","full_date":"2026-02-22T16:50:15.020Z","date":"2026-02-22","time":"16:50:15"},{"correct_response":"a","task":"test_phase","broad_category":"I","image_png":"I_Diorite_01.png","image_id":33,"category_name":"Diorite","category":3,"distinct_rating":2.97,"distinct_type":"Bottom","item_type":"Foil","rt":1593,"stimulus":"Stimuli_Rocks480/I_Diorite_01.png","response":"l","trial_type":"image-keyboard-response","trial_index":179,"plugin_version":"2.1.0","time_elapsed":287128,"subject_id":"91566","group":"Group1","condition":"1_Rep","full_date":"2026-02-22T16:50:15.020Z","date":"2026-02-22","time":"16:50:15","cor_ans":false},{"trial_type":"html-keyboard-response","rt":null,"stimulus":"<p style=\"color: red; font-size: 50px; font-weight: bold;\">Incorrect</p>","response":null,"trial_index":180,"plugin_version":"2.1.0","time_elapsed":287633,"subject_id":"91566","group":"Group1","condition":"1_Rep","full_date":"2026-02-22T16:50:15.020Z","date":"2026-02-22","time":"16:50:15"},{"correct_response":"l","task":"test_phase","broad_category":"S","image_png":"S_Dolomite_13.png","image_id":397,"category_name":"Dolomite","category":25,"distinct_rating":1.77,"distinct_type":"Bottom","item_type":"Target","rt":14492,"stimulus":"Stimuli_Rocks480/S_Dolomite_13.png","response":"a","trial_type":"image-keyboard-response","trial_index":181,"plugin_version":"2.1.0","time_elapsed":302126,"subject_id":"91566","group":"Group1","condition":"1_Rep","full_date":"2026-02-22T16:50:15.020Z","date":"2026-02-22","time":"16:50:15","cor_ans":false},{"trial_type":"html-keyboard-response","rt":null,"stimulus":"<p style=\"color: red; font-size: 50px; font-weight: bold;\">Incorrect</p>","response":null,"trial_index":182,"plugin_version":"2.1.0","time_elapsed":302632,"subject_id":"91566","group":"Group1","condition":"1_Rep","full_date":"2026-02-22T16:50:15.020Z","date":"2026-02-22","time":"16:50:15"},{"correct_response":"l","task":"test_phase","broad_category":"M","image_png":"M_Marble_06.png","image_id":230,"category_name":"Marble","category":15,"distinct_rating":3.4,"distinct_type":"Bottom","item_type":"Target","rt":927,"stimulus":"Stimuli_Rocks480/M_Marble_06.png","response":"a","trial_type":"image-keyboard-response","trial_index":183,"plugin_version":"2.1.0","time_elapsed":303560,"subject_id":"91566","group":"Group1","condition":"1_Rep","full_date":"2026-02-22T16:50:15.020Z","date":"2026-02-22","time":"16:50:15","cor_ans":false},{"trial_type":"html-keyboard-response","rt":null,"stimulus":"<p style=\"color: red; font-size: 50px; font-weight: bold;\">Incorrect</p>","response":null,"trial_index":184,"plugin_version":"2.1.0","time_elapsed":304067,"subject_id":"91566","group":"Group1","condition":"1_Rep","full_date":"2026-02-22T16:50:15.020Z","date":"2026-02-22","time":"16:50:15"},{"correct_response":"l","task":"test_phase","broad_category":"S","image_png":"S_Sandstone_15.png","image_id":463,"category_name":"Sandstone","category":29,"distinct_rating":2,"distinct_type":"Bottom","item_type":"Target","rt":1209,"stimulus":"Stimuli_Rocks480/S_Sandstone_15.png","response":"a","trial_type":"image-keyboard-response","trial_index":185,"plugin_version":"2.1.0","time_elapsed":305277,"subject_id":"91566","group":"Group1","condition":"1_Rep","full_date":"2026-02-22T16:50:15.020Z","date":"2026-02-22","time":"16:50:15","cor_ans":false},{"trial_type":"html-keyboard-response","rt":null,"stimulus":"<p style=\"color: red; font-size: 50px; font-weight: bold;\">Incorrect</p>","response":null,"trial_index":186,"plugin_version":"2.1.0","time_elapsed":305783,"subject_id":"91566","group":"Group1","condition":"1_Rep","full_date":"2026-02-22T16:50:15.020Z","date":"2026-02-22","time":"16:50:15"},{"correct_response":"l","task":"test_phase","broad_category":"M","image_png":"M_Quartzite_08.png","image_id":280,"category_name":"Quartzite","category":18,"distinct_rating":2.15,"distinct_type":"Bottom","item_type":"Target","rt":4033,"stimulus":"Stimuli_Rocks480/M_Quartzite_08.png","response":"l","trial_type":"image-keyboard-response","trial_index":187,"plugin_version":"2.1.0","time_elapsed":309818,"subject_id":"91566","group":"Group1","condition":"1_Rep","full_date":"2026-02-22T16:50:15.020Z","date":"2026-02-22","time":"16:50:15","cor_ans":true},{"trial_type":"html-keyboard-response","rt":null,"stimulus":"<p style=\"color: green; font-size: 50px; font-weight: bold;\">Correct</p>","response":null,"trial_index":188,"plugin_version":"2.1.0","time_elapsed":310333,"subject_id":"91566","group":"Group1","condition":"1_Rep","full_date":"2026-02-22T16:50:15.020Z","date":"2026-02-22","time":"16:50:15"},{"correct_response":"a","task":"test_phase","broad_category":"M","image_png":"M_Quartzite_15.png","image_id":287,"category_name":"Quartzite","category":18,"distinct_rating":2.19,"distinct_type":"Bottom","item_type":"Foil","rt":932,"stimulus":"Stimuli_Rocks480/M_Quartzite_15.png","response":"l","trial_type":"image-keyboard-response","trial_index":189,"plugin_version":"2.1.0","time_elapsed":311266,"subject_id":"91566","group":"Group1","condition":"1_Rep","full_date":"2026-02-22T16:50:15.020Z","date":"2026-02-22","time":"16:50:15","cor_ans":false},{"trial_type":"html-keyboard-response","rt":null,"stimulus":"<p style=\"color: red; font-size: 50px; font-weight: bold;\">Incorrect</p>","response":null,"trial_index":190,"plugin_version":"2.1.0","time_elapsed":311767,"subject_id":"91566","group":"Group1","condition":"1_Rep","full_date":"2026-02-22T16:50:15.020Z","date":"2026-02-22","time":"16:50:15"},{"correct_response":"l","task":"test_phase","broad_category":"I","image_png":"I_Gabbro_08.png","image_id":56,"category_name":"Gabbro","category":4,"distinct_rating":3.02,"distinct_type":"Bottom","item_type":"Target","rt":1284,"stimulus":"Stimuli_Rocks480/I_Gabbro_08.png","response":"l","trial_type":"image-keyboard-response","trial_index":191,"plugin_version":"2.1.0","time_elapsed":313052,"subject_id":"91566","group":"Group1","condition":"1_Rep","full_date":"2026-02-22T16:50:15.020Z","date":"2026-02-22","time":"16:50:15","cor_ans":true},{"trial_type":"html-keyboard-response","rt":null,"stimulus":"<p style=\"color: green; font-size: 50px; font-weight: bold;\">Correct</p>","response":null,"trial_index":192,"plugin_version":"2.1.0","time_elapsed":313567,"subject_id":"91566","group":"Group1","condition":"1_Rep","full_date":"2026-02-22T16:50:15.020Z","date":"2026-02-22","time":"16:50:15"},{"correct_response":"l","task":"test_phase","broad_category":"M","image_png":"M_Marble_16.png","image_id":240,"category_name":"Marble","category":15,"distinct_rating":2.57,"distinct_type":"Bottom","item_type":"Target","rt":4275,"stimulus":"Stimuli_Rocks480/M_Marble_16.png","response":"l","trial_type":"image-keyboard-response","trial_index":193,"plugin_version":"2.1.0","time_elapsed":317843,"subject_id":"91566","group":"Group1","condition":"1_Rep","full_date":"2026-02-22T16:50:15.020Z","date":"2026-02-22","time":"16:50:15","cor_ans":true},{"trial_type":"html-keyboard-response","rt":null,"stimulus":"<p style=\"color: green; font-size: 50px; font-weight: bold;\">Correct</p>","response":null,"trial_index":194,"plugin_version":"2.1.0","time_elapsed":318350,"subject_id":"91566","group":"Group1","condition":"1_Rep","full_date":"2026-02-22T16:50:15.020Z","date":"2026-02-22","time":"16:50:15"},{"correct_response":"a","task":"test_phase","broad_category":"I","image_png":"I_Pegmatite_11.png","image_id":107,"category_name":"Pegmatite","category":7,"distinct_rating":7.11,"distinct_type":"Top","item_type":"Foil","rt":1884,"stimulus":"Stimuli_Rocks480/I_Pegmatite_11.png","response":"a","trial_type":"image-keyboard-response","trial_index":195,"plugin_version":"2.1.0","time_elapsed":320236,"subject_id":"91566","group":"Group1","condition":"1_Rep","full_date":"2026-02-22T16:50:15.020Z","date":"2026-02-22","time":"16:50:15","cor_ans":true},{"trial_type":"html-keyboard-response","rt":null,"stimulus":"<p style=\"color: green; font-size: 50px; font-weight: bold;\">Correct</p>","response":null,"trial_index":196,"plugin_version":"2.1.0","time_elapsed":320737,"subject_id":"91566","group":"Group1","condition":"1_Rep","full_date":"2026-02-22T16:50:15.020Z","date":"2026-02-22","time":"16:50:15"},{"correct_response":"a","task":"test_phase","broad_category":"I","image_png":"I_Basalt_08.png","image_id":24,"category_name":"Basalt","category":2,"distinct_rating":2.31,"distinct_type":"Bottom","item_type":"Foil","rt":3341,"stimulus":"Stimuli_Rocks480/I_Basalt_08.png","response":"l","trial_type":"image-keyboard-response","trial_index":197,"plugin_version":"2.1.0","time_elapsed":324080,"subject_id":"91566","group":"Group1","condition":"1_Rep","full_date":"2026-02-22T16:50:15.020Z","date":"2026-02-22","time":"16:50:15","cor_ans":false},{"trial_type":"html-keyboard-response","rt":null,"stimulus":"<p style=\"color: red; font-size: 50px; font-weight: bold;\">Incorrect</p>","response":null,"trial_index":198,"plugin_version":"2.1.0","time_elapsed":324582,"subject_id":"91566","group":"Group1","condition":"1_Rep","full_date":"2026-02-22T16:50:15.020Z","date":"2026-02-22","time":"16:50:15"},{"correct_response":"a","task":"test_phase","broad_category":"I","image_png":"I_Pumice_01.png","image_id":129,"category_name":"Pumice","category":9,"distinct_rating":3.25,"distinct_type":"Bottom","item_type":"Foil","rt":2818,"stimulus":"Stimuli_Rocks480/I_Pumice_01.png","response":"l","trial_type":"image-keyboard-response","trial_index":199,"plugin_version":"2.1.0","time_elapsed":327402,"subject_id":"91566","group":"Group1","condition":"1_Rep","full_date":"2026-02-22T16:50:15.020Z","date":"2026-02-22","time":"16:50:15","cor_ans":false},{"trial_type":"html-keyboard-response","rt":null,"stimulus":"<p style=\"color: red; font-size: 50px; font-weight: bold;\">Incorrect</p>","response":null,"trial_index":200,"plugin_version":"2.1.0","time_elapsed":327916,"subject_id":"91566","group":"Group1","condition":"1_Rep","full_date":"2026-02-22T16:50:15.020Z","date":"2026-02-22","time":"16:50:15"},{"correct_response":"a","task":"test_phase","broad_category":"I","image_png":"I_Gabbro_14.png","image_id":62,"category_name":"Gabbro","category":4,"distinct_rating":2.95,"distinct_type":"Bottom","item_type":"Foil","rt":1496,"stimulus":"Stimuli_Rocks480/I_Gabbro_14.png","response":"a","trial_type":"image-keyboard-response","trial_index":201,"plugin_version":"2.1.0","time_elapsed":329413,"subject_id":"91566","group":"Group1","condition":"1_Rep","full_date":"2026-02-22T16:50:15.020Z","date":"2026-02-22","time":"16:50:15","cor_ans":true},{"trial_type":"html-keyboard-response","rt":null,"stimulus":"<p style=\"color: green; font-size: 50px; font-weight: bold;\">Correct</p>","response":null,"trial_index":202,"plugin_version":"2.1.0","time_elapsed":329915,"subject_id":"91566","group":"Group1","condition":"1_Rep","full_date":"2026-02-22T16:50:15.020Z","date":"2026-02-22","time":"16:50:15"},{"correct_response":"l","task":"test_phase","broad_category":"S","image_png":"S_Dolomite_14.png","image_id":398,"category_name":"Dolomite","category":25,"distinct_rating":1.43,"distinct_type":"Bottom","item_type":"Target","rt":1008,"stimulus":"Stimuli_Rocks480/S_Dolomite_14.png","response":"a","trial_type":"image-keyboard-response","trial_index":203,"plugin_version":"2.1.0","time_elapsed":330926,"subject_id":"91566","group":"Group1","condition":"1_Rep","full_date":"2026-02-22T16:50:15.020Z","date":"2026-02-22","time":"16:50:15","cor_ans":false},{"trial_type":"html-keyboard-response","rt":null,"stimulus":"<p style=\"color: red; font-size: 50px; font-weight: bold;\">Incorrect</p>","response":null,"trial_index":204,"plugin_version":"2.1.0","time_elapsed":331432,"subject_id":"91566","group":"Group1","condition":"1_Rep","full_date":"2026-02-22T16:50:15.020Z","date":"2026-02-22","time":"16:50:15"},{"correct_response":"a","task":"test_phase","broad_category":"I","image_png":"I_Basalt_13.png","image_id":29,"category_name":"Basalt","category":2,"distinct_rating":2.68,"distinct_type":"Bottom","item_type":"Foil","rt":1669,"stimulus":"Stimuli_Rocks480/I_Basalt_13.png","response":"a","trial_type":"image-keyboard-response","trial_index":205,"plugin_version":"2.1.0","time_elapsed":333102,"subject_id":"91566","group":"Group1","condition":"1_Rep","full_date":"2026-02-22T16:50:15.020Z","date":"2026-02-22","time":"16:50:15","cor_ans":true},{"trial_type":"html-keyboard-response","rt":null,"stimulus":"<p style=\"color: green; font-size: 50px; font-weight: bold;\">Correct</p>","response":null,"trial_index":206,"plugin_version":"2.1.0","time_elapsed":333615,"subject_id":"91566","group":"Group1","condition":"1_Rep","full_date":"2026-02-22T16:50:15.020Z","date":"2026-02-22","time":"16:50:15"},{"correct_response":"a","task":"test_phase","broad_category":"M","image_png":"M_Slate_10.png","image_id":314,"category_name":"Slate","category":20,"distinct_rating":1.94,"distinct_type":"Bottom","item_type":"Foil","rt":1922,"stimulus":"Stimuli_Rocks480/M_Slate_10.png","response":"a","trial_type":"image-keyboard-response","trial_index":207,"plugin_version":"2.1.0","time_elapsed":335539,"subject_id":"91566","group":"Group1","condition":"1_Rep","full_date":"2026-02-22T16:50:15.020Z","date":"2026-02-22","time":"16:50:15","cor_ans":true},{"trial_type":"html-keyboard-response","rt":null,"stimulus":"<p style=\"color: green; font-size: 50px; font-weight: bold;\">Correct</p>","response":null,"trial_index":208,"plugin_version":"2.1.0","time_elapsed":336044,"subject_id":"91566","group":"Group1","condition":"1_Rep","full_date":"2026-02-22T16:50:15.020Z","date":"2026-02-22","time":"16:50:15"},{"correct_response":"a","task":"test_phase","broad_category":"I","image_png":"I_Rhyolite_10.png","image_id":154,"category_name":"Rhyolite","category":10,"distinct_rating":2.88,"distinct_type":"Bottom","item_type":"Foil","rt":1120,"stimulus":"Stimuli_Rocks480/I_Rhyolite_10.png","response":"a","trial_type":"image-keyboard-response","trial_index":209,"plugin_version":"2.1.0","time_elapsed":337166,"subject_id":"91566","group":"Group1","condition":"1_Rep","full_date":"2026-02-22T16:50:15.020Z","date":"2026-02-22","time":"16:50:15","cor_ans":true},{"trial_type":"html-keyboard-response","rt":null,"stimulus":"<p style=\"color: green; font-size: 50px; font-weight: bold;\">Correct</p>","response":null,"trial_index":210,"plugin_version":"2.1.0","time_elapsed":337667,"subject_id":"91566","group":"Group1","condition":"1_Rep","full_date":"2026-02-22T16:50:15.020Z","date":"2026-02-22","time":"16:50:15"},{"correct_response":"a","task":"test_phase","broad_category":"S","image_png":"S_Chert_13.png","image_id":365,"category_name":"Chert","category":23,"distinct_rating":6.57,"distinct_type":"Top","item_type":"Foil","rt":2413,"stimulus":"Stimuli_Rocks480/S_Chert_13.png","response":"l","trial_type":"image-keyboard-response","trial_index":211,"plugin_version":"2.1.0","time_elapsed":340081,"subject_id":"91566","group":"Group1","condition":"1_Rep","full_date":"2026-02-22T16:50:15.020Z","date":"2026-02-22","time":"16:50:15","cor_ans":false},{"trial_type":"html-keyboard-response","rt":null,"stimulus":"<p style=\"color: red; font-size: 50px; font-weight: bold;\">Incorrect</p>","response":null,"trial_index":212,"plugin_version":"2.1.0","time_elapsed":340583,"subject_id":"91566","group":"Group1","condition":"1_Rep","full_date":"2026-02-22T16:50:15.020Z","date":"2026-02-22","time":"16:50:15"},{"correct_response":"l","task":"test_phase","broad_category":"M","image_png":"M_Phyllite_03.png","image_id":259,"category_name":"Phyllite","category":17,"distinct_rating":2.5,"distinct_type":"Bottom","item_type":"Target","rt":4326,"stimulus":"Stimuli_Rocks480/M_Phyllite_03.png","response":"a","trial_type":"image-keyboard-response","trial_index":213,"plugin_version":"2.1.0","time_elapsed":344910,"subject_id":"91566","group":"Group1","condition":"1_Rep","full_date":"2026-02-22T16:50:15.020Z","date":"2026-02-22","time":"16:50:15","cor_ans":false},{"trial_type":"html-keyboard-response","rt":null,"stimulus":"<p style=\"color: red; font-size: 50px; font-weight: bold;\">Incorrect</p>","response":null,"trial_index":214,"plugin_version":"2.1.0","time_elapsed":345418,"subject_id":"91566","group":"Group1","condition":"1_Rep","full_date":"2026-02-22T16:50:15.020Z","date":"2026-02-22","time":"16:50:15"},{"correct_response":"l","task":"test_phase","broad_category":"S","image_png":"S_Dolomite_12.png","image_id":396,"category_name":"Dolomite","category":25,"distinct_rating":1.85,"distinct_type":"Bottom","item_type":"Target","rt":1380,"stimulus":"Stimuli_Rocks480/S_Dolomite_12.png","response":"l","trial_type":"image-keyboard-response","trial_index":215,"plugin_version":"2.1.0","time_elapsed":346800,"subject_id":"91566","group":"Group1","condition":"1_Rep","full_date":"2026-02-22T16:50:15.020Z","date":"2026-02-22","time":"16:50:15","cor_ans":true},{"trial_type":"html-keyboard-response","rt":null,"stimulus":"<p style=\"color: green; font-size: 50px; font-weight: bold;\">Correct</p>","response":null,"trial_index":216,"plugin_version":"2.1.0","time_elapsed":347317,"subject_id":"91566","group":"Group1","condition":"1_Rep","full_date":"2026-02-22T16:50:15.020Z","date":"2026-02-22","time":"16:50:15"},{"correct_response":"a","task":"test_phase","broad_category":"I","image_png":"I_Rhyolite_05.png","image_id":149,"category_name":"Rhyolite","category":10,"distinct_rating":3.02,"distinct_type":"Bottom","item_type":"Foil","rt":1267,"stimulus":"Stimuli_Rocks480/I_Rhyolite_05.png","response":"l","trial_type":"image-keyboard-response","trial_index":217,"plugin_version":"2.1.0","time_elapsed":348586,"subject_id":"91566","group":"Group1","condition":"1_Rep","full_date":"2026-02-22T16:50:15.020Z","date":"2026-02-22","time":"16:50:15","cor_ans":false},{"trial_type":"html-keyboard-response","rt":null,"stimulus":"<p style=\"color: red; font-size: 50px; font-weight: bold;\">Incorrect</p>","response":null,"trial_index":218,"plugin_version":"2.1.0","time_elapsed":349101,"subject_id":"91566","group":"Group1","condition":"1_Rep","full_date":"2026-02-22T16:50:15.020Z","date":"2026-02-22","time":"16:50:15"},{"correct_response":"a","task":"test_phase","broad_category":"M","image_png":"M_Phyllite_02.png","image_id":258,"category_name":"Phyllite","category":17,"distinct_rating":2.89,"distinct_type":"Bottom","item_type":"Foil","rt":3284,"stimulus":"Stimuli_Rocks480/M_Phyllite_02.png","response":"a","trial_type":"image-keyboard-response","trial_index":219,"plugin_version":"2.1.0","time_elapsed":352387,"subject_id":"91566","group":"Group1","condition":"1_Rep","full_date":"2026-02-22T16:50:15.020Z","date":"2026-02-22","time":"16:50:15","cor_ans":true},{"trial_type":"html-keyboard-response","rt":null,"stimulus":"<p style=\"color: green; font-size: 50px; font-weight: bold;\">Correct</p>","response":null,"trial_index":220,"plugin_version":"2.1.0","time_elapsed":352901,"subject_id":"91566","group":"Group1","condition":"1_Rep","full_date":"2026-02-22T16:50:15.020Z","date":"2026-02-22","time":"16:50:15"},{"correct_response":"a","task":"test_phase","broad_category":"M","image_png":"M_Gneiss_14.png","image_id":206,"category_name":"Gneiss","category":13,"distinct_rating":3.41,"distinct_type":"Bottom","item_type":"Foil","rt":1353,"stimulus":"Stimuli_Rocks480/M_Gneiss_14.png","response":"a","trial_type":"image-keyboard-response","trial_index":221,"plugin_version":"2.1.0","time_elapsed":354256,"subject_id":"91566","group":"Group1","condition":"1_Rep","full_date":"2026-02-22T16:50:15.020Z","date":"2026-02-22","time":"16:50:15","cor_ans":true},{"trial_type":"html-keyboard-response","rt":null,"stimulus":"<p style=\"color: green; font-size: 50px; font-weight: bold;\">Correct</p>","response":null,"trial_index":222,"plugin_version":"2.1.0","time_elapsed":354768,"subject_id":"91566","group":"Group1","condition":"1_Rep","full_date":"2026-02-22T16:50:15.020Z","date":"2026-02-22","time":"16:50:15"},{"correct_response":"l","task":"test_phase","broad_category":"M","image_png":"M_Gneiss_13.png","image_id":205,"category_name":"Gneiss","category":13,"distinct_rating":3.26,"distinct_type":"Bottom","item_type":"Target","rt":1025,"stimulus":"Stimuli_Rocks480/M_Gneiss_13.png","response":"a","trial_type":"image-keyboard-response","trial_index":223,"plugin_version":"2.1.0","time_elapsed":355794,"subject_id":"91566","group":"Group1","condition":"1_Rep","full_date":"2026-02-22T16:50:15.020Z","date":"2026-02-22","time":"16:50:15","cor_ans":false},{"trial_type":"html-keyboard-response","rt":null,"stimulus":"<p style=\"color: red; font-size: 50px; font-weight: bold;\">Incorrect</p>","response":null,"trial_index":224,"plugin_version":"2.1.0","time_elapsed":356301,"subject_id":"91566","group":"Group1","condition":"1_Rep","full_date":"2026-02-22T16:50:15.020Z","date":"2026-02-22","time":"16:50:15"},{"correct_response":"l","task":"test_phase","broad_category":"I","image