[{"width":1432,"height":768,"webaudio":true,"browser":"edge-chromium","browser_version":"145.0.0","mobile":false,"os":"Windows 10","fullscreen":true,"vsync_rate":55.61,"webcam":true,"microphone":true,"trial_type":"browser-check","trial_index":0,"plugin_version":"2.1.0","time_elapsed":1318,"subject_id":"91312","group":"Group1","condition":"1_Rep","full_date":"2026-02-21T23:50:19.938Z","date":"2026-02-21","time":"23:50:19"},{"success":true,"timeout":false,"failed_images":[],"failed_audio":[],"failed_video":[],"trial_type":"preload","trial_index":1,"plugin_version":"2.1.0","time_elapsed":3640,"subject_id":"91312","group":"Group1","condition":"1_Rep","full_date":"2026-02-21T23:50:19.938Z","date":"2026-02-21","time":"23:50:19"},{"rt":14439,"url":"SONA_consent_memorability.html","trial_type":"external-html","trial_index":2,"plugin_version":"2.1.0","time_elapsed":18147,"subject_id":"91312","group":"Group1","condition":"1_Rep","full_date":"2026-02-21T23:50:19.938Z","date":"2026-02-21","time":"23:50:19"},{"success":true,"rt":1216,"trial_type":"fullscreen","trial_index":3,"plugin_version":"2.1.0","time_elapsed":20380,"subject_id":"91312","group":"Group1","condition":"1_Rep","full_date":"2026-02-21T23:50:19.938Z","date":"2026-02-21","time":"23:50:19"},{"rt":26612,"stimulus":"<div style=\"max-width: 760px; margin: auto; font-size: 20px; line-height: 1.5;\">\n      <h1 style=\"text-align:center; font-size: 30px;\">Instructions</h1>\n      <p>\n        Welcome to the study on <b>visual memory</b>. This experiment consists of <b>two phases</b>: \n        a <b>study phase</b> and a <b>test phase</b>.\n      </p>\n      <p>\n        In the study phase, you will see a series of rock images along with their category labels.\n        The images will appear one at a time.\n        <b>Your task</b> is to learn the categories to which the rock images belong \n        and to remember each image as accurately as possible.\n      </p> \n      <p>\n        Note that you will see each image only <b>once</b> during the study phase. \n          So, please pay close attention and try to remember each image carefully.\n      </p>\n      <p>\n        After the study phase, <b>your memory will be tested</b>. \n        Additional instructions for the test phase will be provided at that time.\n      </p>\n      <p>\n        If your computer has multiple <b>language settings</b> (e.g., English and another language),\n        please make sure it is set to English before starting.\n      </p>\n      <p>\n        You can track your progress using the <b>completion bar</b> at the top of the screen. \n        Please note that the bar will refresh when the test phase begins \n        to give you an accurate sense of your progress in both phases.\n      </p> \n      <p>\n        Press the button below when you are ready to begin.\n      </p>\n    </div>","response":0,"trial_type":"html-button-response","trial_index":4,"plugin_version":"2.1.0","time_elapsed":46993,"subject_id":"91312","group":"Group1","condition":"1_Rep","full_date":"2026-02-21T23:50:19.938Z","date":"2026-02-21","time":"23:50:19"},{"rt":null,"stimulus":"<p style=\"font-size: 50px; margin: 0; text-align: center;\">+</p>","response":null,"trial_type":"html-keyboard-response","trial_index":5,"plugin_version":"2.1.0","time_elapsed":47999,"subject_id":"91312","group":"Group1","condition":"1_Rep","full_date":"2026-02-21T23:50:19.938Z","date":"2026-02-21","time":"23:50:19"},{"task":"memory_phase","broad_category":"S","image_png":"S_Shale_01.png","image_id":465,"category_name":"Shale","category":30,"distinct_rating":2.7,"distinct_type":"Bottom","rt":null,"stimulus":"Stimuli_Rocks480/S_Shale_01.png","response":null,"trial_type":"image-keyboard-response","trial_index":6,"plugin_version":"2.1.0","time_elapsed":50507,"subject_id":"91312","group":"Group1","condition":"1_Rep","full_date":"2026-02-21T23:50:19.938Z","date":"2026-02-21","time":"23:50:19"},{"rt":null,"stimulus":"<p style=\"font-size: 50px; margin: 0; text-align: center;\">+</p>","response":null,"trial_type":"html-keyboard-response","trial_index":7,"plugin_version":"2.1.0","time_elapsed":51518,"subject_id":"91312","group":"Group1","condition":"1_Rep","full_date":"2026-02-21T23:50:19.938Z","date":"2026-02-21","time":"23:50:19"},{"task":"memory_phase","broad_category":"S","image_png":"S_Shale_12.png","image_id":476,"category_name":"Shale","category":30,"distinct_rating":2.48,"distinct_type":"Bottom","rt":null,"stimulus":"Stimuli_Rocks480/S_Shale_12.png","response":null,"trial_type":"image-keyboard-response","trial_index":8,"plugin_version":"2.1.0","time_elapsed":54036,"subject_id":"91312","group":"Group1","condition":"1_Rep","full_date":"2026-02-21T23:50:19.938Z","date":"2026-02-21","time":"23:50:19"},{"rt":null,"stimulus":"<p style=\"font-size: 50px; margin: 0; text-align: center;\">+</p>","response":null,"trial_type":"html-keyboard-response","trial_index":9,"plugin_version":"2.1.0","time_elapsed":55041,"subject_id":"91312","group":"Group1","condition":"1_Rep","full_date":"2026-02-21T23:50:19.938Z","date":"2026-02-21","time":"23:50:19"},{"task":"memory_phase","broad_category":"S","image_png":"S_Chert_10.png","image_id":362,"category_name":"Chert","category":23,"distinct_rating":7.17,"distinct_type":"Top","rt":null,"stimulus":"Stimuli_Rocks480/S_Chert_10.png","response":null,"trial_type":"image-keyboard-response","trial_index":10,"plugin_version":"2.1.0","time_elapsed":57555,"subject_id":"91312","group":"Group1","condition":"1_Rep","full_date":"2026-02-21T23:50:19.938Z","date":"2026-02-21","time":"23:50:19"},{"rt":null,"stimulus":"<p style=\"font-size: 50px; margin: 0; text-align: center;\">+</p>","response":null,"trial_type":"html-keyboard-response","trial_index":11,"plugin_version":"2.1.0","time_elapsed":58570,"subject_id":"91312","group":"Group1","condition":"1_Rep","full_date":"2026-02-21T23:50:19.938Z","date":"2026-02-21","time":"23:50:19"},{"task":"memory_phase","broad_category":"S","image_png":"S_Sandstone_15.png","image_id":463,"category_name":"Sandstone","category":29,"distinct_rating":2,"distinct_type":"Bottom","rt":null,"stimulus":"Stimuli_Rocks480/S_Sandstone_15.png","response":null,"trial_type":"image-keyboard-response","trial_index":12,"plugin_version":"2.1.0","time_elapsed":61085,"subject_id":"91312","group":"Group1","condition":"1_Rep","full_date":"2026-02-21T23:50:19.938Z","date":"2026-02-21","time":"23:50:19"},{"rt":null,"stimulus":"<p style=\"font-size: 50px; margin: 0; text-align: center;\">+</p>","response":null,"trial_type":"html-keyboard-response","trial_index":13,"plugin_version":"2.1.0","time_elapsed":62098,"subject_id":"91312","group":"Group1","condition":"1_Rep","full_date":"2026-02-21T23:50:19.938Z","date":"2026-02-21","time":"23:50:19"},{"task":"memory_phase","broad_category":"M","image_png":"M_Marble_06.png","image_id":230,"category_name":"Marble","category":15,"distinct_rating":3.4,"distinct_type":"Bottom","rt":null,"stimulus":"Stimuli_Rocks480/M_Marble_06.png","response":null,"trial_type":"image-keyboard-response","trial_index":14,"plugin_version":"2.1.0","time_elapsed":64610,"subject_id":"91312","group":"Group1","condition":"1_Rep","full_date":"2026-02-21T23:50:19.938Z","date":"2026-02-21","time":"23:50:19"},{"rt":null,"stimulus":"<p style=\"font-size: 50px; margin: 0; text-align: center;\">+</p>","response":null,"trial_type":"html-keyboard-response","trial_index":15,"plugin_version":"2.1.0","time_elapsed":65619,"subject_id":"91312","group":"Group1","condition":"1_Rep","full_date":"2026-02-21T23:50:19.938Z","date":"2026-02-21","time":"23:50:19"},{"task":"memory_phase","broad_category":"I","image_png":"I_Rhyolite_16.png","image_id":160,"category_name":"Rhyolite","category":10,"distinct_rating":2.19,"distinct_type":"Bottom","rt":null,"stimulus":"Stimuli_Rocks480/I_Rhyolite_16.png","response":null,"trial_type":"image-keyboard-response","trial_index":16,"plugin_version":"2.1.0","time_elapsed":68123,"subject_id":"91312","group":"Group1","condition":"1_Rep","full_date":"2026-02-21T23:50:19.938Z","date":"2026-02-21","time":"23:50:19"},{"rt":null,"stimulus":"<p style=\"font-size: 50px; margin: 0; text-align: center;\">+</p>","response":null,"trial_type":"html-keyboard-response","trial_index":17,"plugin_version":"2.1.0","time_elapsed":69138,"subject_id":"91312","group":"Group1","condition":"1_Rep","full_date":"2026-02-21T23:50:19.938Z","date":"2026-02-21","time":"23:50:19"},{"task":"memory_phase","broad_category":"I","image_png":"I_Andesite_10.png","image_id":10,"category_name":"Andesite","category":1,"distinct_rating":3.15,"distinct_type":"Bottom","rt":null,"stimulus":"Stimuli_Rocks480/I_Andesite_10.png","response":null,"trial_type":"image-keyboard-response","trial_index":18,"plugin_version":"2.1.0","time_elapsed":71641,"subject_id":"91312","group":"Group1","condition":"1_Rep","full_date":"2026-02-21T23:50:19.938Z","date":"2026-02-21","time":"23:50:19"},{"rt":null,"stimulus":"<p style=\"font-size: 50px; margin: 0; text-align: center;\">+</p>","response":null,"trial_type":"html-keyboard-response","trial_index":19,"plugin_version":"2.1.0","time_elapsed":72656,"subject_id":"91312","group":"Group1","condition":"1_Rep","full_date":"2026-02-21T23:50:19.938Z","date":"2026-02-21","time":"23:50:19"},{"task":"memory_phase","broad_category":"S","image_png":"S_Dolomite_13.png","image_id":397,"category_name":"Dolomite","category":25,"distinct_rating":1.77,"distinct_type":"Bottom","rt":null,"stimulus":"Stimuli_Rocks480/S_Dolomite_13.png","response":null,"trial_type":"image-keyboard-response","trial_index":20,"plugin_version":"2.1.0","time_elapsed":75172,"subject_id":"91312","group":"Group1","condition":"1_Rep","full_date":"2026-02-21T23:50:19.938Z","date":"2026-02-21","time":"23:50:19"},{"rt":null,"stimulus":"<p style=\"font-size: 50px; margin: 0; text-align: center;\">+</p>","response":null,"trial_type":"html-keyboard-response","trial_index":21,"plugin_version":"2.1.0","time_elapsed":76174,"subject_id":"91312","group":"Group1","condition":"1_Rep","full_date":"2026-02-21T23:50:19.938Z","date":"2026-02-21","time":"23:50:19"},{"task":"memory_phase","broad_category":"I","image_png":"I_Basalt_09.png","image_id":25,"category_name":"Basalt","category":2,"distinct_rating":1.89,"distinct_type":"Bottom","rt":null,"stimulus":"Stimuli_Rocks480/I_Basalt_09.png","response":null,"trial_type":"image-keyboard-response","trial_index":22,"plugin_version":"2.1.0","time_elapsed":78686,"subject_id":"91312","group":"Group1","condition":"1_Rep","full_date":"2026-02-21T23:50:19.938Z","date":"2026-02-21","time":"23:50:19"},{"rt":null,"stimulus":"<p style=\"font-size: 50px; margin: 0; text-align: center;\">+</p>","response":null,"trial_type":"html-keyboard-response","trial_index":23,"plugin_version":"2.1.0","time_elapsed":79702,"subject_id":"91312","group":"Group1","condition":"1_Rep","full_date":"2026-02-21T23:50:19.938Z","date":"2026-02-21","time":"23:50:19"},{"task":"memory_phase","broad_category":"I","image_png":"I_Pumice_11.png","image_id":139,"category_name":"Pumice","category":9,"distinct_rating":1.74,"distinct_type":"Bottom","rt":null,"stimulus":"Stimuli_Rocks480/I_Pumice_11.png","response":null,"trial_type":"image-keyboard-response","trial_index":24,"plugin_version":"2.1.0","time_elapsed":82205,"subject_id":"91312","group":"Group1","condition":"1_Rep","full_date":"2026-02-21T23:50:19.938Z","date":"2026-02-21","time":"23:50:19"},{"rt":null,"stimulus":"<p style=\"font-size: 50px; margin: 0; text-align: center;\">+</p>","response":null,"trial_type":"html-keyboard-response","trial_index":25,"plugin_version":"2.1.0","time_elapsed":83220,"subject_id":"91312","group":"Group1","condition":"1_Rep","full_date":"2026-02-21T23:50:19.938Z","date":"2026-02-21","time":"23:50:19"},{"task":"memory_phase","broad_category":"I","image_png":"I_Obsidian_05.png","image_id":85,"category_name":"Obsidian","category":6,"distinct_rating":7.32,"distinct_type":"Top","rt":null,"stimulus":"Stimuli_Rocks480/I_Obsidian_05.png","response":null,"trial_type":"image-keyboard-response","trial_index":26,"plugin_version":"2.1.0","time_elapsed":85723,"subject_id":"91312","group":"Group1","condition":"1_Rep","full_date":"2026-02-21T23:50:19.938Z","date":"2026-02-21","time":"23:50:19"},{"rt":null,"stimulus":"<p style=\"font-size: 50px; margin: 0; text-align: center;\">+</p>","response":null,"trial_type":"html-keyboard-response","trial_index":27,"plugin_version":"2.1.0","time_elapsed":86739,"subject_id":"91312","group":"Group1","condition":"1_Rep","full_date":"2026-02-21T23:50:19.938Z","date":"2026-02-21","time":"23:50:19"},{"task":"memory_phase","broad_category":"I","image_png":"I_Pumice_08.png","image_id":136,"category_name":"Pumice","category":9,"distinct_rating":3.1,"distinct_type":"Bottom","rt":null,"stimulus":"Stimuli_Rocks480/I_Pumice_08.png","response":null,"trial_type":"image-keyboard-response","trial_index":28,"plugin_version":"2.1.0","time_elapsed":89256,"subject_id":"91312","group":"Group1","condition":"1_Rep","full_date":"2026-02-21T23:50:19.938Z","date":"2026-02-21","time":"23:50:19"},{"rt":null,"stimulus":"<p style=\"font-size: 50px; margin: 0; text-align: center;\">+</p>","response":null,"trial_type":"html-keyboard-response","trial_index":29,"plugin_version":"2.1.0","time_elapsed":90262,"subject_id":"91312","group":"Group1","condition":"1_Rep","full_date":"2026-02-21T23:50:19.938Z","date":"2026-02-21","time":"23:50:19"},{"task":"memory_phase","broad_category":"S","image_png":"S_Conglomerate_05.png","image_id":373,"category_name":"Conglomerate","category":24,"distinct_rating":7.32,"distinct_type":"Top","rt":null,"stimulus":"Stimuli_Rocks480/S_Conglomerate_05.png","response":null,"trial_type":"image-keyboard-response","trial_index":30,"plugin_version":"2.1.0","time_elapsed":92771,"subject_id":"91312","group":"Group1","condition":"1_Rep","full_date":"2026-02-21T23:50:19.938Z","date":"2026-02-21","time":"23:50:19"},{"rt":null,"stimulus":"<p style=\"font-size: 50px; margin: 0; text-align: center;\">+</p>","response":null,"trial_type":"html-keyboard-response","trial_index":31,"plugin_version":"2.1.0","time_elapsed":93784,"subject_id":"91312","group":"Group1","condition":"1_Rep","full_date":"2026-02-21T23:50:19.938Z","date":"2026-02-21","time":"23:50:19"},{"task":"memory_phase","broad_category":"M","image_png":"M_Phyllite_10.png","image_id":266,"category_name":"Phyllite","category":17,"distinct_rating":2.6,"distinct_type":"Bottom","rt":null,"stimulus":"Stimuli_Rocks480/M_Phyllite_10.png","response":null,"trial_type":"image-keyboard-response","trial_index":32,"plugin_version":"2.1.0","time_elapsed":96286,"subject_id":"91312","group":"Group1","condition":"1_Rep","full_date":"2026-02-21T23:50:19.938Z","date":"2026-02-21","time":"23:50:19"},{"rt":null,"stimulus":"<p style=\"font-size: 50px; margin: 0; text-align: center;\">+</p>","response":null,"trial_type":"html-keyboard-response","trial_index":33,"plugin_version":"2.1.0","time_elapsed":97288,"subject_id":"91312","group":"Group1","condition":"1_Rep","full_date":"2026-02-21T23:50:19.938Z","date":"2026-02-21","time":"23:50:19"},{"task":"memory_phase","broad_category":"S","image_png":"S_Dolomite_14.png","image_id":398,"category_name":"Dolomite","category":25,"distinct_rating":1.43,"distinct_type":"Bottom","rt":null,"stimulus":"Stimuli_Rocks480/S_Dolomite_14.png","response":null,"trial_type":"image-keyboard-response","trial_index":34,"plugin_version":"2.1.0","time_elapsed":99802,"subject_id":"91312","group":"Group1","condition":"1_Rep","full_date":"2026-02-21T23:50:19.938Z","date":"2026-02-21","time":"23:50:19"},{"rt":null,"stimulus":"<p style=\"font-size: 50px; margin: 0; text-align: center;\">+</p>","response":null,"trial_type":"html-keyboard-response","trial_index":35,"plugin_version":"2.1.0","time_elapsed":100819,"subject_id":"91312","group":"Group1","condition":"1_Rep","full_date":"2026-02-21T23:50:19.938Z","date":"2026-02-21","time":"23:50:19"},{"task":"memory_phase","broad_category":"M","image_png":"M_Quartzite_08.png","image_id":280,"category_name":"Quartzite","category":18,"distinct_rating":2.15,"distinct_type":"Bottom","rt":null,"stimulus":"Stimuli_Rocks480/M_Quartzite_08.png","response":null,"trial_type":"image-keyboard-response","trial_index":36,"plugin_version":"2.1.0","time_elapsed":103322,"subject_id":"91312","group":"Group1","condition":"1_Rep","full_date":"2026-02-21T23:50:19.938Z","date":"2026-02-21","time":"23:50:19"},{"rt":null,"stimulus":"<p style=\"font-size: 50px; margin: 0; text-align: center;\">+</p>","response":null,"trial_type":"html-keyboard-response","trial_index":37,"plugin_version":"2.1.0","time_elapsed":104324,"subject_id":"91312","group":"Group1","condition":"1_Rep","full_date":"2026-02-21T23:50:19.938Z","date":"2026-02-21","time":"23:50:19"},{"task":"memory_phase","broad_category":"I","image_png":"I_Andesite_06.png","image_id":6,"category_name":"Andesite","category":1,"distinct_rating":3.17,"distinct_type":"Bottom","rt":null,"stimulus":"Stimuli_Rocks480/I_Andesite_06.png","response":null,"trial_type":"image-keyboard-response","trial_index":38,"plugin_version":"2.1.0","time_elapsed":106840,"subject_id":"91312","group":"Group1","condition":"1_Rep","full_date":"2026-02-21T23:50:19.938Z","date":"2026-02-21","time":"23:50:19"},{"rt":null,"stimulus":"<p style=\"font-size: 50px; margin: 0; text-align: center;\">+</p>","response":null,"trial_type":"html-keyboard-response","trial_index":39,"plugin_version":"2.1.0","time_elapsed":107856,"subject_id":"91312","group":"Group1","condition":"1_Rep","full_date":"2026-02-21T23:50:19.938Z","date":"2026-02-21","time":"23:50:19"},{"task":"memory_phase","broad_category":"S","image_png":"S_Sandstone_16.png","image_id":464,"category_name":"Sandstone","category":29,"distinct_rating":1.93,"distinct_type":"Bottom","rt":null,"stimulus":"Stimuli_Rocks480/S_Sandstone_16.png","response":null,"trial_type":"image-keyboard-response","trial_index":40,"plugin_version":"2.1.0","time_elapsed":110369,"subject_id":"91312","group":"Group1","condition":"1_Rep","full_date":"2026-02-21T23:50:19.938Z","date":"2026-02-21","time":"23:50:19"},{"rt":null,"stimulus":"<p style=\"font-size: 50px; margin: 0; text-align: center;\">+</p>","response":null,"trial_type":"html-keyboard-response","trial_index":41,"plugin_version":"2.1.0","time_elapsed":111375,"subject_id":"91312","group":"Group1","condition":"1_Rep","full_date":"2026-02-21T23:50:19.938Z","date":"2026-02-21","time":"23:50:19"},{"task":"memory_phase","broad_category":"M","image_png":"M_Gneiss_13.png","image_id":205,"category_name":"Gneiss","category":13,"distinct_rating":3.26,"distinct_type":"Bottom","rt":null,"stimulus":"Stimuli_Rocks480/M_Gneiss_13.png","response":null,"trial_type":"image-keyboard-response","trial_index":42,"plugin_version":"2.1.0","time_elapsed":113887,"subject_id":"91312","group":"Group1","condition":"1_Rep","full_date":"2026-02-21T23:50:19.938Z","date":"2026-02-21","time":"23:50:19"},{"rt":null,"stimulus":"<p style=\"font-size: 50px; margin: 0; text-align: center;\">+</p>","response":null,"trial_type":"html-keyboard-response","trial_index":43,"plugin_version":"2.1.0","time_elapsed":114903,"subject_id":"91312","group":"Group1","condition":"1_Rep","full_date":"2026-02-21T23:50:19.938Z","date":"2026-02-21","time":"23:50:19"},{"task":"memory_phase","broad_category":"I","image_png":"I_Gabbro_16.png","image_id":64,"category_name":"Gabbro","category":4,"distinct_rating":2.52,"distinct_type":"Bottom","rt":null,"stimulus":"Stimuli_Rocks480/I_Gabbro_16.png","response":null,"trial_type":"image-keyboard-response","trial_index":44,"plugin_version":"2.1.0","time_elapsed":117406,"subject_id":"91312","group":"Group1","condition":"1_Rep","full_date":"2026-02-21T23:50:19.938Z","date":"2026-02-21","time":"23:50:19"},{"rt":null,"stimulus":"<p style=\"font-size: 50px; margin: 0; text-align: center;\">+</p>","response":null,"trial_type":"html-keyboard-response","trial_index":45,"plugin_version":"2.1.0","time_elapsed":118422,"subject_id":"91312","group":"Group1","condition":"1_Rep","full_date":"2026-02-21T23:50:19.938Z","date":"2026-02-21","time":"23:50:19"},{"task":"memory_phase","broad_category":"S","image_png":"S_Rock Salt_01.png","image_id":433,"category_name":"Rock Salt","category":28,"distinct_rating":7.18,"distinct_type":"Top","rt":null,"stimulus":"Stimuli_Rocks480/S_Rock Salt_01.png","response":null,"trial_type":"image-keyboard-response","trial_index":46,"plugin_version":"2.1.0","time_elapsed":120936,"subject_id":"91312","group":"Group1","condition":"1_Rep","full_date":"2026-02-21T23:50:19.938Z","date":"2026-02-21","time":"23:50:19"},{"rt":null,"stimulus":"<p style=\"font-size: 50px; margin: 0; text-align: center;\">+</p>","response":null,"trial_type":"html-keyboard-response","trial_index":47,"plugin_version":"2.1.0","time_elapsed":121953,"subject_id":"91312","group":"Group1","condition":"1_Rep","full_date":"2026-02-21T23:50:19.938Z","date":"2026-02-21","time":"23:50:19"},{"task":"memory_phase","broad_category":"S","image_png":"S_Rock Gypsum_04.png","image_id":420,"category_name":"Rock Gypsum","category":27,"distinct_rating":7.61,"distinct_type":"Top","rt":null,"stimulus":"Stimuli_Rocks480/S_Rock Gypsum_04.png","response":null,"trial_type":"image-keyboard-response","trial_index":48,"plugin_version":"2.1.0","time_elapsed":124470,"subject_id":"91312","group":"Group1","condition":"1_Rep","full_date":"2026-02-21T23:50:19.938Z","date":"2026-02-21","time":"23:50:19"},{"rt":null,"stimulus":"<p style=\"font-size: 50px; margin: 0; text-align: center;\">+</p>","response":null,"trial_type":"html-keyboard-response","trial_index":49,"plugin_version":"2.1.0","time_elapsed":125472,"subject_id":"91312","group":"Group1","condition":"1_Rep","full_date":"2026-02-21T23:50:19.938Z","date":"2026-02-21","time":"23:50:19"},{"task":"memory_phase","broad_category":"M","image_png":"M_Slate_15.png","image_id":319,"category_name":"Slate","category":20,"distinct_rating":2.13,"distinct_type":"Bottom","rt":null,"stimulus":"Stimuli_Rocks480/M_Slate_15.png","response":null,"trial_type":"image-keyboard-response","trial_index":50,"plugin_version":"2.1.0","time_elapsed":127990,"subject_id":"91312","group":"Group1","condition":"1_Rep","full_date":"2026-02-21T23:50:19.938Z","date":"2026-02-21","time":"23:50:19"},{"rt":null,"stimulus":"<p style=\"font-size: 50px; margin: 0; text-align: center;\">+</p>","response":null,"trial_type":"html-keyboard-response","trial_index":51,"plugin_version":"2.1.0","time_elapsed":129007,"subject_id":"91312","group":"Group1","condition":"1_Rep","full_date":"2026-02-21T23:50:19.938Z","date":"2026-02-21","time":"23:50:19"},{"task":"memory_phase","broad_category":"I","image_png":"I_Gabbro_08.png","image_id":56,"category_name":"Gabbro","category":4,"distinct_rating":3.02,"distinct_type":"Bottom","rt":null,"stimulus":"Stimuli_Rocks480/I_Gabbro_08.png","response":null,"trial_type":"image-keyboard-response","trial_index":52,"plugin_version":"2.1.0","time_elapsed":131522,"subject_id":"91312","group":"Group1","condition":"1_Rep","full_date":"2026-02-21T23:50:19.938Z","date":"2026-02-21","time":"23:50:19"},{"rt":null,"stimulus":"<p style=\"font-size: 50px; margin: 0; text-align: center;\">+</p>","response":null,"trial_type":"html-keyboard-response","trial_index":53,"plugin_version":"2.1.0","time_elapsed":132524,"subject_id":"91312","group":"Group1","condition":"1_Rep","full_date":"2026-02-21T23:50:19.938Z","date":"2026-02-21","time":"23:50:19"},{"task":"memory_phase","broad_category":"I","image_png":"I_Gabbro_11.png","image_id":59,"category_name":"Gabbro","category":4,"distinct_rating":1.99,"distinct_type":"Bottom","rt":null,"stimulus":"Stimuli_Rocks480/I_Gabbro_11.png","response":null,"trial_type":"image-keyboard-response","trial_index":54,"plugin_version":"2.1.0","time_elapsed":135038,"subject_id":"91312","group":"Group1","condition":"1_Rep","full_date":"2026-02-21T23:50:19.938Z","date":"2026-02-21","time":"23:50:19"},{"rt":2189,"stimulus":"<p style=\"max-width: 760px; margin: auto; font-size: 35px; line-height: 1.5;\">\n                Press SPACE to continue study phase\n              </p>","response":" ","trial_type":"html-keyboard-response","trial_index":55,"plugin_version":"2.1.0","time_elapsed":137228,"subject_id":"91312","group":"Group1","condition":"1_Rep","full_date":"2026-02-21T23:50:19.938Z","date":"2026-02-21","time":"23:50:19"},{"rt":null,"stimulus":"<p style=\"font-size: 50px; margin: 0; text-align: center;\">+</p>","response":null,"trial_type":"html-keyboard-response","trial_index":56,"plugin_version":"2.1.0","time_elapsed":138238,"subject_id":"91312","group":"Group1","condition":"1_Rep","full_date":"2026-02-21T23:50:19.938Z","date":"2026-02-21","time":"23:50:19"},{"task":"memory_phase","broad_category":"M","image_png":"M_Phyllite_07.png","image_id":263,"category_name":"Phyllite","category":17,"distinct_rating":2.59,"distinct_type":"Bottom","rt":null,"stimulus":"Stimuli_Rocks480/M_Phyllite_07.png","response":null,"trial_type":"image-keyboard-response","trial_index":57,"plugin_version":"2.1.0","time_elapsed":140754,"subject_id":"91312","group":"Group1","condition":"1_Rep","full_date":"2026-02-21T23:50:19.938Z","date":"2026-02-21","time":"23:50:19"},{"rt":null,"stimulus":"<p style=\"font-size: 50px; margin: 0; text-align: center;\">+</p>","response":null,"trial_type":"html-keyboard-response","trial_index":58,"plugin_version":"2.1.0","time_elapsed":141771,"subject_id":"91312","group":"Group1","condition":"1_Rep","full_date":"2026-02-21T23:50:19.938Z","date":"2026-02-21","time":"23:50:19"},{"task":"memory_phase","broad_category":"S","image_png":"S_Breccia_11.png","image_id":347,"category_name":"Breccia","category":22,"distinct_rating":6.7,"distinct_type":"Top","rt":null,"stimulus":"Stimuli_Rocks480/S_Breccia_11.png","response":null,"trial_type":"image-keyboard-response","trial_index":59,"plugin_version":"2.1.0","time_elapsed":144288,"subject_id":"91312","group":"Group1","condition":"1_Rep","full_date":"2026-02-21T23:50:19.938Z","date":"2026-02-21","time":"23:50:19"},{"rt":null,"stimulus":"<p style=\"font-size: 50px; margin: 0; text-align: center;\">+</p>","response":null,"trial_type":"html-keyboard-response","trial_index":60,"plugin_version":"2.1.0","time_elapsed":145289,"subject_id":"91312","group":"Group1","condition":"1_Rep","full_date":"2026-02-21T23:50:19.938Z","date":"2026-02-21","time":"23:50:19"},{"task":"memory_phase","broad_category":"M","image_png":"M_Quartzite_05.png","image_id":277,"category_name":"Quartzite","category":18,"distinct_rating":2.23,"distinct_type":"Bottom","rt":null,"stimulus":"Stimuli_Rocks480/M_Quartzite_05.png","response":null,"trial_type":"image-keyboard-response","trial_index":61,"plugin_version":"2.1.0","time_elapsed":147803,"subject_id":"91312","group":"Group1","condition":"1_Rep","full_date":"2026-02-21T23:50:19.938Z","date":"2026-02-21","time":"23:50:19"},{"rt":null,"stimulus":"<p style=\"font-size: 50px; margin: 0; text-align: center;\">+</p>","response":null,"trial_type":"html-keyboard-response","trial_index":62,"plugin_version":"2.1.0","time_elapsed":148820,"subject_id":"91312","group":"Group1","condition":"1_Rep","full_date":"2026-02-21T23:50:19.938Z","date":"2026-02-21","time":"23:50:19"},{"task":"memory_phase","broad_category":"I","image_png":"I_Pumice_12.png","image_id":140,"category_name":"Pumice","category":9,"distinct_rating":2.97,"distinct_type":"Bottom","rt":null,"stimulus":"Stimuli_Rocks480/I_Pumice_12.png","response":null,"trial_type":"image-keyboard-response","trial_index":63,"plugin_version":"2.1.0","time_elapsed":151325,"subject_id":"91312","group":"Group1","condition":"1_Rep","full_date":"2026-02-21T23:50:19.938Z","date":"2026-02-21","time":"23:50:19"},{"rt":null,"stimulus":"<p style=\"font-size: 50px; margin: 0; text-align: center;\">+</p>","response":null,"trial_type":"html-keyboard-response","trial_index":64,"plugin_version":"2.1.0","time_elapsed":152329,"subject_id":"91312","group":"Group1","condition":"1_Rep","full_date":"2026-02-21T23:50:19.938Z","date":"2026-02-21","time":"23:50:19"},{"task":"memory_phase","broad_category":"S","image_png":"S_Dolomite_12.png","image_id":396,"category_name":"Dolomite","category":25,"distinct_rating":1.85,"distinct_type":"Bottom","rt":null,"stimulus":"Stimuli_Rocks480/S_Dolomite_12.png","response":null,"trial_type":"image-keyboard-response","trial_index":65,"plugin_version":"2.1.0","time_elapsed":154840,"subject_id":"91312","group":"Group1","condition":"1_Rep","full_date":"2026-02-21T23:50:19.938Z","date":"2026-02-21","time":"23:50:19"},{"rt":null,"stimulus":"<p style=\"font-size: 50px; margin: 0; text-align: center;\">+</p>","response":null,"trial_type":"html-keyboard-response","trial_index":66,"plugin_version":"2.1.0","time_elapsed":155853,"subject_id":"91312","group":"Group1","condition":"1_Rep","full_date":"2026-02-21T23:50:19.938Z","date":"2026-02-21","time":"23:50:19"},{"task":"memory_phase","broad_category":"I","image_png":"I_Rhyolite_11.png","image_id":155,"category_name":"Rhyolite","category":10,"distinct_rating":1.73,"distinct_type":"Bottom","rt":null,"stimulus":"Stimuli_Rocks480/I_Rhyolite_11.png","response":null,"trial_type":"image-keyboard-response","trial_index":67,"plugin_version":"2.1.0","time_elapsed":158356,"subject_id":"91312","group":"Group1","condition":"1_Rep","full_date":"2026-02-21T23:50:19.938Z","date":"2026-02-21","time":"23:50:19"},{"rt":null,"stimulus":"<p style=\"font-size: 50px; margin: 0; text-align: center;\">+</p>","response":null,"trial_type":"html-keyboard-response","trial_index":68,"plugin_version":"2.1.0","time_elapsed":159372,"subject_id":"91312","group":"Group1","condition":"1_Rep","full_date":"2026-02-21T23:50:19.938Z","date":"2026-02-21","time":"23:50:19"},{"task":"memory_phase","broad_category":"S","image_png":"S_Sandstone_03.png","image_id":451,"category_name":"Sandstone","category":29,"distinct_rating":1.86,"distinct_type":"Bottom","rt":null,"stimulus":"Stimuli_Rocks480/S_Sandstone_03.png","response":null,"trial_type":"image-keyboard-response","trial_index":69,"plugin_version":"2.1.0","time_elapsed":161890,"subject_id":"91312","group":"Group1","condition":"1_Rep","full_date":"2026-02-21T23:50:19.938Z","date":"2026-02-21","time":"23:50:19"},{"rt":null,"stimulus":"<p style=\"font-size: 50px; margin: 0; text-align: center;\">+</p>","response":null,"trial_type":"html-keyboard-response","trial_index":70,"plugin_version":"2.1.0","time_elapsed":162904,"subject_id":"91312","group":"Group1","condition":"1_Rep","full_date":"2026-02-21T23:50:19.938Z","date":"2026-02-21","time":"23:50:19"},{"task":"memory_phase","broad_category":"M","image_png":"M_Gneiss_05.png","image_id":197,"category_name":"Gneiss","category":13,"distinct_rating":2.97,"distinct_type":"Bottom","rt":null,"stimulus":"Stimuli_Rocks480/M_Gneiss_05.png","response":null,"trial_type":"image-keyboard-response","trial_index":71,"plugin_version":"2.1.0","time_elapsed":165408,"subject_id":"91312","group":"Group1","condition":"1_Rep","full_date":"2026-02-21T23:50:19.938Z","date":"2026-02-21","time":"23:50:19"},{"rt":null,"stimulus":"<p style=\"font-size: 50px; margin: 0; text-align: center;\">+</p>","response":null,"trial_type":"html-keyboard-response","trial_index":72,"plugin_version":"2.1.0","time_elapsed":166424,"subject_id":"91312","group":"Group1","condition":"1_Rep","full_date":"2026-02-21T23:50:19.938Z","date":"2026-02-21","time":"23:50:19"},{"task":"memory_phase","broad_category":"I","image_png":"I_Basalt_01.png","image_id":17,"category_name":"Basalt","category":2,"distinct_rating":1.92,"distinct_type":"Bottom","rt":null,"stimulus":"Stimuli_Rocks480/I_Basalt_01.png","response":null,"trial_type":"image-keyboard-response","trial_index":73,"plugin_version":"2.1.0","time_elapsed":168940,"subject_id":"91312","group":"Group1","condition":"1_Rep","full_date":"2026-02-21T23:50:19.938Z","date":"2026-02-21","time":"23:50:19"},{"rt":null,"stimulus":"<p style=\"font-size: 50px; margin: 0; text-align: center;\">+</p>","response":null,"trial_type":"html-keyboard-response","trial_index":74,"plugin_version":"2.1.0","time_elapsed":169954,"subject_id":"91312","group":"Group1","condition":"1_Rep","full_date":"2026-02-21T23:50:19.938Z","date":"2026-02-21","time":"23:50:19"},{"task":"memory_phase","broad_category":"M","image_png":"M_Gneiss_06.png","image_id":198,"category_name":"Gneiss","category":13,"distinct_rating":2.65,"distinct_type":"Bottom","rt":null,"stimulus":"Stimuli_Rocks480/M_Gneiss_06.png","response":null,"trial_type":"image-keyboard-response","trial_index":75,"plugin_version":"2.1.0","time_elapsed":172471,"subject_id":"91312","group":"Group1","condition":"1_Rep","full_date":"2026-02-21T23:50:19.938Z","date":"2026-02-21","time":"23:50:19"},{"rt":null,"stimulus":"<p style=\"font-size: 50px; margin: 0; text-align: center;\">+</p>","response":null,"trial_type":"html-keyboard-response","trial_index":76,"plugin_version":"2.1.0","time_elapsed":173487,"subject_id":"91312","group":"Group1","condition":"1_Rep","full_date":"2026-02-21T23:50:19.938Z","date":"2026-02-21","time":"23:50:19"},{"task":"memory_phase","broad_category":"S","image_png":"S_Shale_08.png","image_id":472,"category_name":"Shale","category":30,"distinct_rating":2.55,"distinct_type":"Bottom","rt":null,"stimulus":"Stimuli_Rocks480/S_Shale_08.png","response":null,"trial_type":"image-keyboard-response","trial_index":77,"plugin_version":"2.1.0","time_elapsed":175990,"subject_id":"91312","group":"Group1","condition":"1_Rep","full_date":"2026-02-21T23:50:19.938Z","date":"2026-02-21","time":"23:50:19"},{"rt":null,"stimulus":"<p style=\"font-size: 50px; margin: 0; text-align: center;\">+</p>","response":null,"trial_type":"html-keyboard-response","trial_index":78,"plugin_version":"2.1.0","time_elapsed":177007,"subject_id":"91312","group":"Group1","condition":"1_Rep","full_date":"2026-02-21T23:50:19.938Z","date":"2026-02-21","time":"23:50:19"},{"task":"memory_phase","broad_category":"M","image_png":"M_Quartzite_13.png","image_id":285,"category_name":"Quartzite","category":18,"distinct_rating":2.27,"distinct_type":"Bottom","rt":null,"stimulus":"Stimuli_Rocks480/M_Quartzite_13.png","response":null,"trial_type":"image-keyboard-response","trial_index":79,"plugin_version":"2.1.0","time_elapsed":179519,"subject_id":"91312","group":"Group1","condition":"1_Rep","full_date":"2026-02-21T23:50:19.938Z","date":"2026-02-21","time":"23:50:19"},{"rt":null,"stimulus":"<p style=\"font-size: 50px; margin: 0; text-align: center;\">+</p>","response":null,"trial_type":"html-keyboard-response","trial_index":80,"plugin_version":"2.1.0","time_elapsed":180536,"subject_id":"91312","group":"Group1","condition":"1_Rep","full_date":"2026-02-21T23:50:19.938Z","date":"2026-02-21","time":"23:50:19"},{"task":"memory_phase","broad_category":"M","image_png":"M_Marble_04.png","image_id":228,"category_name":"Marble","category":15,"distinct_rating":3.15,"distinct_type":"Bottom","rt":null,"stimulus":"Stimuli_Rocks480/M_Marble_04.png","response":null,"trial_type":"image-keyboard-response","trial_index":81,"plugin_version":"2.1.0","time_elapsed":183040,"subject_id":"91312","group":"Group1","condition":"1_Rep","full_date":"2026-02-21T23:50:19.938Z","date":"2026-02-21","time":"23:50:19"},{"rt":null,"stimulus":"<p style=\"font-size: 50px; margin: 0; text-align: center;\">+</p>","response":null,"trial_type":"html-keyboard-response","trial_index":82,"plugin_version":"2.1.0","time_elapsed":184054,"subject_id":"91312","group":"Group1","condition":"1_Rep","full_date":"2026-02-21T23:50:19.938Z","date":"2026-02-21","time":"23:50:19"},{"task":"memory_phase","broad_category":"I","image_png":"I_Andesite_08.png","image_id":8,"category_name":"Andesite","category":1,"distinct_rating":1.95,"distinct_type":"Bottom","rt":null,"stimulus":"Stimuli_Rocks480/I_Andesite_08.png","response":null,"trial_type":"image-keyboard-response","trial_index":83,"plugin_version":"2.1.0","time_elapsed":186571,"subject_id":"91312","group":"Group1","condition":"1_Rep","full_date":"2026-02-21T23:50:19.938Z","date":"2026-02-21","time":"23:50:19"},{"rt":null,"stimulus":"<p style=\"font-size: 50px; margin: 0; text-align: center;\">+</p>","response":null,"trial_type":"html-keyboard-response","trial_index":84,"plugin_version":"2.1.0","time_elapsed":187574,"subject_id":"91312","group":"Group1","condition":"1_Rep","full_date":"2026-02-21T23:50:19.938Z","date":"2026-02-21","time":"23:50:19"},{"task":"memory_phase","broad_category":"I","image_png":"I_Diorite_04.png","image_id":36,"category_name":"Diorite","category":3,"distinct_rating":2.98,"distinct_type":"Bottom","rt":null,"stimulus":"Stimuli_Rocks480/I_Diorite_04.png","response":null,"trial_type":"image-keyboard-response","trial_index":85,"plugin_version":"2.1.0","time_elapsed":190086,"subject_id":"91312","group":"Group1","condition":"1_Rep","full_date":"2026-02-21T23:50:19.938Z","date":"2026-02-21","time":"23:50:19"},{"rt":null,"stimulus":"<p style=\"font-size: 50px; margin: 0; text-align: center;\">+</p>","response":null,"trial_type":"html-keyboard-response","trial_index":86,"plugin_version":"2.1.0","time_elapsed":191090,"subject_id":"91312","group":"Group1","condition":"1_Rep","full_date":"2026-02-21T23:50:19.938Z","date":"2026-02-21","time":"23:50:19"},{"task":"memory_phase","broad_category":"M","image_png":"M_Slate_03.png","image_id":307,"category_name":"Slate","category":20,"distinct_rating":1.87,"distinct_type":"Bottom","rt":null,"stimulus":"Stimuli_Rocks480/M_Slate_03.png","response":null,"trial_type":"image-keyboard-response","trial_index":87,"plugin_version":"2.1.0","time_elapsed":193601,"subject_id":"91312","group":"Group1","condition":"1_Rep","full_date":"2026-02-21T23:50:19.938Z","date":"2026-02-21","time":"23:50:19"},{"rt":null,"stimulus":"<p style=\"font-size: 50px; margin: 0; text-align: center;\">+</p>","response":null,"trial_type":"html-keyboard-response","trial_index":88,"plugin_version":"2.1.0","time_elapsed":194606,"subject_id":"91312","group":"Group1","condition":"1_Rep","full_date":"2026-02-21T23:50:19.938Z","date":"2026-02-21","time":"23:50:19"},{"task":"memory_phase","broad_category":"M","image_png":"M_Marble_16.png","image_id":240,"category_name":"Marble","category":15,"distinct_rating":2.57,"distinct_type":"Bottom","rt":null,"stimulus":"Stimuli_Rocks480/M_Marble_16.png","response":null,"trial_type":"image-keyboard-response","trial_index":89,"plugin_version":"2.1.0","time_elapsed":197122,"subject_id":"91312","group":"Group1","condition":"1_Rep","full_date":"2026-02-21T23:50:19.938Z","date":"2026-02-21","time":"23:50:19"},{"rt":null,"stimulus":"<p style=\"font-size: 50px; margin: 0; text-align: center;\">+</p>","response":null,"trial_type":"html-keyboard-response","trial_index":90,"plugin_version":"2.1.0","time_elapsed":198138,"subject_id":"91312","group":"Group1","condition":"1_Rep","full_date":"2026-02-21T23:50:19.938Z","date":"2026-02-21","time":"23:50:19"},{"task":"memory_phase","broad_category":"M","image_png":"M_Slate_11.png","image_id":315,"category_name":"Slate","category":20,"distinct_rating":2.75,"distinct_type":"Bottom","rt":null,"stimulus":"Stimuli_Rocks480/M_Slate_11.png","response":null,"trial_type":"image-keyboard-response","trial_index":91,"plugin_version":"2.1.0","time_elapsed":200655,"subject_id":"91312","group":"Group1","condition":"1_Rep","full_date":"2026-02-21T23:50:19.938Z","date":"2026-02-21","time":"23:50:19"},{"rt":null,"stimulus":"<p style=\"font-size: 50px; margin: 0; text-align: center;\">+</p>","response":null,"trial_type":"html-keyboard-response","trial_index":92,"plugin_version":"2.1.0","time_elapsed":201668,"subject_id":"91312","group":"Group1","condition":"1_Rep","full_date":"2026-02-21T23:50:19.938Z","date":"2026-02-21","time":"23:50:19"},{"task":"memory_phase","broad_category":"I","image_png":"I_Pegmatite_10.png","image_id":106,"category_name":"Pegmatite","category":7,"distinct_rating":7.66,"distinct_type":"Top","rt":null,"stimulus":"Stimuli_Rocks480/I_Pegmatite_10.png","response":null,"trial_type":"image-keyboard-response","trial_index":93,"plugin_version":"2.1.0","time_elapsed":204173,"subject_id":"91312","group":"Group1","condition":"1_Rep","full_date":"2026-02-21T23:50:19.938Z","date":"2026-02-21","time":"23:50:19"},{"rt":null,"stimulus":"<p style=\"font-size: 50px; margin: 0; text-align: center;\">+</p>","response":null,"trial_type":"html-keyboard-response","trial_index":94,"plugin_version":"2.1.0","time_elapsed":205180,"subject_id":"91312","group":"Group1","condition":"1_Rep","full_date":"2026-02-21T23:50:19.938Z","date":"2026-02-21","time":"23:50:19"},{"task":"memory_phase","broad_category":"M","image_png":"M_Phyllite_03.png","image_id":259,"category_name":"Phyllite","category":17,"distinct_rating":2.5,"distinct_type":"Bottom","rt":null,"stimulus":"Stimuli_Rocks480/M_Phyllite_03.png","response":null,"trial_type":"image-keyboard-response","trial_index":95,"plugin_version":"2.1.0","time_elapsed":207686,"subject_id":"91312","group":"Group1","condition":"1_Rep","full_date":"2026-02-21T23:50:19.938Z","date":"2026-02-21","time":"23:50:19"},{"rt":null,"stimulus":"<p style=\"font-size: 50px; margin: 0; text-align: center;\">+</p>","response":null,"trial_type":"html-keyboard-response","trial_index":96,"plugin_version":"2.1.0","time_elapsed":208703,"subject_id":"91312","group":"Group1","condition":"1_Rep","full_date":"2026-02-21T23:50:19.938Z","date":"2026-02-21","time":"23:50:19"},{"task":"memory_phase","broad_category":"I","image_png":"I_Diorite_03.png","image_id":35,"category_name":"Diorite","category":3,"distinct_rating":3.14,"distinct_type":"Bottom","rt":null,"stimulus":"Stimuli_Rocks480/I_Diorite_03.png","response":null,"trial_type":"image-keyboard-response","trial_index":97,"plugin_version":"2.1.0","time_elapsed":211206,"subject_id":"91312","group":"Group1","condition":"1_Rep","full_date":"2026-02-21T23:50:19.938Z","date":"2026-02-21","time":"23:50:19"},{"rt":null,"stimulus":"<p style=\"font-size: 50px; margin: 0; text-align: center;\">+</p>","response":null,"trial_type":"html-keyboard-response","trial_index":98,"plugin_version":"2.1.0","time_elapsed":212221,"subject_id":"91312","group":"Group1","condition":"1_Rep","full_date":"2026-02-21T23:50:19.938Z","date":"2026-02-21","time":"23:50:19"},{"task":"memory_phase","broad_category":"I","image_png":"I_Diorite_05.png","image_id":37,"category_name":"Diorite","category":3,"distinct_rating":3.08,"distinct_type":"Bottom","rt":null,"stimulus":"Stimuli_Rocks480/I_Diorite_05.png","response":null,"trial_type":"image-keyboard-response","trial_index":99,"plugin_version":"2.1.0","time_elapsed":214723,"subject_id":"91312","group":"Group1","condition":"1_Rep","full_date":"2026-02-21T23:50:19.938Z","date":"2026-02-21","time":"23:50:19"},{"rt":null,"stimulus":"<p style=\"font-size: 50px; margin: 0; text-align: center;\">+</p>","response":null,"trial_type":"html-keyboard-response","trial_index":100,"plugin_version":"2.1.0","time_elapsed":215733,"subject_id":"91312","group":"Group1","condition":"1_Rep","full_date":"2026-02-21T23:50:19.938Z","date":"2026-02-21","time":"23:50:19"},{"task":"memory_phase","broad_category":"I","image_png":"I_Pegmatite_16.png","image_id":112,"category_name":"Pegmatite","category":7,"distinct_rating":7.03,"distinct_type":"Top","rt":null,"stimulus":"Stimuli_Rocks480/I_Pegmatite_16.png","response":null,"trial_type":"image-keyboard-response","trial_index":101,"plugin_version":"2.1.0","time_elapsed":218235,"subject_id":"91312","group":"Group1","condition":"1_Rep","full_date":"2026-02-21T23:50:19.938Z","date":"2026-02-21","time":"23:50:19"},{"rt":null,"stimulus":"<p style=\"font-size: 50px; margin: 0; text-align: center;\">+</p>","response":null,"trial_type":"html-keyboard-response","trial_index":102,"plugin_version":"2.1.0","time_elapsed":219237,"subject_id":"91312","group":"Group1","condition":"1_Rep","full_date":"2026-02-21T23:50:19.938Z","date":"2026-02-21","time":"23:50:19"},{"task":"memory_phase","broad_category":"I","image_png":"I_Basalt_02.png","image_id":18,"category_name":"Basalt","category":2,"distinct_rating":1.84,"distinct_type":"Bottom","rt":null,"stimulus":"Stimuli_Rocks480/I_Basalt_02.png","response":null,"trial_type":"image-keyboard-response","trial_index":103,"plugin_version":"2.1.0","time_elapsed":221751,"subject_id":"91312","group":"Group1","condition":"1_Rep","full_date":"2026-02-21T23:50:19.938Z","date":"2026-02-21","time":"23:50:19"},{"rt":null,"stimulus":"<p style=\"font-size: 50px; margin: 0; text-align: center;\">+</p>","response":null,"trial_type":"html-keyboard-response","trial_index":104,"plugin_version":"2.1.0","time_elapsed":222755,"subject_id":"91312","group":"Group1","condition":"1_Rep","full_date":"2026-02-21T23:50:19.938Z","date":"2026-02-21","time":"23:50:19"},{"task":"memory_phase","broad_category":"I","image_png":"I_Rhyolite_14.png","image_id":158,"category_name":"Rhyolite","category":10,"distinct_rating":2.59,"distinct_type":"Bottom","rt":null,"stimulus":"Stimuli_Rocks480/I_Rhyolite_14.png","response":null,"trial_type":"image-keyboard-response","trial_index":105,"plugin_version":"2.1.0","time_elapsed":225272,"subject_id":"91312","group":"Group1","condition":"1_Rep","full_date":"2026-02-21T23:50:19.938Z","date":"2026-02-21","time":"23:50:19"},{"rt":29526,"stimulus":"<div style=\"max-width: 760px; margin: auto; font-size: 20px; line-height: 1.5;\">\n      <h1 style=\"text-align:center; font-size: 30px;\">Instructions for the Test Phase</h1>\n      <p>\n        The study phase is now complete.\n      </p>\n      <p>\n        In the test phase, you will again see a series of rock images. \n        Some will be ones you saw before - during the study phase, while others will be new.  \n        <b>Your task</b> is to decide whether you have seen each image before by pressing the corresponding key on your keyboard:<br><br>\n          <b>A</b> - NO (you did not see this image before)<br>\n          <b>L</b> - YES (you saw this image before)<br><br>\n        The test will proceed at your own pace. You will receive feedback after each response.  \n        Please try to respond <b>as accurately as possible</b>.\n      </p>\n      <p>\n        <b>Reminder:</b> If your computer has multiple language settings (e.g., English and another language),\n        please ensure it is set to English during the test phase.\n      </p>\n      <p>\n        You can track your progress using the <b>completion bar</b> at the top of the screen.  \n        Note that it has been refreshed to reflect your progress during this final phase.\n      </p>\n      <p>\n        Press the button below when you are ready to continue.\n      </p>\n    </div>","response":0,"trial_type":"html-button-response","trial_index":106,"plugin_version":"2.1.0","time_elapsed":254800,"subject_id":"91312","group":"Group1","condition":"1_Rep","full_date":"2026-02-21T23:50:19.938Z","date":"2026-02-21","time":"23:50:19"},{"correct_response":"l","task":"test_phase","broad_category":"M","image_png":"M_Quartzite_08.png","image_id":280,"category_name":"Quartzite","category":18,"distinct_rating":2.15,"distinct_type":"Bottom","item_type":"Target","rt":1674,"stimulus":"Stimuli_Rocks480/M_Quartzite_08.png","response":"l","trial_type":"image-keyboard-response","trial_index":107,"plugin_version":"2.1.0","time_elapsed":256477,"subject_id":"91312","group":"Group1","condition":"1_Rep","full_date":"2026-02-21T23:50:19.938Z","date":"2026-02-21","time":"23:50:19","cor_ans":true},{"trial_type":"html-keyboard-response","rt":null,"stimulus":"<p style=\"color: green; font-size: 50px; font-weight: bold;\">Correct</p>","response":null,"trial_index":108,"plugin_version":"2.1.0","time_elapsed":256987,"subject_id":"91312","group":"Group1","condition":"1_Rep","full_date":"2026-02-21T23:50:19.938Z","date":"2026-02-21","time":"23:50:19"},{"correct_response":"l","task":"test_phase","broad_category":"I","image_png":"I_Gabbro_11.png","image_id":59,"category_name":"Gabbro","category":4,"distinct_rating":1.99,"distinct_type":"Bottom","item_type":"Target","rt":1407,"stimulus":"Stimuli_Rocks480/I_Gabbro_11.png","response":"l","trial_type":"image-keyboard-response","trial_index":109,"plugin_version":"2.1.0","time_elapsed":258396,"subject_id":"91312","group":"Group1","condition":"1_Rep","full_date":"2026-02-21T23:50:19.938Z","date":"2026-02-21","time":"23:50:19","cor_ans":true},{"trial_type":"html-keyboard-response","rt":null,"stimulus":"<p style=\"color: green; font-size: 50px; font-weight: bold;\">Correct</p>","response":null,"trial_index":110,"plugin_version":"2.1.0","time_elapsed":258903,"subject_id":"91312","group":"Group1","condition":"1_Rep","full_date":"2026-02-21T23:50:19.938Z","date":"2026-02-21","time":"23:50:19"},{"correct_response":"l","task":"test_phase","broad_category":"M","image_png":"M_Slate_11.png","image_id":315,"category_name":"Slate","category":20,"distinct_rating":2.75,"distinct_type":"Bottom","item_type":"Target","rt":1062,"stimulus":"Stimuli_Rocks480/M_Slate_11.png","response":"a","trial_type":"image-keyboard-response","trial_index":111,"plugin_version":"2.1.0","time_elapsed":259967,"subject_id":"91312","group":"Group1","condition":"1_Rep","full_date":"2026-02-21T23:50:19.938Z","date":"2026-02-21","time":"23:50:19","cor_ans":false},{"trial_type":"html-keyboard-response","rt":null,"stimulus":"<p style=\"color: red; font-size: 50px; font-weight: bold;\">Incorrect</p>","response":null,"trial_index":112,"plugin_version":"2.1.0","time_elapsed":260480,"subject_id":"91312","group":"Group1","condition":"1_Rep","full_date":"2026-02-21T23:50:19.938Z","date":"2026-02-21","time":"23:50:19"},{"correct_response":"a","task":"test_phase","broad_category":"M","image_png":"M_Quartzite_07.png","image_id":279,"category_name":"Quartzite","category":18,"distinct_rating":1.97,"distinct_type":"Bottom","item_type":"Foil","rt":918,"stimulus":"Stimuli_Rocks480/M_Quartzite_07.png","response":"a","trial_type":"image-keyboard-response","trial_index":113,"plugin_version":"2.1.0","time_elapsed":261400,"subject_id":"91312","group":"Group1","condition":"1_Rep","full_date":"2026-02-21T23:50:19.938Z","date":"2026-02-21","time":"23:50:19","cor_ans":true},{"trial_type":"html-keyboard-response","rt":null,"stimulus":"<p style=\"color: green; font-size: 50px; font-weight: bold;\">Correct</p>","response":null,"trial_index":114,"plugin_version":"2.1.0","time_elapsed":261905,"subject_id":"91312","group":"Group1","condition":"1_Rep","full_date":"2026-02-21T23:50:19.938Z","date":"2026-02-21","time":"23:50:19"},{"correct_response":"l","task":"test_phase","broad_category":"M","image_png":"M_Gneiss_13.png","image_id":205,"category_name":"Gneiss","category":13,"distinct_rating":3.26,"distinct_type":"Bottom","item_type":"Target","rt":1439,"stimulus":"Stimuli_Rocks480/M_Gneiss_13.png","response":"a","trial_type":"image-keyboard-response","trial_index":115,"plugin_version":"2.1.0","time_elapsed":263346,"subject_id":"91312","group":"Group1","condition":"1_Rep","full_date":"2026-02-21T23:50:19.938Z","date":"2026-02-21","time":"23:50:19","cor_ans":false},{"trial_type":"html-keyboard-response","rt":null,"stimulus":"<p style=\"color: red; font-size: 50px; font-weight: bold;\">Incorrect</p>","response":null,"trial_index":116,"plugin_version":"2.1.0","time_elapsed":263856,"subject_id":"91312","group":"Group1","condition":"1_Rep","full_date":"2026-02-21T23:50:19.938Z","date":"2026-02-21","time":"23:50:19"},{"correct_response":"a","task":"test_phase","broad_category":"M","image_png":"M_Gneiss_14.png","image_id":206,"category_name":"Gneiss","category":13,"distinct_rating":3.41,"distinct_type":"Bottom","item_type":"Foil","rt":966,"stimulus":"Stimuli_Rocks480/M_Gneiss_14.png","response":"l","trial_type":"image-keyboard-response","trial_index":117,"plugin_version":"2.1.0","time_elapsed":264823,"subject_id":"91312","group":"Group1","condition":"1_Rep","full_date":"2026-02-21T23:50:19.938Z","date":"2026-02-21","time":"23:50:19","cor_ans":false},{"trial_type":"html-keyboard-response","rt":null,"stimulus":"<p style=\"color: red; font-size: 50px; font-weight: bold;\">Incorrect</p>","response":null,"trial_index":118,"plugin_version":"2.1.0","time_elapsed":265340,"subject_id":"91312","group":"Group1","condition":"1_Rep","full_date":"2026-02-21T23:50:19.938Z","date":"2026-02-21","time":"23:50:19"},{"correct_response":"a","task":"test_phase","broad_category":"M","image_png":"M_Marble_02.png","image_id":226,"category_name":"Marble","category":15,"distinct_rating":3.2,"distinct_type":"Bottom","item_type":"Foil","rt":1543,"stimulus":"Stimuli_Rocks480/M_Marble_02.png","response":"a","trial_type":"image-keyboard-response","trial_index":119,"plugin_version":"2.1.0","time_elapsed":266885,"subject_id":"91312","group":"Group1","condition":"1_Rep","full_date":"2026-02-21T23:50:19.938Z","date":"2026-02-21","time":"23:50:19","cor_ans":true},{"trial_type":"html-keyboard-response","rt":null,"stimulus":"<p style=\"color: green; font-size: 50px; font-weight: bold;\">Correct</p>","response":null,"trial_index":120,"plugin_version":"2.1.0","time_elapsed":267401,"subject_id":"91312","group":"Group1","condition":"1_Rep","full_date":"2026-02-21T23:50:19.938Z","date":"2026-02-21","time":"23:50:19"},{"correct_response":"a","task":"test_phase","broad_category":"I","image_png":"I_Pegmatite_11.png","image_id":107,"category_name":"Pegmatite","category":7,"distinct_rating":7.11,"distinct_type":"Top","item_type":"Foil","rt":1163,"stimulus":"Stimuli_Rocks480/I_Pegmatite_11.png","response":"a","trial_type":"image-keyboard-response","trial_index":121,"plugin_version":"2.1.0","time_elapsed":268566,"subject_id":"91312","group":"Group1","condition":"1_Rep","full_date":"2026-02-21T23:50:19.938Z","date":"2026-02-21","time":"23:50:19","cor_ans":true},{"trial_type":"html-keyboard-response","rt":null,"stimulus":"<p style=\"color: green; font-size: 50px; font-weight: bold;\">Correct</p>","response":null,"trial_index":122,"plugin_version":"2.1.0","time_elapsed":269074,"subject_id":"91312","group":"Group1","condition":"1_Rep","full_date":"2026-02-21T23:50:19.938Z","date":"2026-02-21","time":"23:50:19"},{"correct_response":"l","task":"test_phase","broad_category":"I","image_png":"I_Basalt_09.png","image_id":25,"category_name":"Basalt","category":2,"distinct_rating":1.89,"distinct_type":"Bottom","item_type":"Target","rt":1353,"stimulus":"Stimuli_Rocks480/I_Basalt_09.png","response":"l","trial_type":"image-keyboard-response","trial_index":123,"plugin_version":"2.1.0","time_elapsed":270429,"subject_id":"91312","group":"Group1","condition":"1_Rep","full_date":"2026-02-21T23:50:19.938Z","date":"2026-02-21","time":"23:50:19","cor_ans":true},{"trial_type":"html-keyboard-response","rt":null,"stimulus":"<p style=\"color: green; font-size: 50px; font-weight: bold;\">Correct</p>","response":null,"trial_index":124,"plugin_version":"2.1.0","time_elapsed":270937,"subject_id":"91312","group":"Group1","condition":"1_Rep","full_date":"2026-02-21T23:50:19.938Z","date":"2026-02-21","time":"23:50:19"},{"correct_response":"a","task":"test_phase","broad_category":"M","image_png":"M_Gneiss_15.png","image_id":207,"category_name":"Gneiss","category":13,"distinct_rating":3.11,"distinct_type":"Bottom","item_type":"Foil","rt":1303,"stimulus":"Stimuli_Rocks480/M_Gneiss_15.png","response":"a","trial_type":"image-keyboard-response","trial_index":125,"plugin_version":"2.1.0","time_elapsed":272242,"subject_id":"91312","group":"Group1","condition":"1_Rep","full_date":"2026-02-21T23:50:19.938Z","date":"2026-02-21","time":"23:50:19","cor_ans":true},{"trial_type":"html-keyboard-response","rt":null,"stimulus":"<p style=\"color: green; font-size: 50px; font-weight: bold;\">Correct</p>","response":null,"trial_index":126,"plugin_version":"2.1.0","time_elapsed":272755,"subject_id":"91312","group":"Group1","condition":"1_Rep","full_date":"2026-02-21T23:50:19.938Z","date":"2026-02-21","time":"23:50:19"},{"correct_response":"l","task":"test_phase","broad_category":"S","image_png":"S_Sandstone_16.png","image_id":464,"category_name":"Sandstone","category":29,"distinct_rating":1.93,"distinct_type":"Bottom","item_type":"Target","rt":998,"stimulus":"Stimuli_Rocks480/S_Sandstone_16.png","response":"a","trial_type":"image-keyboard-response","trial_index":127,"plugin_version":"2.1.0","time_elapsed":273756,"subject_id":"91312","group":"Group1","condition":"1_Rep","full_date":"2026-02-21T23:50:19.938Z","date":"2026-02-21","time":"23:50:19","cor_ans":false},{"trial_type":"html-keyboard-response","rt":null,"stimulus":"<p style=\"color: red; font-size: 50px; font-weight: bold;\">Incorrect</p>","response":null,"trial_index":128,"plugin_version":"2.1.0","time_elapsed":274272,"subject_id":"91312","group":"Group1","condition":"1_Rep","full_date":"2026-02-21T23:50:19.938Z","date":"2026-02-21","time":"23:50:19"},{"correct_response":"l","task":"test_phase","broad_category":"S","image_png":"S_Shale_08.png","image_id":472,"category_name":"Shale","category":30,"distinct_rating":2.55,"distinct_type":"Bottom","item_type":"Target","rt":1083,"stimulus":"Stimuli_Rocks480/S_Shale_08.png","response":"a","trial_type":"image-keyboard-response","trial_index":129,"plugin_version":"2.1.0","time_elapsed":275356,"subject_id":"91312","group":"Group1","condition":"1_Rep","full_date":"2026-02-21T23:50:19.938Z","date":"2026-02-21","time":"23:50:19","cor_ans":false},{"trial_type":"html-keyboard-response","rt":null,"stimulus":"<p style=\"color: red; font-size: 50px; font-weight: bold;\">Incorrect</p>","response":null,"trial_index":130,"plugin_version":"2.1.0","time_elapsed":275872,"subject_id":"91312","group":"Group1","condition":"1_Rep","full_date":"2026-02-21T23:50:19.938Z","date":"2026-02-21","time":"23:50:19"},{"correct_response":"l","task":"test_phase","broad_category":"I","image_png":"I_Basalt_01.png","image_id":17,"category_name":"Basalt","category":2,"distinct_rating":1.92,"distinct_type":"Bottom","item_type":"Target","rt":1716,"stimulus":"Stimuli_Rocks480/I_Basalt_01.png","response":"l","trial_type":"image-keyboard-response","trial_index":131,"plugin_version":"2.1.0","time_elapsed":277590,"subject_id":"91312","group":"Group1","condition":"1_Rep","full_date":"2026-02-21T23:50:19.938Z","date":"2026-02-21","time":"23:50:19","cor_ans":true},{"trial_type":"html-keyboard-response","rt":null,"stimulus":"<p style=\"color: green; font-size: 50px; font-weight: bold;\">Correct</p>","response":null,"trial_index":132,"plugin_version":"2.1.0","time_elapsed":278103,"subject_id":"91312","group":"Group1","condition":"1_Rep","full_date":"2026-02-21T23:50:19.938Z","date":"2026-02-21","time":"23:50:19"},{"correct_response":"a","task":"test_phase","broad_category":"S","image_png":"S_Conglomerate_14.png","image_id":382,"category_name":"Conglomerate","category":24,"distinct_rating":6.86,"distinct_type":"Top","item_type":"Foil","rt":1079,"stimulus":"Stimuli_Rocks480/S_Conglomerate_14.png","response":"a","trial_type":"image-keyboard-response","trial_index":133,"plugin_version":"2.1.0","time_elapsed":279184,"subject_id":"91312","group":"Group1","condition":"1_Rep","full_date":"2026-02-21T23:50:19.938Z","date":"2026-02-21","time":"23:50:19","cor_ans":true},{"trial_type":"html-keyboard-response","rt":null,"stimulus":"<p style=\"color: green; font-size: 50px; font-weight: bold;\">Correct</p>","response":null,"trial_index":134,"plugin_version":"2.1.0","time_elapsed":279689,"subject_id":"91312","group":"Group1","condition":"1_Rep","full_date":"2026-02-21T23:50:19.938Z","date":"2026-02-21","time":"23:50:19"},{"correct_response":"l","task":"test_phase","broad_category":"M","image_png":"M_Phyllite_07.png","image_id":263,"category_name":"Phyllite","category":17,"distinct_rating":2.59,"distinct_type":"Bottom","item_type":"Target","rt":1079,"stimulus":"Stimuli_Rocks480/M_Phyllite_07.png","response":"l","trial_type":"image-keyboard-response","trial_index":135,"plugin_version":"2.1.0","time_elapsed":280770,"subject_id":"91312","group":"Group1","condition":"1_Rep","full_date":"2026-02-21T23:50:19.938Z","date":"2026-02-21","time":"23:50:19","cor_ans":true},{"trial_type":"html-keyboard-response","rt":null,"stimulus":"<p style=\"color: green; font-size: 50px; font-weight: bold;\">Correct</p>","response":null,"trial_index":136,"plugin_version":"2.1.0","time_elapsed":281280,"subject_id":"91312","group":"Group1","condition":"1_Rep","full_date":"2026-02-21T23:50:19.938Z","date":"2026-02-21","time":"23:50:19"},{"correct_response":"l","task":"test_phase","broad_category":"S","image_png":"S_Rock Gypsum_04.png","image_id":420,"category_name":"Rock Gypsum","category":27,"distinct_rating":7.61,"distinct_type":"Top","item_type":"Target","rt":1774,"stimulus":"Stimuli_Rocks480/S_Rock Gypsum_04.png","response":"l","trial_type":"image-keyboard-response","trial_index":137,"plugin_version":"2.1.0","time_elapsed":283056,"subject_id":"91312","group":"Group1","condition":"1_Rep","full_date":"2026-02-21T23:50:19.938Z","date":"2026-02-21","time":"23:50:19","cor_ans":true},{"trial_type":"html-keyboard-response","rt":null,"stimulus":"<p style=\"color: green; font-size: 50px; font-weight: bold;\">Correct</p>","response":null,"trial_index":138,"plugin_version":"2.1.0","time_elapsed":283572,"subject_id":"91312","group":"Group1","condition":"1_Rep","full_date":"2026-02-21T23:50:19.938Z","date":"2026-02-21","time":"23:50:19"},{"correct_response":"l","task":"test_phase","broad_category":"S","image_png":"S_Shale_01.png","image_id":465,"category_name":"Shale","category":30,"distinct_rating":2.7,"distinct_type":"Bottom","item_type":"Target","rt":888,"stimulus":"Stimuli_Rocks480/S_Shale_01.png","response":"l","trial_type":"image-keyboard-response","trial_index":139,"plugin_version":"2.1.0","time_elapsed":284462,"subject_id":"91312","group":"Group1","condition":"1_Rep","full_date":"2026-02-21T23:50:19.938Z","date":"2026-02-21","time":"23:50:19","cor_ans":true},{"trial_type":"html-keyboard-response","rt":null,"stimulus":"<p style=\"color: green; font-size: 50px; font-weight: bold;\">Correct</p>","response":null,"trial_index":140,"plugin_version":"2.1.0","time_elapsed":284971,"subject_id":"91312","group":"Group1","condition":"1_Rep","full_date":"2026-02-21T23:50:19.938Z","date":"2026-02-21","time":"23:50:19"},{"correct_response":"a","task":"test_phase","broad_category":"S","image_png":"S_Sandstone_08.png","image_id":456,"category_name":"Sandstone","category":29,"distinct_rating":1.5,"distinct_type":"Bottom","item_type":"Foil","rt":952,"stimulus":"Stimuli_Rocks480/S_Sandstone_08.png","response":"l","trial_type":"image-keyboard-response","trial_index":141,"plugin_version":"2.1.0","time_elapsed":285925,"subject_id":"91312","group":"Group1","condition":"1_Rep","full_date":"2026-02-21T23:50:19.938Z","date":"2026-02-21","time":"23:50:19","cor_ans":false},{"trial_type":"html-keyboard-response","rt":null,"stimulus":"<p style=\"color: red; font-size: 50px; font-weight: bold;\">Incorrect</p>","response":null,"trial_index":142,"plugin_version":"2.1.0","time_elapsed":286427,"subject_id":"91312","group":"Group1","condition":"1_Rep","full_date":"2026-02-21T23:50:19.938Z","date":"2026-02-21","time":"23:50:19"},{"correct_response":"a","task":"test_phase","broad_category":"M","image_png":"M_Slate_04.png","image_id":308,"category_name":"Slate","category":20,"distinct_rating":2.2,"distinct_type":"Bottom","item_type":"Foil","rt":682,"stimulus":"Stimuli_Rocks480/M_Slate_04.png","response":"l","trial_type":"image-keyboard-response","trial_index":143,"plugin_version":"2.1.0","time_elapsed":287111,"subject_id":"91312","group":"Group1","condition":"1_Rep","full_date":"2026-02-21T23:50:19.938Z","date":"2026-02-21","time":"23:50:19","cor_ans":false},{"trial_type":"html-keyboard-response","rt":null,"stimulus":"<p style=\"color: red; font-size: 50px; font-weight: bold;\">Incorrect</p>","response":null,"trial_index":144,"plugin_version":"2.1.0","time_elapsed":287624,"subject_id":"91312","group":"Group1","condition":"1_Rep","full_date":"2026-02-21T23:50:19.938Z","date":"2026-02-21","time":"23:50:19"},{"correct_response":"l","task":"test_phase","broad_category":"M","image_png":"M_Gneiss_06.png","image_id":198,"category_name":"Gneiss","category":13,"distinct_rating":2.65,"distinct_type":"Bottom","item_type":"Target","rt":784,"stimulus":"Stimuli_Rocks480/M_Gneiss_06.png","response":"l","trial_type":"image-keyboard-response","trial_index":145,"plugin_version":"2.1.0","time_elapsed":288410,"subject_id":"91312","group":"Group1","condition":"1_Rep","full_date":"2026-02-21T23:50:19.938Z","date":"2026-02-21","time":"23:50:19","cor_ans":true},{"trial_type":"html-keyboard-response","rt":null,"stimulus":"<p style=\"color: green; font-size: 50px; font-weight: bold;\">Correct</p>","response":null,"trial_index":146,"plugin_version":"2.1.0","time_elapsed":288918,"subject_id":"91312","group":"Group1","condition":"1_Rep","full_date":"2026-02-21T23:50:19.938Z","date":"2026-02-21","time":"23:50:19"},{"correct_response":"l","task":"test_phase","broad_category":"I","image_png":"I_Basalt_02.png","image_id":18,"category_name":"Basalt","category":2,"distinct_rating":1.84,"distinct_type":"Bottom","item_type":"Target","rt":983,"stimulus":"Stimuli_Rocks480/I_Basalt_02.png","response":"l","trial_type":"image-keyboard-response","trial_index":147,"plugin_version":"2.1.0","time_elapsed":289903,"subject_id":"91312","group":"Group1","condition":"1_Rep","full_date":"2026-02-21T23:50:19.938Z","date":"2026-02-21","time":"23:50:19","cor_ans":true},{"trial_type":"html-keyboard-response","rt":null,"stimulus":"<p style=\"color: green; font-size: 50px; font-weight: bold;\">Correct</p>","response":null,"trial_index":148,"plugin_version":"2.1.0","time_elapsed":290416,"subject_id":"91312","group":"Group1","condition":"1_Rep","full_date":"2026-02-21T23:50:19.938Z","date":"2026-02-21","time":"23:50:19"},{"correct_response":"a","task":"test_phase","broad_category":"M","image_png":"M_Slate_14.png","image_id":318,"category_name":"Slate","category":20,"distinct_rating":2.58,"distinct_type":"Bottom","item_type":"Foil","rt":977,"stimulus":"Stimuli_Rocks480/M_Slate_14.png","response":"a","trial_type":"image-keyboard-response","trial_index":149,"plugin_version":"2.1.0","time_elapsed":291394,"subject_id":"91312","group":"Group1","condition":"1_Rep","full_date":"2026-02-21T23:50:19.938Z","date":"2026-02-21","time":"23:50:19","cor_ans":true},{"trial_type":"html-keyboard-response","rt":null,"stimulus":"<p style=\"color: green; font-size: 50px; font-weight: bold;\">Correct</p>","response":null,"trial_index":150,"plugin_version":"2.1.0","time_elapsed":291904,"subject_id":"91312","group":"Group1","condition":"1_Rep","full_date":"2026-02-21T23:50:19.938Z","date":"2026-02-21","time":"23:50:19"},{"correct_response":"a","task":"test_phase","broad_category":"M","image_png":"M_Phyllite_05.png","image_id":261,"category_name":"Phyllite","category":17,"distinct_rating":2.14,"distinct_type":"Bottom","item_type":"Foil","rt":961,"stimulus":"Stimuli_Rocks480/M_Phyllite_05.png","response":"a","trial_type":"image-keyboard-response","trial_index":151,"plugin_version":"2.1.0","time_elapsed":292867,"subject_id":"91312","group":"Group1","condition":"1_Rep","full_date":"2026-02-21T23:50:19.938Z","date":"2026-02-21","time":"23:50:19","cor_ans":true},{"trial_type":"html-keyboard-response","rt":null,"stimulus":"<p style=\"color: green; font-size: 50px; font-weight: bold;\">Correct</p>","response":null,"trial_index":152,"plugin_version":"2.1.0","time_elapsed":293372,"subject_id":"91312","group":"Group1","condition":"1_Rep","full_date":"2026-02-21T23:50:19.938Z","date":"2026-02-21","time":"23:50:19"},{"correct_response":"l","task":"test_phase","broad_category":"S","image_png":"S_Sandstone_15.png","image_id":463,"category_name":"Sandstone","category":29,"distinct_rating":2,"distinct_type":"Bottom","item_type":"Target","rt":934,"stimulus":"Stimuli_Rocks480/S_Sandstone_15.png","response":"a","trial_type":"image-keyboard-response","trial_index":153,"plugin_version":"2.1.0","time_elapsed":294307,"subject_id":"91312","group":"Group1","condition":"1_Rep","full_date":"2026-02-21T23:50:19.938Z","date":"2026-02-21","time":"23:50:19","cor_ans":false},{"trial_type":"html-keyboard-response","rt":null,"stimulus":"<p style=\"color: red; font-size: 50px; font-weight: bold;\">Incorrect</p>","response":null,"trial_index":154,"plugin_version":"2.1.0","time_elapsed":294816,"subject_id":"91312","group":"Group1","condition":"1_Rep","full_date":"2026-02-21T23:50:19.938Z","date":"2026-02-21","time":"23:50:19"},{"correct_response":"a","task":"test_phase","broad_category":"I","image_png":"I_Basalt_13.png","image_id":29,"category_name":"Basalt","category":2,"distinct_rating":2.68,"distinct_type":"Bottom","item_type":"Foil","rt":740,"stimulus":"Stimuli_Rocks480/I_Basalt_13.png","response":"l","trial_type":"image-keyboard-response","trial_index":155,"plugin_version":"2.1.0","time_elapsed":295558,"subject_id":"91312","group":"Group1","condition":"1_Rep","full_date":"2026-02-21T23:50:19.938Z","date":"2026-02-21","time":"23:50:19","cor_ans":false},{"trial_type":"html-keyboard-response","rt":null,"stimulus":"<p style=\"color: red; font-size: 50px; font-weight: bold;\">Incorrect</p>","response":null,"trial_index":156,"plugin_version":"2.1.0","time_elapsed":296072,"subject_id":"91312","group":"Group1","condition":"1_Rep","full_date":"2026-02-21T23:50:19.938Z","date":"2026-02-21","time":"23:50:19"},{"correct_response":"a","task":"test_phase","broad_category":"M","image_png":"M_Quartzite_15.png","image_id":287,"category_name":"Quartzite","category":18,"distinct_rating":2.19,"distinct_type":"Bottom","item_type":"Foil","rt":1653,"stimulus":"Stimuli_Rocks480/M_Quartzite_15.png","response":"a","trial_type":"image-keyboard-response","trial_index":157,"plugin_version":"2.1.0","time_elapsed":297727,"subject_id":"91312","group":"Group1","condition":"1_Rep","full_date":"2026-02-21T23:50:19.938Z","date":"2026-02-21","time":"23:50:19","cor_ans":true},{"trial_type":"html-keyboard-response","rt":null,"stimulus":"<p style=\"color: green; font-size: 50px; font-weight: bold;\">Correct</p>","response":null,"trial_index":158,"plugin_version":"2.1.0","time_elapsed":298231,"subject_id":"91312","group":"Group1","condition":"1_Rep","full_date":"2026-02-21T23:50:19.938Z","date":"2026-02-21","time":"23:50:19"},{"correct_response":"a","task":"test_phase","broad_category":"I","image_png":"I_Pumice_13.png","image_id":141,"category_name":"Pumice","category":9,"distinct_rating":3.12,"distinct_type":"Bottom","item_type":"Foil","rt":1153,"stimulus":"Stimuli_Rocks480/I_Pumice_13.png","response":"a","trial_type":"image-keyboard-response","trial_index":159,"plugin_version":"2.1.0","time_elapsed":299386,"subject_id":"91312","group":"Group1","condition":"1_Rep","full_date":"2026-02-21T23:50:19.938Z","date":"2026-02-21","time":"23:50:19","cor_ans":true},{"trial_type":"html-keyboard-response","rt":null,"stimulus":"<p style=\"color: green; font-size: 50px; font-weight: bold;\">Correct</p>","response":null,"trial_index":160,"plugin_version":"2.1.0","time_elapsed":299888,"subject_id":"91312","group":"Group1","condition":"1_Rep","full_date":"2026-02-21T23:50:19.938Z","date":"2026-02-21","time":"23:50:19"},{"correct_response":"a","task":"test_phase","broad_category":"I","image_png":"I_Gabbro_12.png","image_id":60,"category_name":"Gabbro","category":4,"distinct_rating":2.6,"distinct_type":"Bottom","item_type":"Foil","rt":1090,"stimulus":"Stimuli_Rocks480/I_Gabbro_12.png","response":"l","trial_type":"image-keyboard-response","trial_index":161,"plugin_version":"2.1.0","time_elapsed":300980,"subject_id":"91312","group":"Group1","condition":"1_Rep","full_date":"2026-02-21T23:50:19.938Z","date":"2026-02-21","time":"23:50:19","cor_ans":false},{"trial_type":"html-keyboard-response","rt":null,"stimulus":"<p style=\"color: red; font-size: 50px; font-weight: bold;\">Incorrect</p>","response":null,"trial_index":162,"plugin_version":"2.1.0","time_elapsed":301490,"subject_id":"91312","group":"Group1","condition":"1_Rep","full_date":"2026-02-21T23:50:19.938Z","date":"2026-02-21","time":"23:50:19"},{"correct_response":"a","task":"test_phase","broad_category":"I","image_png":"I_Rhyolite_08.png","image_id":152,"category_name":"Rhyolite","category":10,"distinct_rating":1.38,"distinct_type":"Bottom","item_type":"Foil","rt":789,"stimulus":"Stimuli_Rocks480/I_Rhyolite_08.png","response":"a","trial_type":"image-keyboard-response","trial_index":163,"plugin_version":"2.1.0","time_elapsed":302281,"subject_id":"91312","group":"Group1","condition":"1_Rep","full_date":"2026-02-21T23:50:19.938Z","date":"2026-02-21","time":"23:50:19","cor_ans":true},{"trial_type":"html-keyboard-response","rt":null,"stimulus":"<p style=\"color: green; font-size: 50px; font-weight: bold;\">Correct</p>","response":null,"trial_index":164,"plugin_version":"2.1.0","time_elapsed":302786,"subject_id":"91312","group":"Group1","condition":"1_Rep","full_date":"2026-02-21T23:50:19.938Z","date":"2026-02-21","time":"23:50:19"},{"correct_response":"a","task":"test_phase","broad_category":"I","image_png":"I_Basalt_10.png","image_id":26,"category_name":"Basalt","category":2,"distinct_rating":2.76,"distinct_type":"Bottom","item_type":"Foil","rt":1221,"stimulus":"Stimuli_Rocks480/I_Basalt_10.png","response":"l","trial_type":"image-keyboard-response","trial_index":165,"plugin_version":"2.1.0","time_elapsed":304008,"subject_id":"91312","group":"Group1","condition":"1_Rep","full_date":"2026-02-21T23:50:19.938Z","date":"2026-02-21","time":"23:50:19","cor_ans":false},{"trial_type":"html-keyboard-response","rt":null,"stimulus":"<p style=\"color: red; font-size: 50px; font-weight: bold;\">Incorrect</p>","response":null,"trial_index":166,"plugin_version":"2.1.0","time_elapsed":304522,"subject_id":"91312","group":"Group1","condition":"1_Rep","full_date":"2026-02-21T23:50:19.938Z","date":"2026-02-21","time":"23:50:19"},{"correct_response":"a","task":"test_phase","broad_category":"I","image_png":"I_Gabbro_02.png","image_id":50,"category_name":"Gabbro","category":4,"distinct_rating":2.73,"distinct_type":"Bottom","item_type":"Foil","rt":1102,"stimulus":"Stimuli_Rocks480/I_Gabbro_02.png","response":"l","trial_type":"image-keyboard-response","trial_index":167,"plugin_version":"2.1.0","time_elapsed":305626,"subject_id":"91312","group":"Group1","condition":"1_Rep","full_date":"2026-02-21T23:50:19.938Z","date":"2026-02-21","time":"23:50:19","cor_ans":false},{"trial_type":"html-keyboard-response","rt":null,"stimulus":"<p style=\"color: red; font-size: 50px; font-weight: bold;\">Incorrect</p>","response":null,"trial_index":168,"plugin_version":"2.1.0","time_elapsed":306139,"subject_id":"91312","group":"Group1","condition":"1_Rep","full_date":"2026-02-21T23:50:19.938Z","date":"2026-02-21","time":"23:50:19"},{"correct_response":"l","task":"test_phase","broad_category":"S","image_png":"S_Breccia_11.png","image_id":347,"category_name":"Breccia","category":22,"distinct_rating":6.7,"distinct_type":"Top","item_type":"Target","rt":896,"stimulus":"Stimuli_Rocks480/S_Breccia_11.png","response":"l","trial_type":"image-keyboard-response","trial_index":169,"plugin_version":"2.1.0","time_elapsed":307037,"subject_id":"91312","group":"Group1","condition":"1_Rep","full_date":"2026-02-21T23:50:19.938Z","date":"2026-02-21","time":"23:50:19","cor_ans":true},{"trial_type":"html-keyboard-response","rt":null,"stimulus":"<p style=\"color: green; font-size: 50px; font-weight: bold;\">Correct</p>","response":null,"trial_index":170,"plugin_version":"2.1.0","time_elapsed":307553,"subject_id":"91312","group":"Group1","condition":"1_Rep","full_date":"2026-02-21T23:50:19.938Z","date":"2026-02-21","time":"23:50:19"},{"correct_response":"a","task":"test_phase","broad_category":"I","image_png":"I_Obsidian_06.png","image_id":86,"category_name":"Obsidian","category":6,"distinct_rating":8.01,"distinct_type":"Top","item_type":"Foil","rt":873,"stimulus":"Stimuli_Rocks480/I_Obsidian_06.png","response":"a","trial_type":"image-keyboard-response","trial_index":171,"plugin_version":"2.1.0","time_elapsed":308427,"subject_id":"91312","group":"Group1","condition":"1_Rep","full_date":"2026-02-21T23:50:19.938Z","date":"2026-02-21","time":"23:50:19","cor_ans":true},{"trial_type":"html-keyboard-response","rt":null,"stimulus":"<p style=\"color: green; font-size: 50px; font-weight: bold;\">Correct</p>","response":null,"trial_index":172,"plugin_version":"2.1.0","time_elapsed":308938,"subject_id":"91312","group":"Group1","condition":"1_Rep","full_date":"2026-02-21T23:50:19.938Z","date":"2026-02-21","time":"23:50:19"},{"correct_response":"a","task":"test_phase","broad_category":"M","image_png":"M_Phyllite_02.png","image_id":258,"category_name":"Phyllite","category":17,"distinct_rating":2.89,"distinct_type":"Bottom","item_type":"Foil","rt":927,"stimulus":"Stimuli_Rocks480/M_Phyllite_02.png","response":"l","trial_type":"image-keyboard-response","trial_index":173,"plugin_version":"2.1.0","time_elapsed":309868,"subject_id":"91312","group":"Group1","condition":"1_Rep","full_date":"2026-02-21T23:50:19.938Z","date":"2026-02-21","time":"23:50:19","cor_ans":false},{"trial_type":"html-keyboard-response","rt":null,"stimulus":"<p style=\"color: red; font-size: 50px; font-weight: bold;\">Incorrect</p>","response":null,"trial_index":174,"plugin_version":"2.1.0","time_elapsed":310379,"subject_id":"91312","group":"Group1","condition":"1_Rep","full_date":"2026-02-21T23:50:19.938Z","date":"2026-02-21","time":"23:50:19"},{"correct_response":"l","task":"test_phase","broad_category":"M","image_png":"M_Marble_04.png","image_id":228,"category_name":"Marble","category":15,"distinct_rating":3.15,"distinct_type":"Bottom","item_type":"Target","rt":752,"stimulus":"Stimuli_Rocks480/M_Marble_04.png","response":"l","trial_type":"image-keyboard-response","trial_index":175,"plugin_version":"2.1.0","time_elapsed":311132,"subject_id":"91312","group":"Group1","condition":"1_Rep","full_date":"2026-02-21T23:50:19.938Z","date":"2026-02-21","time":"23:50:19","cor_ans":true},{"trial_type":"html-keyboard-response","rt":null,"stimulus":"<p style=\"color: green; font-size: 50px; font-weight: bold;\">Correct</p>","response":null,"trial_index":176,"plugin_version":"2.1.0","time_elapsed":311639,"subject_id":"91312","group":"Group1","condition":"1_Rep","full_date":"2026-02-21T23:50:19.938Z","date":"2026-02-21","time":"23:50:19"},{"correct_response":"a","task":"test_phase","broad_category":"S","image_png":"S_Dolomite_16.png","image_id":400,"category_name":"Dolomite","category":25,"distinct_rating":1.71,"distinct_type":"Bottom","item_type":"Foil","rt":895,"stimulus":"Stimuli_Rocks480/S_Dolomite_16.png","response":"a","trial_type":"image-keyboard-response","trial_index":177,"plugin_version":"2.1.0","time_elapsed":312536,"subject_id":"91312","group":"Group1","condition":"1_Rep","full_date":"2026-02-21T23:50:19.938Z","date":"2026-02-21","time":"23:50:19","cor_ans":true},{"trial_type":"html-keyboard-response","rt":null,"stimulus":"<p style=\"color: green; font-size: 50px; font-weight: bold;\">Correct</p>","response":null,"trial_index":178,"plugin_version":"2.1.0","time_elapsed":313038,"subject_id":"91312","group":"Group1","condition":"1_Rep","full_date":"2026-02-21T23:50:19.938Z","date":"2026-02-21","time":"23:50:19"},{"correct_response":"l","task":"test_phase","broad_category":"I","image_png":"I_Gabbro_16.png","image_id":64,"category_name":"Gabbro","category":4,"distinct_rating":2.52,"distinct_type":"Bottom","item_type":"Target","rt":1088,"stimulus":"Stimuli_Rocks480/I_Gabbro_16.png","response":"a","trial_type":"image-keyboard-response","trial_index":179,"plugin_version":"2.1.0","time_elapsed":314128,"subject_id":"91312","group":"Group1","condition":"1_Rep","full_date":"2026-02-21T23:50:19.938Z","date":"2026-02-21","time":"23:50:19","cor_ans":false},{"trial_type":"html-keyboard-response","rt":null,"stimulus":"<p style=\"color: red; font-size: 50px; font-weight: bold;\">Incorrect</p>","response":null,"trial_index":180,"plugin_version":"2.1.0","time_elapsed":314638,"subject_id":"91312","group":"Group1","condition":"1_Rep","full_date":"2026-02-21T23:50:19.938Z","date":"2026-02-21","time":"23:50:19"},{"correct_response":"l","task":"test_phase","broad_category":"I","image_png":"I_Rhyolite_11.png","image_id":155,"category_name":"Rhyolite","category":10,"distinct_rating":1.73,"distinct_type":"Bottom","item_type":"Target","rt":1315,"stimulus":"Stimuli_Rocks480/I_Rhyolite_11.png","response":"l","trial_type":"image-keyboard-response","trial_index":181,"plugin_version":"2.1.0","time_elapsed":315955,"subject_id":"91312","group":"Group1","condition":"1_Rep","full_date":"2026-02-21T23:50:19.938Z","date":"2026-02-21","time":"23:50:19","cor_ans":true},{"trial_type":"html-keyboard-response","rt":null,"stimulus":"<p style=\"color: green; font-size: 50px; font-weight: bold;\">Correct</p>","response":null,"trial_index":182,"plugin_version":"2.1.0","time_elapsed":316468,"subject_id":"91312","group":"Group1","condition":"1_Rep","full_date":"2026-02-21T23:50:19.938Z","date":"2026-02-21","time":"23:50:19"},{"correct_response":"a","task":"test_phase","broad_category":"I","image_png":"I_Diorite_10.png","image_id":42,"category_name":"Diorite","category":3,"distinct_rating":2.84,"distinct_type":"Bottom","item_type":"Foil","rt":1504,"stimulus":"Stimuli_Rocks480/I_Diorite_10.png","response":"a","trial_type":"image-keyboard-response","trial_index":183,"plugin_version":"2.1.0","time_elapsed":317974,"subject_id":"91312","group":"Group1","condition":"1_Rep","full_date":"2026-02-21T23:50:19.938Z","date":"2026-02-21","time":"23:50:19","cor_ans":true},{"trial_type":"html-keyboard-response","rt":null,"stimulus":"<p style=\"color: green; font-size: 50px; font-weight: bold;\">Correct</p>","response":null,"trial_index":184,"plugin_version":"2.1.0","time_elapsed":318486,"subject_id":"91312","group":"Group1","condition":"1_Rep","full_date":"2026-02-21T23:50:19.938Z","date":"2026-02-21","time":"23:50:19"},{"correct_response":"a","task":"test_phase","broad_category":"I","image_png":"I_Andesite_09.png","image_id":9,"category_name":"Andesite","category":1,"distinct_rating":2.49,"distinct_type":"Bottom","item_type":"Foil","rt":866,"stimulus":"Stimuli_Rocks480/I_Andesite_09.png","response":"a","trial_type":"image-keyboard-response","trial_index":185,"plugin_version":"2.1.0","time_elapsed":319354,"subject_id":"91312","group":"Group1","condition":"1_Rep","full_date":"2026-02-21T23:50:19.938Z","date":"2026-02-21","time":"23:50:19","cor_ans":true},{"trial_type":"html-keyboard-response","rt":null,"stimulus":"<p style=\"color: green; font-size: 50px; font-weight: bold;\">Correct</p>","response":null,"trial_index":186,"plugin_version":"2.1.0","time_elapsed":319867,"subject_id":"91312","group":"Group1","condition":"1_Rep","full_date":"2026-02-21T23:50:19.938Z","date":"2026-02-21","time":"23:50:19"},{"correct_response":"a","task":"test_phase","broad_category":"S","image_png":"S_Dolomite_01.png","image_id":385,"category_name":"Dolomite","category":25,"distinct_rating":1.43,"distinct_type":"Bottom","item_type":"Foil","rt":813,"stimulus":"Stimuli_Rocks480/S_Dolomite_01.png","response":"l","trial_type":"image-keyboard-response","trial_index":187,"plugin_version":"2.1.0","time_elapsed":320682,"subject_id":"91312","group":"Group1","condition":"1_Rep","full_date":"2026-02-21T23:50:19.938Z","date":"2026-02-21","time":"23:50:19","cor_ans":false},{"trial_type":"html-keyboard-response","rt":null,"stimulus":"<p style=\"color: red; font-size: 50px; font-weight: bold;\">Incorrect</p>","response":null,"trial_index":188,"plugin_version":"2.1.0","time_elapsed":321190,"subject_id":"91312","group":"Group1","condition":"1_Rep","full_date":"2026-02-21T23:50:19.938Z","date":"2026-02-21","time":"23:50:19"},{"correct_response":"a","task":"test_phase","broad_category":"M","image_png":"M_Marble_03.png","image_id":227,"category_name":"Marble","category":15,"distinct_rating":2.67,"distinct_type":"Bottom","item_type":"Foil","rt":1016,"stimulus":"Stimuli_Rocks480/M_Marble_03.png","response":"a","trial_type":"image-keyboard-response","trial_index":189,"plugin_version":"2.1.0","time_elapsed":322207,"subject_id":"91312","group":"Group1","condition":"1_Rep","full_date":"2026-02-21T23:50:19.938Z","date":"2026-02-21","time":"23:50:19","cor_ans":true},{"trial_type":"html-keyboard-response","rt":null,"stimulus":"<p style=\"color: green; font-size: 50px; font-weight: bold;\">Correct</p>","response":null,"trial_index":190,"plugin_version":"2.1.0","time_elapsed":322723,"subject_id":"91312","group":"Group1","condition":"1_Rep","full_date":"2026-02-21T23:50:19.938Z","date":"2026-02-21","time":"23:50:19"},{"correct_response":"l","task":"test_phase","broad_category":"M","image_png":"M_Phyllite_10.png","image_id":266,"category_name":"Phyllite","category":17,"distinct_rating":2.6,"distinct_type":"Bottom","item_type":"Target","rt":1335,"stimulus":"Stimuli_Rocks480/M_Phyllite_10.png","response":"a","trial_type":"image-keyboard-response","trial_index":191,"plugin_version":"2.1.0","time_elapsed":324059,"subject_id":"91312","group":"Group1","condition":"1_Rep","full_date":"2026-02-21T23:50:19.938Z","date":"2026-02-21","time":"23:50:19","cor_ans":false},{"trial_type":"html-keyboard-response","rt":null,"stimulus":"<p style=\"color: red; font-size: 50px; font-weight: bold;\">Incorrect</p>","response":null,"trial_index":192,"plugin_version":"2.1.0","time_elapsed":324572,"subject_id":"91312","group":"Group1","condition":"1_Rep","full_date":"2026-02-21T23:50:19.938Z","date":"2026-02-21","time":"23:50:19"},{"correct_response":"l","task":"test_phase","broad_category":"I","image_png":"I_Andesite_06.png","image_id":6,"category_name":"Andesite","category":1,"distinct_rating":3.17,"distinct_type":"Bottom","item_type":"Target","rt":974,"stimulus":"Stimuli_Rocks480/I_Andesite_06.png","response":"l","trial_type":"image-keyboard-response","trial_index":193,"plugin_version":"2.1.0","time_elapsed":325548,"subject_id":"91312","group":"Group1","condition":"1_Rep","full_date":"2026-02-21T23:50:19.938Z","date":"2026-02-21","time":"23:50:19","cor_ans":true},{"trial_type":"html-keyboard-response","rt":null,"stimulus":"<p style=\"color: green; font-size: 50px; font-weight: bold;\">Correct</p>","response":null,"trial_index":194,"plugin_version":"2.1.0","time_elapsed":326056,"subject_id":"91312","group":"Group1","condition":"1_Rep","full_date":"2026-02-21T23:50:19.938Z","date":"2026-02-21","time":"23:50:19"},{"correct_response":"l","task":"test_phase","broad_category":"S","image_png":"S_Sandstone_03.png","image_id":451,"category_name":"Sandstone","category":29,"distinct_rating":1.86,"distinct_type":"Bottom","item_type":"Target","rt":976,"stimulus":"Stimuli_Rocks480/S_Sandstone_03.png","response":"l","trial_type":"image-keyboard-response","trial_index":195,"plugin_version":"2.1.0","time_elapsed":327034,"subject_id":"91312","group":"Group1","condition":"1_Rep","full_date":"2026-02-21T23:50:19.938Z","date":"2026-02-21","time":"23:50:19","cor_ans":true},{"trial_type":"html-keyboard-response","rt":null,"stimulus":"<p style=\"color: green; font-size: 50px; font-weight: bold;\">Correct</p>","response":null,"trial_index":196,"plugin_version":"2.1.0","time_elapsed":327536,"subject_id":"91312","group":"Group1","condition":"1_Rep","full_date":"2026-02-21T23:50:19.938Z","date":"2026-02-21","time":"23:50:19"},{"correct_response":"l","task":"test_phase","broad_category":"I","image_png":"I_Gabbro_08.png","image_id":56,"category_name":"Gabbro","category":4,"distinct_rating":3.02,"distinct_type":"Bottom","item_type":"Target","rt":1121,"stimulus":"Stimuli_Rocks480/I_Gabbro_08.png","response":"l","trial_type":"image-keyboard-response","trial_index":197,"plugin_version":"2.1.0","time_elapsed":328659,"subject_id":"91312","group":"Group1","condition":"1_Rep","full_date":"2026-02-21T23:50:19.938Z","date":"2026-02-21","time":"23:50:19","cor_ans":true},{"trial_type":"html-keyboard-response","rt":null,"stimulus":"<p style=\"color: green; font-size: 50px; font-weight: bold;\">Correct</p>","response":null,"trial_index":198,"plugin_version":"2.1.0","time_elapsed":329168,"subject_id":"91312","group":"Group1","condition":"1_Rep","full_date":"2026-02-21T23:50:19.938Z","date":"2026-02-21","time":"23:50:19"},{"correct_response":"a","task":"test_phase","broad_category":"M","image_png":"M_Marble_14.png","image_id":238,"category_name":"Marble","category":15,"distinct_rating":3.31,"distinct_type":"Bottom","item_type":"Foil","rt":1198,"stimulus":"Stimuli_Rocks480/M_Marble_14.png","response":"l","trial_type":"image-keyboard-response","trial_index":199,"plugin_version":"2.1.0","time_elapsed":330368,"subject_id":"91312","group":"Group1","condition":"1_Rep","full_date":"2026-02-21T23:50:19.938Z","date":"2026-02-21","time":"23:50:19","cor_ans":false},{"trial_type":"html-keyboard-response","rt":null,"stimulus":"<p style=\"color: red; font-size: 50px; font-weight: bold;\">Incorrect</p>","response":null,"trial_index":200,"plugin_version":"2.1.0","time_elapsed":330871,"subject_id":"91312","group":"Group1","condition":"1_Rep","full_date":"2026-02-21T23:50:19.938Z","date":"2026-02-21","time":"23:50:19"},{"correct_response":"l","task":"test_phase","broad_category":"S","image_png":"S_Chert_10.png","image_id":362,"category_name":"Chert","category":23,"distinct_rating":7.17,"distinct_type":"Top","item_type":"Target","rt":986,"stimulus":"Stimuli_Rocks480/S_Chert_10.png","response":"a","trial_type":"image-keyboard-response","trial_index":201,"plugin_version":"2.1.0","time_elapsed":331860,"subject_id":"91312","group":"Group1","condition":"1_Rep","full_date":"2026-02-21T23:50:19.938Z","date":"2026-02-21","time":"23:50:19","cor_ans":false},{"trial_type":"html-keyboard-response","rt":null,"stimulus":"<p style=\"color: red; font-size: 50px; font-weight: bold;\">Incorrect</p>","response":null,"trial_index":202,"plugin_version":"2.1.0","time_elapsed":332366,"subject_id":"91312","group":"Group1","condition":"1_Rep","full_date":"2026-02-21T23:50:19.938Z","date":"2026-02-21","time":"23:50:19"},{"correct_response":"a","task":"test_phase","broad_category":"M","image_png":"M_Quartzite_12.png","image_id":284,"category_name":"Quartzite","category":18,"distinct_rating":1.92,"distinct_type":"Bottom","item_type":"Foil","rt":1020,"stimulus":"Stimuli_Rocks480/M_Quartzite_12.png","response":"l","trial_type":"image-keyboard-response","trial_index":203,"plugin_version":"2.1.0","time_elapsed":333387,"subject_id":"91312","group":"Group1","condition":"1_Rep","full_date":"2026-02-21T23:50:19.938Z","date":"2026-02-21","time":"23:50:19","cor_ans":false},{"trial_type":"html-keyboard-response","rt":null,"stimulus":"<p style=\"color: red; font-size: 50px; font-weight: bold;\">Incorrect</p>","response":null,"trial_index":204,"plugin_version":"2.1.0","time_elapsed":333904,"subject_id":"91312","group":"Group1","condition":"1_Rep","full_date":"2026-02-21T23:50:19.938Z","date":"2026-02-21","time":"23:50:19"},{"correct_response":"a","task":"test_phase","broad_category":"I","image_png":"I_Andesite_04.png","image_id":4,"category_name":"Andesite","category":1,"distinct_rating":3.18,"distinct_type":"Bottom","item_type":"Foil","rt":872,"stimulus":"Stimuli_Rocks480/I_Andesite_04.png","response":"l","trial_type":"image-keyboard-response","trial_index":205,"plugin_version":"2.1.0","time_elapsed":334777,"subject_id":"91312","group":"Group1","condition":"1_Rep","full_date":"2026-02-21T23:50:19.938Z","date":"2026-02-21","time":"23:50:19","cor_ans":false},{"trial_type":"html-keyboard-response","rt":null,"stimulus":"<p style=\"color: red; font-size: 50px; font-weight: bold;\">Incorrect</p>","response":null,"trial_index":206,"plugin_version":"2.1.0","time_elapsed":335290,"subject_id":"91312","group":"Group1","condition":"1_Rep","full_date":"2026-02-21T23:50:19.938Z","date":"2026-02-21","time":"23:50:19"},{"correct_response":"a","task":"test_phase","broad_category":"M","image_png":"M_Phyllite_13.png","image_id":269,"category_name":"Phyllite","category":17,"distinct_rating":2.8,"distinct_type":"Bottom","item_type":"Foil","rt":700,"stimulus":"Stimuli_Rocks480/M_Phyllite_13.png","response":"l","trial_type":"image-keyboard-response","trial_index":207,"plugin_version":"2.1.0","time_elapsed":335991,"subject_id":"91312","group":"Group1","condition":"1_Rep","full_date":"2026-02-21T23:50:19.938Z","date":"2026-02-21","time":"23:50:19","cor_ans":false},{"trial_type":"html-keyboard-response","rt":null,"stimulus":"<p style=\"color: red; font-size: 50px; font-weight: bold;\">Incorrect</p>","response":null,"trial_index":208,"plugin_version":"2.1.0","time_elapsed":336504,"subject_id":"91312","group":"Group1","condition":"1_Rep","full_date":"2026-02-21T23:50:19.938Z","date":"2026-02-21","time":"23:50:19"},{"correct_response":"a","task":"test_phase","broad_category":"I","image_png":"I_Andesite_03.png","image_id":3,"category_name":"Andesite","category":1,"distinct_rating":3.17,"distinct_type":"Bottom","item_type":"Foil","rt":791,"stimulus":"Stimuli_Rocks480/I_Andesite_03.png","response":"a","trial_type":"image-keyboard-response","trial_index":209,"plugin_version":"2.1.0","time_elapsed":337296,"subject_id":"91312","group":"Group1","condition":"1_Rep","full_date":"2026-02-21T23:50:19.938Z","date":"2026-02-21","time":"23:50:19","cor_ans":true},{"trial_type":"html-keyboard-response","rt":null,"stimulus":"<p style=\"color: green; font-size: 50px; font-weight: bold;\">Correct</p>","response":null,"trial_index":210,"plugin_version":"2.1.0","time_elapsed":337802,"subject_id":"91312","group":"Group1","condition":"1_Rep","full_date":"2026-02-21T23:50:19.938Z","date":"2026-02-21","time":"23:50:19"},{"correct_response":"a","task":"test_phase","broad_category":"I","image_png":"I_Peridotite_13.png","image_id":125,"category_name":"Peridotite","category":8,"distinct_rating":7.28,"distinct_type":"Top","item_type":"Foil","rt":764,"stimulus":"Stimuli_Rocks480/I_Peridotite_13.png","response":"a","trial_type":"image-keyboard-response","trial_index":211,"plugin_version":"2.1.0","time_elapsed":338568,"subject_id":"91312","group":"Group1","condition":"1_Rep","full_date":"2026-02-21T23:50:19.938Z","date":"2026-02-21","time":"23:50:19","cor_ans":true},{"trial_type":"html-keyboard-response","rt":null,"stimulus":"<p style=\"color: green; font-size: 50px; font-weight: bold;\">Correct</p>","response":null,"trial_index":212,"plugin_version":"2.1.0","time_elapsed":339071,"subject_id":"91312","group":"Group1","condition":"1_Rep","full_date":"2026-02-21T23:50:19.938Z","date":"2026-02-21","time":"23:50:19"},{"correct_response":"a","task":"test_phase","broad_category":"S","image_png":"S_Sandstone_04.png","image_id":452,"category_name":"Sandstone","category":29,"distinct_rating":1.8,"distinct_type":"Bottom","item_type":"Foil","rt":708,"stimulus":"Stimuli_Rocks480/S_Sandstone_04.png","response":"l","trial_type":"image-keyboard-response","trial_index":213,"plugin_version":"2.1.0","time_elapsed":339781,"subject_id":"91312","group":"Group1","condition":"1_Rep","full_date":"2026-02-21T23:50:19.938Z","date":"2026-02-21","time":"23:50:19","cor_ans":false},{"trial_type":"html-keyboard-response","rt":null,"stimulus":"<p style=\"color: red; font-size: 50px; font-weight: bold;\">Incorrect</p>","response":null,"trial_index":214,"plugin_version":"2.1.0","time_elapsed":340289,"subject_id":"91312","group":"Group1","condition":"1_Rep","full_date":"2026-02-21T23:50:19.938Z","date":"2026-02-21","time":"23:50:19"},{"correct_response":"a","task":"test_phase","broad_category":"I","image_png":"I_Rhyolite_10.png","image_id":154,"category_name":"Rhyolite","category":10,"distinct_rating":2.88,"distinct_type":"Bottom","item_type":"Foil","rt":1045,"stimulus":"Stimuli_Rocks480/I_Rhyolite_10.png","response":"l","trial_type":"image-keyboard-response","trial_index":215,"plugin_version":"2.1.0","time_elapsed":341336,"subject_id":"91312","group":"Group1","condition":"1_Rep","full_date":"2026-02-21T23:50:19.938Z","date":"2026-02-21","time":"23:50:19","cor_ans":false},{"trial_type":"html-keyboard-response","rt":null,"stimulus":"<p style=\"color: red; font-size: 50px; font-weight: bold;\">Incorrect</p>","response":null,"trial_index":216,"plugin_version":"2.1.0","time_elapsed":341838,"subject_id":"91312","group":"Group1","condition":"1_Rep","full_date":"2026-02-21T23:50:19.938Z","date":"2026-02-21","time":"23:50:19"},{"correct_response":"l","task":"test_phase","broad_category":"I","image_png":"I_Pegmatite_16.png","image_id":112,"category_name":"Pegmatite","category":7,"distinct_rating":7.03,"distinct_type":"Top","item_type":"Target","rt":861,"stimulus":"Stimuli_Rocks480/I_Pegmatite_16.png","response":"l","trial_type":"image-keyboard-response","trial_index":217,"plugin_version":"2.1.0","time_elapsed":342701,"subject_id":"91312","group":"Group1","condition":"1_Rep","full_date":"2026-02-21T23:50:19.938Z","date":"2026-02-21","time":"23:50:19","cor_ans":true},{"trial_type":"html-keyboard-response","rt":null,"stimulus":"<p style=\"color: green; font-size: 50px; font-weight: bold;\">Correct</p>","response":null,"trial_index":218,"plugin_version":"2.1.0","time_elapsed":343206,"subject_id":"91312","group":"Group1","condition":"1_Rep","full_date":"2026-02-21T23:50:19.938Z","date":"2026-02-21","time":"23:50:19"},{"correct_response":"a","task":"test_phase","broad_category":"M","image_png":"M_Slate_10.png","image_id":314,"category_name":"Slate","category":20,"distinct_rating":1.94,"distinct_type":"Bottom","item_type":"Foil","rt":813,"stimulus":"Stimuli_Rocks480/M_Slate_10.png","response":"a","trial_type":"image-keyboard-response","trial_index":219,"plugin_version":"2.1.0","time_elapsed":344021,"subject_id":"91312","group":"Group1","condition":"1_Rep","full_date":"2026-02-21T23:50:19.938Z","date":"2026-02-21","time":"23:50:19","cor_ans":true},{"trial_type":"html-keyboard-response","rt":null,"stimulus":"<p style=\"color: green; font-size: 50px; font-weight: bold;\">Correct</p>","response":null,"trial_index":220,"plugin_version":"2.1.0","time_elapsed":344537,"subject_id":"91312","group":"Group1","condition":"1_Rep","full_date":"2026-02-21T23:50:19.938Z","date":"2026-02-21","time":"23:50:19"},{"correct_response":"a","task":"test_phase","broad_category":"I","image_png":"I_Gabbro_14.png","image_id":62,"category_name":"Gabbro","category":4,"distinct_rating":2.95,"distinct_type":"Bottom","item_type":"Foil","rt":883,"stimulus":"Stimuli_Rocks480/I_Gabbro_14.png","response":"a","trial_type":"image-keyboard-response","trial_index":221,"plugin_version":"2.1.0","time_elapsed":345421,"subject_id":"91312","group":"Group1","condition":"1_Rep","full_date":"2026-02-21T23:50:19.938Z","date":"2026-02-21","time":"23:50:19","cor_ans":true},{"trial_type":"html-keyboard-response","rt":null,"stimulus":"<p style=\"color: green; font-size: 50px; font-weight: bold;\">Correct</p>","response":null,"trial_index":222,"plugin_version":"2.1.0","time_elapsed":345938,"subject_id":"91312","group":"Group1","condition":"1_Rep","full_date":"2026-02-21T23:50:19.938Z","date":"2026-02-21","time":"23:50:19"},{"correct_response":"l","task":"test_phase","broad_category":"M","image_png":"M_Marble_06.png","image_id":230,"category_name":"Marble","category":15,"distinct_rating":3.4,"distinct_type":"Bottom","item_type":"Target","rt":858,"stimulus":"Stimuli_Rocks480/M_Marble_06.png","response":"a","trial_type":"image-keyboard-response","trial_index":223,"plugin_version":"2.1.0","time_elapsed":346798,"subject_id":"91312","group":"Group1","condition":"1_Rep","full_date":"2026-02-21T23:50:19.938Z","date":"2026-02-21","time":"23:50:19","cor_ans":false},{"trial_type":"html-keyboard-response","rt":null,"stimulus":"<p style=\"color: red; font-size: 50px; font-weight: bold;\">Incorrect</p>","response":null,"trial_index":224,"plugin_version":"2.1.0","time_elapsed":347300,"subject_id":"91312","group":"Group1","condition":"1_Rep","full_date":"2026-02-21T23:50:19.938Z","date":"2026-02-21","time":"23:50:19"},{"correct_response":"a","task":"test_phase","broad_category":"S","image_png