[{"width":1470,"height":797,"webaudio":true,"browser":"chrome","browser_version":"143.0.0","mobile":false,"os":"Mac OS","fullscreen":true,"vsync_rate":60.28,"webcam":true,"microphone":true,"trial_type":"browser-check","trial_index":0,"plugin_version":"2.1.0","time_elapsed":1009,"subject_id":"91450","group":"Group1","condition":"1_Rep","full_date":"2026-02-25T19:31:48.589Z","date":"2026-02-25","time":"19:31:48"},{"success":true,"timeout":false,"failed_images":[],"failed_audio":[],"failed_video":[],"trial_type":"preload","trial_index":1,"plugin_version":"2.1.0","time_elapsed":5177,"subject_id":"91450","group":"Group1","condition":"1_Rep","full_date":"2026-02-25T19:31:48.589Z","date":"2026-02-25","time":"19:31:48"},{"rt":16747,"url":"SONA_consent_memorability.html","trial_type":"external-html","trial_index":2,"plugin_version":"2.1.0","time_elapsed":21974,"subject_id":"91450","group":"Group1","condition":"1_Rep","full_date":"2026-02-25T19:31:48.589Z","date":"2026-02-25","time":"19:31:48"},{"success":true,"rt":5746,"trial_type":"fullscreen","trial_index":3,"plugin_version":"2.1.0","time_elapsed":28723,"subject_id":"91450","group":"Group1","condition":"1_Rep","full_date":"2026-02-25T19:31:48.589Z","date":"2026-02-25","time":"19:31:48"},{"rt":27928,"stimulus":"<div style=\"max-width: 760px; margin: auto; font-size: 20px; line-height: 1.5;\">\n      <h1 style=\"text-align:center; font-size: 30px;\">Instructions</h1>\n      <p>\n        Welcome to the study on <b>visual memory</b>. This experiment consists of <b>two phases</b>: \n        a <b>study phase</b> and a <b>test phase</b>.\n      </p>\n      <p>\n        In the study phase, you will see a series of rock images along with their category labels.\n        The images will appear one at a time.\n        <b>Your task</b> is to learn the categories to which the rock images belong \n        and to remember each image as accurately as possible.\n      </p> \n      <p>\n        Note that you will see each image only <b>once</b> during the study phase. \n          So, please pay close attention and try to remember each image carefully.\n      </p>\n      <p>\n        After the study phase, <b>your memory will be tested</b>. \n        Additional instructions for the test phase will be provided at that time.\n      </p>\n      <p>\n        If your computer has multiple <b>language settings</b> (e.g., English and another language),\n        please make sure it is set to English before starting.\n      </p>\n      <p>\n        You can track your progress using the <b>completion bar</b> at the top of the screen. \n        Please note that the bar will refresh when the test phase begins \n        to give you an accurate sense of your progress in both phases.\n      </p> \n      <p>\n        Press the button below when you are ready to begin.\n      </p>\n    </div>","response":0,"trial_type":"html-button-response","trial_index":4,"plugin_version":"2.1.0","time_elapsed":56654,"subject_id":"91450","group":"Group1","condition":"1_Rep","full_date":"2026-02-25T19:31:48.589Z","date":"2026-02-25","time":"19:31:48"},{"rt":null,"stimulus":"<p style=\"font-size: 50px; margin: 0; text-align: center;\">+</p>","response":null,"trial_type":"html-keyboard-response","trial_index":5,"plugin_version":"2.1.0","time_elapsed":57658,"subject_id":"91450","group":"Group1","condition":"1_Rep","full_date":"2026-02-25T19:31:48.589Z","date":"2026-02-25","time":"19:31:48"},{"task":"memory_phase","broad_category":"I","image_png":"I_Pegmatite_10.png","image_id":106,"category_name":"Pegmatite","category":7,"distinct_rating":7.66,"distinct_type":"Top","rt":null,"stimulus":"Stimuli_Rocks480/I_Pegmatite_10.png","response":null,"trial_type":"image-keyboard-response","trial_index":6,"plugin_version":"2.1.0","time_elapsed":60163,"subject_id":"91450","group":"Group1","condition":"1_Rep","full_date":"2026-02-25T19:31:48.589Z","date":"2026-02-25","time":"19:31:48"},{"rt":null,"stimulus":"<p style=\"font-size: 50px; margin: 0; text-align: center;\">+</p>","response":null,"trial_type":"html-keyboard-response","trial_index":7,"plugin_version":"2.1.0","time_elapsed":61165,"subject_id":"91450","group":"Group1","condition":"1_Rep","full_date":"2026-02-25T19:31:48.589Z","date":"2026-02-25","time":"19:31:48"},{"task":"memory_phase","broad_category":"M","image_png":"M_Slate_03.png","image_id":307,"category_name":"Slate","category":20,"distinct_rating":1.87,"distinct_type":"Bottom","rt":null,"stimulus":"Stimuli_Rocks480/M_Slate_03.png","response":null,"trial_type":"image-keyboard-response","trial_index":8,"plugin_version":"2.1.0","time_elapsed":63669,"subject_id":"91450","group":"Group1","condition":"1_Rep","full_date":"2026-02-25T19:31:48.589Z","date":"2026-02-25","time":"19:31:48"},{"rt":null,"stimulus":"<p style=\"font-size: 50px; margin: 0; text-align: center;\">+</p>","response":null,"trial_type":"html-keyboard-response","trial_index":9,"plugin_version":"2.1.0","time_elapsed":64672,"subject_id":"91450","group":"Group1","condition":"1_Rep","full_date":"2026-02-25T19:31:48.589Z","date":"2026-02-25","time":"19:31:48"},{"task":"memory_phase","broad_category":"S","image_png":"S_Sandstone_03.png","image_id":451,"category_name":"Sandstone","category":29,"distinct_rating":1.86,"distinct_type":"Bottom","rt":null,"stimulus":"Stimuli_Rocks480/S_Sandstone_03.png","response":null,"trial_type":"image-keyboard-response","trial_index":10,"plugin_version":"2.1.0","time_elapsed":67176,"subject_id":"91450","group":"Group1","condition":"1_Rep","full_date":"2026-02-25T19:31:48.589Z","date":"2026-02-25","time":"19:31:48"},{"rt":null,"stimulus":"<p style=\"font-size: 50px; margin: 0; text-align: center;\">+</p>","response":null,"trial_type":"html-keyboard-response","trial_index":11,"plugin_version":"2.1.0","time_elapsed":68179,"subject_id":"91450","group":"Group1","condition":"1_Rep","full_date":"2026-02-25T19:31:48.589Z","date":"2026-02-25","time":"19:31:48"},{"task":"memory_phase","broad_category":"M","image_png":"M_Gneiss_06.png","image_id":198,"category_name":"Gneiss","category":13,"distinct_rating":2.65,"distinct_type":"Bottom","rt":null,"stimulus":"Stimuli_Rocks480/M_Gneiss_06.png","response":null,"trial_type":"image-keyboard-response","trial_index":12,"plugin_version":"2.1.0","time_elapsed":70683,"subject_id":"91450","group":"Group1","condition":"1_Rep","full_date":"2026-02-25T19:31:48.589Z","date":"2026-02-25","time":"19:31:48"},{"rt":null,"stimulus":"<p style=\"font-size: 50px; margin: 0; text-align: center;\">+</p>","response":null,"trial_type":"html-keyboard-response","trial_index":13,"plugin_version":"2.1.0","time_elapsed":71686,"subject_id":"91450","group":"Group1","condition":"1_Rep","full_date":"2026-02-25T19:31:48.589Z","date":"2026-02-25","time":"19:31:48"},{"task":"memory_phase","broad_category":"M","image_png":"M_Phyllite_07.png","image_id":263,"category_name":"Phyllite","category":17,"distinct_rating":2.59,"distinct_type":"Bottom","rt":null,"stimulus":"Stimuli_Rocks480/M_Phyllite_07.png","response":null,"trial_type":"image-keyboard-response","trial_index":14,"plugin_version":"2.1.0","time_elapsed":74189,"subject_id":"91450","group":"Group1","condition":"1_Rep","full_date":"2026-02-25T19:31:48.589Z","date":"2026-02-25","time":"19:31:48"},{"rt":null,"stimulus":"<p style=\"font-size: 50px; margin: 0; text-align: center;\">+</p>","response":null,"trial_type":"html-keyboard-response","trial_index":15,"plugin_version":"2.1.0","time_elapsed":75192,"subject_id":"91450","group":"Group1","condition":"1_Rep","full_date":"2026-02-25T19:31:48.589Z","date":"2026-02-25","time":"19:31:48"},{"task":"memory_phase","broad_category":"M","image_png":"M_Marble_04.png","image_id":228,"category_name":"Marble","category":15,"distinct_rating":3.15,"distinct_type":"Bottom","rt":null,"stimulus":"Stimuli_Rocks480/M_Marble_04.png","response":null,"trial_type":"image-keyboard-response","trial_index":16,"plugin_version":"2.1.0","time_elapsed":77695,"subject_id":"91450","group":"Group1","condition":"1_Rep","full_date":"2026-02-25T19:31:48.589Z","date":"2026-02-25","time":"19:31:48"},{"rt":null,"stimulus":"<p style=\"font-size: 50px; margin: 0; text-align: center;\">+</p>","response":null,"trial_type":"html-keyboard-response","trial_index":17,"plugin_version":"2.1.0","time_elapsed":78697,"subject_id":"91450","group":"Group1","condition":"1_Rep","full_date":"2026-02-25T19:31:48.589Z","date":"2026-02-25","time":"19:31:48"},{"task":"memory_phase","broad_category":"I","image_png":"I_Gabbro_08.png","image_id":56,"category_name":"Gabbro","category":4,"distinct_rating":3.02,"distinct_type":"Bottom","rt":null,"stimulus":"Stimuli_Rocks480/I_Gabbro_08.png","response":null,"trial_type":"image-keyboard-response","trial_index":18,"plugin_version":"2.1.0","time_elapsed":81201,"subject_id":"91450","group":"Group1","condition":"1_Rep","full_date":"2026-02-25T19:31:48.589Z","date":"2026-02-25","time":"19:31:48"},{"rt":null,"stimulus":"<p style=\"font-size: 50px; margin: 0; text-align: center;\">+</p>","response":null,"trial_type":"html-keyboard-response","trial_index":19,"plugin_version":"2.1.0","time_elapsed":82203,"subject_id":"91450","group":"Group1","condition":"1_Rep","full_date":"2026-02-25T19:31:48.589Z","date":"2026-02-25","time":"19:31:48"},{"task":"memory_phase","broad_category":"M","image_png":"M_Gneiss_13.png","image_id":205,"category_name":"Gneiss","category":13,"distinct_rating":3.26,"distinct_type":"Bottom","rt":null,"stimulus":"Stimuli_Rocks480/M_Gneiss_13.png","response":null,"trial_type":"image-keyboard-response","trial_index":20,"plugin_version":"2.1.0","time_elapsed":84706,"subject_id":"91450","group":"Group1","condition":"1_Rep","full_date":"2026-02-25T19:31:48.589Z","date":"2026-02-25","time":"19:31:48"},{"rt":null,"stimulus":"<p style=\"font-size: 50px; margin: 0; text-align: center;\">+</p>","response":null,"trial_type":"html-keyboard-response","trial_index":21,"plugin_version":"2.1.0","time_elapsed":85709,"subject_id":"91450","group":"Group1","condition":"1_Rep","full_date":"2026-02-25T19:31:48.589Z","date":"2026-02-25","time":"19:31:48"},{"task":"memory_phase","broad_category":"S","image_png":"S_Chert_10.png","image_id":362,"category_name":"Chert","category":23,"distinct_rating":7.17,"distinct_type":"Top","rt":null,"stimulus":"Stimuli_Rocks480/S_Chert_10.png","response":null,"trial_type":"image-keyboard-response","trial_index":22,"plugin_version":"2.1.0","time_elapsed":88211,"subject_id":"91450","group":"Group1","condition":"1_Rep","full_date":"2026-02-25T19:31:48.589Z","date":"2026-02-25","time":"19:31:48"},{"rt":null,"stimulus":"<p style=\"font-size: 50px; margin: 0; text-align: center;\">+</p>","response":null,"trial_type":"html-keyboard-response","trial_index":23,"plugin_version":"2.1.0","time_elapsed":89214,"subject_id":"91450","group":"Group1","condition":"1_Rep","full_date":"2026-02-25T19:31:48.589Z","date":"2026-02-25","time":"19:31:48"},{"task":"memory_phase","broad_category":"I","image_png":"I_Pumice_08.png","image_id":136,"category_name":"Pumice","category":9,"distinct_rating":3.1,"distinct_type":"Bottom","rt":null,"stimulus":"Stimuli_Rocks480/I_Pumice_08.png","response":null,"trial_type":"image-keyboard-response","trial_index":24,"plugin_version":"2.1.0","time_elapsed":91718,"subject_id":"91450","group":"Group1","condition":"1_Rep","full_date":"2026-02-25T19:31:48.589Z","date":"2026-02-25","time":"19:31:48"},{"rt":null,"stimulus":"<p style=\"font-size: 50px; margin: 0; text-align: center;\">+</p>","response":null,"trial_type":"html-keyboard-response","trial_index":25,"plugin_version":"2.1.0","time_elapsed":92720,"subject_id":"91450","group":"Group1","condition":"1_Rep","full_date":"2026-02-25T19:31:48.589Z","date":"2026-02-25","time":"19:31:48"},{"task":"memory_phase","broad_category":"M","image_png":"M_Phyllite_10.png","image_id":266,"category_name":"Phyllite","category":17,"distinct_rating":2.6,"distinct_type":"Bottom","rt":null,"stimulus":"Stimuli_Rocks480/M_Phyllite_10.png","response":null,"trial_type":"image-keyboard-response","trial_index":26,"plugin_version":"2.1.0","time_elapsed":95223,"subject_id":"91450","group":"Group1","condition":"1_Rep","full_date":"2026-02-25T19:31:48.589Z","date":"2026-02-25","time":"19:31:48"},{"rt":null,"stimulus":"<p style=\"font-size: 50px; margin: 0; text-align: center;\">+</p>","response":null,"trial_type":"html-keyboard-response","trial_index":27,"plugin_version":"2.1.0","time_elapsed":96225,"subject_id":"91450","group":"Group1","condition":"1_Rep","full_date":"2026-02-25T19:31:48.589Z","date":"2026-02-25","time":"19:31:48"},{"task":"memory_phase","broad_category":"S","image_png":"S_Dolomite_14.png","image_id":398,"category_name":"Dolomite","category":25,"distinct_rating":1.43,"distinct_type":"Bottom","rt":null,"stimulus":"Stimuli_Rocks480/S_Dolomite_14.png","response":null,"trial_type":"image-keyboard-response","trial_index":28,"plugin_version":"2.1.0","time_elapsed":98729,"subject_id":"91450","group":"Group1","condition":"1_Rep","full_date":"2026-02-25T19:31:48.589Z","date":"2026-02-25","time":"19:31:48"},{"rt":null,"stimulus":"<p style=\"font-size: 50px; margin: 0; text-align: center;\">+</p>","response":null,"trial_type":"html-keyboard-response","trial_index":29,"plugin_version":"2.1.0","time_elapsed":99732,"subject_id":"91450","group":"Group1","condition":"1_Rep","full_date":"2026-02-25T19:31:48.589Z","date":"2026-02-25","time":"19:31:48"},{"task":"memory_phase","broad_category":"S","image_png":"S_Rock Gypsum_04.png","image_id":420,"category_name":"Rock Gypsum","category":27,"distinct_rating":7.61,"distinct_type":"Top","rt":null,"stimulus":"Stimuli_Rocks480/S_Rock Gypsum_04.png","response":null,"trial_type":"image-keyboard-response","trial_index":30,"plugin_version":"2.1.0","time_elapsed":102235,"subject_id":"91450","group":"Group1","condition":"1_Rep","full_date":"2026-02-25T19:31:48.589Z","date":"2026-02-25","time":"19:31:48"},{"rt":null,"stimulus":"<p style=\"font-size: 50px; margin: 0; text-align: center;\">+</p>","response":null,"trial_type":"html-keyboard-response","trial_index":31,"plugin_version":"2.1.0","time_elapsed":103237,"subject_id":"91450","group":"Group1","condition":"1_Rep","full_date":"2026-02-25T19:31:48.589Z","date":"2026-02-25","time":"19:31:48"},{"task":"memory_phase","broad_category":"M","image_png":"M_Marble_06.png","image_id":230,"category_name":"Marble","category":15,"distinct_rating":3.4,"distinct_type":"Bottom","rt":null,"stimulus":"Stimuli_Rocks480/M_Marble_06.png","response":null,"trial_type":"image-keyboard-response","trial_index":32,"plugin_version":"2.1.0","time_elapsed":105740,"subject_id":"91450","group":"Group1","condition":"1_Rep","full_date":"2026-02-25T19:31:48.589Z","date":"2026-02-25","time":"19:31:48"},{"rt":null,"stimulus":"<p style=\"font-size: 50px; margin: 0; text-align: center;\">+</p>","response":null,"trial_type":"html-keyboard-response","trial_index":33,"plugin_version":"2.1.0","time_elapsed":106743,"subject_id":"91450","group":"Group1","condition":"1_Rep","full_date":"2026-02-25T19:31:48.589Z","date":"2026-02-25","time":"19:31:48"},{"task":"memory_phase","broad_category":"M","image_png":"M_Gneiss_05.png","image_id":197,"category_name":"Gneiss","category":13,"distinct_rating":2.97,"distinct_type":"Bottom","rt":null,"stimulus":"Stimuli_Rocks480/M_Gneiss_05.png","response":null,"trial_type":"image-keyboard-response","trial_index":34,"plugin_version":"2.1.0","time_elapsed":109247,"subject_id":"91450","group":"Group1","condition":"1_Rep","full_date":"2026-02-25T19:31:48.589Z","date":"2026-02-25","time":"19:31:48"},{"rt":null,"stimulus":"<p style=\"font-size: 50px; margin: 0; text-align: center;\">+</p>","response":null,"trial_type":"html-keyboard-response","trial_index":35,"plugin_version":"2.1.0","time_elapsed":110249,"subject_id":"91450","group":"Group1","condition":"1_Rep","full_date":"2026-02-25T19:31:48.589Z","date":"2026-02-25","time":"19:31:48"},{"task":"memory_phase","broad_category":"S","image_png":"S_Dolomite_12.png","image_id":396,"category_name":"Dolomite","category":25,"distinct_rating":1.85,"distinct_type":"Bottom","rt":null,"stimulus":"Stimuli_Rocks480/S_Dolomite_12.png","response":null,"trial_type":"image-keyboard-response","trial_index":36,"plugin_version":"2.1.0","time_elapsed":112752,"subject_id":"91450","group":"Group1","condition":"1_Rep","full_date":"2026-02-25T19:31:48.589Z","date":"2026-02-25","time":"19:31:48"},{"rt":null,"stimulus":"<p style=\"font-size: 50px; margin: 0; text-align: center;\">+</p>","response":null,"trial_type":"html-keyboard-response","trial_index":37,"plugin_version":"2.1.0","time_elapsed":113754,"subject_id":"91450","group":"Group1","condition":"1_Rep","full_date":"2026-02-25T19:31:48.589Z","date":"2026-02-25","time":"19:31:48"},{"task":"memory_phase","broad_category":"S","image_png":"S_Rock Salt_01.png","image_id":433,"category_name":"Rock Salt","category":28,"distinct_rating":7.18,"distinct_type":"Top","rt":null,"stimulus":"Stimuli_Rocks480/S_Rock Salt_01.png","response":null,"trial_type":"image-keyboard-response","trial_index":38,"plugin_version":"2.1.0","time_elapsed":116257,"subject_id":"91450","group":"Group1","condition":"1_Rep","full_date":"2026-02-25T19:31:48.589Z","date":"2026-02-25","time":"19:31:48"},{"rt":null,"stimulus":"<p style=\"font-size: 50px; margin: 0; text-align: center;\">+</p>","response":null,"trial_type":"html-keyboard-response","trial_index":39,"plugin_version":"2.1.0","time_elapsed":117259,"subject_id":"91450","group":"Group1","condition":"1_Rep","full_date":"2026-02-25T19:31:48.589Z","date":"2026-02-25","time":"19:31:48"},{"task":"memory_phase","broad_category":"I","image_png":"I_Andesite_10.png","image_id":10,"category_name":"Andesite","category":1,"distinct_rating":3.15,"distinct_type":"Bottom","rt":null,"stimulus":"Stimuli_Rocks480/I_Andesite_10.png","response":null,"trial_type":"image-keyboard-response","trial_index":40,"plugin_version":"2.1.0","time_elapsed":119762,"subject_id":"91450","group":"Group1","condition":"1_Rep","full_date":"2026-02-25T19:31:48.589Z","date":"2026-02-25","time":"19:31:48"},{"rt":null,"stimulus":"<p style=\"font-size: 50px; margin: 0; text-align: center;\">+</p>","response":null,"trial_type":"html-keyboard-response","trial_index":41,"plugin_version":"2.1.0","time_elapsed":120765,"subject_id":"91450","group":"Group1","condition":"1_Rep","full_date":"2026-02-25T19:31:48.589Z","date":"2026-02-25","time":"19:31:48"},{"task":"memory_phase","broad_category":"S","image_png":"S_Breccia_11.png","image_id":347,"category_name":"Breccia","category":22,"distinct_rating":6.7,"distinct_type":"Top","rt":null,"stimulus":"Stimuli_Rocks480/S_Breccia_11.png","response":null,"trial_type":"image-keyboard-response","trial_index":42,"plugin_version":"2.1.0","time_elapsed":123269,"subject_id":"91450","group":"Group1","condition":"1_Rep","full_date":"2026-02-25T19:31:48.589Z","date":"2026-02-25","time":"19:31:48"},{"rt":null,"stimulus":"<p style=\"font-size: 50px; margin: 0; text-align: center;\">+</p>","response":null,"trial_type":"html-keyboard-response","trial_index":43,"plugin_version":"2.1.0","time_elapsed":124271,"subject_id":"91450","group":"Group1","condition":"1_Rep","full_date":"2026-02-25T19:31:48.589Z","date":"2026-02-25","time":"19:31:48"},{"task":"memory_phase","broad_category":"I","image_png":"I_Basalt_09.png","image_id":25,"category_name":"Basalt","category":2,"distinct_rating":1.89,"distinct_type":"Bottom","rt":null,"stimulus":"Stimuli_Rocks480/I_Basalt_09.png","response":null,"trial_type":"image-keyboard-response","trial_index":44,"plugin_version":"2.1.0","time_elapsed":126774,"subject_id":"91450","group":"Group1","condition":"1_Rep","full_date":"2026-02-25T19:31:48.589Z","date":"2026-02-25","time":"19:31:48"},{"rt":null,"stimulus":"<p style=\"font-size: 50px; margin: 0; text-align: center;\">+</p>","response":null,"trial_type":"html-keyboard-response","trial_index":45,"plugin_version":"2.1.0","time_elapsed":127777,"subject_id":"91450","group":"Group1","condition":"1_Rep","full_date":"2026-02-25T19:31:48.589Z","date":"2026-02-25","time":"19:31:48"},{"task":"memory_phase","broad_category":"I","image_png":"I_Rhyolite_14.png","image_id":158,"category_name":"Rhyolite","category":10,"distinct_rating":2.59,"distinct_type":"Bottom","rt":null,"stimulus":"Stimuli_Rocks480/I_Rhyolite_14.png","response":null,"trial_type":"image-keyboard-response","trial_index":46,"plugin_version":"2.1.0","time_elapsed":130281,"subject_id":"91450","group":"Group1","condition":"1_Rep","full_date":"2026-02-25T19:31:48.589Z","date":"2026-02-25","time":"19:31:48"},{"rt":null,"stimulus":"<p style=\"font-size: 50px; margin: 0; text-align: center;\">+</p>","response":null,"trial_type":"html-keyboard-response","trial_index":47,"plugin_version":"2.1.0","time_elapsed":131283,"subject_id":"91450","group":"Group1","condition":"1_Rep","full_date":"2026-02-25T19:31:48.589Z","date":"2026-02-25","time":"19:31:48"},{"task":"memory_phase","broad_category":"I","image_png":"I_Rhyolite_16.png","image_id":160,"category_name":"Rhyolite","category":10,"distinct_rating":2.19,"distinct_type":"Bottom","rt":null,"stimulus":"Stimuli_Rocks480/I_Rhyolite_16.png","response":null,"trial_type":"image-keyboard-response","trial_index":48,"plugin_version":"2.1.0","time_elapsed":133786,"subject_id":"91450","group":"Group1","condition":"1_Rep","full_date":"2026-02-25T19:31:48.589Z","date":"2026-02-25","time":"19:31:48"},{"rt":null,"stimulus":"<p style=\"font-size: 50px; margin: 0; text-align: center;\">+</p>","response":null,"trial_type":"html-keyboard-response","trial_index":49,"plugin_version":"2.1.0","time_elapsed":134788,"subject_id":"91450","group":"Group1","condition":"1_Rep","full_date":"2026-02-25T19:31:48.589Z","date":"2026-02-25","time":"19:31:48"},{"task":"memory_phase","broad_category":"I","image_png":"I_Diorite_05.png","image_id":37,"category_name":"Diorite","category":3,"distinct_rating":3.08,"distinct_type":"Bottom","rt":null,"stimulus":"Stimuli_Rocks480/I_Diorite_05.png","response":null,"trial_type":"image-keyboard-response","trial_index":50,"plugin_version":"2.1.0","time_elapsed":137292,"subject_id":"91450","group":"Group1","condition":"1_Rep","full_date":"2026-02-25T19:31:48.589Z","date":"2026-02-25","time":"19:31:48"},{"rt":null,"stimulus":"<p style=\"font-size: 50px; margin: 0; text-align: center;\">+</p>","response":null,"trial_type":"html-keyboard-response","trial_index":51,"plugin_version":"2.1.0","time_elapsed":138295,"subject_id":"91450","group":"Group1","condition":"1_Rep","full_date":"2026-02-25T19:31:48.589Z","date":"2026-02-25","time":"19:31:48"},{"task":"memory_phase","broad_category":"S","image_png":"S_Shale_08.png","image_id":472,"category_name":"Shale","category":30,"distinct_rating":2.55,"distinct_type":"Bottom","rt":null,"stimulus":"Stimuli_Rocks480/S_Shale_08.png","response":null,"trial_type":"image-keyboard-response","trial_index":52,"plugin_version":"2.1.0","time_elapsed":140797,"subject_id":"91450","group":"Group1","condition":"1_Rep","full_date":"2026-02-25T19:31:48.589Z","date":"2026-02-25","time":"19:31:48"},{"rt":null,"stimulus":"<p style=\"font-size: 50px; margin: 0; text-align: center;\">+</p>","response":null,"trial_type":"html-keyboard-response","trial_index":53,"plugin_version":"2.1.0","time_elapsed":141800,"subject_id":"91450","group":"Group1","condition":"1_Rep","full_date":"2026-02-25T19:31:48.589Z","date":"2026-02-25","time":"19:31:48"},{"task":"memory_phase","broad_category":"M","image_png":"M_Quartzite_08.png","image_id":280,"category_name":"Quartzite","category":18,"distinct_rating":2.15,"distinct_type":"Bottom","rt":null,"stimulus":"Stimuli_Rocks480/M_Quartzite_08.png","response":null,"trial_type":"image-keyboard-response","trial_index":54,"plugin_version":"2.1.0","time_elapsed":144303,"subject_id":"91450","group":"Group1","condition":"1_Rep","full_date":"2026-02-25T19:31:48.589Z","date":"2026-02-25","time":"19:31:48"},{"rt":2345,"stimulus":"<p style=\"max-width: 760px; margin: auto; font-size: 35px; line-height: 1.5;\">\n                Press SPACE to continue study phase\n              </p>","response":" ","trial_type":"html-keyboard-response","trial_index":55,"plugin_version":"2.1.0","time_elapsed":146650,"subject_id":"91450","group":"Group1","condition":"1_Rep","full_date":"2026-02-25T19:31:48.589Z","date":"2026-02-25","time":"19:31:48"},{"rt":null,"stimulus":"<p style=\"font-size: 50px; margin: 0; text-align: center;\">+</p>","response":null,"trial_type":"html-keyboard-response","trial_index":56,"plugin_version":"2.1.0","time_elapsed":147653,"subject_id":"91450","group":"Group1","condition":"1_Rep","full_date":"2026-02-25T19:31:48.589Z","date":"2026-02-25","time":"19:31:48"},{"task":"memory_phase","broad_category":"I","image_png":"I_Pegmatite_16.png","image_id":112,"category_name":"Pegmatite","category":7,"distinct_rating":7.03,"distinct_type":"Top","rt":null,"stimulus":"Stimuli_Rocks480/I_Pegmatite_16.png","response":null,"trial_type":"image-keyboard-response","trial_index":57,"plugin_version":"2.1.0","time_elapsed":150156,"subject_id":"91450","group":"Group1","condition":"1_Rep","full_date":"2026-02-25T19:31:48.589Z","date":"2026-02-25","time":"19:31:48"},{"rt":null,"stimulus":"<p style=\"font-size: 50px; margin: 0; text-align: center;\">+</p>","response":null,"trial_type":"html-keyboard-response","trial_index":58,"plugin_version":"2.1.0","time_elapsed":151159,"subject_id":"91450","group":"Group1","condition":"1_Rep","full_date":"2026-02-25T19:31:48.589Z","date":"2026-02-25","time":"19:31:48"},{"task":"memory_phase","broad_category":"S","image_png":"S_Sandstone_15.png","image_id":463,"category_name":"Sandstone","category":29,"distinct_rating":2,"distinct_type":"Bottom","rt":null,"stimulus":"Stimuli_Rocks480/S_Sandstone_15.png","response":null,"trial_type":"image-keyboard-response","trial_index":59,"plugin_version":"2.1.0","time_elapsed":153662,"subject_id":"91450","group":"Group1","condition":"1_Rep","full_date":"2026-02-25T19:31:48.589Z","date":"2026-02-25","time":"19:31:48"},{"rt":null,"stimulus":"<p style=\"font-size: 50px; margin: 0; text-align: center;\">+</p>","response":null,"trial_type":"html-keyboard-response","trial_index":60,"plugin_version":"2.1.0","time_elapsed":154664,"subject_id":"91450","group":"Group1","condition":"1_Rep","full_date":"2026-02-25T19:31:48.589Z","date":"2026-02-25","time":"19:31:48"},{"task":"memory_phase","broad_category":"I","image_png":"I_Basalt_02.png","image_id":18,"category_name":"Basalt","category":2,"distinct_rating":1.84,"distinct_type":"Bottom","rt":null,"stimulus":"Stimuli_Rocks480/I_Basalt_02.png","response":null,"trial_type":"image-keyboard-response","trial_index":61,"plugin_version":"2.1.0","time_elapsed":157168,"subject_id":"91450","group":"Group1","condition":"1_Rep","full_date":"2026-02-25T19:31:48.589Z","date":"2026-02-25","time":"19:31:48"},{"rt":null,"stimulus":"<p style=\"font-size: 50px; margin: 0; text-align: center;\">+</p>","response":null,"trial_type":"html-keyboard-response","trial_index":62,"plugin_version":"2.1.0","time_elapsed":158170,"subject_id":"91450","group":"Group1","condition":"1_Rep","full_date":"2026-02-25T19:31:48.589Z","date":"2026-02-25","time":"19:31:48"},{"task":"memory_phase","broad_category":"M","image_png":"M_Quartzite_13.png","image_id":285,"category_name":"Quartzite","category":18,"distinct_rating":2.27,"distinct_type":"Bottom","rt":null,"stimulus":"Stimuli_Rocks480/M_Quartzite_13.png","response":null,"trial_type":"image-keyboard-response","trial_index":63,"plugin_version":"2.1.0","time_elapsed":160674,"subject_id":"91450","group":"Group1","condition":"1_Rep","full_date":"2026-02-25T19:31:48.589Z","date":"2026-02-25","time":"19:31:48"},{"rt":null,"stimulus":"<p style=\"font-size: 50px; margin: 0; text-align: center;\">+</p>","response":null,"trial_type":"html-keyboard-response","trial_index":64,"plugin_version":"2.1.0","time_elapsed":161677,"subject_id":"91450","group":"Group1","condition":"1_Rep","full_date":"2026-02-25T19:31:48.589Z","date":"2026-02-25","time":"19:31:48"},{"task":"memory_phase","broad_category":"S","image_png":"S_Conglomerate_05.png","image_id":373,"category_name":"Conglomerate","category":24,"distinct_rating":7.32,"distinct_type":"Top","rt":null,"stimulus":"Stimuli_Rocks480/S_Conglomerate_05.png","response":null,"trial_type":"image-keyboard-response","trial_index":65,"plugin_version":"2.1.0","time_elapsed":164180,"subject_id":"91450","group":"Group1","condition":"1_Rep","full_date":"2026-02-25T19:31:48.589Z","date":"2026-02-25","time":"19:31:48"},{"rt":null,"stimulus":"<p style=\"font-size: 50px; margin: 0; text-align: center;\">+</p>","response":null,"trial_type":"html-keyboard-response","trial_index":66,"plugin_version":"2.1.0","time_elapsed":165183,"subject_id":"91450","group":"Group1","condition":"1_Rep","full_date":"2026-02-25T19:31:48.589Z","date":"2026-02-25","time":"19:31:48"},{"task":"memory_phase","broad_category":"I","image_png":"I_Obsidian_05.png","image_id":85,"category_name":"Obsidian","category":6,"distinct_rating":7.32,"distinct_type":"Top","rt":null,"stimulus":"Stimuli_Rocks480/I_Obsidian_05.png","response":null,"trial_type":"image-keyboard-response","trial_index":67,"plugin_version":"2.1.0","time_elapsed":167686,"subject_id":"91450","group":"Group1","condition":"1_Rep","full_date":"2026-02-25T19:31:48.589Z","date":"2026-02-25","time":"19:31:48"},{"rt":null,"stimulus":"<p style=\"font-size: 50px; margin: 0; text-align: center;\">+</p>","response":null,"trial_type":"html-keyboard-response","trial_index":68,"plugin_version":"2.1.0","time_elapsed":168689,"subject_id":"91450","group":"Group1","condition":"1_Rep","full_date":"2026-02-25T19:31:48.589Z","date":"2026-02-25","time":"19:31:48"},{"task":"memory_phase","broad_category":"I","image_png":"I_Pumice_12.png","image_id":140,"category_name":"Pumice","category":9,"distinct_rating":2.97,"distinct_type":"Bottom","rt":null,"stimulus":"Stimuli_Rocks480/I_Pumice_12.png","response":null,"trial_type":"image-keyboard-response","trial_index":69,"plugin_version":"2.1.0","time_elapsed":171193,"subject_id":"91450","group":"Group1","condition":"1_Rep","full_date":"2026-02-25T19:31:48.589Z","date":"2026-02-25","time":"19:31:48"},{"rt":null,"stimulus":"<p style=\"font-size: 50px; margin: 0; text-align: center;\">+</p>","response":null,"trial_type":"html-keyboard-response","trial_index":70,"plugin_version":"2.1.0","time_elapsed":172195,"subject_id":"91450","group":"Group1","condition":"1_Rep","full_date":"2026-02-25T19:31:48.589Z","date":"2026-02-25","time":"19:31:48"},{"task":"memory_phase","broad_category":"S","image_png":"S_Shale_01.png","image_id":465,"category_name":"Shale","category":30,"distinct_rating":2.7,"distinct_type":"Bottom","rt":null,"stimulus":"Stimuli_Rocks480/S_Shale_01.png","response":null,"trial_type":"image-keyboard-response","trial_index":71,"plugin_version":"2.1.0","time_elapsed":174698,"subject_id":"91450","group":"Group1","condition":"1_Rep","full_date":"2026-02-25T19:31:48.589Z","date":"2026-02-25","time":"19:31:48"},{"rt":null,"stimulus":"<p style=\"font-size: 50px; margin: 0; text-align: center;\">+</p>","response":null,"trial_type":"html-keyboard-response","trial_index":72,"plugin_version":"2.1.0","time_elapsed":175700,"subject_id":"91450","group":"Group1","condition":"1_Rep","full_date":"2026-02-25T19:31:48.589Z","date":"2026-02-25","time":"19:31:48"},{"task":"memory_phase","broad_category":"M","image_png":"M_Phyllite_03.png","image_id":259,"category_name":"Phyllite","category":17,"distinct_rating":2.5,"distinct_type":"Bottom","rt":null,"stimulus":"Stimuli_Rocks480/M_Phyllite_03.png","response":null,"trial_type":"image-keyboard-response","trial_index":73,"plugin_version":"2.1.0","time_elapsed":178203,"subject_id":"91450","group":"Group1","condition":"1_Rep","full_date":"2026-02-25T19:31:48.589Z","date":"2026-02-25","time":"19:31:48"},{"rt":null,"stimulus":"<p style=\"font-size: 50px; margin: 0; text-align: center;\">+</p>","response":null,"trial_type":"html-keyboard-response","trial_index":74,"plugin_version":"2.1.0","time_elapsed":179206,"subject_id":"91450","group":"Group1","condition":"1_Rep","full_date":"2026-02-25T19:31:48.589Z","date":"2026-02-25","time":"19:31:48"},{"task":"memory_phase","broad_category":"S","image_png":"S_Dolomite_13.png","image_id":397,"category_name":"Dolomite","category":25,"distinct_rating":1.77,"distinct_type":"Bottom","rt":null,"stimulus":"Stimuli_Rocks480/S_Dolomite_13.png","response":null,"trial_type":"image-keyboard-response","trial_index":75,"plugin_version":"2.1.0","time_elapsed":181710,"subject_id":"91450","group":"Group1","condition":"1_Rep","full_date":"2026-02-25T19:31:48.589Z","date":"2026-02-25","time":"19:31:48"},{"rt":null,"stimulus":"<p style=\"font-size: 50px; margin: 0; text-align: center;\">+</p>","response":null,"trial_type":"html-keyboard-response","trial_index":76,"plugin_version":"2.1.0","time_elapsed":182713,"subject_id":"91450","group":"Group1","condition":"1_Rep","full_date":"2026-02-25T19:31:48.589Z","date":"2026-02-25","time":"19:31:48"},{"task":"memory_phase","broad_category":"I","image_png":"I_Gabbro_16.png","image_id":64,"category_name":"Gabbro","category":4,"distinct_rating":2.52,"distinct_type":"Bottom","rt":null,"stimulus":"Stimuli_Rocks480/I_Gabbro_16.png","response":null,"trial_type":"image-keyboard-response","trial_index":77,"plugin_version":"2.1.0","time_elapsed":185216,"subject_id":"91450","group":"Group1","condition":"1_Rep","full_date":"2026-02-25T19:31:48.589Z","date":"2026-02-25","time":"19:31:48"},{"rt":null,"stimulus":"<p style=\"font-size: 50px; margin: 0; text-align: center;\">+</p>","response":null,"trial_type":"html-keyboard-response","trial_index":78,"plugin_version":"2.1.0","time_elapsed":186219,"subject_id":"91450","group":"Group1","condition":"1_Rep","full_date":"2026-02-25T19:31:48.589Z","date":"2026-02-25","time":"19:31:48"},{"task":"memory_phase","broad_category":"I","image_png":"I_Diorite_04.png","image_id":36,"category_name":"Diorite","category":3,"distinct_rating":2.98,"distinct_type":"Bottom","rt":null,"stimulus":"Stimuli_Rocks480/I_Diorite_04.png","response":null,"trial_type":"image-keyboard-response","trial_index":79,"plugin_version":"2.1.0","time_elapsed":188721,"subject_id":"91450","group":"Group1","condition":"1_Rep","full_date":"2026-02-25T19:31:48.589Z","date":"2026-02-25","time":"19:31:48"},{"rt":null,"stimulus":"<p style=\"font-size: 50px; margin: 0; text-align: center;\">+</p>","response":null,"trial_type":"html-keyboard-response","trial_index":80,"plugin_version":"2.1.0","time_elapsed":189724,"subject_id":"91450","group":"Group1","condition":"1_Rep","full_date":"2026-02-25T19:31:48.589Z","date":"2026-02-25","time":"19:31:48"},{"task":"memory_phase","broad_category":"M","image_png":"M_Slate_15.png","image_id":319,"category_name":"Slate","category":20,"distinct_rating":2.13,"distinct_type":"Bottom","rt":null,"stimulus":"Stimuli_Rocks480/M_Slate_15.png","response":null,"trial_type":"image-keyboard-response","trial_index":81,"plugin_version":"2.1.0","time_elapsed":192227,"subject_id":"91450","group":"Group1","condition":"1_Rep","full_date":"2026-02-25T19:31:48.589Z","date":"2026-02-25","time":"19:31:48"},{"rt":null,"stimulus":"<p style=\"font-size: 50px; margin: 0; text-align: center;\">+</p>","response":null,"trial_type":"html-keyboard-response","trial_index":82,"plugin_version":"2.1.0","time_elapsed":193228,"subject_id":"91450","group":"Group1","condition":"1_Rep","full_date":"2026-02-25T19:31:48.589Z","date":"2026-02-25","time":"19:31:48"},{"task":"memory_phase","broad_category":"I","image_png":"I_Diorite_03.png","image_id":35,"category_name":"Diorite","category":3,"distinct_rating":3.14,"distinct_type":"Bottom","rt":null,"stimulus":"Stimuli_Rocks480/I_Diorite_03.png","response":null,"trial_type":"image-keyboard-response","trial_index":83,"plugin_version":"2.1.0","time_elapsed":195732,"subject_id":"91450","group":"Group1","condition":"1_Rep","full_date":"2026-02-25T19:31:48.589Z","date":"2026-02-25","time":"19:31:48"},{"rt":null,"stimulus":"<p style=\"font-size: 50px; margin: 0; text-align: center;\">+</p>","response":null,"trial_type":"html-keyboard-response","trial_index":84,"plugin_version":"2.1.0","time_elapsed":196734,"subject_id":"91450","group":"Group1","condition":"1_Rep","full_date":"2026-02-25T19:31:48.589Z","date":"2026-02-25","time":"19:31:48"},{"task":"memory_phase","broad_category":"S","image_png":"S_Shale_12.png","image_id":476,"category_name":"Shale","category":30,"distinct_rating":2.48,"distinct_type":"Bottom","rt":null,"stimulus":"Stimuli_Rocks480/S_Shale_12.png","response":null,"trial_type":"image-keyboard-response","trial_index":85,"plugin_version":"2.1.0","time_elapsed":199237,"subject_id":"91450","group":"Group1","condition":"1_Rep","full_date":"2026-02-25T19:31:48.589Z","date":"2026-02-25","time":"19:31:48"},{"rt":null,"stimulus":"<p style=\"font-size: 50px; margin: 0; text-align: center;\">+</p>","response":null,"trial_type":"html-keyboard-response","trial_index":86,"plugin_version":"2.1.0","time_elapsed":200240,"subject_id":"91450","group":"Group1","condition":"1_Rep","full_date":"2026-02-25T19:31:48.589Z","date":"2026-02-25","time":"19:31:48"},{"task":"memory_phase","broad_category":"I","image_png":"I_Basalt_01.png","image_id":17,"category_name":"Basalt","category":2,"distinct_rating":1.92,"distinct_type":"Bottom","rt":null,"stimulus":"Stimuli_Rocks480/I_Basalt_01.png","response":null,"trial_type":"image-keyboard-response","trial_index":87,"plugin_version":"2.1.0","time_elapsed":202743,"subject_id":"91450","group":"Group1","condition":"1_Rep","full_date":"2026-02-25T19:31:48.589Z","date":"2026-02-25","time":"19:31:48"},{"rt":null,"stimulus":"<p style=\"font-size: 50px; margin: 0; text-align: center;\">+</p>","response":null,"trial_type":"html-keyboard-response","trial_index":88,"plugin_version":"2.1.0","time_elapsed":203745,"subject_id":"91450","group":"Group1","condition":"1_Rep","full_date":"2026-02-25T19:31:48.589Z","date":"2026-02-25","time":"19:31:48"},{"task":"memory_phase","broad_category":"I","image_png":"I_Andesite_06.png","image_id":6,"category_name":"Andesite","category":1,"distinct_rating":3.17,"distinct_type":"Bottom","rt":null,"stimulus":"Stimuli_Rocks480/I_Andesite_06.png","response":null,"trial_type":"image-keyboard-response","trial_index":89,"plugin_version":"2.1.0","time_elapsed":206248,"subject_id":"91450","group":"Group1","condition":"1_Rep","full_date":"2026-02-25T19:31:48.589Z","date":"2026-02-25","time":"19:31:48"},{"rt":null,"stimulus":"<p style=\"font-size: 50px; margin: 0; text-align: center;\">+</p>","response":null,"trial_type":"html-keyboard-response","trial_index":90,"plugin_version":"2.1.0","time_elapsed":207250,"subject_id":"91450","group":"Group1","condition":"1_Rep","full_date":"2026-02-25T19:31:48.589Z","date":"2026-02-25","time":"19:31:48"},{"task":"memory_phase","broad_category":"I","image_png":"I_Rhyolite_11.png","image_id":155,"category_name":"Rhyolite","category":10,"distinct_rating":1.73,"distinct_type":"Bottom","rt":null,"stimulus":"Stimuli_Rocks480/I_Rhyolite_11.png","response":null,"trial_type":"image-keyboard-response","trial_index":91,"plugin_version":"2.1.0","time_elapsed":209753,"subject_id":"91450","group":"Group1","condition":"1_Rep","full_date":"2026-02-25T19:31:48.589Z","date":"2026-02-25","time":"19:31:48"},{"rt":null,"stimulus":"<p style=\"font-size: 50px; margin: 0; text-align: center;\">+</p>","response":null,"trial_type":"html-keyboard-response","trial_index":92,"plugin_version":"2.1.0","time_elapsed":210755,"subject_id":"91450","group":"Group1","condition":"1_Rep","full_date":"2026-02-25T19:31:48.589Z","date":"2026-02-25","time":"19:31:48"},{"task":"memory_phase","broad_category":"I","image_png":"I_Gabbro_11.png","image_id":59,"category_name":"Gabbro","category":4,"distinct_rating":1.99,"distinct_type":"Bottom","rt":null,"stimulus":"Stimuli_Rocks480/I_Gabbro_11.png","response":null,"trial_type":"image-keyboard-response","trial_index":93,"plugin_version":"2.1.0","time_elapsed":213258,"subject_id":"91450","group":"Group1","condition":"1_Rep","full_date":"2026-02-25T19:31:48.589Z","date":"2026-02-25","time":"19:31:48"},{"rt":null,"stimulus":"<p style=\"font-size: 50px; margin: 0; text-align: center;\">+</p>","response":null,"trial_type":"html-keyboard-response","trial_index":94,"plugin_version":"2.1.0","time_elapsed":214261,"subject_id":"91450","group":"Group1","condition":"1_Rep","full_date":"2026-02-25T19:31:48.589Z","date":"2026-02-25","time":"19:31:48"},{"task":"memory_phase","broad_category":"M","image_png":"M_Marble_16.png","image_id":240,"category_name":"Marble","category":15,"distinct_rating":2.57,"distinct_type":"Bottom","rt":null,"stimulus":"Stimuli_Rocks480/M_Marble_16.png","response":null,"trial_type":"image-keyboard-response","trial_index":95,"plugin_version":"2.1.0","time_elapsed":216764,"subject_id":"91450","group":"Group1","condition":"1_Rep","full_date":"2026-02-25T19:31:48.589Z","date":"2026-02-25","time":"19:31:48"},{"rt":null,"stimulus":"<p style=\"font-size: 50px; margin: 0; text-align: center;\">+</p>","response":null,"trial_type":"html-keyboard-response","trial_index":96,"plugin_version":"2.1.0","time_elapsed":217766,"subject_id":"91450","group":"Group1","condition":"1_Rep","full_date":"2026-02-25T19:31:48.589Z","date":"2026-02-25","time":"19:31:48"},{"task":"memory_phase","broad_category":"M","image_png":"M_Quartzite_05.png","image_id":277,"category_name":"Quartzite","category":18,"distinct_rating":2.23,"distinct_type":"Bottom","rt":null,"stimulus":"Stimuli_Rocks480/M_Quartzite_05.png","response":null,"trial_type":"image-keyboard-response","trial_index":97,"plugin_version":"2.1.0","time_elapsed":220270,"subject_id":"91450","group":"Group1","condition":"1_Rep","full_date":"2026-02-25T19:31:48.589Z","date":"2026-02-25","time":"19:31:48"},{"rt":null,"stimulus":"<p style=\"font-size: 50px; margin: 0; text-align: center;\">+</p>","response":null,"trial_type":"html-keyboard-response","trial_index":98,"plugin_version":"2.1.0","time_elapsed":221272,"subject_id":"91450","group":"Group1","condition":"1_Rep","full_date":"2026-02-25T19:31:48.589Z","date":"2026-02-25","time":"19:31:48"},{"task":"memory_phase","broad_category":"I","image_png":"I_Andesite_08.png","image_id":8,"category_name":"Andesite","category":1,"distinct_rating":1.95,"distinct_type":"Bottom","rt":null,"stimulus":"Stimuli_Rocks480/I_Andesite_08.png","response":null,"trial_type":"image-keyboard-response","trial_index":99,"plugin_version":"2.1.0","time_elapsed":223776,"subject_id":"91450","group":"Group1","condition":"1_Rep","full_date":"2026-02-25T19:31:48.589Z","date":"2026-02-25","time":"19:31:48"},{"rt":null,"stimulus":"<p style=\"font-size: 50px; margin: 0; text-align: center;\">+</p>","response":null,"trial_type":"html-keyboard-response","trial_index":100,"plugin_version":"2.1.0","time_elapsed":224779,"subject_id":"91450","group":"Group1","condition":"1_Rep","full_date":"2026-02-25T19:31:48.589Z","date":"2026-02-25","time":"19:31:48"},{"task":"memory_phase","broad_category":"S","image_png":"S_Sandstone_16.png","image_id":464,"category_name":"Sandstone","category":29,"distinct_rating":1.93,"distinct_type":"Bottom","rt":null,"stimulus":"Stimuli_Rocks480/S_Sandstone_16.png","response":null,"trial_type":"image-keyboard-response","trial_index":101,"plugin_version":"2.1.0","time_elapsed":227282,"subject_id":"91450","group":"Group1","condition":"1_Rep","full_date":"2026-02-25T19:31:48.589Z","date":"2026-02-25","time":"19:31:48"},{"rt":null,"stimulus":"<p style=\"font-size: 50px; margin: 0; text-align: center;\">+</p>","response":null,"trial_type":"html-keyboard-response","trial_index":102,"plugin_version":"2.1.0","time_elapsed":228284,"subject_id":"91450","group":"Group1","condition":"1_Rep","full_date":"2026-02-25T19:31:48.589Z","date":"2026-02-25","time":"19:31:48"},{"task":"memory_phase","broad_category":"M","image_png":"M_Slate_11.png","image_id":315,"category_name":"Slate","category":20,"distinct_rating":2.75,"distinct_type":"Bottom","rt":null,"stimulus":"Stimuli_Rocks480/M_Slate_11.png","response":null,"trial_type":"image-keyboard-response","trial_index":103,"plugin_version":"2.1.0","time_elapsed":230787,"subject_id":"91450","group":"Group1","condition":"1_Rep","full_date":"2026-02-25T19:31:48.589Z","date":"2026-02-25","time":"19:31:48"},{"rt":null,"stimulus":"<p style=\"font-size: 50px; margin: 0; text-align: center;\">+</p>","response":null,"trial_type":"html-keyboard-response","trial_index":104,"plugin_version":"2.1.0","time_elapsed":231790,"subject_id":"91450","group":"Group1","condition":"1_Rep","full_date":"2026-02-25T19:31:48.589Z","date":"2026-02-25","time":"19:31:48"},{"task":"memory_phase","broad_category":"I","image_png":"I_Pumice_11.png","image_id":139,"category_name":"Pumice","category":9,"distinct_rating":1.74,"distinct_type":"Bottom","rt":null,"stimulus":"Stimuli_Rocks480/I_Pumice_11.png","response":null,"trial_type":"image-keyboard-response","trial_index":105,"plugin_version":"2.1.0","time_elapsed":234293,"subject_id":"91450","group":"Group1","condition":"1_Rep","full_date":"2026-02-25T19:31:48.589Z","date":"2026-02-25","time":"19:31:48"},{"rt":18759,"stimulus":"<div style=\"max-width: 760px; margin: auto; font-size: 20px; line-height: 1.5;\">\n      <h1 style=\"text-align:center; font-size: 30px;\">Instructions for the Test Phase</h1>\n      <p>\n        The study phase is now complete.\n      </p>\n      <p>\n        In the test phase, you will again see a series of rock images. \n        Some will be ones you saw before - during the study phase, while others will be new.  \n        <b>Your task</b> is to decide whether you have seen each image before by pressing the corresponding key on your keyboard:<br><br>\n          <b>A</b> - NO (you did not see this image before)<br>\n          <b>L</b> - YES (you saw this image before)<br><br>\n        The test will proceed at your own pace. You will receive feedback after each response.  \n        Please try to respond <b>as accurately as possible</b>.\n      </p>\n      <p>\n        <b>Reminder:</b> If your computer has multiple language settings (e.g., English and another language),\n        please ensure it is set to English during the test phase.\n      </p>\n      <p>\n        You can track your progress using the <b>completion bar</b> at the top of the screen.  \n        Note that it has been refreshed to reflect your progress during this final phase.\n      </p>\n      <p>\n        Press the button below when you are ready to continue.\n      </p>\n    </div>","response":0,"trial_type":"html-button-response","trial_index":106,"plugin_version":"2.1.0","time_elapsed":253055,"subject_id":"91450","group":"Group1","condition":"1_Rep","full_date":"2026-02-25T19:31:48.589Z","date":"2026-02-25","time":"19:31:48"},{"correct_response":"a","task":"test_phase","broad_category":"I","image_png":"I_Pegmatite_11.png","image_id":107,"category_name":"Pegmatite","category":7,"distinct_rating":7.11,"distinct_type":"Top","item_type":"Foil","rt":2945,"stimulus":"Stimuli_Rocks480/I_Pegmatite_11.png","response":"a","trial_type":"image-keyboard-response","trial_index":107,"plugin_version":"2.1.0","time_elapsed":256002,"subject_id":"91450","group":"Group1","condition":"1_Rep","full_date":"2026-02-25T19:31:48.589Z","date":"2026-02-25","time":"19:31:48","cor_ans":true},{"trial_type":"html-keyboard-response","rt":null,"stimulus":"<p style=\"color: green; font-size: 50px; font-weight: bold;\">Correct</p>","response":null,"trial_index":108,"plugin_version":"2.1.0","time_elapsed":256503,"subject_id":"91450","group":"Group1","condition":"1_Rep","full_date":"2026-02-25T19:31:48.589Z","date":"2026-02-25","time":"19:31:48"},{"correct_response":"l","task":"test_phase","broad_category":"I","image_png":"I_Basalt_09.png","image_id":25,"category_name":"Basalt","category":2,"distinct_rating":1.89,"distinct_type":"Bottom","item_type":"Target","rt":2626,"stimulus":"Stimuli_Rocks480/I_Basalt_09.png","response":"l","trial_type":"image-keyboard-response","trial_index":109,"plugin_version":"2.1.0","time_elapsed":259131,"subject_id":"91450","group":"Group1","condition":"1_Rep","full_date":"2026-02-25T19:31:48.589Z","date":"2026-02-25","time":"19:31:48","cor_ans":true},{"trial_type":"html-keyboard-response","rt":null,"stimulus":"<p style=\"color: green; font-size: 50px; font-weight: bold;\">Correct</p>","response":null,"trial_index":110,"plugin_version":"2.1.0","time_elapsed":259632,"subject_id":"91450","group":"Group1","condition":"1_Rep","full_date":"2026-02-25T19:31:48.589Z","date":"2026-02-25","time":"19:31:48"},{"correct_response":"a","task":"test_phase","broad_category":"I","image_png":"I_Obsidian_06.png","image_id":86,"category_name":"Obsidian","category":6,"distinct_rating":8.01,"distinct_type":"Top","item_type":"Foil","rt":1038,"stimulus":"Stimuli_Rocks480/I_Obsidian_06.png","response":"a","trial_type":"image-keyboard-response","trial_index":111,"plugin_version":"2.1.0","time_elapsed":260672,"subject_id":"91450","group":"Group1","condition":"1_Rep","full_date":"2026-02-25T19:31:48.589Z","date":"2026-02-25","time":"19:31:48","cor_ans":true},{"trial_type":"html-keyboard-response","rt":null,"stimulus":"<p style=\"color: green; font-size: 50px; font-weight: bold;\">Correct</p>","response":null,"trial_index":112,"plugin_version":"2.1.0","time_elapsed":261173,"subject_id":"91450","group":"Group1","condition":"1_Rep","full_date":"2026-02-25T19:31:48.589Z","date":"2026-02-25","time":"19:31:48"},{"correct_response":"a","task":"test_phase","broad_category":"I","image_png":"I_Diorite_10.png","image_id":42,"category_name":"Diorite","category":3,"distinct_rating":2.84,"distinct_type":"Bottom","item_type":"Foil","rt":1977,"stimulus":"Stimuli_Rocks480/I_Diorite_10.png","response":"l","trial_type":"image-keyboard-response","trial_index":113,"plugin_version":"2.1.0","time_elapsed":263152,"subject_id":"91450","group":"Group1","condition":"1_Rep","full_date":"2026-02-25T19:31:48.589Z","date":"2026-02-25","time":"19:31:48","cor_ans":false},{"trial_type":"html-keyboard-response","rt":null,"stimulus":"<p style=\"color: red; font-size: 50px; font-weight: bold;\">Incorrect</p>","response":null,"trial_index":114,"plugin_version":"2.1.0","time_elapsed":263653,"subject_id":"91450","group":"Group1","condition":"1_Rep","full_date":"2026-02-25T19:31:48.589Z","date":"2026-02-25","time":"19:31:48"},{"correct_response":"a","task":"test_phase","broad_category":"S","image_png":"S_Shale_03.png","image_id":467,"category_name":"Shale","category":30,"distinct_rating":1.95,"distinct_type":"Bottom","item_type":"Foil","rt":1396,"stimulus":"Stimuli_Rocks480/S_Shale_03.png","response":"l","trial_type":"image-keyboard-response","trial_index":115,"plugin_version":"2.1.0","time_elapsed":265051,"subject_id":"91450","group":"Group1","condition":"1_Rep","full_date":"2026-02-25T19:31:48.589Z","date":"2026-02-25","time":"19:31:48","cor_ans":false},{"trial_type":"html-keyboard-response","rt":null,"stimulus":"<p style=\"color: red; font-size: 50px; font-weight: bold;\">Incorrect</p>","response":null,"trial_index":116,"plugin_version":"2.1.0","time_elapsed":265552,"subject_id":"91450","group":"Group1","condition":"1_Rep","full_date":"2026-02-25T19:31:48.589Z","date":"2026-02-25","time":"19:31:48"},{"correct_response":"l","task":"test_phase","broad_category":"I","image_png":"I_Rhyolite_11.png","image_id":155,"category_name":"Rhyolite","category":10,"distinct_rating":1.73,"distinct_type":"Bottom","item_type":"Target","rt":1020,"stimulus":"Stimuli_Rocks480/I_Rhyolite_11.png","response":"l","trial_type":"image-keyboard-response","trial_index":117,"plugin_version":"2.1.0","time_elapsed":266573,"subject_id":"91450","group":"Group1","condition":"1_Rep","full_date":"2026-02-25T19:31:48.589Z","date":"2026-02-25","time":"19:31:48","cor_ans":true},{"trial_type":"html-keyboard-response","rt":null,"stimulus":"<p style=\"color: green; font-size: 50px; font-weight: bold;\">Correct</p>","response":null,"trial_index":118,"plugin_version":"2.1.0","time_elapsed":267075,"subject_id":"91450","group":"Group1","condition":"1_Rep","full_date":"2026-02-25T19:31:48.589Z","date":"2026-02-25","time":"19:31:48"},{"correct_response":"a","task":"test_phase","broad_category":"M","image_png":"M_Slate_10.png","image_id":314,"category_name":"Slate","category":20,"distinct_rating":1.94,"distinct_type":"Bottom","item_type":"Foil","rt":1068,"stimulus":"Stimuli_Rocks480/M_Slate_10.png","response":"l","trial_type":"image-keyboard-response","trial_index":119,"plugin_version":"2.1.0","time_elapsed":268144,"subject_id":"91450","group":"Group1","condition":"1_Rep","full_date":"2026-02-25T19:31:48.589Z","date":"2026-02-25","time":"19:31:48","cor_ans":false},{"trial_type":"html-keyboard-response","rt":null,"stimulus":"<p style=\"color: red; font-size: 50px; font-weight: bold;\">Incorrect</p>","response":null,"trial_index":120,"plugin_version":"2.1.0","time_elapsed":268646,"subject_id":"91450","group":"Group1","condition":"1_Rep","full_date":"2026-02-25T19:31:48.589Z","date":"2026-02-25","time":"19:31:48"},{"correct_response":"l","task":"test_phase","broad_category":"I","image_png":"I_Rhyolite_14.png","image_id":158,"category_name":"Rhyolite","category":10,"distinct_rating":2.59,"distinct_type":"Bottom","item_type":"Target","rt":1237,"stimulus":"Stimuli_Rocks480/I_Rhyolite_14.png","response":"a","trial_type":"image-keyboard-response","trial_index":121,"plugin_version":"2.1.0","time_elapsed":269884,"subject_id":"91450","group":"Group1","condition":"1_Rep","full_date":"2026-02-25T19:31:48.589Z","date":"2026-02-25","time":"19:31:48","cor_ans":false},{"trial_type":"html-keyboard-response","rt":null,"stimulus":"<p style=\"color: red; font-size: 50px; font-weight: bold;\">Incorrect</p>","response":null,"trial_index":122,"plugin_version":"2.1.0","time_elapsed":270385,"subject_id":"91450","group":"Group1","condition":"1_Rep","full_date":"2026-02-25T19:31:48.589Z","date":"2026-02-25","time":"19:31:48"},{"correct_response":"a","task":"test_phase","broad_category":"M","image_png":"M_Slate_14.png","image_id":318,"category_name":"Slate","category":20,"distinct_rating":2.58,"distinct_type":"Bottom","item_type":"Foil","rt":1452,"stimulus":"Stimuli_Rocks480/M_Slate_14.png","response":"l","trial_type":"image-keyboard-response","trial_index":123,"plugin_version":"2.1.0","time_elapsed":271839,"subject_id":"91450","group":"Group1","condition":"1_Rep","full_date":"2026-02-25T19:31:48.589Z","date":"2026-02-25","time":"19:31:48","cor_ans":false},{"trial_type":"html-keyboard-response","rt":null,"stimulus":"<p style=\"color: red; font-size: 50px; font-weight: bold;\">Incorrect</p>","response":null,"trial_index":124,"plugin_version":"2.1.0","time_elapsed":272340,"subject_id":"91450","group":"Group1","condition":"1_Rep","full_date":"2026-02-25T19:31:48.589Z","date":"2026-02-25","time":"19:31:48"},{"correct_response":"a","task":"test_phase","broad_category":"I","image_png":"I_Basalt_13.png","image_id":29,"category_name":"Basalt","category":2,"distinct_rating":2.68,"distinct_type":"Bottom","item_type":"Foil","rt":1519,"stimulus":"Stimuli_Rocks480/I_Basalt_13.png","response":"a","trial_type":"image-keyboard-response","trial_index":125,"plugin_version":"2.1.0","time_elapsed":273861,"subject_id":"91450","group":"Group1","condition":"1_Rep","full_date":"2026-02-25T19:31:48.589Z","date":"2026-02-25","time":"19:31:48","cor_ans":true},{"trial_type":"html-keyboard-response","rt":null,"stimulus":"<p style=\"color: green; font-size: 50px; font-weight: bold;\">Correct</p>","response":null,"trial_index":126,"plugin_version":"2.1.0","time_elapsed":274362,"subject_id":"91450","group":"Group1","condition":"1_Rep","full_date":"2026-02-25T19:31:48.589Z","date":"2026-02-25","time":"19:31:48"},{"correct_response":"l","task":"test_phase","broad_category":"I","image_png":"I_Diorite_04.png","image_id":36,"category_name":"Diorite","category":3,"distinct_rating":2.98,"distinct_type":"Bottom","item_type":"Target","rt":1357,"stimulus":"Stimuli_Rocks480/I_Diorite_04.png","response":"l","trial_type":"image-keyboard-response","trial_index":127,"plugin_version":"2.1.0","time_elapsed":275721,"subject_id":"91450","group":"Group1","condition":"1_Rep","full_date":"2026-02-25T19:31:48.589Z","date":"2026-02-25","time":"19:31:48","cor_ans":true},{"trial_type":"html-keyboard-response","rt":null,"stimulus":"<p style=\"color: green; font-size: 50px; font-weight: bold;\">Correct</p>","response":null,"trial_index":128,"plugin_version":"2.1.0","time_elapsed":276222,"subject_id":"91450","group":"Group1","condition":"1_Rep","full_date":"2026-02-25T19:31:48.589Z","date":"2026-02-25","time":"19:31:48"},{"correct_response":"a","task":"test_phase","broad_category":"S","image_png":"S_Dolomite_07.png","image_id":391,"category_name":"Dolomite","category":25,"distinct_rating":1.73,"distinct_type":"Bottom","item_type":"Foil","rt":878,"stimulus":"Stimuli_Rocks480/S_Dolomite_07.png","response":"l","trial_type":"image-keyboard-response","trial_index":129,"plugin_version":"2.1.0","time_elapsed":277102,"subject_id":"91450","group":"Group1","condition":"1_Rep","full_date":"2026-02-25T19:31:48.589Z","date":"2026-02-25","time":"19:31:48","cor_ans":false},{"trial_type":"html-keyboard-response","rt":null,"stimulus":"<p style=\"color: red; font-size: 50px; font-weight: bold;\">Incorrect</p>","response":null,"trial_index":130,"plugin_version":"2.1.0","time_elapsed":277603,"subject_id":"91450","group":"Group1","condition":"1_Rep","full_date":"2026-02-25T19:31:48.589Z","date":"2026-02-25","time":"19:31:48"},{"correct_response":"a","task":"test_phase","broad_category":"I","image_png":"I_Diorite_01.png","image_id":33,"category_name":"Diorite","category":3,"distinct_rating":2.97,"distinct_type":"Bottom","item_type":"Foil","rt":1278,"stimulus":"Stimuli_Rocks480/I_Diorite_01.png","response":"l","trial_type":"image-keyboard-response","trial_index":131,"plugin_version":"2.1.0","time_elapsed":278883,"subject_id":"91450","group":"Group1","condition":"1_Rep","full_date":"2026-02-25T19:31:48.589Z","date":"2026-02-25","time":"19:31:48","cor_ans":false},{"trial_type":"html-keyboard-response","rt":null,"stimulus":"<p style=\"color: red; font-size: 50px; font-weight: bold;\">Incorrect</p>","response":null,"trial_index":132,"plugin_version":"2.1.0","time_elapsed":279385,"subject_id":"91450","group":"Group1","condition":"1_Rep","full_date":"2026-02-25T19:31:48.589Z","date":"2026-02-25","time":"19:31:48"},{"correct_response":"a","task":"test_phase","broad_category":"I","image_png":"I_Basalt_08.png","image_id":24,"category_name":"Basalt","category":2,"distinct_rating":2.31,"distinct_type":"Bottom","item_type":"Foil","rt":1275,"stimulus":"Stimuli_Rocks480/I_Basalt_08.png","response":"l","trial_type":"image-keyboard-response","trial_index":133,"plugin_version":"2.1.0","time_elapsed":280661,"subject_id":"91450","group":"Group1","condition":"1_Rep","full_date":"2026-02-25T19:31:48.589Z","date":"2026-02-25","time":"19:31:48","cor_ans":false},{"trial_type":"html-keyboard-response","rt":null,"stimulus":"<p style=\"color: red; font-size: 50px; font-weight: bold;\">Incorrect</p>","response":null,"trial_index":134,"plugin_version":"2.1.0","time_elapsed":281162,"subject_id":"91450","group":"Group1","condition":"1_Rep","full_date":"2026-02-25T19:31:48.589Z","date":"2026-02-25","time":"19:31:48"},{"correct_response":"a","task":"test_phase","broad_category":"S","image_png":"S_Dolomite_01.png","image_id":385,"category_name":"Dolomite","category":25,"distinct_rating":1.43,"distinct_type":"Bottom","item_type":"Foil","rt":1704,"stimulus":"Stimuli_Rocks480/S_Dolomite_01.png","response":"l","trial_type":"image-keyboard-response","trial_index":135,"plugin_version":"2.1.0","time_elapsed":282868,"subject_id":"91450","group":"Group1","condition":"1_Rep","full_date":"2026-02-25T19:31:48.589Z","date":"2026-02-25","time":"19:31:48","cor_ans":false},{"trial_type":"html-keyboard-response","rt":null,"stimulus":"<p style=\"color: red; font-size: 50px; font-weight: bold;\">Incorrect</p>","response":null,"trial_index":136,"plugin_version":"2.1.0","time_elapsed":283369,"subject_id":"91450","group":"Group1","condition":"1_Rep","full_date":"2026-02-25T19:31:48.589Z","date":"2026-02-25","time":"19:31:48"},{"correct_response":"a","task":"test_phase","broad_category":"M","image_png":"M_Gneiss_10.png","image_id":202,"category_name":"Gneiss","category":13,"distinct_rating":3.09,"distinct_type":"Bottom","item_type":"Foil","rt":918,"stimulus":"Stimuli_Rocks480/M_Gneiss_10.png","response":"a","trial_type":"image-keyboard-response","trial_index":137,"plugin_version":"2.1.0","time_elapsed":284289,"subject_id":"91450","group":"Group1","condition":"1_Rep","full_date":"2026-02-25T19:31:48.589Z","date":"2026-02-25","time":"19:31:48","cor_ans":true},{"trial_type":"html-keyboard-response","rt":null,"stimulus":"<p style=\"color: green; font-size: 50px; font-weight: bold;\">Correct</p>","response":null,"trial_index":138,"plugin_version":"2.1.0","time_elapsed":284790,"subject_id":"91450","group":"Group1","condition":"1_Rep","full_date":"2026-02-25T19:31:48.589Z","date":"2026-02-25","time":"19:31:48"},{"correct_response":"a","task":"test_phase","broad_category":"S","image_png":"S_Sandstone_08.png","image_id":456,"category_name":"Sandstone","category":29,"distinct_rating":1.5,"distinct_type":"Bottom","item_type":"Foil","rt":3198,"stimulus":"Stimuli_Rocks480/S_Sandstone_08.png","response":"a","trial_type":"image-keyboard-response","trial_index":139,"plugin_version":"2.1.0","time_elapsed":287990,"subject_id":"91450","group":"Group1","condition":"1_Rep","full_date":"2026-02-25T19:31:48.589Z","date":"2026-02-25","time":"19:31:48","cor_ans":true},{"trial_type":"html-keyboard-response","rt":null,"stimulus":"<p style=\"color: green; font-size: 50px; font-weight: bold;\">Correct</p>","response":null,"trial_index":140,"plugin_version":"2.1.0","time_elapsed":288492,"subject_id":"91450","group":"Group1","condition":"1_Rep","full_date":"2026-02-25T19:31:48.589Z","date":"2026-02-25","time":"19:31:48"},{"correct_response":"l","task":"test_phase","broad_category":"I","image_png":"I_Pegmatite_16.png","image_id":112,"category_name":"Pegmatite","category":7,"distinct_rating":7.03,"distinct_type":"Top","item_type":"Target","rt":1231,"stimulus":"Stimuli_Rocks480/I_Pegmatite_16.png","response":"a","trial_type":"image-keyboard-response","trial_index":141,"plugin_version":"2.1.0","time_elapsed":289725,"subject_id":"91450","group":"Group1","condition":"1_Rep","full_date":"2026-02-25T19:31:48.589Z","date":"2026-02-25","time":"19:31:48","cor_ans":false},{"trial_type":"html-keyboard-response","rt":null,"stimulus":"<p style=\"color: red; font-size: 50px; font-weight: bold;\">Incorrect</p>","response":null,"trial_index":142,"plugin_version":"2.1.0","time_elapsed":290226,"subject_id":"91450","group":"Group1","condition":"1_Rep","full_date":"2026-02-25T19:31:48.589Z","date":"2026-02-25","time":"19:31:48"},{"correct_response":"a","task":"test_phase","broad_category":"M","image_png":"M_Quartzite_07.png","image_id":279,"category_name":"Quartzite","category":18,"distinct_rating":1.97,"distinct_type":"Bottom","item_type":"Foil","rt":1430,"stimulus":"Stimuli_Rocks480/M_Quartzite_07.png","response":"a","trial_type":"image-keyboard-response","trial_index":143,"plugin_version":"2.1.0","time_elapsed":291658,"subject_id":"91450","group":"Group1","condition":"1_Rep","full_date":"2026-02-25T19:31:48.589Z","date":"2026-02-25","time":"19:31:48","cor_ans":true},{"trial_type":"html-keyboard-response","rt":null,"stimulus":"<p style=\"color: green; font-size: 50px; font-weight: bold;\">Correct</p>","response":null,"trial_index":144,"plugin_version":"2.1.0","time_elapsed":292159,"subject_id":"91450","group":"Group1","condition":"1_Rep","full_date":"2026-02-25T19:31:48.589Z","date":"2026-02-25","time":"19:31:48"},{"correct_response":"l","task":"test_phase","broad_category":"S","image_png":"S_Breccia_11.png","image_id":347,"category_name":"Breccia","category":22,"distinct_rating":6.7,"distinct_type":"Top","item_type":"Target","rt":1034,"stimulus":"Stimuli_Rocks480/S_Breccia_11.png","response":"l","trial_type":"image-keyboard-response","trial_index":145,"plugin_version":"2.1.0","time_elapsed":293195,"subject_id":"91450","group":"Group1","condition":"1_Rep","full_date":"2026-02-25T19:31:48.589Z","date":"2026-02-25","time":"19:31:48","cor_ans":true},{"trial_type":"html-keyboard-response","rt":null,"stimulus":"<p style=\"color: green; font-size: 50px; font-weight: bold;\">Correct</p>","response":null,"trial_index":146,"plugin_version":"2.1.0","time_elapsed":293696,"subject_id":"91450","group":"Group1","condition":"1_Rep","full_date":"2026-02-25T19:31:48.589Z","date":"2026-02-25","time":"19:31:48"},{"correct_response":"l","task":"test_phase","broad_category":"S","image_png":"S_Dolomite_13.png","image_id":397,"category_name":"Dolomite","category":25,"distinct_rating":1.77,"distinct_type":"Bottom","item_type":"Target","rt":3294,"stimulus":"Stimuli_Rocks480/S_Dolomite_13.png","response":"l","trial_type":"image-keyboard-response","trial_index":147,"plugin_version":"2.1.0","time_elapsed":296992,"subject_id":"91450","group":"Group1","condition":"1_Rep","full_date":"2026-02-25T19:31:48.589Z","date":"2026-02-25","time":"19:31:48","cor_ans":true},{"trial_type":"html-keyboard-response","rt":null,"stimulus":"<p style=\"color: green; font-size: 50px; font-weight: bold;\">Correct</p>","response":null,"trial_index":148,"plugin_version":"2.1.0","time_elapsed":297493,"subject_id":"91450","group":"Group1","condition":"1_Rep","full_date":"2026-02-25T19:31:48.589Z","date":"2026-02-25","time":"19:31:48"},{"correct_response":"l","task":"test_phase","broad_category":"S","image_png":"S_Sandstone_16.png","image_id":464,"category_name":"Sandstone","category":29,"distinct_rating":1.93,"distinct_type":"Bottom","item_type":"Target","rt":963,"stimulus":"Stimuli_Rocks480/S_Sandstone_16.png","response":"a","trial_type":"image-keyboard-response","trial_index":149,"plugin_version":"2.1.0","time_elapsed":298458,"subject_id":"91450","group":"Group1","condition":"1_Rep","full_date":"2026-02-25T19:31:48.589Z","date":"2026-02-25","time":"19:31:48","cor_ans":false},{"trial_type":"html-keyboard-response","rt":null,"stimulus":"<p style=\"color: red; font-size: 50px; font-weight: bold;\">Incorrect</p>","response":null,"trial_index":150,"plugin_version":"2.1.0","time_elapsed":298959,"subject_id":"91450","group":"Group1","condition":"1_Rep","full_date":"2026-02-25T19:31:48.589Z","date":"2026-02-25","time":"19:31:48"},{"correct_response":"l","task":"test_phase","broad_category":"I","image_png":"I_Andesite_08.png","image_id":8,"category_name":"Andesite","category":1,"distinct_rating":1.95,"distinct_type":"Bottom","item_type":"Target","rt":839,"stimulus":"Stimuli_Rocks480/I_Andesite_08.png","response":"l","trial_type":"image-keyboard-response","trial_index":151,"plugin_version":"2.1.0","time_elapsed":299800,"subject_id":"91450","group":"Group1","condition":"1_Rep","full_date":"2026-02-25T19:31:48.589Z","date":"2026-02-25","time":"19:31:48","cor_ans":true},{"trial_type":"html-keyboard-response","rt":null,"stimulus":"<p style=\"color: green; font-size: 50px; font-weight: bold;\">Correct</p>","response":null,"trial_index":152,"plugin_version":"2.1.0","time_elapsed":300301,"subject_id":"91450","group":"Group1","condition":"1_Rep","full_date":"2026-02-25T19:31:48.589Z","date":"2026-02-25","time":"19:31:48"},{"correct_response":"a","task":"test_phase","broad_category":"I","image_png":"I_Gabbro_02.png","image_id":50,"category_name":"Gabbro","category":4,"distinct_rating":2.73,"distinct_type":"Bottom","item_type":"Foil","rt":1400,"stimulus":"Stimuli_Rocks480/I_Gabbro_02.png","response":"a","trial_type":"image-keyboard-response","trial_index":153,"plugin_version":"2.1.0","time_elapsed":301703,"subject_id":"91450","group":"Group1","condition":"1_Rep","full_date":"2026-02-25T19:31:48.589Z","date":"2026-02-25","time":"19:31:48","cor_ans":true},{"trial_type":"html-keyboard-response","rt":null,"stimulus":"<p style=\"color: green; font-size: 50px; font-weight: bold;\">Correct</p>","response":null,"trial_index":154,"plugin_version":"2.1.0","time_elapsed":302204,"subject_id":"91450","group":"Group1","condition":"1_Rep","full_date":"2026-02-25T19:31:48.589Z","date":"2026-02-25","time":"19:31:48"},{"correct_response":"l","task":"test_phase","broad_category":"M","image_png":"M_Gneiss_06.png","image_id":198,"category_name":"Gneiss","category":13,"distinct_rating":2.65,"distinct_type":"Bottom","item_type":"Target","rt":1176,"stimulus":"Stimuli_Rocks480/M_Gneiss_06.png","response":"a","trial_type":"image-keyboard-response","trial_index":155,"plugin_version":"2.1.0","time_elapsed":303382,"subject_id":"91450","group":"Group1","condition":"1_Rep","full_date":"2026-02-25T19:31:48.589Z","date":"2026-02-25","time":"19:31:48","cor_ans":false},{"trial_type":"html-keyboard-response","rt":null,"stimulus":"<p style=\"color: red; font-size: 50px; font-weight: bold;\">Incorrect</p>","response":null,"trial_index":156,"plugin_version":"2.1.0","time_elapsed":303884,"subject_id":"91450","group":"Group1","condition":"1_Rep","full_date":"2026-02-25T19:31:48.589Z","date":"2026-02-25","time":"19:31:48"},{"correct_response":"l","task":"test_phase","broad_category":"M","image_png":"M_Phyllite_07.png","image_id":263,"category_name":"Phyllite","category":17,"distinct_rating":2.59,"distinct_type":"Bottom","item_type":"Target","rt":1067,"stimulus":"Stimuli_Rocks480/M_Phyllite_07.png","response":"a","trial_type":"image-keyboard-response","trial_index":157,"plugin_version":"2.1.0","time_elapsed":304953,"subject_id":"91450","group":"Group1","condition":"1_Rep","full_date":"2026-02-25T19:31:48.589Z","date":"2026-02-25","time":"19:31:48","cor_ans":false},{"trial_type":"html-keyboard-response","rt":null,"stimulus":"<p style=\"color: red; font-size: 50px; font-weight: bold;\">Incorrect</p>","response":null,"trial_index":158,"plugin_version":"2.1.0","time_elapsed":305454,"subject_id":"91450","group":"Group1","condition":"1_Rep","full_date":"2026-02-25T19:31:48.589Z","date":"2026-02-25","time":"19:31:48"},{"correct_response":"l","task":"test_phase","broad_category":"I","image_png":"I_Diorite_03.png","image_id":35,"category_name":"Diorite","category":3,"distinct_rating":3.14,"distinct_type":"Bottom","item_type":"Target","rt":1028,"stimulus":"Stimuli_Rocks480/I_Diorite_03.png","response":"l","trial_type":"image-keyboard-response","trial_index":159,"plugin_version":"2.1.0","time_elapsed":306483,"subject_id":"91450","group":"Group1","condition":"1_Rep","full_date":"2026-02-25T19:31:48.589Z","date":"2026-02-25","time":"19:31:48","cor_ans":true},{"trial_type":"html-keyboard-response","rt":null,"stimulus":"<p style=\"color: green; font-size: 50px; font-weight: bold;\">Correct</p>","response":null,"trial_index":160,"plugin_version":"2.1.0","time_elapsed":306984,"subject_id":"91450","group":"Group1","condition":"1_Rep","full_date":"2026-02-25T19:31:48.589Z","date":"2026-02-25","time":"19:31:48"},{"correct_response":"l","task":"test_phase","broad_category":"I","image_png":"I_Gabbro_08.png","image_id":56,"category_name":"Gabbro","category":4,"distinct_rating":3.02,"distinct_type":"Bottom","item_type":"Target","rt":772,"stimulus":"Stimuli_Rocks480/I_Gabbro_08.png","response":"l","trial_type":"image-keyboard-response","trial_index":161,"plugin_version":"2.1.0","time_elapsed":307758,"subject_id":"91450","group":"Group1","condition":"1_Rep","full_date":"2026-02-25T19:31:48.589Z","date":"2026-02-25","time":"19:31:48","cor_ans":true},{"trial_type":"html-keyboard-response","rt":null,"stimulus":"<p style=\"color: green; font-size: 50px; font-weight: bold;\">Correct</p>","response":null,"trial_index":162,"plugin_version":"2.1.0","time_elapsed":308259,"subject_id":"91450","group":"Group1","condition":"1_Rep","full_date":"2026-02-25T19:31:48.589Z","date":"2026-02-25","time":"19:31:48"},{"correct_response":"l","task":"test_phase","broad_category":"M","image_png":"M_Slate_15.png","image_id":319,"category_name":"Slate","category":20,"distinct_rating":2.13,"distinct_type":"Bottom","item_type":"Target","rt":669,"stimulus":"Stimuli_Rocks480/M_Slate_15.png","response":"l","trial_type":"image-keyboard-response","trial_index":163,"plugin_version":"2.1.0","time_elapsed":308930,"subject_id":"91450","group":"Group1","condition":"1_Rep","full_date":"2026-02-25T19:31:48.589Z","date":"2026-02-25","time":"19:31:48","cor_ans":true},{"trial_type":"html-keyboard-response","rt":null,"stimulus":"<p style=\"color: green; font-size: 50px; font-weight: bold;\">Correct</p>","response":null,"trial_index":164,"plugin_version":"2.1.0","time_elapsed":309431,"subject_id":"91450","group":"Group1","condition":"1_Rep","full_date":"2026-02-25T19:31:48.589Z","date":"2026-02-25","time":"19:31:48"},{"correct_response":"a","task":"test_phase","broad_category":"S","image_png":"S_Sandstone_04.png","image_id":452,"category_name":"Sandstone","category":29,"distinct_rating":1.8,"distinct_type":"Bottom","item_type":"Foil","rt":949,"stimulus":"Stimuli_Rocks480/S_Sandstone_04.png","response":"l","trial_type":"image-keyboard-response","trial_index":165,"plugin_version":"2.1.0","time_elapsed":310382,"subject_id":"91450","group":"Group1","condition":"1_Rep","full_date":"2026-02-25T19:31:48.589Z","date":"2026-02-25","time":"19:31:48","cor_ans":false},{"trial_type":"html-keyboard-response","rt":null,"stimulus":"<p style=\"color: red; font-size: 50px; font-weight: bold;\">Incorrect</p>","response":null,"trial_index":166,"plugin_version":"2.1.0","time_elapsed":310883,"subject_id":"91450","group":"Group1","condition":"1_Rep","full_date":"2026-02-25T19:31:48.589Z","date":"2026-02-25","time":"19:31:48"},{"correct_response":"l","task":"test_phase","broad_category":"I","image_png":"I_Rhyolite_16.png","image_id":160,"category_name":"Rhyolite","category":10,"distinct_rating":2.19,"distinct_type":"Bottom","item_type":"Target","rt":836,"stimulus":"Stimuli_Rocks480/I_Rhyolite_16.png","response":"a","trial_type":"image-keyboard-response","trial_index":167,"plugin_version":"2.1.0","time_elapsed":311721,"subject_id":"91450","group":"Group1","condition":"1_Rep","full_date":"2026-02-25T19:31:48.589Z","date":"2026-02-25","time":"19:31:48","cor_ans":false},{"trial_type":"html-keyboard-response","rt":null,"stimulus":"<p style=\"color: red; font-size: 50px; font-weight: bold;\">Incorrect</p>","response":null,"trial_index":168,"plugin_version":"2.1.0","time_elapsed":312223,"subject_id":"91450","group":"Group1","condition":"1_Rep","full_date":"2026-02-25T19:31:48.589Z","date":"2026-02-25","time":"19:31:48"},{"correct_response":"a","task":"test_phase","broad_category":"M","image_png":"M_Marble_02.png","image_id":226,"category_name":"Marble","category":15,"distinct_rating":3.2,"distinct_type":"Bottom","item_type":"Foil","rt":1045,"stimulus":"Stimuli_Rocks480/M_Marble_02.png","response":"a","trial_type":"image-keyboard-response","trial_index":169,"plugin_version":"2.1.0","time_elapsed":313269,"subject_id":"91450","group":"Group1","condition":"1_Rep","full_date":"2026-02-25T19:31:48.589Z","date":"2026-02-25","time":"19:31:48","cor_ans":true},{"trial_type":"html-keyboard-response","rt":null,"stimulus":"<p style=\"color: green; font-size: 50px; font-weight: bold;\">Correct</p>","response":null,"trial_index":170,"plugin_version":"2.1.0","time_elapsed":313771,"subject_id":"91450","group":"Group1","condition":"1_Rep","full_date":"2026-02-25T19:31:48.589Z","date":"2026-02-25","time":"19:31:48"},{"correct_response":"a","task":"test_phase","broad_category":"S","image_png":"S_Rock Salt_13.png","image_id":445,"category_name":"Rock Salt","category":28,"distinct_rating":7.58,"distinct_type":"Top","item_type":"Foil","rt":639,"stimulus":"Stimuli_Rocks480/S_Rock Salt_13.png","response":"a","trial_type":"image-keyboard-response","trial_index":171,"plugin_version":"2.1.0","time_elapsed":314412,"subject_id":"91450","group":"Group1","condition":"1_Rep","full_date":"2026-02-25T19:31:48.589Z","date":"2026-02-25","time":"19:31:48","cor_ans":true},{"trial_type":"html-keyboard-response","rt":null,"stimulus":"<p style=\"color: green; font-size: 50px; font-weight: bold;\">Correct</p>","response":null,"trial_index":172,"plugin_version":"2.1.0","time_elapsed":314914,"subject_id":"91450","group":"Group1","condition":"1_Rep","full_date":"2026-02-25T19:31:48.589Z","date":"2026-02-25","time":"19:31:48"},{"correct_response":"l","task":"test_phase","broad_category":"S","image_png":"S_Conglomerate_05.png","image_id":373,"category_name":"Conglomerate","category":24,"distinct_rating":7.32,"distinct_type":"Top","item_type":"Target","rt":628,"stimulus":"Stimuli_Rocks480/S_Conglomerate_05.png","response":"a","trial_type":"image-keyboard-response","trial_index":173,"plugin_version":"2.1.0","time_elapsed":315544,"subject_id":"91450","group":"Group1","condition":"1_Rep","full_date":"2026-02-25T19:31:48.589Z","date":"2026-02-25","time":"19:31:48","cor_ans":false},{"trial_type":"html-keyboard-response","rt":null,"stimulus":"<p style=\"color: red; font-size: 50px; font-weight: bold;\">Incorrect</p>","response":null,"trial_index":174,"plugin_version":"2.1.0","time_elapsed":316045,"subject_id":"91450","group":"Group1","condition":"1_Rep","full_date":"2026-02-25T19:31:48.589Z","date":"2026-02-25","time":"19:31:48"},{"correct_response":"l","task":"test_phase","broad_category":"I","image_png":"I_Basalt_01.png","image_id":17,"category_name":"Basalt","category":2,"distinct_rating":1.92,"distinct_type":"Bottom","item_type":"Target","rt":960,"stimulus":"Stimuli_Rocks480/I_Basalt_01.png","response":"a","trial_type":"image-keyboard-response","trial_index":175,"plugin_version":"2.1.0","time_elapsed":317006,"subject_id":"91450","group":"Group1","condition":"1_Rep","full_date":"2026-02-25T19:31:48.589Z","date":"2026-02-25","time":"19:31:48","cor_ans":false},{"trial_type":"html-keyboard-response","rt":null,"stimulus":"<p style=\"color: red; font-size: 50px; font-weight: bold;\">Incorrect</p>","response":null,"trial_index":176,"plugin_version":"2.1.0","time_elapsed":317508,"subject_id":"91450","group":"Group1","condition":"1_Rep","full_date":"2026-02-25T19:31:48.589Z","date":"2026-02-25","time":"19:31:48"},{"correct_response":"l","task":"test_phase","broad_category":"S","image_png":"S_Sandstone_03.png","image_id":451,"category_name":"Sandstone","category":29,"distinct_rating":1.86,"distinct_type":"Bottom","item_type":"Target","rt":1110,"stimulus":"Stimuli_Rocks480/S_Sandstone_03.png","response":"l","trial_type":"image-keyboard-response","trial_index":177,"plugin_version":"2.1.0","time_elapsed":318620,"subject_id":"91450","group":"Group1","condition":"1_Rep","full_date":"2026-02-25T19:31:48.589Z","date":"2026-02-25","time":"19:31:48","cor_ans":true},{"trial_type":"html-keyboard-response","rt":null,"stimulus":"<p style=\"color: green; font-size: 50px; font-weight: bold;\">Correct</p>","response":null,"trial_index":178,"plugin_version":"2.1.0","time_elapsed":319121,"subject_id":"91450","group":"Group1","condition":"1_Rep","full_date":"2026-02-25T19:31:48.589Z","date":"2026-02-25","time":"19:31:48"},{"correct_response":"l","task":"test_phase","broad_category":"S","image_png":"S_Shale_12.png","image_id":476,"category_name":"Shale","category":30,"distinct_rating":2.48,"distinct_type":"Bottom","item_type":"Target","rt":834,"stimulus":"Stimuli_Rocks480/S_Shale_12.png","response":"l","trial_type":"image-keyboard-response","trial_index":179,"plugin_version":"2.1.0","time_elapsed":319957,"subject_id":"91450","group":"Group1","condition":"1_Rep","full_date":"2026-02-25T19:31:48.589Z","date":"2026-02-25","time":"19:31:48","cor_ans":true},{"trial_type":"html-keyboard-response","rt":null,"stimulus":"<p style=\"color: green; font-size: 50px; font-weight: bold;\">Correct</p>","response":null,"trial_index":180,"plugin_version":"2.1.0","time_elapsed":320458,"subject_id":"91450","group":"Group1","condition":"1_Rep","full_date":"2026-02-25T19:31:48.589Z","date":"2026-02-25","time":"19:31:48"},{"correct_response":"l","task":"test_phase","broad_category":"S","image_png":"S_Shale_08.png","image_id":472,"category_name":"Shale","category":30,"distinct_rating":2.55,"distinct_type":"Bottom","item_type":"Target","rt":902,"stimulus":"Stimuli_Rocks480/S_Shale_08.png","response":"a","trial_type":"image-keyboard-response","trial_index":181,"plugin_version":"2.1.0","time_elapsed":321362,"subject_id":"91450","group":"Group1","condition":"1_Rep","full_date":"2026-02-25T19:31:48.589Z","date":"2026-02-25","time":"19:31:48","cor_ans":false},{"trial_type":"html-keyboard-response","rt":null,"stimulus":"<p style=\"color: red; font-size: 50px; font-weight: bold;\">Incorrect</p>","response":null,"trial_index":182,"plugin_version":"2.1.0","time_elapsed":321863,"subject_id":"91450","group":"Group1","condition":"1_Rep","full_date":"2026-02-25T19:31:48.589Z","date":"2026-02-25","time":"19:31:48"},{"correct_response":"a","task":"test_phase","broad_category":"S","image_png":"S_Sandstone_11.png","image_id":459,"category_name":"Sandstone","category":29,"distinct_rating":1.82,"distinct_type":"Bottom","item_type":"Foil","rt":1093,"stimulus":"Stimuli_Rocks480/S_Sandstone_11.png","response":"a","trial_type":"image-keyboard-response","trial_index":183,"plugin_version":"2.1.0","time_elapsed":322958,"subject_id":"91450","group":"Group1","condition":"1_Rep","full_date":"2026-02-25T19:31:48.589Z","date":"2026-02-25","time":"19:31:48","cor_ans":true},{"trial_type":"html-keyboard-response","rt":null,"stimulus":"<p style=\"color: green; font-size: 50px; font-weight: bold;\">Correct</p>","response":null,"trial_index":184,"plugin_version":"2.1.0","time_elapsed":323460,"subject_id":"91450","group":"Group1","condition":"1_Rep","full_date":"2026-02-25T19:31:48.589Z","date":"2026-02-25","time":"19:31:48"},{"correct_response":"a","task":"test_phase","broad_category":"I","image_png":"I_Diorite_15.png","image_id":47,"category_name":"Diorite","category":3,"distinct_rating":3.05,"distinct_type":"Bottom","item_type":"Foil","rt":854,"stimulus":"Stimuli_Rocks480/I_Diorite_15.png","response":"l","trial_type":"image-keyboard-response","trial_index":185,"plugin_version":"2.1.0","time_elapsed":324316,"subject_id":"91450","group":"Group1","condition":"1_Rep","full_date":"2026-02-25T19:31:48.589Z","date":"2026-02-25","time":"19:31:48","cor_ans":false},{"trial_type":"html-keyboard-response","rt":null,"stimulus":"<p style=\"color: red; font-size: 50px; font-weight: bold;\">Incorrect</p>","response":null,"trial_index":186,"plugin_version":"2.1.0","time_elapsed":324818,"subject_id":"91450","group":"Group1","condition":"1_Rep","full_date":"2026-02-25T19:31:48.589Z","date":"2026-02-25","time":"19:31:48"},{"correct_response":"l","task":"test_phase","broad_category":"S","image_png":"S_Dolomite_14.png","image_id":398,"category_name":"Dolomite","category":25,"distinct_rating":1.43,"distinct_type":"Bottom","item_type":"Target","rt":722,"stimulus":"Stimuli_Rocks480/S_Dolomite_14.png","response":"a","trial_type":"image-keyboard-response","trial_index":187,"plugin_version":"2.1.0","time_elapsed":325541,"subject_id":"91450","group":"Group1","condition":"1_Rep","full_date":"2026-02-25T19:31:48.589Z","date":"2026-02-25","time":"19:31:48","cor_ans":false},{"trial_type":"html-keyboard-response","rt":null,"stimulus":"<p style=\"color: red; font-size: 50px; font-weight: bold;\">Incorrect</p>","response":null,"trial_index":188,"plugin_version":"2.1.0","time_elapsed":326043,"subject_id":"91450","group":"Group1","condition":"1_Rep","full_date":"2026-02-25T19:31:48.589Z","date":"2026-02-25","time":"19:31:48"},{"correct_response":"l","task":"test_phase","broad_category":"I","image_png":"I_Andesite_06.png","image_id":6,"category_name":"Andesite","category":1,"distinct_rating":3.17,"distinct_type":"Bottom","item_type":"Target","rt":855,"stimulus":"Stimuli_Rocks480/I_Andesite_06.png","response":"l","trial_type":"image-keyboard-response","trial_index":189,"plugin_version":"2.1.0","time_elapsed":326899,"subject_id":"91450","group":"Group1","condition":"1_Rep","full_date":"2026-02-25T19:31:48.589Z","date":"2026-02-25","time":"19:31:48","cor_ans":true},{"trial_type":"html-keyboard-response","rt":null,"stimulus":"<p style=\"color: green; font-size: 50px; font-weight: bold;\">Correct</p>","response":null,"trial_index":190,"plugin_version":"2.1.0","time_elapsed":327401,"subject_id":"91450","group":"Group1","condition":"1_Rep","full_date":"2026-02-25T19:31:48.589Z","date":"2026-02-25","time":"19:31:48"},{"correct_response":"l","task":"test_phase","broad_category":"I","image_png":"I_Basalt_02.png","image_id":18,"category_name":"Basalt","category":2,"distinct_rating":1.84,"distinct_type":"Bottom","item_type":"Target","rt":780,"stimulus":"Stimuli_Rocks480/I_Basalt_02.png","response":"l","trial_type":"image-keyboard-response","trial_index":191,"plugin_version":"2.1.0","time_elapsed":328182,"subject_id":"91450","group":"Group1","condition":"1_Rep","full_date":"2026-02-25T19:31:48.589Z","date":"2026-02-25","time":"19:31:48","cor_ans":true},{"trial_type":"html-keyboard-response","rt":null,"stimulus":"<p style=\"color: green; font-size: 50px; font-weight: bold;\">Correct</p>","response":null,"trial_index":192,"plugin_version":"2.1.0","time_elapsed":328684,"subject_id":"91450","group":"Group1","condition":"1_Rep","full_date":"2026-02-25T19:31:48.589Z","date":"2026-02-25","time":"19:31:48"},{"correct_response":"l","task":"test_phase","broad_category":"M","image_png":"M_Phyllite_03.png","image_id":259,"category_name":"Phyllite","category":17,"distinct_rating":2.5,"distinct_type":"Bottom","item_type":"Target","rt":1278,"stimulus":"Stimuli_Rocks480/M_Phyllite_03.png","response":"l","trial_type":"image-keyboard-response","trial_index":193,"plugin_version":"2.1.0","time_elapsed":329964,"subject_id":"91450","group":"Group1","condition":"1_Rep","full_date":"2026-02-25T19:31:48.589Z","date":"2026-02-25","time":"19:31:48","cor_ans":true},{"trial_type":"html-keyboard-response","rt":null,"stimulus":"<p style=\"color: green; font-size: 50px; font-weight: bold;\">Correct</p>","response":null,"trial_index":194,"plugin_version":"2.1.0","time_elapsed":330465,"subject_id":"91450","group":"Group1","condition":"1_Rep","full_date":"2026-02-25T19:31:48.589Z","date":"2026-02-25","time":"19:31:48"},{"correct_response":"l","task":"test_phase","broad_category":"M","image_png":"M_Quartzite_05.png","image_id":277,"category_name":"Quartzite","category":18,"distinct_rating":2.23,"distinct_type":"Bottom","item_type":"Target","rt":1825,"stimulus":"Stimuli_Rocks480/M_Quartzite_05.png","response":"a","trial_type":"image-keyboard-response","trial_index":195,"plugin_version":"2.1.0","time_elapsed":332291,"subject_id":"91450","group":"Group1","condition":"1_Rep","full_date":"2026-02-25T19:31:48.589Z","date":"2026-02-25","time":"19:31:48","cor_ans":false},{"trial_type":"html-keyboard-response","rt":null,"stimulus":"<p style=\"color: red; font-size: 50px; font-weight: bold;\">Incorrect</p>","response":null,"trial_index":196,"plugin_version":"2.1.0","time_elapsed":332793,"subject_id":"91450","group":"Group1","condition":"1_Rep","full_date":"2026-02-25T19:31:48.589Z","date":"2026-02-25","time":"19:31:48"},{"correct_response":"a","task":"test_phase","broad_category":"M","image_png":"M_Gneiss_14.png","image_id":206,"category_name":"Gneiss","category":13,"distinct_rating":3.41,"distinct_type":"Bottom","item_type":"Foil","rt":790,"stimulus":"Stimuli_Rocks480/M_Gneiss_14.png","response":"l","trial_type":"image-keyboard-response","trial_index":197,"plugin_version":"2.1.0","time_elapsed":333584,"subject_id":"91450","group":"Group1","condition":"1_Rep","full_date":"2026-02-25T19:31:48.589Z","date":"2026-02-25","time":"19:31:48","cor_ans":false},{"trial_type":"html-keyboard-response","rt":null,"stimulus":"<p style=\"color: red; font-size: 50px; font-weight: bold;\">Incorrect</p>","response":null,"trial_index":198,"plugin_version":"2.1.0","time_elapsed":334085,"subject_id":"91450","group":"Group1","condition":"1_Rep","full_date":"2026-02-25T19:31:48.589Z","date":"2026-02-25","time":"19:31:48"},{"correct_response":"a","task":"test_phase","broad_category":"I","image_png":"I_Rhyolite_10.png","image_id":154,"category_name":"Rhyolite","category":10,"distinct_rating":2.88,"distinct_type":"Bottom","item_type":"Foil","rt":1032,"stimulus":"Stimuli_Rocks480/I_Rhyolite_10.png","response":"l","trial_type":"image-keyboard-response","trial_index":199,"plugin_version":"2.1.0","time_elapsed":335119,"subject_id":"91450","group":"Group1","condition":"1_Rep","full_date":"2026-02-25T19:31:48.589Z","date":"2026-02-25","time":"19:31:48","cor_ans":false},{"trial_type":"html-keyboard-response","rt":null,"stimulus":"<p style=\"color: red; font-size: 50px; font-weight: bold;\">Incorrect</p>","response":null,"trial_index":200,"plugin_version":"2.1.0","time_elapsed":335621,"subject_id":"91450","group":"Group1","condition":"1_Rep","full_date":"2026-02-25T19:31:48.589Z","date":"2026-02-25","time":"19:31:48"},{"correct_response":"a","task":"test_phase","broad_category":"I","image_png":"I_Rhyolite_08.png","image_id":152,"category_name":"Rhyolite","category":10,"distinct_rating":1.38,"distinct_type":"Bottom","item_type":"Foil","rt":759,"stimulus":"Stimuli_Rocks480/I_Rhyolite_08.png","response":"l","trial_type":"image-keyboard-response","trial_index":201,"plugin_version":"2.1.0","time_elapsed":336382,"subject_id":"91450","group":"Group1","condition":"1_Rep","full_date":"2026-02-25T19:31:48.589Z","date":"2026-02-25","time":"19:31:48","cor_ans":false},{"trial_type":"html-keyboard-response","rt":null,"stimulus":"<p style=\"color: red; font-size: 50px; font-weight: bold;\">Incorrect</p>","response":null,"trial_index":202,"plugin_version":"2.1.0","time_elapsed":336883,"subject_id":"91450","group":"Group1","condition":"1_Rep","full_date":"2026-02-25T19:31:48.589Z","date":"2026-02-25","time":"19:31:48"},{"correct_response":"l","task":"test_phase","broad_category":"I","image_png":"I_Pumice_12.png","image_id":140,"category_name":"Pumice","category":9,"distinct_rating":2.97,"distinct_type":"Bottom","item_type":"Target","rt":851,"stimulus":"Stimuli_Rocks480/I_Pumice_12.png","response":"a","trial_type":"image-keyboard-response","trial_index":203,"plugin_version":"2.1.0","time_elapsed":337736,"subject_id":"91450","group":"Group1","condition":"1_Rep","full_date":"2026-02-25T19:31:48.589Z","date":"2026-02-25","time":"19:31:48","cor_ans":false},{"trial_type":"html-keyboard-response","rt":null,"stimulus":"<p style=\"color: red; font-size: 50px; font-weight: bold;\">Incorrect</p>","response":null,"trial_index":204,"plugin_version":"2.1.0","time_elapsed":338238,"subject_id":"91450","group":"Group1","condition":"1_Rep","full_date":"2026-02-25T19:31:48.589Z","date":"2026-02-25","time":"19:31:48"},{"correct_response":"l","task":"test_phase","broad_category":"M","image_png":"M_Marble_06.png","image_id":230,"category_name":"Marble","category":15,"distinct_rating":3.4,"distinct_type":"Bottom","item_type":"Target","rt":884,"stimulus":"Stimuli_Rocks480/M_Marble_06.png","response":"a","trial_type":"image-keyboard-response","trial_index":205,"plugin_version":"2.1.0","time_elapsed":339124,"subject_id":"91450","group":"Group1","condition":"1_Rep","full_date":"2026-02-25T19:31:48.589Z","date":"2026-02-25","time":"19:31:48","cor_ans":false},{"trial_type":"html-keyboard-response","rt":null,"stimulus":"<p style=\"color: red; font-size: 50px; font-weight: bold;\">Incorrect</p>","response":null,"trial_index":206,"plugin_version":"2.1.0","time_elapsed":339625,"subject_id":"91450","group":"Group1","condition":"1_Rep","full_date":"2026-02-25T19:31:48.589Z","date":"2026-02-25","time":"19:31:48"},{"correct_response":"a","task":"test_phase","broad_category":"I","image_png":"I_Andesite_03.png","image_id":3,"category_name":"Andesite","category":1,"distinct_rating":3.17,"distinct_type":"Bottom","item_type":"Foil","rt":1439,"stimulus":"Stimuli_Rocks480/I_Andesite_03.png","response":"a","trial_type":"image-keyboard-response","trial_index":207,"plugin_version":"2.1.0","time_elapsed":341066,"subject_id":"91450","group":"Group1","condition":"1_Rep","full_date":"2026-02-25T19:31:48.589Z","date":"2026-02-25","time":"19:31:48","cor_ans":true},{"trial_type":"html-keyboard-response","rt":null,"stimulus":"<p style=\"color: green; font-size: 50px; font-weight: bold;\">Correct</p>","response":null,"trial_index":208,"plugin_version":"2.1.0","time_elapsed":341568,"subject_id":"91450","group":"Group1","condition":"1_Rep","full_date":"2026-02-25T19:31:48.589Z","date":"2026-02-25","time":"19:31:48"},{"correct_response":"a","task":"test_phase","broad_category":"I","image_png":"I_Pumice_14.png","image_id":142,"category_name":"Pumice","category":9,"distinct_rating":3.22,"distinct_type":"Bottom","item_type":"Foil","rt":1002,"stimulus":"Stimuli_Rocks480/I_Pumice_14.png","response":"a","trial_type":"image-keyboard-response","trial_index":209,"plugin_version":"2.1.0","time_elapsed":342572,"subject_id":"91450","group":"Group1","condition":"1_Rep","full_date":"2026-02-25T19:31:48.589Z","date":"2026-02-25","time":"19:31:48","cor_ans":true},{"trial_type":"html-keyboard-response","rt":null,"stimulus":"<p style=\"color: green; font-size: 50px; font-weight: bold;\">Correct</p>","response":null,"trial_index":210,"plugin_version":"2.1.0","time_elapsed":343074,"subject_id":"91450","group":"Group1","condition":"1_Rep","full_date":"2026-02-25T19:31:48.589Z","date":"2026-02-25","time":"19:31:48"},{"correct_response":"a","task":"test_phase","broad_category":"M","image_png":"M_Phyllite_02.png","image_id":258,"category_name":"Phyllite","category":17,"distinct_rating":2.89,"distinct_type":"Bottom","item_type":"Foil","rt":1598,"stimulus":"Stimuli_Rocks480/M_Phyllite_02.png","response":"l","trial_type":"image-keyboard-response","trial_index":211,"plugin_version":"2.1.0","time_elapsed":344674,"subject_id":"91450","group":"Group1","condition":"1_Rep","full_date":"2026-02-25T19:31:48.589Z","date":"2026-02-25","time":"19:31:48","cor_ans":false},{"trial_type":"html-keyboard-response","rt":null,"stimulus":"<p style=\"color: red; font-size: 50px; font-weight: bold;\">Incorrect</p>","response":null,"trial_index":212,"plugin_version":"2.1.0","time_elapsed":345175,"subject_id":"91450","group":"Group1","condition":"1_Rep","full_date":"2026-02-25T19:31:48.589Z","date":"2026-02-25","time":"19:31:48"},{"correct_response":"a","task":"test_phase","broad_category":"S","image_png":"S_Conglomerate_14.png","image_id":382,"category_name":"Conglomerate","category":24,"distinct_rating":6.86,"distinct_type":"Top","item_type":"Foil","rt":727,"stimulus":"Stimuli_Rocks480/S_Conglomerate_14.png","response":"a","trial_type":"image-keyboard-response","trial_index":213,"plugin_version":"2.1.0","time_elapsed":345904,"subject_id":"91450","group":"Group1","condition":"1_Rep","full_date":"2026-02-25T19:31:48.589Z","date":"2026-02-25","time":"19:31:48","cor_ans":true},{"trial_type":"html-keyboard-response","rt":null,"stimulus":"<p style=\"color: green; font-size: 50px; font-weight: bold;\">Correct</p>","response":null,"trial_index":214,"plugin_version":"2.1.0","time_elapsed":346405,"subject_id":"91450","group":"Group1","condition":"1_Rep","full_date":"2026-02-25T19:31:48.589Z","date":"2026-02-25","time":"19:31:48"},{"correct_response":"l","task":"test_phase","broad_category":"S","image_png":"S_Sandstone_15.png","image_id":463,"category_name":"Sandstone","category":29,"distinct_rating":2,"distinct_type":"Bottom","item_type":"Target","rt":899,"stimulus":"Stimuli_Rocks480/S_Sandstone_15.png","response":"a","trial_type":"image-keyboard-response","trial_index":215,"plugin_version":"2.1.0","time_elapsed":347306,"subject_id":"91450","group":"Group1","condition":"1_Rep","full_date":"2026-02-25T19:31:48.589Z","date":"2026-02-25","time":"19:31:48","cor_ans":false},{"trial_type":"html-keyboard-response","rt":null,"stimulus":"<p style=\"color: red; font-size: 50px; font-weight: bold;\">Incorrect</p>","response":null,"trial_index":216,"plugin_version":"2.1.0","time_elapsed":347807,"subject_id":"91450","group":"Group1","condition":"1_Rep","full_date":"2026-02-25T19:31:48.589Z","date":"2026-02-25","time":"19:31:48"},{"correct_response":"a","task":"test_phase","broad_category":"I","image_png":"I_Pumice_01.png","image_id":129,"category_name":"Pumice","category":9,"distinct_rating":3.25,"distinct_type":"Bottom","item_type":"Foil","rt":772,"stimulus":"Stimuli_Rocks480/I_Pumice_01.png","response":"a","trial_type":"image-keyboard-response","trial_index":217,"plugin_version":"2.1.0","time_elapsed":348581,"subject_id":"91450","group":"Group1","condition":"1_Rep","full_date":"2026-02-25T19:31:48.589Z","date":"2026-02-25","time":"19:31:48","cor_ans":true},{"trial_type":"html-keyboard-response","rt":null,"stimulus":"<p style=\"color: green; font-size: 50px; font-weight: bold;\">Correct</p>","response":null,"trial_index":218,"plugin_version":"2.1.0","time_elapsed":349082,"subject_id":"91450","group":"Group1","condition":"1_Rep","full_date":"2026-02-25T19:31:48.589Z","date":"2026-02-25","time":"19:31:48"},{"correct_response":"l","task":"test_phase","broad_category":"I","image_png":"I_Pumice_11.png","image_id":139,"category_name":"Pumice","category":9,"distinct_rating":1.74,"distinct_type":"Bottom","item_type":"Target","rt":1147,"stimulus":"Stimuli_Rocks480/I_Pumice_11.png","response":"a","trial_type":"image-keyboard-response","trial_index":219,"plugin_version":"2.1.0","time_elapsed":350231,"subject_id":"91450","group":"Group1","condition":"1_Rep","full_date":"2026-02-25T19:31:48.589Z","date":"2026-02-25","time":"19:31:48","cor_ans":false},{"trial_type":"html-keyboard-response","rt":null,"stimulus":"<p style=\"color: red; font-size: 50px; font-weight: bold;\">Incorrect</p>","response":null,"trial_index":220,"plugin_version":"2.1.0","time_elapsed":350732,"subject_id":"91450","group":"Group1","condition":"1_Rep","full_date":"2026-02-25T19:31:48.589Z","date":"2026-02-25","time":"19:31:48"},{"correct_response":"a","task":"test_phase","broad_category":"I","image_png":"I_Rhyolite_05.png","image_id":149,"category_name":"Rhyolite","category":10,"distinct_rating":3.02,"distinct_type":"Bottom","item_type":"Foil","rt":764,"stimulus":"Stimuli_Rocks480/I_Rhyolite_05.png","response":"l","trial_type":"image-keyboard-response","trial_index":221,"plugin_version":"2.1.0","time_elapsed":351497,"subject_id":"91450","group":"Group1","condition":"1_Rep","full_date":"2026-02-25T19:31:48.589Z","date":"2026-02-25","time":"19:31:48","cor_ans":false},{"trial_type":"html-keyboard-response","rt":null,"stimulus":"<p style=\"color: red; font-size: 50px; font-weight: bold;\">Incorrect</p>","response":null,"trial_index":222,"plugin_version":"2.1.0","time_elapsed":351999,"subject_id":"91450","group":"Group1","condition":"1_Rep","full_date":"2026-02-25T19:31:48.589Z","date":"2026-02-25","time":"19:31:48"},{"correct_response":"l","task":"test_phase","broad_category":"M","image_png":"M_Marble_04.png","image_id":228,"category_name":"Marble","category":15,"distinct_rating":3.15,"distinct_type":"Bottom","item_type":"Target","rt":550,"stimulus":"Stimuli_Rocks480/M_Marble_04.png","response":"a","trial_type":"image-keyboard-response","trial_index":223,"plugin_version":"2.1.0","time_elapsed":352550,"subject_id":"91450","group":"Group1","condition":"1_Rep","full_date":"2026-02-25T19:31:48.589Z","date":"2026-02-25","time":"19:31:48","cor_ans":false},{"trial_type":"html-keyboard-response","rt":null,"stimulus":"<p style=\"color: red; font-size: 50px; font-weight: bold;\">Incorrect</p>","response":null,"trial_index":224,"plugin_version":"2.1.0","time_elapsed":353051,"subject_id":"91450","group":"Group1","condition":"1_Rep","full_date":"2026-02-25T19:31:48.589Z","date":"2026-02-25","time":"19:31:48"},{"correct_response":"a","task":"