[{"width":1536,"height":742,"webaudio":true,"browser":"edge-chromium","browser_version":"143.0.0","mobile":false,"os":"Windows 10","fullscreen":true,"vsync_rate":32.7,"webcam":true,"microphone":true,"trial_type":"browser-check","trial_index":0,"plugin_version":"2.1.0","time_elapsed":1853,"subject_id":"91030","group":"Group2","condition":"3_Rep","full_date":"2026-01-30T01:06:29.193Z","date":"2026-01-30","time":"01:06:29"},{"success":true,"timeout":false,"failed_images":[],"failed_audio":[],"failed_video":[],"trial_type":"preload","trial_index":1,"plugin_version":"2.1.0","time_elapsed":4031,"subject_id":"91030","group":"Group2","condition":"3_Rep","full_date":"2026-01-30T01:06:29.193Z","date":"2026-01-30","time":"01:06:29"},{"rt":17398,"url":"SONA_consent_memorability.html","trial_type":"external-html","trial_index":2,"plugin_version":"2.1.0","time_elapsed":21500,"subject_id":"91030","group":"Group2","condition":"3_Rep","full_date":"2026-01-30T01:06:29.193Z","date":"2026-01-30","time":"01:06:29"},{"success":true,"rt":3447,"trial_type":"fullscreen","trial_index":3,"plugin_version":"2.1.0","time_elapsed":25961,"subject_id":"91030","group":"Group2","condition":"3_Rep","full_date":"2026-01-30T01:06:29.193Z","date":"2026-01-30","time":"01:06:29"},{"rt":4789,"stimulus":"<div style=\"max-width: 760px; margin: auto; font-size: 20px; line-height: 1.5;\">\n      <h1 style=\"text-align:center; font-size: 30px;\">Instructions</h1>\n      <p>\n        Welcome to the study on <b>visual memory</b>. This experiment consists of <b>two phases</b>: \n        a <b>study phase</b> and a <b>test phase</b>.\n      </p>\n      <p>\n        In the study phase, you will see a series of rock images along with their category labels.\n        The images will appear one at a time.\n        <b>Your task</b> is to learn the categories to which the rock images belong \n        and to remember each image as accurately as possible.\n      </p> \n      <p>\n        Note that we will repeat the study phase <b>3 times</b>, \n             so you will have multiple opportunities to see and remember each image.\n      </p>\n      <p>\n        After the study phase, <b>your memory will be tested</b>. \n        Additional instructions for the test phase will be provided at that time.\n      </p>\n      <p>\n        If your computer has multiple <b>language settings</b> (e.g., English and another language),\n        please make sure it is set to English before starting.\n      </p>\n      <p>\n        You can track your progress using the <b>completion bar</b> at the top of the screen. \n        Please note that the bar will refresh when the test phase begins \n        to give you an accurate sense of your progress in both phases.\n      </p> \n      <p>\n        Press the button below when you are ready to begin.\n      </p>\n    </div>","response":0,"trial_type":"html-button-response","trial_index":4,"plugin_version":"2.1.0","time_elapsed":30754,"subject_id":"91030","group":"Group2","condition":"3_Rep","full_date":"2026-01-30T01:06:29.193Z","date":"2026-01-30","time":"01:06:29"},{"rt":null,"stimulus":"<p style=\"font-size: 50px; margin: 0; text-align: center;\">+</p>","response":null,"trial_type":"html-keyboard-response","trial_index":5,"plugin_version":"2.1.0","time_elapsed":31761,"subject_id":"91030","group":"Group2","condition":"3_Rep","full_date":"2026-01-30T01:06:29.193Z","date":"2026-01-30","time":"01:06:29"},{"task":"memory_phase","broad_category":"I","image_png":"I_Basalt_08.png","image_id":24,"category_name":"Basalt","category":2,"distinct_rating":2.31,"distinct_type":"Bottom","rt":null,"stimulus":"Stimuli_Rocks480/I_Basalt_08.png","response":null,"trial_type":"image-keyboard-response","trial_index":6,"plugin_version":"2.1.0","time_elapsed":34276,"subject_id":"91030","group":"Group2","condition":"3_Rep","full_date":"2026-01-30T01:06:29.193Z","date":"2026-01-30","time":"01:06:29"},{"rt":null,"stimulus":"<p style=\"font-size: 50px; margin: 0; text-align: center;\">+</p>","response":null,"trial_type":"html-keyboard-response","trial_index":7,"plugin_version":"2.1.0","time_elapsed":35287,"subject_id":"91030","group":"Group2","condition":"3_Rep","full_date":"2026-01-30T01:06:29.193Z","date":"2026-01-30","time":"01:06:29"},{"task":"memory_phase","broad_category":"S","image_png":"S_Chert_13.png","image_id":365,"category_name":"Chert","category":23,"distinct_rating":6.57,"distinct_type":"Top","rt":null,"stimulus":"Stimuli_Rocks480/S_Chert_13.png","response":null,"trial_type":"image-keyboard-response","trial_index":8,"plugin_version":"2.1.0","time_elapsed":37794,"subject_id":"91030","group":"Group2","condition":"3_Rep","full_date":"2026-01-30T01:06:29.193Z","date":"2026-01-30","time":"01:06:29"},{"rt":null,"stimulus":"<p style=\"font-size: 50px; margin: 0; text-align: center;\">+</p>","response":null,"trial_type":"html-keyboard-response","trial_index":9,"plugin_version":"2.1.0","time_elapsed":38798,"subject_id":"91030","group":"Group2","condition":"3_Rep","full_date":"2026-01-30T01:06:29.193Z","date":"2026-01-30","time":"01:06:29"},{"task":"memory_phase","broad_category":"M","image_png":"M_Marble_14.png","image_id":238,"category_name":"Marble","category":15,"distinct_rating":3.31,"distinct_type":"Bottom","rt":null,"stimulus":"Stimuli_Rocks480/M_Marble_14.png","response":null,"trial_type":"image-keyboard-response","trial_index":10,"plugin_version":"2.1.0","time_elapsed":41302,"subject_id":"91030","group":"Group2","condition":"3_Rep","full_date":"2026-01-30T01:06:29.193Z","date":"2026-01-30","time":"01:06:29"},{"rt":null,"stimulus":"<p style=\"font-size: 50px; margin: 0; text-align: center;\">+</p>","response":null,"trial_type":"html-keyboard-response","trial_index":11,"plugin_version":"2.1.0","time_elapsed":42311,"subject_id":"91030","group":"Group2","condition":"3_Rep","full_date":"2026-01-30T01:06:29.193Z","date":"2026-01-30","time":"01:06:29"},{"task":"memory_phase","broad_category":"S","image_png":"S_Dolomite_01.png","image_id":385,"category_name":"Dolomite","category":25,"distinct_rating":1.43,"distinct_type":"Bottom","rt":null,"stimulus":"Stimuli_Rocks480/S_Dolomite_01.png","response":null,"trial_type":"image-keyboard-response","trial_index":12,"plugin_version":"2.1.0","time_elapsed":44827,"subject_id":"91030","group":"Group2","condition":"3_Rep","full_date":"2026-01-30T01:06:29.193Z","date":"2026-01-30","time":"01:06:29"},{"rt":null,"stimulus":"<p style=\"font-size: 50px; margin: 0; text-align: center;\">+</p>","response":null,"trial_type":"html-keyboard-response","trial_index":13,"plugin_version":"2.1.0","time_elapsed":45845,"subject_id":"91030","group":"Group2","condition":"3_Rep","full_date":"2026-01-30T01:06:29.193Z","date":"2026-01-30","time":"01:06:29"},{"task":"memory_phase","broad_category":"M","image_png":"M_Gneiss_10.png","image_id":202,"category_name":"Gneiss","category":13,"distinct_rating":3.09,"distinct_type":"Bottom","rt":null,"stimulus":"Stimuli_Rocks480/M_Gneiss_10.png","response":null,"trial_type":"image-keyboard-response","trial_index":14,"plugin_version":"2.1.0","time_elapsed":48354,"subject_id":"91030","group":"Group2","condition":"3_Rep","full_date":"2026-01-30T01:06:29.193Z","date":"2026-01-30","time":"01:06:29"},{"rt":null,"stimulus":"<p style=\"font-size: 50px; margin: 0; text-align: center;\">+</p>","response":null,"trial_type":"html-keyboard-response","trial_index":15,"plugin_version":"2.1.0","time_elapsed":49359,"subject_id":"91030","group":"Group2","condition":"3_Rep","full_date":"2026-01-30T01:06:29.193Z","date":"2026-01-30","time":"01:06:29"},{"task":"memory_phase","broad_category":"M","image_png":"M_Phyllite_13.png","image_id":269,"category_name":"Phyllite","category":17,"distinct_rating":2.8,"distinct_type":"Bottom","rt":null,"stimulus":"Stimuli_Rocks480/M_Phyllite_13.png","response":null,"trial_type":"image-keyboard-response","trial_index":16,"plugin_version":"2.1.0","time_elapsed":51868,"subject_id":"91030","group":"Group2","condition":"3_Rep","full_date":"2026-01-30T01:06:29.193Z","date":"2026-01-30","time":"01:06:29"},{"rt":null,"stimulus":"<p style=\"font-size: 50px; margin: 0; text-align: center;\">+</p>","response":null,"trial_type":"html-keyboard-response","trial_index":17,"plugin_version":"2.1.0","time_elapsed":52877,"subject_id":"91030","group":"Group2","condition":"3_Rep","full_date":"2026-01-30T01:06:29.193Z","date":"2026-01-30","time":"01:06:29"},{"task":"memory_phase","broad_category":"I","image_png":"I_Andesite_03.png","image_id":3,"category_name":"Andesite","category":1,"distinct_rating":3.17,"distinct_type":"Bottom","rt":null,"stimulus":"Stimuli_Rocks480/I_Andesite_03.png","response":null,"trial_type":"image-keyboard-response","trial_index":18,"plugin_version":"2.1.0","time_elapsed":55384,"subject_id":"91030","group":"Group2","condition":"3_Rep","full_date":"2026-01-30T01:06:29.193Z","date":"2026-01-30","time":"01:06:29"},{"rt":null,"stimulus":"<p style=\"font-size: 50px; margin: 0; text-align: center;\">+</p>","response":null,"trial_type":"html-keyboard-response","trial_index":19,"plugin_version":"2.1.0","time_elapsed":56391,"subject_id":"91030","group":"Group2","condition":"3_Rep","full_date":"2026-01-30T01:06:29.193Z","date":"2026-01-30","time":"01:06:29"},{"task":"memory_phase","broad_category":"M","image_png":"M_Gneiss_15.png","image_id":207,"category_name":"Gneiss","category":13,"distinct_rating":3.11,"distinct_type":"Bottom","rt":null,"stimulus":"Stimuli_Rocks480/M_Gneiss_15.png","response":null,"trial_type":"image-keyboard-response","trial_index":20,"plugin_version":"2.1.0","time_elapsed":58899,"subject_id":"91030","group":"Group2","condition":"3_Rep","full_date":"2026-01-30T01:06:29.193Z","date":"2026-01-30","time":"01:06:29"},{"rt":null,"stimulus":"<p style=\"font-size: 50px; margin: 0; text-align: center;\">+</p>","response":null,"trial_type":"html-keyboard-response","trial_index":21,"plugin_version":"2.1.0","time_elapsed":59909,"subject_id":"91030","group":"Group2","condition":"3_Rep","full_date":"2026-01-30T01:06:29.193Z","date":"2026-01-30","time":"01:06:29"},{"task":"memory_phase","broad_category":"I","image_png":"I_Pumice_01.png","image_id":129,"category_name":"Pumice","category":9,"distinct_rating":3.25,"distinct_type":"Bottom","rt":null,"stimulus":"Stimuli_Rocks480/I_Pumice_01.png","response":null,"trial_type":"image-keyboard-response","trial_index":22,"plugin_version":"2.1.0","time_elapsed":62418,"subject_id":"91030","group":"Group2","condition":"3_Rep","full_date":"2026-01-30T01:06:29.193Z","date":"2026-01-30","time":"01:06:29"},{"rt":null,"stimulus":"<p style=\"font-size: 50px; margin: 0; text-align: center;\">+</p>","response":null,"trial_type":"html-keyboard-response","trial_index":23,"plugin_version":"2.1.0","time_elapsed":63428,"subject_id":"91030","group":"Group2","condition":"3_Rep","full_date":"2026-01-30T01:06:29.193Z","date":"2026-01-30","time":"01:06:29"},{"task":"memory_phase","broad_category":"I","image_png":"I_Obsidian_06.png","image_id":86,"category_name":"Obsidian","category":6,"distinct_rating":8.01,"distinct_type":"Top","rt":null,"stimulus":"Stimuli_Rocks480/I_Obsidian_06.png","response":null,"trial_type":"image-keyboard-response","trial_index":24,"plugin_version":"2.1.0","time_elapsed":65934,"subject_id":"91030","group":"Group2","condition":"3_Rep","full_date":"2026-01-30T01:06:29.193Z","date":"2026-01-30","time":"01:06:29"},{"rt":null,"stimulus":"<p style=\"font-size: 50px; margin: 0; text-align: center;\">+</p>","response":null,"trial_type":"html-keyboard-response","trial_index":25,"plugin_version":"2.1.0","time_elapsed":66943,"subject_id":"91030","group":"Group2","condition":"3_Rep","full_date":"2026-01-30T01:06:29.193Z","date":"2026-01-30","time":"01:06:29"},{"task":"memory_phase","broad_category":"S","image_png":"S_Shale_07.png","image_id":471,"category_name":"Shale","category":30,"distinct_rating":2.73,"distinct_type":"Bottom","rt":null,"stimulus":"Stimuli_Rocks480/S_Shale_07.png","response":null,"trial_type":"image-keyboard-response","trial_index":26,"plugin_version":"2.1.0","time_elapsed":69452,"subject_id":"91030","group":"Group2","condition":"3_Rep","full_date":"2026-01-30T01:06:29.193Z","date":"2026-01-30","time":"01:06:29"},{"rt":null,"stimulus":"<p style=\"font-size: 50px; margin: 0; text-align: center;\">+</p>","response":null,"trial_type":"html-keyboard-response","trial_index":27,"plugin_version":"2.1.0","time_elapsed":70457,"subject_id":"91030","group":"Group2","condition":"3_Rep","full_date":"2026-01-30T01:06:29.193Z","date":"2026-01-30","time":"01:06:29"},{"task":"memory_phase","broad_category":"M","image_png":"M_Marble_03.png","image_id":227,"category_name":"Marble","category":15,"distinct_rating":2.67,"distinct_type":"Bottom","rt":null,"stimulus":"Stimuli_Rocks480/M_Marble_03.png","response":null,"trial_type":"image-keyboard-response","trial_index":28,"plugin_version":"2.1.0","time_elapsed":72959,"subject_id":"91030","group":"Group2","condition":"3_Rep","full_date":"2026-01-30T01:06:29.193Z","date":"2026-01-30","time":"01:06:29"},{"rt":null,"stimulus":"<p style=\"font-size: 50px; margin: 0; text-align: center;\">+</p>","response":null,"trial_type":"html-keyboard-response","trial_index":29,"plugin_version":"2.1.0","time_elapsed":73975,"subject_id":"91030","group":"Group2","condition":"3_Rep","full_date":"2026-01-30T01:06:29.193Z","date":"2026-01-30","time":"01:06:29"},{"task":"memory_phase","broad_category":"I","image_png":"I_Gabbro_02.png","image_id":50,"category_name":"Gabbro","category":4,"distinct_rating":2.73,"distinct_type":"Bottom","rt":null,"stimulus":"Stimuli_Rocks480/I_Gabbro_02.png","response":null,"trial_type":"image-keyboard-response","trial_index":30,"plugin_version":"2.1.0","time_elapsed":76479,"subject_id":"91030","group":"Group2","condition":"3_Rep","full_date":"2026-01-30T01:06:29.193Z","date":"2026-01-30","time":"01:06:29"},{"rt":null,"stimulus":"<p style=\"font-size: 50px; margin: 0; text-align: center;\">+</p>","response":null,"trial_type":"html-keyboard-response","trial_index":31,"plugin_version":"2.1.0","time_elapsed":77484,"subject_id":"91030","group":"Group2","condition":"3_Rep","full_date":"2026-01-30T01:06:29.193Z","date":"2026-01-30","time":"01:06:29"},{"task":"memory_phase","broad_category":"M","image_png":"M_Gneiss_14.png","image_id":206,"category_name":"Gneiss","category":13,"distinct_rating":3.41,"distinct_type":"Bottom","rt":null,"stimulus":"Stimuli_Rocks480/M_Gneiss_14.png","response":null,"trial_type":"image-keyboard-response","trial_index":32,"plugin_version":"2.1.0","time_elapsed":79993,"subject_id":"91030","group":"Group2","condition":"3_Rep","full_date":"2026-01-30T01:06:29.193Z","date":"2026-01-30","time":"01:06:29"},{"rt":null,"stimulus":"<p style=\"font-size: 50px; margin: 0; text-align: center;\">+</p>","response":null,"trial_type":"html-keyboard-response","trial_index":33,"plugin_version":"2.1.0","time_elapsed":81000,"subject_id":"91030","group":"Group2","condition":"3_Rep","full_date":"2026-01-30T01:06:29.193Z","date":"2026-01-30","time":"01:06:29"},{"task":"memory_phase","broad_category":"I","image_png":"I_Rhyolite_05.png","image_id":149,"category_name":"Rhyolite","category":10,"distinct_rating":3.02,"distinct_type":"Bottom","rt":null,"stimulus":"Stimuli_Rocks480/I_Rhyolite_05.png","response":null,"trial_type":"image-keyboard-response","trial_index":34,"plugin_version":"2.1.0","time_elapsed":83510,"subject_id":"91030","group":"Group2","condition":"3_Rep","full_date":"2026-01-30T01:06:29.193Z","date":"2026-01-30","time":"01:06:29"},{"rt":null,"stimulus":"<p style=\"font-size: 50px; margin: 0; text-align: center;\">+</p>","response":null,"trial_type":"html-keyboard-response","trial_index":35,"plugin_version":"2.1.0","time_elapsed":84526,"subject_id":"91030","group":"Group2","condition":"3_Rep","full_date":"2026-01-30T01:06:29.193Z","date":"2026-01-30","time":"01:06:29"},{"task":"memory_phase","broad_category":"S","image_png":"S_Sandstone_11.png","image_id":459,"category_name":"Sandstone","category":29,"distinct_rating":1.82,"distinct_type":"Bottom","rt":null,"stimulus":"Stimuli_Rocks480/S_Sandstone_11.png","response":null,"trial_type":"image-keyboard-response","trial_index":36,"plugin_version":"2.1.0","time_elapsed":87044,"subject_id":"91030","group":"Group2","condition":"3_Rep","full_date":"2026-01-30T01:06:29.193Z","date":"2026-01-30","time":"01:06:29"},{"rt":null,"stimulus":"<p style=\"font-size: 50px; margin: 0; text-align: center;\">+</p>","response":null,"trial_type":"html-keyboard-response","trial_index":37,"plugin_version":"2.1.0","time_elapsed":88060,"subject_id":"91030","group":"Group2","condition":"3_Rep","full_date":"2026-01-30T01:06:29.193Z","date":"2026-01-30","time":"01:06:29"},{"task":"memory_phase","broad_category":"S","image_png":"S_Sandstone_04.png","image_id":452,"category_name":"Sandstone","category":29,"distinct_rating":1.8,"distinct_type":"Bottom","rt":null,"stimulus":"Stimuli_Rocks480/S_Sandstone_04.png","response":null,"trial_type":"image-keyboard-response","trial_index":38,"plugin_version":"2.1.0","time_elapsed":90567,"subject_id":"91030","group":"Group2","condition":"3_Rep","full_date":"2026-01-30T01:06:29.193Z","date":"2026-01-30","time":"01:06:29"},{"rt":null,"stimulus":"<p style=\"font-size: 50px; margin: 0; text-align: center;\">+</p>","response":null,"trial_type":"html-keyboard-response","trial_index":39,"plugin_version":"2.1.0","time_elapsed":91582,"subject_id":"91030","group":"Group2","condition":"3_Rep","full_date":"2026-01-30T01:06:29.193Z","date":"2026-01-30","time":"01:06:29"},{"task":"memory_phase","broad_category":"I","image_png":"I_Andesite_09.png","image_id":9,"category_name":"Andesite","category":1,"distinct_rating":2.49,"distinct_type":"Bottom","rt":null,"stimulus":"Stimuli_Rocks480/I_Andesite_09.png","response":null,"trial_type":"image-keyboard-response","trial_index":40,"plugin_version":"2.1.0","time_elapsed":94094,"subject_id":"91030","group":"Group2","condition":"3_Rep","full_date":"2026-01-30T01:06:29.193Z","date":"2026-01-30","time":"01:06:29"},{"rt":null,"stimulus":"<p style=\"font-size: 50px; margin: 0; text-align: center;\">+</p>","response":null,"trial_type":"html-keyboard-response","trial_index":41,"plugin_version":"2.1.0","time_elapsed":95110,"subject_id":"91030","group":"Group2","condition":"3_Rep","full_date":"2026-01-30T01:06:29.193Z","date":"2026-01-30","time":"01:06:29"},{"task":"memory_phase","broad_category":"I","image_png":"I_Gabbro_12.png","image_id":60,"category_name":"Gabbro","category":4,"distinct_rating":2.6,"distinct_type":"Bottom","rt":null,"stimulus":"Stimuli_Rocks480/I_Gabbro_12.png","response":null,"trial_type":"image-keyboard-response","trial_index":42,"plugin_version":"2.1.0","time_elapsed":97617,"subject_id":"91030","group":"Group2","condition":"3_Rep","full_date":"2026-01-30T01:06:29.193Z","date":"2026-01-30","time":"01:06:29"},{"rt":null,"stimulus":"<p style=\"font-size: 50px; margin: 0; text-align: center;\">+</p>","response":null,"trial_type":"html-keyboard-response","trial_index":43,"plugin_version":"2.1.0","time_elapsed":98628,"subject_id":"91030","group":"Group2","condition":"3_Rep","full_date":"2026-01-30T01:06:29.193Z","date":"2026-01-30","time":"01:06:29"},{"task":"memory_phase","broad_category":"S","image_png":"S_Shale_02.png","image_id":466,"category_name":"Shale","category":30,"distinct_rating":2.9,"distinct_type":"Bottom","rt":null,"stimulus":"Stimuli_Rocks480/S_Shale_02.png","response":null,"trial_type":"image-keyboard-response","trial_index":44,"plugin_version":"2.1.0","time_elapsed":101133,"subject_id":"91030","group":"Group2","condition":"3_Rep","full_date":"2026-01-30T01:06:29.193Z","date":"2026-01-30","time":"01:06:29"},{"rt":null,"stimulus":"<p style=\"font-size: 50px; margin: 0; text-align: center;\">+</p>","response":null,"trial_type":"html-keyboard-response","trial_index":45,"plugin_version":"2.1.0","time_elapsed":102141,"subject_id":"91030","group":"Group2","condition":"3_Rep","full_date":"2026-01-30T01:06:29.193Z","date":"2026-01-30","time":"01:06:29"},{"task":"memory_phase","broad_category":"I","image_png":"I_Diorite_01.png","image_id":33,"category_name":"Diorite","category":3,"distinct_rating":2.97,"distinct_type":"Bottom","rt":null,"stimulus":"Stimuli_Rocks480/I_Diorite_01.png","response":null,"trial_type":"image-keyboard-response","trial_index":46,"plugin_version":"2.1.0","time_elapsed":104650,"subject_id":"91030","group":"Group2","condition":"3_Rep","full_date":"2026-01-30T01:06:29.193Z","date":"2026-01-30","time":"01:06:29"},{"rt":null,"stimulus":"<p style=\"font-size: 50px; margin: 0; text-align: center;\">+</p>","response":null,"trial_type":"html-keyboard-response","trial_index":47,"plugin_version":"2.1.0","time_elapsed":105658,"subject_id":"91030","group":"Group2","condition":"3_Rep","full_date":"2026-01-30T01:06:29.193Z","date":"2026-01-30","time":"01:06:29"},{"task":"memory_phase","broad_category":"I","image_png":"I_Pumice_13.png","image_id":141,"category_name":"Pumice","category":9,"distinct_rating":3.12,"distinct_type":"Bottom","rt":null,"stimulus":"Stimuli_Rocks480/I_Pumice_13.png","response":null,"trial_type":"image-keyboard-response","trial_index":48,"plugin_version":"2.1.0","time_elapsed":108160,"subject_id":"91030","group":"Group2","condition":"3_Rep","full_date":"2026-01-30T01:06:29.193Z","date":"2026-01-30","time":"01:06:29"},{"rt":null,"stimulus":"<p style=\"font-size: 50px; margin: 0; text-align: center;\">+</p>","response":null,"trial_type":"html-keyboard-response","trial_index":49,"plugin_version":"2.1.0","time_elapsed":109168,"subject_id":"91030","group":"Group2","condition":"3_Rep","full_date":"2026-01-30T01:06:29.193Z","date":"2026-01-30","time":"01:06:29"},{"task":"memory_phase","broad_category":"I","image_png":"I_Pegmatite_11.png","image_id":107,"category_name":"Pegmatite","category":7,"distinct_rating":7.11,"distinct_type":"Top","rt":null,"stimulus":"Stimuli_Rocks480/I_Pegmatite_11.png","response":null,"trial_type":"image-keyboard-response","trial_index":50,"plugin_version":"2.1.0","time_elapsed":111675,"subject_id":"91030","group":"Group2","condition":"3_Rep","full_date":"2026-01-30T01:06:29.193Z","date":"2026-01-30","time":"01:06:29"},{"rt":null,"stimulus":"<p style=\"font-size: 50px; margin: 0; text-align: center;\">+</p>","response":null,"trial_type":"html-keyboard-response","trial_index":51,"plugin_version":"2.1.0","time_elapsed":112682,"subject_id":"91030","group":"Group2","condition":"3_Rep","full_date":"2026-01-30T01:06:29.193Z","date":"2026-01-30","time":"01:06:29"},{"task":"memory_phase","broad_category":"M","image_png":"M_Phyllite_02.png","image_id":258,"category_name":"Phyllite","category":17,"distinct_rating":2.89,"distinct_type":"Bottom","rt":null,"stimulus":"Stimuli_Rocks480/M_Phyllite_02.png","response":null,"trial_type":"image-keyboard-response","trial_index":52,"plugin_version":"2.1.0","time_elapsed":115193,"subject_id":"91030","group":"Group2","condition":"3_Rep","full_date":"2026-01-30T01:06:29.193Z","date":"2026-01-30","time":"01:06:29"},{"rt":null,"stimulus":"<p style=\"font-size: 50px; margin: 0; text-align: center;\">+</p>","response":null,"trial_type":"html-keyboard-response","trial_index":53,"plugin_version":"2.1.0","time_elapsed":116200,"subject_id":"91030","group":"Group2","condition":"3_Rep","full_date":"2026-01-30T01:06:29.193Z","date":"2026-01-30","time":"01:06:29"},{"task":"memory_phase","broad_category":"S","image_png":"S_Rock Salt_13.png","image_id":445,"category_name":"Rock Salt","category":28,"distinct_rating":7.58,"distinct_type":"Top","rt":null,"stimulus":"Stimuli_Rocks480/S_Rock Salt_13.png","response":null,"trial_type":"image-keyboard-response","trial_index":54,"plugin_version":"2.1.0","time_elapsed":118713,"subject_id":"91030","group":"Group2","condition":"3_Rep","full_date":"2026-01-30T01:06:29.193Z","date":"2026-01-30","time":"01:06:29"},{"rt":1238,"stimulus":"<p style=\"max-width: 760px; margin: auto; font-size: 35px; line-height: 1.5;\">\n                Press SPACE to continue study phase\n              </p>","response":" ","trial_type":"html-keyboard-response","trial_index":55,"plugin_version":"2.1.0","time_elapsed":119953,"subject_id":"91030","group":"Group2","condition":"3_Rep","full_date":"2026-01-30T01:06:29.193Z","date":"2026-01-30","time":"01:06:29"},{"rt":null,"stimulus":"<p style=\"font-size: 50px; margin: 0; text-align: center;\">+</p>","response":null,"trial_type":"html-keyboard-response","trial_index":56,"plugin_version":"2.1.0","time_elapsed":120966,"subject_id":"91030","group":"Group2","condition":"3_Rep","full_date":"2026-01-30T01:06:29.193Z","date":"2026-01-30","time":"01:06:29"},{"task":"memory_phase","broad_category":"I","image_png":"I_Gabbro_14.png","image_id":62,"category_name":"Gabbro","category":4,"distinct_rating":2.95,"distinct_type":"Bottom","rt":null,"stimulus":"Stimuli_Rocks480/I_Gabbro_14.png","response":null,"trial_type":"image-keyboard-response","trial_index":57,"plugin_version":"2.1.0","time_elapsed":123482,"subject_id":"91030","group":"Group2","condition":"3_Rep","full_date":"2026-01-30T01:06:29.193Z","date":"2026-01-30","time":"01:06:29"},{"rt":null,"stimulus":"<p style=\"font-size: 50px; margin: 0; text-align: center;\">+</p>","response":null,"trial_type":"html-keyboard-response","trial_index":58,"plugin_version":"2.1.0","time_elapsed":124495,"subject_id":"91030","group":"Group2","condition":"3_Rep","full_date":"2026-01-30T01:06:29.193Z","date":"2026-01-30","time":"01:06:29"},{"task":"memory_phase","broad_category":"I","image_png":"I_Basalt_13.png","image_id":29,"category_name":"Basalt","category":2,"distinct_rating":2.68,"distinct_type":"Bottom","rt":null,"stimulus":"Stimuli_Rocks480/I_Basalt_13.png","response":null,"trial_type":"image-keyboard-response","trial_index":59,"plugin_version":"2.1.0","time_elapsed":126999,"subject_id":"91030","group":"Group2","condition":"3_Rep","full_date":"2026-01-30T01:06:29.193Z","date":"2026-01-30","time":"01:06:29"},{"rt":null,"stimulus":"<p style=\"font-size: 50px; margin: 0; text-align: center;\">+</p>","response":null,"trial_type":"html-keyboard-response","trial_index":60,"plugin_version":"2.1.0","time_elapsed":128006,"subject_id":"91030","group":"Group2","condition":"3_Rep","full_date":"2026-01-30T01:06:29.193Z","date":"2026-01-30","time":"01:06:29"},{"task":"memory_phase","broad_category":"I","image_png":"I_Rhyolite_08.png","image_id":152,"category_name":"Rhyolite","category":10,"distinct_rating":1.38,"distinct_type":"Bottom","rt":null,"stimulus":"Stimuli_Rocks480/I_Rhyolite_08.png","response":null,"trial_type":"image-keyboard-response","trial_index":61,"plugin_version":"2.1.0","time_elapsed":130509,"subject_id":"91030","group":"Group2","condition":"3_Rep","full_date":"2026-01-30T01:06:29.193Z","date":"2026-01-30","time":"01:06:29"},{"rt":null,"stimulus":"<p style=\"font-size: 50px; margin: 0; text-align: center;\">+</p>","response":null,"trial_type":"html-keyboard-response","trial_index":62,"plugin_version":"2.1.0","time_elapsed":131515,"subject_id":"91030","group":"Group2","condition":"3_Rep","full_date":"2026-01-30T01:06:29.193Z","date":"2026-01-30","time":"01:06:29"},{"task":"memory_phase","broad_category":"I","image_png":"I_Pegmatite_03.png","image_id":99,"category_name":"Pegmatite","category":7,"distinct_rating":7.24,"distinct_type":"Top","rt":null,"stimulus":"Stimuli_Rocks480/I_Pegmatite_03.png","response":null,"trial_type":"image-keyboard-response","trial_index":63,"plugin_version":"2.1.0","time_elapsed":134032,"subject_id":"91030","group":"Group2","condition":"3_Rep","full_date":"2026-01-30T01:06:29.193Z","date":"2026-01-30","time":"01:06:29"},{"rt":null,"stimulus":"<p style=\"font-size: 50px; margin: 0; text-align: center;\">+</p>","response":null,"trial_type":"html-keyboard-response","trial_index":64,"plugin_version":"2.1.0","time_elapsed":135042,"subject_id":"91030","group":"Group2","condition":"3_Rep","full_date":"2026-01-30T01:06:29.193Z","date":"2026-01-30","time":"01:06:29"},{"task":"memory_phase","broad_category":"S","image_png":"S_Shale_03.png","image_id":467,"category_name":"Shale","category":30,"distinct_rating":1.95,"distinct_type":"Bottom","rt":null,"stimulus":"Stimuli_Rocks480/S_Shale_03.png","response":null,"trial_type":"image-keyboard-response","trial_index":65,"plugin_version":"2.1.0","time_elapsed":137556,"subject_id":"91030","group":"Group2","condition":"3_Rep","full_date":"2026-01-30T01:06:29.193Z","date":"2026-01-30","time":"01:06:29"},{"rt":null,"stimulus":"<p style=\"font-size: 50px; margin: 0; text-align: center;\">+</p>","response":null,"trial_type":"html-keyboard-response","trial_index":66,"plugin_version":"2.1.0","time_elapsed":138565,"subject_id":"91030","group":"Group2","condition":"3_Rep","full_date":"2026-01-30T01:06:29.193Z","date":"2026-01-30","time":"01:06:29"},{"task":"memory_phase","broad_category":"I","image_png":"I_Pumice_14.png","image_id":142,"category_name":"Pumice","category":9,"distinct_rating":3.22,"distinct_type":"Bottom","rt":null,"stimulus":"Stimuli_Rocks480/I_Pumice_14.png","response":null,"trial_type":"image-keyboard-response","trial_index":67,"plugin_version":"2.1.0","time_elapsed":141076,"subject_id":"91030","group":"Group2","condition":"3_Rep","full_date":"2026-01-30T01:06:29.193Z","date":"2026-01-30","time":"01:06:29"},{"rt":null,"stimulus":"<p style=\"font-size: 50px; margin: 0; text-align: center;\">+</p>","response":null,"trial_type":"html-keyboard-response","trial_index":68,"plugin_version":"2.1.0","time_elapsed":142082,"subject_id":"91030","group":"Group2","condition":"3_Rep","full_date":"2026-01-30T01:06:29.193Z","date":"2026-01-30","time":"01:06:29"},{"task":"memory_phase","broad_category":"I","image_png":"I_Basalt_10.png","image_id":26,"category_name":"Basalt","category":2,"distinct_rating":2.76,"distinct_type":"Bottom","rt":null,"stimulus":"Stimuli_Rocks480/I_Basalt_10.png","response":null,"trial_type":"image-keyboard-response","trial_index":69,"plugin_version":"2.1.0","time_elapsed":144599,"subject_id":"91030","group":"Group2","condition":"3_Rep","full_date":"2026-01-30T01:06:29.193Z","date":"2026-01-30","time":"01:06:29"},{"rt":null,"stimulus":"<p style=\"font-size: 50px; margin: 0; text-align: center;\">+</p>","response":null,"trial_type":"html-keyboard-response","trial_index":70,"plugin_version":"2.1.0","time_elapsed":145607,"subject_id":"91030","group":"Group2","condition":"3_Rep","full_date":"2026-01-30T01:06:29.193Z","date":"2026-01-30","time":"01:06:29"},{"task":"memory_phase","broad_category":"I","image_png":"I_Rhyolite_10.png","image_id":154,"category_name":"Rhyolite","category":10,"distinct_rating":2.88,"distinct_type":"Bottom","rt":null,"stimulus":"Stimuli_Rocks480/I_Rhyolite_10.png","response":null,"trial_type":"image-keyboard-response","trial_index":71,"plugin_version":"2.1.0","time_elapsed":148115,"subject_id":"91030","group":"Group2","condition":"3_Rep","full_date":"2026-01-30T01:06:29.193Z","date":"2026-01-30","time":"01:06:29"},{"rt":null,"stimulus":"<p style=\"font-size: 50px; margin: 0; text-align: center;\">+</p>","response":null,"trial_type":"html-keyboard-response","trial_index":72,"plugin_version":"2.1.0","time_elapsed":149124,"subject_id":"91030","group":"Group2","condition":"3_Rep","full_date":"2026-01-30T01:06:29.193Z","date":"2026-01-30","time":"01:06:29"},{"task":"memory_phase","broad_category":"S","image_png":"S_Sandstone_08.png","image_id":456,"category_name":"Sandstone","category":29,"distinct_rating":1.5,"distinct_type":"Bottom","rt":null,"stimulus":"Stimuli_Rocks480/S_Sandstone_08.png","response":null,"trial_type":"image-keyboard-response","trial_index":73,"plugin_version":"2.1.0","time_elapsed":151632,"subject_id":"91030","group":"Group2","condition":"3_Rep","full_date":"2026-01-30T01:06:29.193Z","date":"2026-01-30","time":"01:06:29"},{"rt":null,"stimulus":"<p style=\"font-size: 50px; margin: 0; text-align: center;\">+</p>","response":null,"trial_type":"html-keyboard-response","trial_index":74,"plugin_version":"2.1.0","time_elapsed":152640,"subject_id":"91030","group":"Group2","condition":"3_Rep","full_date":"2026-01-30T01:06:29.193Z","date":"2026-01-30","time":"01:06:29"},{"task":"memory_phase","broad_category":"M","image_png":"M_Slate_14.png","image_id":318,"category_name":"Slate","category":20,"distinct_rating":2.58,"distinct_type":"Bottom","rt":null,"stimulus":"Stimuli_Rocks480/M_Slate_14.png","response":null,"trial_type":"image-keyboard-response","trial_index":75,"plugin_version":"2.1.0","time_elapsed":155148,"subject_id":"91030","group":"Group2","condition":"3_Rep","full_date":"2026-01-30T01:06:29.193Z","date":"2026-01-30","time":"01:06:29"},{"rt":null,"stimulus":"<p style=\"font-size: 50px; margin: 0; text-align: center;\">+</p>","response":null,"trial_type":"html-keyboard-response","trial_index":76,"plugin_version":"2.1.0","time_elapsed":156158,"subject_id":"91030","group":"Group2","condition":"3_Rep","full_date":"2026-01-30T01:06:29.193Z","date":"2026-01-30","time":"01:06:29"},{"task":"memory_phase","broad_category":"M","image_png":"M_Slate_04.png","image_id":308,"category_name":"Slate","category":20,"distinct_rating":2.2,"distinct_type":"Bottom","rt":null,"stimulus":"Stimuli_Rocks480/M_Slate_04.png","response":null,"trial_type":"image-keyboard-response","trial_index":77,"plugin_version":"2.1.0","time_elapsed":158668,"subject_id":"91030","group":"Group2","condition":"3_Rep","full_date":"2026-01-30T01:06:29.193Z","date":"2026-01-30","time":"01:06:29"},{"rt":null,"stimulus":"<p style=\"font-size: 50px; margin: 0; text-align: center;\">+</p>","response":null,"trial_type":"html-keyboard-response","trial_index":78,"plugin_version":"2.1.0","time_elapsed":159674,"subject_id":"91030","group":"Group2","condition":"3_Rep","full_date":"2026-01-30T01:06:29.193Z","date":"2026-01-30","time":"01:06:29"},{"task":"memory_phase","broad_category":"M","image_png":"M_Slate_10.png","image_id":314,"category_name":"Slate","category":20,"distinct_rating":1.94,"distinct_type":"Bottom","rt":null,"stimulus":"Stimuli_Rocks480/M_Slate_10.png","response":null,"trial_type":"image-keyboard-response","trial_index":79,"plugin_version":"2.1.0","time_elapsed":162181,"subject_id":"91030","group":"Group2","condition":"3_Rep","full_date":"2026-01-30T01:06:29.193Z","date":"2026-01-30","time":"01:06:29"},{"rt":null,"stimulus":"<p style=\"font-size: 50px; margin: 0; text-align: center;\">+</p>","response":null,"trial_type":"html-keyboard-response","trial_index":80,"plugin_version":"2.1.0","time_elapsed":163197,"subject_id":"91030","group":"Group2","condition":"3_Rep","full_date":"2026-01-30T01:06:29.193Z","date":"2026-01-30","time":"01:06:29"},{"task":"memory_phase","broad_category":"S","image_png":"S_Dolomite_16.png","image_id":400,"category_name":"Dolomite","category":25,"distinct_rating":1.71,"distinct_type":"Bottom","rt":null,"stimulus":"Stimuli_Rocks480/S_Dolomite_16.png","response":null,"trial_type":"image-keyboard-response","trial_index":81,"plugin_version":"2.1.0","time_elapsed":165706,"subject_id":"91030","group":"Group2","condition":"3_Rep","full_date":"2026-01-30T01:06:29.193Z","date":"2026-01-30","time":"01:06:29"},{"rt":null,"stimulus":"<p style=\"font-size: 50px; margin: 0; text-align: center;\">+</p>","response":null,"trial_type":"html-keyboard-response","trial_index":82,"plugin_version":"2.1.0","time_elapsed":166708,"subject_id":"91030","group":"Group2","condition":"3_Rep","full_date":"2026-01-30T01:06:29.193Z","date":"2026-01-30","time":"01:06:29"},{"task":"memory_phase","broad_category":"M","image_png":"M_Marble_02.png","image_id":226,"category_name":"Marble","category":15,"distinct_rating":3.2,"distinct_type":"Bottom","rt":null,"stimulus":"Stimuli_Rocks480/M_Marble_02.png","response":null,"trial_type":"image-keyboard-response","trial_index":83,"plugin_version":"2.1.0","time_elapsed":169215,"subject_id":"91030","group":"Group2","condition":"3_Rep","full_date":"2026-01-30T01:06:29.193Z","date":"2026-01-30","time":"01:06:29"},{"rt":null,"stimulus":"<p style=\"font-size: 50px; margin: 0; text-align: center;\">+</p>","response":null,"trial_type":"html-keyboard-response","trial_index":84,"plugin_version":"2.1.0","time_elapsed":170222,"subject_id":"91030","group":"Group2","condition":"3_Rep","full_date":"2026-01-30T01:06:29.193Z","date":"2026-01-30","time":"01:06:29"},{"task":"memory_phase","broad_category":"M","image_png":"M_Quartzite_12.png","image_id":284,"category_name":"Quartzite","category":18,"distinct_rating":1.92,"distinct_type":"Bottom","rt":null,"stimulus":"Stimuli_Rocks480/M_Quartzite_12.png","response":null,"trial_type":"image-keyboard-response","trial_index":85,"plugin_version":"2.1.0","time_elapsed":172730,"subject_id":"91030","group":"Group2","condition":"3_Rep","full_date":"2026-01-30T01:06:29.193Z","date":"2026-01-30","time":"01:06:29"},{"rt":null,"stimulus":"<p style=\"font-size: 50px; margin: 0; text-align: center;\">+</p>","response":null,"trial_type":"html-keyboard-response","trial_index":86,"plugin_version":"2.1.0","time_elapsed":173739,"subject_id":"91030","group":"Group2","condition":"3_Rep","full_date":"2026-01-30T01:06:29.193Z","date":"2026-01-30","time":"01:06:29"},{"task":"memory_phase","broad_category":"I","image_png":"I_Diorite_15.png","image_id":47,"category_name":"Diorite","category":3,"distinct_rating":3.05,"distinct_type":"Bottom","rt":null,"stimulus":"Stimuli_Rocks480/I_Diorite_15.png","response":null,"trial_type":"image-keyboard-response","trial_index":87,"plugin_version":"2.1.0","time_elapsed":176247,"subject_id":"91030","group":"Group2","condition":"3_Rep","full_date":"2026-01-30T01:06:29.193Z","date":"2026-01-30","time":"01:06:29"},{"rt":null,"stimulus":"<p style=\"font-size: 50px; margin: 0; text-align: center;\">+</p>","response":null,"trial_type":"html-keyboard-response","trial_index":88,"plugin_version":"2.1.0","time_elapsed":177256,"subject_id":"91030","group":"Group2","condition":"3_Rep","full_date":"2026-01-30T01:06:29.193Z","date":"2026-01-30","time":"01:06:29"},{"task":"memory_phase","broad_category":"I","image_png":"I_Diorite_10.png","image_id":42,"category_name":"Diorite","category":3,"distinct_rating":2.84,"distinct_type":"Bottom","rt":null,"stimulus":"Stimuli_Rocks480/I_Diorite_10.png","response":null,"trial_type":"image-keyboard-response","trial_index":89,"plugin_version":"2.1.0","time_elapsed":179764,"subject_id":"91030","group":"Group2","condition":"3_Rep","full_date":"2026-01-30T01:06:29.193Z","date":"2026-01-30","time":"01:06:29"},{"rt":null,"stimulus":"<p style=\"font-size: 50px; margin: 0; text-align: center;\">+</p>","response":null,"trial_type":"html-keyboard-response","trial_index":90,"plugin_version":"2.1.0","time_elapsed":180772,"subject_id":"91030","group":"Group2","condition":"3_Rep","full_date":"2026-01-30T01:06:29.193Z","date":"2026-01-30","time":"01:06:29"},{"task":"memory_phase","broad_category":"I","image_png":"I_Andesite_04.png","image_id":4,"category_name":"Andesite","category":1,"distinct_rating":3.18,"distinct_type":"Bottom","rt":null,"stimulus":"Stimuli_Rocks480/I_Andesite_04.png","response":null,"trial_type":"image-keyboard-response","trial_index":91,"plugin_version":"2.1.0","time_elapsed":183281,"subject_id":"91030","group":"Group2","condition":"3_Rep","full_date":"2026-01-30T01:06:29.193Z","date":"2026-01-30","time":"01:06:29"},{"rt":null,"stimulus":"<p style=\"font-size: 50px; margin: 0; text-align: center;\">+</p>","response":null,"trial_type":"html-keyboard-response","trial_index":92,"plugin_version":"2.1.0","time_elapsed":184297,"subject_id":"91030","group":"Group2","condition":"3_Rep","full_date":"2026-01-30T01:06:29.193Z","date":"2026-01-30","time":"01:06:29"},{"task":"memory_phase","broad_category":"S","image_png":"S_Conglomerate_14.png","image_id":382,"category_name":"Conglomerate","category":24,"distinct_rating":6.86,"distinct_type":"Top","rt":null,"stimulus":"Stimuli_Rocks480/S_Conglomerate_14.png","response":null,"trial_type":"image-keyboard-response","trial_index":93,"plugin_version":"2.1.0","time_elapsed":186806,"subject_id":"91030","group":"Group2","condition":"3_Rep","full_date":"2026-01-30T01:06:29.193Z","date":"2026-01-30","time":"01:06:29"},{"rt":null,"stimulus":"<p style=\"font-size: 50px; margin: 0; text-align: center;\">+</p>","response":null,"trial_type":"html-keyboard-response","trial_index":94,"plugin_version":"2.1.0","time_elapsed":187813,"subject_id":"91030","group":"Group2","condition":"3_Rep","full_date":"2026-01-30T01:06:29.193Z","date":"2026-01-30","time":"01:06:29"},{"task":"memory_phase","broad_category":"S","image_png":"S_Dolomite_07.png","image_id":391,"category_name":"Dolomite","category":25,"distinct_rating":1.73,"distinct_type":"Bottom","rt":null,"stimulus":"Stimuli_Rocks480/S_Dolomite_07.png","response":null,"trial_type":"image-keyboard-response","trial_index":95,"plugin_version":"2.1.0","time_elapsed":190322,"subject_id":"91030","group":"Group2","condition":"3_Rep","full_date":"2026-01-30T01:06:29.193Z","date":"2026-01-30","time":"01:06:29"},{"rt":null,"stimulus":"<p style=\"font-size: 50px; margin: 0; text-align: center;\">+</p>","response":null,"trial_type":"html-keyboard-response","trial_index":96,"plugin_version":"2.1.0","time_elapsed":191330,"subject_id":"91030","group":"Group2","condition":"3_Rep","full_date":"2026-01-30T01:06:29.193Z","date":"2026-01-30","time":"01:06:29"},{"task":"memory_phase","broad_category":"M","image_png":"M_Quartzite_15.png","image_id":287,"category_name":"Quartzite","category":18,"distinct_rating":2.19,"distinct_type":"Bottom","rt":null,"stimulus":"Stimuli_Rocks480/M_Quartzite_15.png","response":null,"trial_type":"image-keyboard-response","trial_index":97,"plugin_version":"2.1.0","time_elapsed":193840,"subject_id":"91030","group":"Group2","condition":"3_Rep","full_date":"2026-01-30T01:06:29.193Z","date":"2026-01-30","time":"01:06:29"},{"rt":null,"stimulus":"<p style=\"font-size: 50px; margin: 0; text-align: center;\">+</p>","response":null,"trial_type":"html-keyboard-response","trial_index":98,"plugin_version":"2.1.0","time_elapsed":194844,"subject_id":"91030","group":"Group2","condition":"3_Rep","full_date":"2026-01-30T01:06:29.193Z","date":"2026-01-30","time":"01:06:29"},{"task":"memory_phase","broad_category":"I","image_png":"I_Peridotite_13.png","image_id":125,"category_name":"Peridotite","category":8,"distinct_rating":7.28,"distinct_type":"Top","rt":null,"stimulus":"Stimuli_Rocks480/I_Peridotite_13.png","response":null,"trial_type":"image-keyboard-response","trial_index":99,"plugin_version":"2.1.0","time_elapsed":197347,"subject_id":"91030","group":"Group2","condition":"3_Rep","full_date":"2026-01-30T01:06:29.193Z","date":"2026-01-30","time":"01:06:29"},{"rt":null,"stimulus":"<p style=\"font-size: 50px; margin: 0; text-align: center;\">+</p>","response":null,"trial_type":"html-keyboard-response","trial_index":100,"plugin_version":"2.1.0","time_elapsed":198362,"subject_id":"91030","group":"Group2","condition":"3_Rep","full_date":"2026-01-30T01:06:29.193Z","date":"2026-01-30","time":"01:06:29"},{"task":"memory_phase","broad_category":"M","image_png":"M_Phyllite_05.png","image_id":261,"category_name":"Phyllite","category":17,"distinct_rating":2.14,"distinct_type":"Bottom","rt":null,"stimulus":"Stimuli_Rocks480/M_Phyllite_05.png","response":null,"trial_type":"image-keyboard-response","trial_index":101,"plugin_version":"2.1.0","time_elapsed":200873,"subject_id":"91030","group":"Group2","condition":"3_Rep","full_date":"2026-01-30T01:06:29.193Z","date":"2026-01-30","time":"01:06:29"},{"rt":null,"stimulus":"<p style=\"font-size: 50px; margin: 0; text-align: center;\">+</p>","response":null,"trial_type":"html-keyboard-response","trial_index":102,"plugin_version":"2.1.0","time_elapsed":201881,"subject_id":"91030","group":"Group2","condition":"3_Rep","full_date":"2026-01-30T01:06:29.193Z","date":"2026-01-30","time":"01:06:29"},{"task":"memory_phase","broad_category":"S","image_png":"S_Rock Salt_15.png","image_id":447,"category_name":"Rock Salt","category":28,"distinct_rating":7.79,"distinct_type":"Top","rt":null,"stimulus":"Stimuli_Rocks480/S_Rock Salt_15.png","response":null,"trial_type":"image-keyboard-response","trial_index":103,"plugin_version":"2.1.0","time_elapsed":204389,"subject_id":"91030","group":"Group2","condition":"3_Rep","full_date":"2026-01-30T01:06:29.193Z","date":"2026-01-30","time":"01:06:29"},{"rt":null,"stimulus":"<p style=\"font-size: 50px; margin: 0; text-align: center;\">+</p>","response":null,"trial_type":"html-keyboard-response","trial_index":104,"plugin_version":"2.1.0","time_elapsed":205397,"subject_id":"91030","group":"Group2","condition":"3_Rep","full_date":"2026-01-30T01:06:29.193Z","date":"2026-01-30","time":"01:06:29"},{"task":"memory_phase","broad_category":"M","image_png":"M_Quartzite_07.png","image_id":279,"category_name":"Quartzite","category":18,"distinct_rating":1.97,"distinct_type":"Bottom","rt":null,"stimulus":"Stimuli_Rocks480/M_Quartzite_07.png","response":null,"trial_type":"image-keyboard-response","trial_index":105,"plugin_version":"2.1.0","time_elapsed":207906,"subject_id":"91030","group":"Group2","condition":"3_Rep","full_date":"2026-01-30T01:06:29.193Z","date":"2026-01-30","time":"01:06:29"},{"rt":314595,"stimulus":"<p style=\"max-width: 760px; margin: auto; font-size: 35px; line-height: 1.5;\">\n                You have completed 1 study phase. \n                Now, we'll show you all the images again 2 more times.\n                <br><br>Press SPACE to continue\n              </p>","response":" ","trial_type":"html-keyboard-response","trial_index":106,"plugin_version":"2.1.0","time_elapsed":522501,"subject_id":"91030","group":"Group2","condition":"3_Rep","full_date":"2026-01-30T01:06:29.193Z","date":"2026-01-30","time":"01:06:29"},{"rt":null,"stimulus":"<p style=\"font-size: 50px; margin: 0; text-align: center;\">+</p>","response":null,"trial_type":"html-keyboard-response","trial_index":107,"plugin_version":"2.1.0","time_elapsed":523504,"subject_id":"91030","group":"Group2","condition":"3_Rep","full_date":"2026-01-30T01:06:29.193Z","date":"2026-01-30","time":"01:06:29"},{"task":"memory_phase","broad_category":"I","image_png":"I_Obsidian_06.png","image_id":86,"category_name":"Obsidian","category":6,"distinct_rating":8.01,"distinct_type":"Top","rt":null,"stimulus":"Stimuli_Rocks480/I_Obsidian_06.png","response":null,"trial_type":"image-keyboard-response","trial_index":108,"plugin_version":"2.1.0","time_elapsed":526013,"subject_id":"91030","group":"Group2","condition":"3_Rep","full_date":"2026-01-30T01:06:29.193Z","date":"2026-01-30","time":"01:06:29"},{"rt":null,"stimulus":"<p style=\"font-size: 50px; margin: 0; text-align: center;\">+</p>","response":null,"trial_type":"html-keyboard-response","trial_index":109,"plugin_version":"2.1.0","time_elapsed":527015,"subject_id":"91030","group":"Group2","condition":"3_Rep","full_date":"2026-01-30T01:06:29.193Z","date":"2026-01-30","time":"01:06:29"},{"task":"memory_phase","broad_category":"I","image_png":"I_Rhyolite_10.png","image_id":154,"category_name":"Rhyolite","category":10,"distinct_rating":2.88,"distinct_type":"Bottom","rt":null,"stimulus":"Stimuli_Rocks480/I_Rhyolite_10.png","response":null,"trial_type":"image-keyboard-response","trial_index":110,"plugin_version":"2.1.0","time_elapsed":529532,"subject_id":"91030","group":"Group2","condition":"3_Rep","full_date":"2026-01-30T01:06:29.193Z","date":"2026-01-30","time":"01:06:29"},{"rt":null,"stimulus":"<p style=\"font-size: 50px; margin: 0; text-align: center;\">+</p>","response":null,"trial_type":"html-keyboard-response","trial_index":111,"plugin_version":"2.1.0","time_elapsed":530538,"subject_id":"91030","group":"Group2","condition":"3_Rep","full_date":"2026-01-30T01:06:29.193Z","date":"2026-01-30","time":"01:06:29"},{"task":"memory_phase","broad_category":"M","image_png":"M_Phyllite_02.png","image_id":258,"category_name":"Phyllite","category":17,"distinct_rating":2.89,"distinct_type":"Bottom","rt":null,"stimulus":"Stimuli_Rocks480/M_Phyllite_02.png","response":null,"trial_type":"image-keyboard-response","trial_index":112,"plugin_version":"2.1.0","time_elapsed":533047,"subject_id":"91030","group":"Group2","condition":"3_Rep","full_date":"2026-01-30T01:06:29.193Z","date":"2026-01-30","time":"01:06:29"},{"rt":null,"stimulus":"<p style=\"font-size: 50px; margin: 0; text-align: center;\">+</p>","response":null,"trial_type":"html-keyboard-response","trial_index":113,"plugin_version":"2.1.0","time_elapsed":534063,"subject_id":"91030","group":"Group2","condition":"3_Rep","full_date":"2026-01-30T01:06:29.193Z","date":"2026-01-30","time":"01:06:29"},{"task":"memory_phase","broad_category":"S","image_png":"S_Dolomite_01.png","image_id":385,"category_name":"Dolomite","category":25,"distinct_rating":1.43,"distinct_type":"Bottom","rt":null,"stimulus":"Stimuli_Rocks480/S_Dolomite_01.png","response":null,"trial_type":"image-keyboard-response","trial_index":114,"plugin_version":"2.1.0","time_elapsed":536572,"subject_id":"91030","group":"Group2","condition":"3_Rep","full_date":"2026-01-30T01:06:29.193Z","date":"2026-01-30","time":"01:06:29"},{"rt":null,"stimulus":"<p style=\"font-size: 50px; margin: 0; text-align: center;\">+</p>","response":null,"trial_type":"html-keyboard-response","trial_index":115,"plugin_version":"2.1.0","time_elapsed":537579,"subject_id":"91030","group":"Group2","condition":"3_Rep","full_date":"2026-01-30T01:06:29.193Z","date":"2026-01-30","time":"01:06:29"},{"task":"memory_phase","broad_category":"M","image_png":"M_Quartzite_07.png","image_id":279,"category_name":"Quartzite","category":18,"distinct_rating":1.97,"distinct_type":"Bottom","rt":null,"stimulus":"Stimuli_Rocks480/M_Quartzite_07.png","response":null,"trial_type":"image-keyboard-response","trial_index":116,"plugin_version":"2.1.0","time_elapsed":540097,"subject_id":"91030","group":"Group2","condition":"3_Rep","full_date":"2026-01-30T01:06:29.193Z","date":"2026-01-30","time":"01:06:29"},{"rt":null,"stimulus":"<p style=\"font-size: 50px; margin: 0; text-align: center;\">+</p>","response":null,"trial_type":"html-keyboard-response","trial_index":117,"plugin_version":"2.1.0","time_elapsed":541099,"subject_id":"91030","group":"Group2","condition":"3_Rep","full_date":"2026-01-30T01:06:29.193Z","date":"2026-01-30","time":"01:06:29"},{"task":"memory_phase","broad_category":"I","image_png":"I_Pegmatite_11.png","image_id":107,"category_name":"Pegmatite","category":7,"distinct_rating":7.11,"distinct_type":"Top","rt":null,"stimulus":"Stimuli_Rocks480/I_Pegmatite_11.png","response":null,"trial_type":"image-keyboard-response","trial_index":118,"plugin_version":"2.1.0","time_elapsed":543604,"subject_id":"91030","group":"Group2","condition":"3_Rep","full_date":"2026-01-30T01:06:29.193Z","date":"2026-01-30","time":"01:06:29"},{"rt":null,"stimulus":"<p style=\"font-size: 50px; margin: 0; text-align: center;\">+</p>","response":null,"trial_type":"html-keyboard-response","trial_index":119,"plugin_version":"2.1.0","time_elapsed":544613,"subject_id":"91030","group":"Group2","condition":"3_Rep","full_date":"2026-01-30T01:06:29.193Z","date":"2026-01-30","time":"01:06:29"},{"task":"memory_phase","broad_category":"S","image_png":"S_Dolomite_16.png","image_id":400,"category_name":"Dolomite","category":25,"distinct_rating":1.71,"distinct_type":"Bottom","rt":null,"stimulus":"Stimuli_Rocks480/S_Dolomite_16.png","response":null,"trial_type":"image-keyboard-response","trial_index":120,"plugin_version":"2.1.0","time_elapsed":547124,"subject_id":"91030","group":"Group2","condition":"3_Rep","full_date":"2026-01-30T01:06:29.193Z","date":"2026-01-30","time":"01:06:29"},{"rt":null,"stimulus":"<p style=\"font-size: 50px; margin: 0; text-align: center;\">+</p>","response":null,"trial_type":"html-keyboard-response","trial_index":121,"plugin_version":"2.1.0","time_elapsed":548131,"subject_id":"91030","group":"Group2","condition":"3_Rep","full_date":"2026-01-30T01:06:29.193Z","date":"2026-01-30","time":"01:06:29"},{"task":"memory_phase","broad_category":"S","image_png":"S_Rock Salt_15.png","image_id":447,"category_name":"Rock Salt","category":28,"distinct_rating":7.79,"distinct_type":"Top","rt":null,"stimulus":"Stimuli_Rocks480/S_Rock Salt_15.png","response":null,"trial_type":"image-keyboard-response","trial_index":122,"plugin_version":"2.1.0","time_elapsed":550638,"subject_id":"91030","group":"Group2","condition":"3_Rep","full_date":"2026-01-30T01:06:29.193Z","date":"2026-01-30","time":"01:06:29"},{"rt":null,"stimulus":"<p style=\"font-size: 50px; margin: 0; text-align: center;\">+</p>","response":null,"trial_type":"html-keyboard-response","trial_index":123,"plugin_version":"2.1.0","time_elapsed":551647,"subject_id":"91030","group":"Group2","condition":"3_Rep","full_date":"2026-01-30T01:06:29.193Z","date":"2026-01-30","time":"01:06:29"},{"task":"memory_phase","broad_category":"S","image_png":"S_Chert_13.png","image_id":365,"category_name":"Chert","category":23,"distinct_rating":6.57,"distinct_type":"Top","rt":null,"stimulus":"Stimuli_Rocks480/S_Chert_13.png","response":null,"trial_type":"image-keyboard-response","trial_index":124,"plugin_version":"2.1.0","time_elapsed":554156,"subject_id":"91030","group":"Group2","condition":"3_Rep","full_date":"2026-01-30T01:06:29.193Z","date":"2026-01-30","time":"01:06:29"},{"rt":null,"stimulus":"<p style=\"font-size: 50px; margin: 0; text-align: center;\">+</p>","response":null,"trial_type":"html-keyboard-response","trial_index":125,"plugin_version":"2.1.0","time_elapsed":555170,"subject_id":"91030","group":"Group2","condition":"3_Rep","full_date":"2026-01-30T01:06:29.193Z","date":"2026-01-30","time":"01:06:29"},{"task":"memory_phase","broad_category":"S","image_png":"S_Shale_02.png","image_id":466,"category_name":"Shale","category":30,"distinct_rating":2.9,"distinct_type":"Bottom","rt":null,"stimulus":"Stimuli_Rocks480/S_Shale_02.png","response":null,"trial_type":"image-keyboard-response","trial_index":126,"plugin_version":"2.1.0","time_elapsed":557679,"subject_id":"91030","group":"Group2","condition":"3_Rep","full_date":"2026-01-30T01:06:29.193Z","date":"2026-01-30","time":"01:06:29"},{"rt":null,"stimulus":"<p style=\"font-size: 50px; margin: 0; text-align: center;\">+</p>","response":null,"trial_type":"html-keyboard-response","trial_index":127,"plugin_version":"2.1.0","time_elapsed":558688,"subject_id":"91030","group":"Group2","condition":"3_Rep","full_date":"2026-01-30T01:06:29.193Z","date":"2026-01-30","time":"01:06:29"},{"task":"memory_phase","broad_category":"I","image_png":"I_Andesite_03.png","image_id":3,"category_name":"Andesite","category":1,"distinct_rating":3.17,"distinct_type":"Bottom","rt":null,"stimulus":"Stimuli_Rocks480/I_Andesite_03.png","response":null,"trial_type":"image-keyboard-response","trial_index":128,"plugin_version":"2.1.0","time_elapsed":561203,"subject_id":"91030","group":"Group2","condition":"3_Rep","full_date":"2026-01-30T01:06:29.193Z","date":"2026-01-30","time":"01:06:29"},{"rt":null,"stimulus":"<p style=\"font-size: 50px; margin: 0; text-align: center;\">+</p>","response":null,"trial_type":"html-keyboard-response","trial_index":129,"plugin_version":"2.1.0","time_elapsed":562212,"subject_id":"91030","group":"Group2","condition":"3_Rep","full_date":"2026-01-30T01:06:29.193Z","date":"2026-01-30","time":"01:06:29"},{"task":"memory_phase","broad_category":"I","image_png":"I_Basalt_13.png","image_id":29,"category_name":"Basalt","category":2,"distinct_rating":2.68,"distinct_type":"Bottom","rt":null,"stimulus":"Stimuli_Rocks480/I_Basalt_13.png","response":null,"trial_type":"image-keyboard-response","trial_index":130,"plugin_version":"2.1.0","time_elapsed":564720,"subject_id":"91030","group":"Group2","condition":"3_Rep","full_date":"2026-01-30T01:06:29.193Z","date":"2026-01-30","time":"01:06:29"},{"rt":null,"stimulus":"<p style=\"font-size: 50px; margin: 0; text-align: center;\">+</p>","response":null,"trial_type":"html-keyboard-response","trial_index":131,"plugin_version":"2.1.0","time_elapsed":565730,"subject_id":"91030","group":"Group2","condition":"3_Rep","full_date":"2026-01-30T01:06:29.193Z","date":"2026-01-30","time":"01:06:29"},{"task":"memory_phase","broad_category":"S","image_png":"S_Dolomite_07.png","image_id":391,"category_name":"Dolomite","category":25,"distinct_rating":1.73,"distinct_type":"Bottom","rt":null,"stimulus":"Stimuli_Rocks480/S_Dolomite_07.png","response":null,"trial_type":"image-keyboard-response","trial_index":132,"plugin_version":"2.1.0","time_elapsed":568246,"subject_id":"91030","group":"Group2","condition":"3_Rep","full_date":"2026-01-30T01:06:29.193Z","date":"2026-01-30","time":"01:06:29"},{"rt":null,"stimulus":"<p style=\"font-size: 50px; margin: 0; text-align: center;\">+</p>","response":null,"trial_type":"html-keyboard-response","trial_index":133,"plugin_version":"2.1.0","time_elapsed":569262,"subject_id":"91030","group":"Group2","condition":"3_Rep","full_date":"2026-01-30T01:06:29.193Z","date":"2026-01-30","time":"01:06:29"},{"task":"memory_phase","broad_category":"M","image_png":"M_Gneiss_15.png","image_id":207,"category_name":"Gneiss","category":13,"distinct_rating":3.11,"distinct_type":"Bottom","rt":null,"stimulus":"Stimuli_Rocks480/M_Gneiss_15.png","response":null,"trial_type":"image-keyboard-response","trial_index":134,"plugin_version":"2.1.0","time_elapsed":571772,"subject_id":"91030","group":"Group2","condition":"3_Rep","full_date":"2026-01-30T01:06:29.193Z","date":"2026-01-30","time":"01:06:29"},{"rt":null,"stimulus":"<p style=\"font-size: 50px; margin: 0; text-align: center;\">+</p>","response":null,"trial_type":"html-keyboard-response","trial_index":135,"plugin_version":"2.1.0","time_elapsed":572786,"subject_id":"91030","group":"Group2","condition":"3_Rep","full_date":"2026-01-30T01:06:29.193Z","date":"2026-01-30","time":"01:06:29"},{"task":"memory_phase","broad_category":"I","image_png":"I_Diorite_10.png","image_id":42,"category_name":"Diorite","category":3,"distinct_rating":2.84,"distinct_type":"Bottom","rt":null,"stimulus":"Stimuli_Rocks480/I_Diorite_10.png","response":null,"trial_type":"image-keyboard-response","trial_index":136,"plugin_version":"2.1.0","time_elapsed":575295,"subject_id":"91030","group":"Group2","condition":"3_Rep","full_date":"2026-01-30T01:06:29.193Z","date":"2026-01-30","time":"01:06:29"},{"rt":null,"stimulus":"<p style=\"font-size: 50px; margin: 0; text-align: center;\">+</p>","response":null,"trial_type":"html-keyboard-response","trial_index":137,"plugin_version":"2.1.0","time_elapsed":576313,"subject_id":"91030","group":"Group2","condition":"3_Rep","full_date":"2026-01-30T01:06:29.193Z","date":"2026-01-30","time":"01:06:29"},{"task":"memory_phase","broad_category":"I","image_png":"I_Basalt_10.png","image_id":26,"category_name":"Basalt","category":2,"distinct_rating":2.76,"distinct_type":"Bottom","rt":null,"stimulus":"Stimuli_Rocks480/I_Basalt_10.png","response":null,"trial_type":"image-keyboard-response","trial_index":138,"plugin_version":"2.1.0","time_elapsed":578820,"subject_id":"91030","group":"Group2","condition":"3_Rep","full_date":"2026-01-30T01:06:29.193Z","date":"2026-01-30","time":"01:06:29"},{"rt":null,"stimulus":"<p style=\"font-size: 50px; margin: 0; text-align: center;\">+</p>","response":null,"trial_type":"html-keyboard-response","trial_index":139,"plugin_version":"2.1.0","time_elapsed":579828,"subject_id":"91030","group":"Group2","condition":"3_Rep","full_date":"2026-01-30T01:06:29.193Z","date":"2026-01-30","time":"01:06:29"},{"task":"memory_phase","broad_category":"I","image_png":"I_Rhyolite_08.png","image_id":152,"category_name":"Rhyolite","category":10,"distinct_rating":1.38,"distinct_type":"Bottom","rt":null,"stimulus":"Stimuli_Rocks480/I_Rhyolite_08.png","response":null,"trial_type":"image-keyboard-response","trial_index":140,"plugin_version":"2.1.0","time_elapsed":582336,"subject_id":"91030","group":"Group2","condition":"3_Rep","full_date":"2026-01-30T01:06:29.193Z","date":"2026-01-30","time":"01:06:29"},{"rt":null,"stimulus":"<p style=\"font-size: 50px; margin: 0; text-align: center;\">+</p>","response":null,"trial_type":"html-keyboard-response","trial_index":141,"plugin_version":"2.1.0","time_elapsed":583338,"subject_id":"91030","group":"Group2","condition":"3_Rep","full_date":"2026-01-30T01:06:29.193Z","date":"2026-01-30","time":"01:06:29"},{"task":"memory_phase","broad_category":"M","image_png":"M_Phyllite_13.png","image_id":269,"category_name":"Phyllite","category":17,"distinct_rating":2.8,"distinct_type":"Bottom","rt":null,"stimulus":"Stimuli_Rocks480/M_Phyllite_13.png","response":null,"trial_type":"image-keyboard-response","trial_index":142,"plugin_version":"2.1.0","time_elapsed":585853,"subject_id":"91030","group":"Group2","condition":"3_Rep","full_date":"2026-01-30T01:06:29.193Z","date":"2026-01-30","time":"01:06:29"},{"rt":null,"stimulus":"<p style=\"font-size: 50px; margin: 0; text-align: center;\">+</p>","response":null,"trial_type":"html-keyboard-response","trial_index":143,"plugin_version":"2.1.0","time_elapsed":586862,"subject_id":"91030","group":"Group2","condition":"3_Rep","full_date":"2026-01-30T01:06:29.193Z","date":"2026-01-30","time":"01:06:29"},{"task":"memory_phase","broad_category":"I","image_png":"I_Rhyolite_05.png","image_id":149,"category_name":"Rhyolite","category":10,"distinct_rating":3.02,"distinct_type":"Bottom","rt":null,"stimulus":"Stimuli_Rocks480/I_Rhyolite_05.png","response":null,"trial_type":"image-keyboard-response","trial_index":144,"plugin_version":"2.1.0","time_elapsed":589370,"subject_id":"91030","group":"Group2","condition":"3_Rep","full_date":"2026-01-30T01:06:29.193Z","date":"2026-01-30","time":"01:06:29"},{"rt":null,"stimulus":"<p style=\"font-size: 50px; margin: 0; text-align: center;\">+</p>","response":null,"trial_type":"html-keyboard-response","trial_index":145,"plugin_version":"2.1.0","time_elapsed":590371,"subject_id":"91030","group":"Group2","condition":"3_Rep","full_date":"2026-01-30T01:06:29.193Z","date":"2026-01-30","time":"01:06:29"},{"task":"memory_phase","broad_category":"I","image_png":"I_Andesite_04.png","image_id":4,"category_name":"Andesite","category":1,"distinct_rating":3.18,"distinct_type":"Bottom","rt":null,"stimulus":"Stimuli_Rocks480/I_Andesite_04.png","response":null,"trial_type":"image-keyboard-response","trial_index":146,"plugin_version":"2.1.0","time_elapsed":592878,"subject_id":"91030","group":"Group2","condition":"3_Rep","full_date":"2026-01-30T01:06:29.193Z","date":"2026-01-30","time":"01:06:29"},{"rt":null,"stimulus":"<p style=\"font-size: 50px; margin: 0; text-align: center;\">+</p>","response":null,"trial_type":"html-keyboard-response","trial_index":147,"plugin_version":"2.1.0","time_elapsed":593886,"subject_id":"91030","group":"Group2","condition":"3_Rep","full_date":"2026-01-30T01:06:29.193Z","date":"2026-01-30","time":"01:06:29"},{"task":"memory_phase","broad_category":"S","image_png":"S_Sandstone_04.png","image_id":452,"category_name":"Sandstone","category":29,"distinct_rating":1.8,"distinct_type":"Bottom","rt":null,"stimulus":"Stimuli_Rocks480/S_Sandstone_04.png","response":null,"trial_type":"image-keyboard-response","trial_index":148,"plugin_version":"2.1.0","time_elapsed":596395,"subject_id":"91030","group":"Group2","condition":"3_Rep","full_date":"2026-01-30T01:06:29.193Z","date":"2026-01-30","time":"01:06:29"},{"rt":null,"stimulus":"<p style=\"font-size: 50px; margin: 0; text-align: center;\">+</p>","response":null,"trial_type":"html-keyboard-response","trial_index":149,"plugin_version":"2.1.0","time_elapsed":597403,"subject_id":"91030","group":"Group2","condition":"3_Rep","full_date":"2026-01-30T01:06:29.193Z","date":"2026-01-30","time":"01:06:29"},{"task":"memory_phase","broad_category":"I","image_png":"I_Andesite_09.png","image_id":9,"category_name":"Andesite","category":1,"distinct_rating":2.49,"distinct_type":"Bottom","rt":null,"stimulus":"Stimuli_Rocks480/I_Andesite_09.png","response":null,"trial_type":"image-keyboard-response","trial_index":150,"plugin_version":"2.1.0","time_elapsed":599911,"subject_id":"91030","group":"Group2","condition":"3_Rep","full_date":"2026-01-30T01:06:29.193Z","date":"2026-01-30","time":"01:06:29"},{"rt":null,"stimulus":"<p style=\"font-size: 50px; margin: 0; text-align: center;\">+</p>","response":null,"trial_type":"html-keyboard-response","trial_index":151,"plugin_version":"2.1.0","time_elapsed":600912,"subject_id":"91030","group":"Group2","condition":"3_Rep","full_date":"2026-01-30T01:06:29.193Z","date":"2026-01-30","time":"01:06:29"},{"task":"memory_phase","broad_category":"M","image_png":"M_Slate_10.png","image_id":314,"category_name":"Slate","category":20,"distinct_rating":1.94,"distinct_type":"Bottom","rt":null,"stimulus":"Stimuli_Rocks480/M_Slate_10.png","response":null,"trial_type":"image-keyboard-response","trial_index":152,"plugin_version":"2.1.0","time_elapsed":603420,"subject_id":"91030","group":"Group2","condition":"3_Rep","full_date":"2026-01-30T01:06:29.193Z","date":"2026-01-30","time":"01:06:29"},{"rt":null,"stimulus":"<p style=\"font-size: 50px; margin: 0; text-align: center;\">+</p>","response":null,"trial_type":"html-keyboard-response","trial_index":153,"plugin_version":"2.1.0","time_elapsed":604435,"subject_id":"91030","group":"Group2","condition":"3_Rep","full_date":"2026-01-30T01:06:29.193Z","date":"2026-01-30","time":"01:06:29"},{"task":"memory_phase","broad_category":"S","image_png":"S_Shale_07.png","image_id":471,"category_name":"Shale","category":30,"distinct_rating":2.73,"distinct_type":"Bottom","rt":null,"stimulus":"Stimuli_Rocks480/S_Shale_07.png","response":null,"trial_type":"image-keyboard-response","trial_index":154,"plugin_version":"2.1.0","time_elapsed":606938,"subject_id":"91030","group":"Group2","condition":"3_Rep","full_date":"2026-01-30T01:06:29.193Z","date":"2026-01-30","time":"01:06:29"},{"rt":null,"stimulus":"<p style=\"font-size: 50px; margin: 0; text-align: center;\">+</p>","response":null,"trial_type":"html-keyboard-response","trial_index":155,"plugin_version":"2.1.0","time_elapsed":607944,"subject_id":"91030","group":"Group2","condition":"3_Rep","full_date":"2026-01-30T01:06:29.193Z","date":"2026-01-30","time":"01:06:29"},{"task":"memory_phase","broad_category":"M","image_png":"M_Gneiss_14.png","image_id":206,"category_name":"Gneiss","category":13,"distinct_rating":3.41,"distinct_type":"Bottom","rt":null,"stimulus":"Stimuli_Rocks480/M_Gneiss_14.png","response":null,"trial_type":"image-keyboard-response","trial_index":156,"plugin_version":"2.1.0","time_elapsed":610449,"subject_id":"91030","group":"Group2","condition":"3_Rep","full_date":"2026-01-30T01:06:29.193Z","date":"2026-01-30","time":"01:06:29"},{"rt":1466,"stimulus":"<p style=\"max-width: 760px; margin: auto; font-size: 35px; line-height: 1.5;\">\n                Press SPACE to continue study phase\n              </p>","response":" ","trial_type":"html-keyboard-response","trial_index":157,"plugin_version":"2.1.0","time_elapsed":611916,"subject_id":"91030","group":"Group2","condition":"3_Rep","full_date":"2026-01-30T01:06:29.193Z","date":"2026-01-30","time":"01:06:29"},{"rt":null,"stimulus":"<p style=\"font-size: 50px; margin: 0; text-align: center;\">+</p>","response":null,"trial_type":"html-keyboard-response","trial_index":158,"plugin_version":"2.1.0","time_elapsed":612918,"subject_id":"91030","group":"Group2","condition":"3_Rep","full_date":"2026-01-30T01:06:29.193Z","date":"2026-01-30","time":"01:06:29"},{"task":"memory_phase","broad_category":"M","image_png":"M_Quartzite_15.png","image_id":287,"category_name":"Quartzite","category":18,"distinct_rating":2.19,"distinct_type":"Bottom","rt":null,"stimulus":"Stimuli_Rocks480/M_Quartzite_15.png","response":null,"trial_type":"image-keyboard-response","trial_index":159,"plugin_version":"2.1.0","time_elapsed":615429,"subject_id":"91030","group":"Group2","condition":"3_Rep","full_date":"2026-01-30T01:06:29.193Z","date":"2026-01-30","time":"01:06:29"},{"rt":null,"stimulus":"<p style=\"font-size: 50px; margin: 0; text-align: center;\">+</p>","response":null,"trial_type":"html-keyboard-response","trial_index":160,"plugin_version":"2.1.0","time_elapsed":616444,"subject_id":"91030","group":"Group2","condition":"3_Rep","full_date":"2026-01-30T01:06:29.193Z","date":"2026-01-30","time":"01:06:29"},{"task":"memory_phase","broad_category":"M","image_png":"M_Marble_03.png","image_id":227,"category_name":"Marble","category":15,"distinct_rating":2.67,"distinct_type":"Bottom","rt":null,"stimulus":"Stimuli_Rocks480/M_Marble_03.png","response":null,"trial_type":"image-keyboard-response","trial_index":161,"plugin_version":"2.1.0","time_elapsed":618952,"subject_id":"91030","group":"Group2","condition":"3_Rep","full_date":"2026-01-30T01:06:29.193Z","date":"2026-01-30","time":"01:06:29"},{"rt":null,"stimulus":"<p style=\"font-size: 50px; margin: 0; text-align: center;\">+</p>","response":null,"trial_type":"html-keyboard-response","trial_index":162,"plugin_version":"2.1.0","time_elapsed":619968,"subject_id":"91030","group":"Group2","condition":"3_Rep","full_date":"2026-01-30T01:06:29.193Z","date":"2026-01-30","time":"01:06:29"},{"task":"memory_phase","broad_category":"M","image_png":"M_Marble_02.png","image_id":226,"category_name":"Marble","category":15,"distinct_rating":3.2,"distinct_type":"Bottom","rt":null,"stimulus":"Stimuli_Rocks480/M_Marble_02.png","response":null,"trial_type":"image-keyboard-response","trial_index":163,"plugin_version":"2.1.0","time_elapsed":622474,"subject_id":"91030","group":"Group2","condition":"3_Rep","full_date":"2026-01-30T01:06:29.193Z","date":"2026-01-30","time":"01:06:29"},{"rt":null,"stimulus":"<p style=\"font-size: 50px; margin: 0; text-align: center;\">+</p>","response":null,"trial_type":"html-keyboard-response","trial_index":164,"plugin_version":"2.1.0","time_elapsed":623483,"subject_id":"91030","group":"Group2","condition":"3_Rep","full_date":"2026-01-30T01:06:29.193Z","date":"2026-01-30","time":"01:06:29"},{"task":"memory_phase","broad_category":"I","image_png":"I_Pegmatite_03.png","image_id":99,"category_name":"Pegmatite","category":7,"distinct_rating":7.24,"distinct_type":"Top","rt":null,"stimulus":"Stimuli_Rocks480/I_Pegmatite_03.png","response":null,"trial_type":"image-keyboard-response","trial_index":165,"plugin_version":"2.1.0","time_elapsed":625993,"subject_id":"91030","group":"Group2","condition":"3_Rep","full_date":"2026-01-30T01:06:29.193Z","date":"2026-01-30","time":"01:06:29"},{"rt":null,"stimulus":"<p style=\"font-size: 50px; margin: 0; text-align: center;\">+</p>","response":null,"trial_type":"html-keyboard-response","trial_index":166,"plugin_version":"2.1.0","time_elapsed":626995,"subject_id":"91030","group":"Group2","condition":"3_Rep","full_date":"2026-01-30T01:06:29.193Z","date":"2026-01-30","time":"01:06:29"},{"task":"memory_phase","broad_category":"I","image_png":"I_Pumice_01.png","image_id":129,"category_name":"Pumice","category":9,"distinct_rating":3.25,"distinct_type":"Bottom","rt":null,"stimulus":"Stimuli_Rocks480/I_Pumice_01.png","response":null,"trial_type":"image-keyboard-response","trial_index":167,"plugin_version":"2.1.0","time_elapsed":629501,"subject_id":"91030","group":"Group2","condition":"3_Rep","full_date":"2026-01-30T01:06:29.193Z","date":"2026-01-30","time":"01:06:29"},{"rt":null,"stimulus":"<p style=\"font-size: 50px; margin: 0; text-align: center;\">+</p>","response":null,"trial_type":"html-keyboard-response","trial_index":168,"plugin_version":"2.1.0","time_elapsed":630505,"subject_id":"91030","group":"Group2","condition":"3_Rep","full_date":"2026-01-30T01:06:29.193Z","date":"2026-01-30","time":"01:06:29"},{"task":"memory_phase","broad_category":"M","image_png":"M_Quartzite_12.png","image_id":284,"category_name":"Quartzite","category":18,"distinct_rating":1.92,"distinct_type":"Bottom","rt":null,"stimulus":"Stimuli_Rocks480/M_Quartzite_12.png","response":null,"trial_type":"image-keyboard-response","trial_index":169,"plugin_version":"2.1.0","time_elapsed":633015,"subject_id":"91030","group":"Group2","condition":"3_Rep","full_date":"2026-01-30T01:06:29.193Z","date":"2026-01-30","time":"01:06:29"},{"rt":null,"stimulus":"<p style=\"font-size: 50px; margin: 0; text-align: center;\">+</p>","response":null,"trial_type":"html-keyboard-response","trial_index":170,"plugin_version":"2.1.0","time_elapsed":634020,"subject_id":"91030","group":"Group2","condition":"3_Rep","full_date":"2026-01-30T01:06:29.193Z","date":"2026-01-30","time":"01:06:29"},{"task":"memory_phase","broad_category":"S","image_png":"S_Shale_03.png","image_id":467,"category_name":"Shale","category":30,"distinct_rating":1.95,"distinct_type":"Bottom","rt":null,"stimulus":"Stimuli_Rocks480/S_Shale_03.png","response":null,"trial_type":"image-keyboard-response","trial_index":171,"plugin_version":"2.1.0","time_elapsed":636529,"subject_id":"91030","group":"Group2","condition":"3_Rep","full_date":"2026-01-30T01:06:29.193Z","date":"2026-01-30","time":"01:06:29"},{"rt":null,"stimulus":"<p style=\"font-size: 50px; margin: 0; text-align: center;\">+</p>","response":null,"trial_type":"html-keyboard-response","trial_index":172,"plugin_version":"2.1.0","time_elapsed":637544,"subject_id":"91030","group":"Group2","condition":"3_Rep","full_date":"2026-01-30T01:06:29.193Z","date":"2026-01-30","time":"01:06:29"},{"task":"memory_phase","broad_category":"I","image_png":"I_Pumice_13.png","image_id":141,"category_name":"Pumice","category":9,"distinct_rating":3.12,"distinct_type":"Bottom","rt":null,"stimulus":"Stimuli_Rocks480/I_Pumice_13.png","response":null,"trial_type":"image-keyboard-response","trial_index":173,"plugin_version":"2.1.0","time_elapsed":640054,"subject_id":"91030","group":"Group2","condition":"3_Rep","full_date":"2026-01-30T01:06:29.193Z","date":"2026-01-30","time":"01:06:29"},{"rt":null,"stimulus":"<p style=\"font-size: 50px; margin: 0; text-align: center;\">+</p>","response":null,"trial_type":"html-keyboard-response","trial_index":174,"plugin_version":"2.1.0","time_elapsed":641067,"subject_id":"91030","group":"Group2","condition":"3_Rep","full_date":"2026-01-30T01:06:29.193Z","date":"2026-01-30","time":"01:06:29"},{"task":"memory_phase","broad_category":"M","image_png":"M_Marble_14.png","image_id":238,"category_name":"Marble","category":15,"distinct_rating":3.31,"distinct_type":"Bottom","rt":null,"stimulus":"Stimuli_Rocks480/M_Marble_14.png","response":null,"trial_type":"image-keyboard-response","trial_index":175,"plugin_version":"2.1.0","time_elapsed":643584,"subject_id":"91030","group":"Group2","condition":"3_Rep","full_date":"2026-01-30T01:06:29.193Z","date":"2026-01-30","time":"01:06:29"},{"rt":null,"stimulus":"<p style=\"font-size: 50px; margin: 0; text-align: center;\">+</p>","response":null,"trial_type":"html-keyboard-response","trial_index":176,"plugin_version":"2.1.0","time_elapsed":644594,"subject_id":"91030","group":"Group2","condition":"3_Rep","full_date":"2026-01-30T01:06:29.193Z","date":"2026-01-30","time":"01:06:29"},{"task":"memory_phase","broad_category":"S","image_png":"S_Conglomerate_14.png","image_id":382,"category_name":"Conglomerate","category":24,"distinct_rating":6.86,"distinct_type":"Top","rt":null,"stimulus":"Stimuli_Rocks480/S_Conglomerate_14.png","response":null,"trial_type":"image-keyboard-response","trial_index":177,"plugin_version":"2.1.0","time_elapsed":647110,"subject_id":"91030","group":"Group2","condition":"3_Rep","full_date":"2026-01-30T01:06:29.193Z","date":"2026-01-30","time":"01:06:29"},{"rt":null,"stimulus":"<p style=\"font-size: 50px; margin: 0; text-align: center;\">+</p>","response":null,"trial_type":"html-keyboard-response","trial_index":178,"plugin_version":"2.1.0","time_elapsed":648118,"subject_id":"91030","group":"Group2","condition":"3_Rep","full_date":"2026-01-30T01:06:29.193Z","date":"2026-01-30","time":"01:06:29"},{"task":"memory_phase","broad_category":"I","image_png":"I_Pumice_14.png","image_id":142,"category_name":"Pumice","category":9,"distinct_rating":3.22,"distinct_type":"Bottom","rt":null,"stimulus":"Stimuli_Rocks480/I_Pumice_14.png","response":null,"trial_type":"image-keyboard-response","trial_index":179,"plugin_version":"2.1.0","time_elapsed":650627,"subject_id":"91030","group":"Group2","condition":"3_Rep","full_date":"2026-01-30T01:06:29.193Z","date":"2026-01-30","time":"01:06:29"},{"rt":null,"stimulus":"<p style=\"font-size: 50px; margin: 0; text-align: center;\">+</p>","response":null,"trial_type":"html-keyboard-response","trial_index":180,"plugin_version":"2.1.0","time_elapsed":651634,"subject_id":"91030","group":"Group2","condition":"3_Rep","full_date":"2026-01-30T01:06:29.193Z","date":"2026-01-30","time":"01:06:29"},{"task":"memory_phase","broad_category":"I","image_png":"I_Gabbro_02.png","image_id":50,"category_name":"Gabbro","category":4,"distinct_rating":2.73,"distinct_type":"Bottom","rt":null,"stimulus":"Stimuli_Rocks480/I_Gabbro_02.png","response":null,"trial_type":"image-keyboard-response","trial_index":181,"plugin_version":"2.1.0","time_elapsed":654151,"subject_id":"91030","group":"Group2","condition":"3_Rep","full_date":"2026-01-30T01:06:29.193Z","date":"2026-01-30","time":"01:06:29"},{"rt":null,"stimulus":"<p style=\"font-size: 50px; margin: 0; text-align: center;\">+</p>","response":null,"trial_type":"html-keyboard-response","trial_index":182,"plugin_version":"2.1.0","time_elapsed":655152,"subject_id":"91030","group":"Group2","condition":"3_Rep","full_date":"2026-01-30T01:06:29.193Z","date":"2026-01-30","time":"01:06:29"},{"task":"memory_phase","broad_category":"S","image_png":"S_Sandstone_08.png","image_id":456,"category_name":"Sandstone","category":29,"distinct_rating":1.5,"distinct_type":"Bottom","rt":null,"stimulus":"Stimuli_Rocks480/S_Sandstone_08.png","response":null,"trial_type":"image-keyboard-response","trial_index":183,"plugin_version":"2.1.0","time_elapsed":657660,"subject_id":"91030","group":"Group2","condition":"3_Rep","full_date":"2026-01-30T01:06:29.193Z","date":"2026-01-30","time":"01:06:29"},{"rt":null,"stimulus":"<p style=\"font-size: 50px; margin: 0; text-align: center;\">+</p>","response":null,"trial_type":"html-keyboard-response","trial_index":184,"plugin_version":"2.1.0","time_elapsed":658668,"subject_id":"91030","group":"Group2","condition":"3_Rep","full_date":"2026-01-30T01:06:29.193Z","date":"2026-01-30","time":"01:06:29"},{"task":"memory_phase","broad_category":"I","image_png":"I_Peridotite_13.png","image_id":125,"category_name":"Peridotite","category":8,"distinct_rating":7.28,"distinct_type":"Top","rt":null,"stimulus":"Stimuli_Rocks480/I_Peridotite_13.png","response":null,"trial_type":"image-keyboard-response","trial_index":185,"plugin_version":"2.1.0","time_elapsed":661184,"subject_id":"91030","group":"Group2","condition":"3_Rep","full_date":"2026-01-30T01:06:29.193Z","date":"2026-01-30","time":"01:06:29"},{"rt":null,"stimulus":"<p style=\"font-size: 50px; margin: 0; text-align: center;\">+</p>","response":null,"trial_type":"html-keyboard-response","trial_index":186,"plugin_version":"2.1.0","time_elapsed":662195,"subject_id":"91030","group":"Group2","condition":"3_Rep","full_date":"2026-01-30T01:06:29.193Z","date":"2026-01-30","time":"01:06:29"},{"task":"memory_phase","broad_category":"S","image_png":"S_Rock Salt_13.png","image_id":445,"category_name":"Rock Salt","category":28,"distinct_rating":7.58,"distinct_type":"Top","rt":null,"stimulus":"Stimuli_Rocks480/S_Rock Salt_13.png","response":null,"trial_type":"image-keyboard-response","trial_index":187,"plugin_version":"2.1.0","time_elapsed":664710,"subject_id":"91030","group":"Group2","condition":"3_Rep","full_date":"2026-01-30T01:06:29.193Z","date":"2026-01-30","time":"01:06:29"},{"rt":null,"stimulus":"<p style=\"font-size: 50px; margin: 0; text-align: center;\">+</p>","response":null,"trial_type":"html-keyboard-response","trial_index":188,"plugin_version":"2.1.0","time_elapsed":665718,"subject_id":"91030","group":"Group2","condition":"3_Rep","full_date":"2026-01-30T01:06:29.193Z","date":"2026-01-30","time":"01:06:29"},{"task":"memory_phase","broad_category":"I","image_png":"I_Gabbro_14.png","image_id":62,"category_name":"Gabbro","category":4,"distinct_rating":2.95,"distinct_type":"Bottom","rt":null,"stimulus":"Stimuli_Rocks480/I_Gabbro_14.png","response":null,"trial_type":"image-keyboard-response","trial_index":189,"plugin_version":"2.1.0","time_elapsed":668234,"subject_id":"91030","group":"Group2","condition":"3_Rep","full_date":"2026-01-30T01:06:29.193Z","date":"2026-01-30","time":"01:06:29"},{"rt":null,"stimulus":"<p style=\"font-size: 50px; margin: 0; text-align: center;\">+</p>","response":null,"trial_type":"html-keyboard-response","trial_index":190,"plugin_version":"2.1.0","time_elapsed":669243,"subject_id":"91030","group":"Group2","condition":"3_Rep","full_date":"2026-01-30T01:06:29.193Z","date":"2026-01-30","time":"01:06:29"},{"task":"memory_phase","broad_category":"S","image_png":"S_Sandstone_11.png","image_id":459,"category_name":"Sandstone","category":29,"distinct_rating":1.82,"distinct_type":"Bottom","rt":null,"stimulus":"Stimuli_Rocks480/S_Sandstone_11.png","response":null,"trial_type":"image-keyboard-response","trial_index":191,"plugin_version":"2.1.0","time_elapsed":671746,"subject_id":"91030","group":"Group2","condition":"3_Rep","full_date":"2026-01-30T01:06:29.193Z","date":"2026-01-30","time":"01:06:29"},{"rt":null,"stimulus":"<p style=\"font-size: 50px; margin: 0; text-align: center;\">+</p>","response":null,"trial_type":"html-keyboard-response","trial_index":192,"plugin_version":"2.1.0","time_elapsed":672748,"subject_id":"91030","group":"Group2","condition":"3_Rep","full_date":"2026-01-30T01:06:29.193Z","date":"2026-01-30","time":"01:06:29"},{"task":"memory_phase","broad_category":"I","image_png":"I_Diorite_01.png","image_id":33,"category_name":"Diorite","category":3,"distinct_rating":2.97,"distinct_type":"Bottom","rt":null,"stimulus":"Stimuli_Rocks480/I_Diorite_01.png","response":null,"trial_type":"image-keyboard-response","trial_index":193,"plugin_version":"2.1.0","time_elapsed":675258,"subject_id":"91030","group":"Group2","condition":"3_Rep","full_date":"2026-01-30T01:06:29.193Z","date":"2026-01-30","time":"01:06:29"},{"rt":null,"stimulus":"<p style=\"font-size: 50px; margin: 0; text-align: center;\">+</p>","response":null,"trial_type":"html-keyboard-response","trial_index":194,"plugin_version":"2.1.0","time_elapsed":676276,"subject_id":"91030","group":"Group2","condition":"3_Rep","full_date":"2026-01-30T01:06:29.193Z","date":"2026-01-30","time":"01:06:29"},{"task":"memory_phase","broad_category":"I","image_png":"I_Gabbro_12.png","image_id":60,"category_name":"Gabbro","category":4,"distinct_rating":2.6,"distinct_type":"Bottom","rt":null,"stimulus":"Stimuli_Rocks480/I_Gabbro_12.png","response":null,"trial_type":"image-keyboard-response","trial_index":195,"plugin_version":"2.1.0","time_elapsed":678793,"subject_id":"91030","group":"Group2","condition":"3_Rep","full_date":"2026-01-30T01:06:29.193Z","date":"2026-01-30","time":"01:06:29"},{"rt":null,"stimulus":"<p style=\"font-size: 50px; margin: 0; text-align: center;\">+</p>","response":null,"trial_type":"html-keyboard-response","trial_index":196,"plugin_version":"2.1.0","time_elapsed":679802,"subject_id":"91030","group":"Group2","condition":"3_Rep","full_date":"2026-01-30T01:06:29.193Z","date":"2026-01-30","time":"01:06:29"},{"task":"memory_phase","broad_category":"M","image_png":"M_Slate_14.png","image_id":318,"category_name":"Slate","category":20,"distinct_rating":2.58,"distinct_type":"Bottom","rt":null,"stimulus":"Stimuli_Rocks480/M_Slate_14.png","response":null,"trial_type":"image-keyboard-response","trial_index":197,"plugin_version":"2.1.0","time_elapsed":682310,"subject_id":"91030","group":"Group2","condition":"3_Rep","full_date":"2026-01-30T01:06:29.193Z","date":"2026-01-30","time":"01:06:29"},{"rt":null,"stimulus":"<p style=\"font-size: 50px; margin: 0; text-align: center;\">+</p>","response":null,"trial_type":"html-keyboard-response","trial_index":198,"plugin_version":"2.1.0","time_elapsed":683326,"subject_id":"91030","group":"Group2","condition":"3_Rep","full_date":"2026-01-30T01:06:29.193Z","date":"2026-01-30","time":"01:06:29"},{"task":"memory_phase","broad_category":"I","image_png":"I_Basalt_08.png","image_id":24,"category_name":"Basalt","category":2,"distinct_rating":2.31,"distinct_type":"Bottom","rt":null,"stimulus":"Stimuli_Rocks480/I_Basalt_08.png","response":null,"trial_type":"image-keyboard-response","trial_index":199,"plugin_version":"2.1.0","time_elapsed":685833,"subject_id":"91030","group":"Group2","condition":"3_Rep","full_date":"2026-01-30T01:06:29.193Z","date":"2026-01-30","time":"01:06:29"},{"rt":null,"stimulus":"<p style=\"font-size: 50px; margin: 0; text-align: center;\">+</p>","response":null,"trial_type":"html-keyboard-response","trial_index":200,"plugin_version":"2.1.0","time_elapsed":686834,"subject_id":"91030","group":"Group2","condition":"3_Rep","full_date":"2026-01-30T01:06:29.193Z","date":"2026-01-30","time":"01:06:29"},{"task":"memory_phase","broad_category":"M","image_png":"M_Gneiss_10.png","image_id":202,"category_name":"Gneiss","category":13,"distinct_rating":3.09,"distinct_type":"Bottom","rt":null,"stimulus":"Stimuli_Rocks480/M_Gneiss_10.png","response":null,"trial_type":"image-keyboard-response","trial_index":201,"plugin_version":"2.1.0","time_elapsed":689344,"subject_id":"91030","group":"Group2","condition":"3_Rep","full_date":"2026-01-30T01:06:29.193Z","date":"2026-01-30","time":"01:06:29"},{"rt":null,"stimulus":"<p style=\"font-size: 50px; margin: 0; text-align: center;\">+</p>","response":null,"trial_type":"html-keyboard-response","trial_index":202,"plugin_version":"2.1.0","time_elapsed":690349,"subject_id":"91030","group":"Group2","condition":"3_Rep","full_date":"2026-01-30T01:06:29.193Z","date":"2026-01-30","time":"01:06:29"},{"task":"memory_phase","broad_category":"M","image_png":"M_Phyllite_05.png","image_id":261,"category_name":"Phyllite","category":17,"distinct_rating":2.14,"distinct_type":"Bottom","rt":null,"stimulus":"Stimuli_Rocks480/M_Phyllite_05.png","response":null,"trial_type":"image-keyboard-response","trial_index":203,"plugin_version":"2.1.0","time_elapsed":692862,"subject_id":"91030","group":"Group2","condition":"3_Rep","full_date":"2026-01-30T01:06:29.193Z","date":"2026-01-30","time":"01:06:29"},{"rt":null,"stimulus":"<p style=\"font-size: 50px; margin: 0; text-align: center;\">+</p>","response":null,"trial_type":"html-keyboard-response","trial_index":204,"plugin_version":"2.1.0","time_elapsed":693877,"subject_id":"91030","group":"Group2","condition":"3_Rep","full_date":"2026-01-30T01:06:29.193Z","date":"2026-01-30","time":"01:06:29"},{"task":"memory_phase","broad_category":"M","image_png":"M_Slate_04.png","image_id":308,"category_name":"Slate","category":20,"distinct_rating":2.2,"distinct_type":"Bottom","rt":null,"stimulus":"Stimuli_Rocks480/M_Slate_04.png","response":null,"trial_type":"image-keyboard-response","trial_index":205,"plugin_version":"2.1.0","time_elapsed":696384,"subject_id":"91030","group":"Group2","condition":"3_Rep","full_date":"2026-01-30T01:06:29.193Z","date":"2026-01-30","time":"01:06:29"},{"rt":null,"stimulus":"<p style=\"font-size: 50px; margin: 0; text-align: center;\">+</p>","response":null,"trial_type":"html-keyboard-response","trial_index":206,"plugin_version":"2.1.0","time_elapsed":697399,"subject_id":"91030","group":"Group2","condition":"3_Rep","full_date":"2026-01-30T01:06:29.193Z","date":"2026-01-30","time":"01:06:29"},{"task":"memory_phase","broad_category":"I","image_png":"I_Diorite_15.png","image_id":47,"category_name":"Diorite","category":3,"distinct_rating":3.05,"distinct_type":"Bottom","rt":null,"stimulus":"Stimuli_Rocks480/I_Diorite_15.png","response":null,"trial_type":"image-keyboard-response","trial_index":207,"plugin_version":"2.1.0","time_elapsed":699909,"subject_id":"91030","group":"Group2","condition":"3_Rep","full_date":"2026-01-30T01:06:29.193Z","date":"2026-01-30","time":"01:06:29"},{"rt":1488,"stimulus":"<p style=\"max-width: 760px; margin: auto; font-size: 35px; line-height: 1.5;\">\n                You have completed 2 study phases. \n                Now, we'll show you all the images again 1 more time.\n                <br><br>Press SPACE to continue\n              </p>","response":" ","trial_type":"html-keyboard-response","trial_index":208,"plugin_version":"2.1.0","time_elapsed":701397,"subject_id":"91030","group":"Group2","condition":"3_Rep","full_date":"2026-01-30T01:06:29.193Z","date":"2026-01-30","time":"01:06:29"},{"rt":null,"stimulus":"<p style=\"font-size: 50px; margin: 0; text-align: center;\">+</p>","response":null,"trial_type":"html-keyboard-response","trial_index":209,"plugin_version":"2.1.0","time_elapsed":702409,"subject_id":"91030","group":"Group2","condition":"3_Rep","full_date":"2026-01-30T01:06:29.193Z","date":"2026-01-30","time":"01:06:29"},{"task":"memory_phase","broad_category":"I","image_png":"I_Andesite_09.png","image_id":9,"category_name":"Andesite","category":1,"distinct_rating":2.49,"distinct_type":"Bottom","rt":null,"stimulus":"Stimuli_Rocks480/I_Andesite_09.png","response":null,"trial_type":"image-keyboard-response","trial_index":210,"plugin_version":"2.1.0","time_elapsed":704924,"subject_id":"91030","group":"Group2","condition":"3_Rep","full_date":"2026-01-30T01:06:29.193Z","date":"2026-01-30","time":"01:06:29"},{"rt":null,"stimulus":"<p style=\"font-size: 50px; margin: 0; text-align: center;\">+</p>","response":null,"trial_type":"html-keyboard-response","trial_index":211,"plugin_version":"2.1.0","time_elapsed":705927,"subject_id":"91030","group":"Group2","condition":"3_Rep","full_date":"2026-01-30T01:06:29.193Z","date":"2026-01-30","time":"01:06:29"},{"task":"memory_phase","broad_category":"M","image_png":"M_Marble_02.png","image_id":226,"category_name":"Marble","category":15,"distinct_rating":3.2,"distinct_type":"Bottom","rt":null,"stimulus":"Stimuli_Rocks480/M_Marble_02.png","response":null,"trial_type":"image-keyboard-response","trial_index":212,"plugin_version":"2.1.0","time_elapsed":708438,"subject_id":"91030","group":"Group2","condition":"3_Rep","full_date":"2026-01-30T01:06:29.193Z","date":"2026-01-30","time":"01:06:29"},{"rt":null,"stimulus":"<p style=\"font-size: 50px; margin: 0; text-align: center;\">+</p>","response":null,"trial_type":"html-keyboard-response","trial_index":213,"plugin_version":"2.1.0","time_elapsed":709442,"subject_id":"91030","group":"Group2","condition":"3_Rep","full_date":"2026-01-30T01:06:29.193Z","date":"2026-01-30","time":"01:06:29"},{"task":"memory_phase","broad_category":"S","image_png":"S_Sandstone_08.png","image_id":456,"category_name":"Sandstone","category":29,"distinct_rating":1.5,"distinct_type":"Bottom","rt":null,"stimulus":"Stimuli_Rocks480/S_Sandstone_08.png","response":null,"trial_type":"image-keyboard-response","trial_index":214,"plugin_version":"2.1.0","time_elapsed":711950,"subject_id":"91030","group":"Group2","condition":"3_Rep","full_date":"2026-01-30T01:06:29.193Z","date":"2026-01-30","time":"01:06:29"},{"rt":null,"stimulus":"<p style=\"font-size: 50px; margin: 0; text-align: center;\">+</p>","response":null,"trial_type":"html-keyboard-response","trial_index":215,"plugin_version":"2.1.0","time_elapsed":712958,"subject_id":"91030","group":"Group2","condition":"3_Rep","full_date":"2026-01-30T01:06:29.193Z","date":"2026-01-30","time":"01:06:29"},{"task":"memory_phase","broad_category":"I","image_png":"I_Basalt_08.png","image_id":24,"category_name":"Basalt","category":2,"distinct_rating":2.31,"distinct_type":"Bottom","rt":null,"stimulus":"Stimuli_Rocks480/I_Basalt_08.png","response":null,"trial_type":"image-keyboard-response","trial_index":216,"plugin_version":"2.1.0","time_elapsed":715474,"subject_id":"91030","group":"Group2","condition":"3_Rep","full_date":"2026-01-30T01:06:29.193Z","date":"2026-01-30","time":"01:06:29"},{"rt":null,"stimulus":"<p style=\"font-size: 50px; margin: 0; text-align: center;\">+</p>","response":null,"trial_type":"html-keyboard-response","trial_index":217,"plugin_version":"2.1.0","time_elapsed":716477,"subject_id":"91030","group":"Group2","condition":"3_Rep","full_date":"2026-01-30T01:06:29.193Z","date":"2026-01-30","time":"01:06:29"},{"task":"memory_phase","broad_category":"M","image_png":"M_Marble_03.png","image_id":227,"category_name":"Marble","category":15,"distinct_rating":2.67,"distinct_type":"Bottom","rt":null,"stimulus":"Stimuli_Rocks480/M_Marble_03.png","response":null,"trial_type":"image-keyboard-response","trial_index":218,"plugin_version":"2.1.0","time_elapsed":718979,"subject_id":"91030","group":"Group2","condition":"3_Rep","full_date":"2026-01-30T01:06:29.193Z","date":"2026-01-30","time":"01:06:29"},{"rt":null,"stimulus":"<p style=\"font-size: 50px; margin: 0; text-align: center;\">+</p>","response":null,"trial_type":"html-keyboard-response","trial_index":219,"plugin_version":"2.1.0","time_elapsed":719983,"subject_id":"91030","group":"Group2","condition":"3_Rep","full_date":"2026-01-30T01:06:29.193Z","date":"2026-01-30","time":"01:06:29"},{"task":"memory_phase","broad_category":"M","image_png":"M_Quartzite_07.png","image_id":279,"category_name":"Quartzite","category":18,"distinct_rating":1.97,"distinct_type":"Bottom","rt":null,"stimulus":"Stimuli_Rocks480/M_Quartzite_07.png","response":null,"trial_type":"image-keyboard-response","trial_index":220,"plugin_version":"2.1.0","time_elapsed":722492,"subject_id":"91030","group":"Group2","condition":"3_Rep","full_date":"2026-01-30T01:06:29.193Z","date":"2026-01-30","time":"01:06:29"},{"rt":null,"stimulus":"<p style=\"font-size: 50px; margin: 0; text-align: center;\">+</p>","response":null,"trial_type":"html-keyboard-response","trial_index":221,"plugin_version":"2.1.0","time_elapsed":723508,"subject_id":"91030","group":"Group2","condition":"3_Rep","full_date":"2026-01-30T01:06:29.193Z","date":"2026-01-30","time":"01:06:29"},{"task":"memory_phase","broad_category":"M","image_png":"M_Gneiss_14.png","image_id":206,"category_name":"Gneiss","category":13,"distinct_rating":3.41,"distinct_type":"Bottom","rt":null,"stimulus":"Stimuli_Rocks480/M_Gneiss_14.png","response":null,"trial_type":"image-keyboard-response","trial_index":222,"plugin_version":"2.1.0","time_elapsed":726019,"subject_id":"91030","group":"Group2","condition":"3_Rep","full_date":"2026-01-30T01:06:29.193Z","date":"2026-01-30","time":"01:06:29"},{"rt":null,"stimulus":"<p style=\"font-size: 50px; margin: 0; text-align: center;\">+</p>","response":null,"trial_type":"html-keyboard-response","trial_index":223,"plugin_version":"2.1.0","time_elapsed":727029,"subject_id":"91030","group":"Group2","condition":"3_Rep","full_date":"2026-01-30T01:06:29.193Z","date":"2026-01-30","time":"01:06:29"},{"task":"memory_phase","broad_category":"S","image_png":"S_Sandstone_04.png","image_id":452,"category_name":"Sandstone","category":29,"distinct_rating":1.8,"distinct_type":"Bottom","rt":null,"stimulus":"Stimuli_Rocks480/S_Sandstone_04.png","response":null,"trial_type":"image-keyboard-response","trial_index":224,"plugin_version":"2.1.0","time_elapsed":729533,"subject_id":"91030","group":"Group2","condition":"3_Rep","full_date":"2026-01-30T01:06:29.193Z","date":"2026-01-30","time":"01:06:29"},{"rt":null,"stimulus":"<p style=\"font-size: 50px; margin: 0; text-align: center;\">+</p>","response":null,"trial_type":"html-keyboard-response","trial_index":225,"plugin_version":"2.1.0","time_elapsed":730540,"subject_id":"91030","group":"Group2","condition":"3_Rep","full_date":"2026-01-30T01:06:29.193Z","date":"2026-01-30","time":"01:06:29"},{"task":"memory_phase","broad_category":"M","image_png":"M_Gneiss_15.png","image_id":207,"category_name":"Gneiss","category":13,"distinct_rating":3.11,"distinct_type":"Bottom","rt":null,"stimulus":"Stimuli_Rocks480/M_Gneiss_15.png","response":null,"trial_type":"image-keyboard-response","trial_index":226,"plugin_version":"2.1.0","time_elapsed":733048,"subject_id":"91030","group":"Group2","condition":"3_Rep","full_date":"2026-01-30T01:06:29.193Z","date":"2026-01-30","time":"01:06:29"},{"rt":null,"stimulus":"<p style=\"font-size: 50px; margin: 0; text-align: center;\">+</p>","response":null,"trial_type":"html-keyboard-response","trial_index":227,"plugin_version":"2.1.0","time_elapsed":734050,"subject_id":"91030","group":"Group2","condition":"3_Rep","full_date":"2026-01-30T01:06:29.193Z","date":"2026-01-30","time":"01:06:29"},{"task":"memory_phase","broad_category":"S","image_png":"S_Dolomite_07.png","image_id":391,"category_name":"Dolomite","category":25,"distinct_rating":1.73,"distinct_type":"Bottom","rt":null,"stimulus":"Stimuli_Rocks480/S_Dolomite_07.png","response":null,"trial_type":"image-keyboard-response","trial_index":228,"plugin_version":"2.1.0","time_elapsed":736565,"subject_id":"91030","group":"Group2","condition":"3_Rep","full_date":"2026-01-30T01:06:29.193Z","date":"2026-01-30","time":"01:06:29"},{"rt":null,"stimulus":"<p style=\"font-size: 50px; margin: 0; text-align: center;\">+</p>","response":null,"trial_type":"html-keyboard-response","trial_index":229,"plugin_version":"2.1.0","time_elapsed":737574,"subject_id":"91030","group":"Group2","condition":"3_Rep","full_date":"2026-01-30T01:06:29.193Z","date":"2026-01-30","time":"01:06:29"},{"task":"memory_phase","broad_category":"I","image_png":"I_Pegmatite_03.png","image_id":99,"category_name":"Pegmatite","category":7,"distinct_rating":7.24,"distinct_type":"Top","rt":null,"stimulus":"Stimuli_Rocks480/I_Pegmatite_03.png","response":null,"trial_type":"image-keyboard-response","trial_index":230,"plugin_version":"2.1.0","time_elapsed":740082,"subject_id":"91030","group":"Group2","condition":"3_Rep","full_date":"2026-01-30T01:06:29.193Z","date":"2026-01-30","time":"01:06:29"},{"rt":null,"stimulus":"<p style=\"font-size: 50px; margin: 0; text-align: center;\">+</p>","response":null,"trial_type":"html-keyboard-response","trial_index":231,"plugin_version":"2.1.0","time_elapsed":741098,"subject_id":"91030","group":"Group2","condition":"3_Rep","full_date":"2026-01-30T01:06:29.193Z","date":"2026-01-30","time":"01:06:29"},{"task":"memory_phase","broad_category":"S","image_png":"S_Sandstone_11.png","image_id":459,"category_name":"Sandstone","category":29,"distinct_rating":1.82,"distinct_type":"Bottom","rt":null,"stimulus":"Stimuli_Rocks480/S_Sandstone_11.png","response":null,"trial_type":"image-keyboard-response","trial_index":232,"plugin_version":"2.1.0","time_elapsed":743609,"subject_id":"91030","group":"Group2","condition":"3_Rep","full_date":"2026-01-30T01:06:29.193Z","date":"2026-01-30","time":"01:06:29"},{"rt":null,"stimulus":"<p style=\"font-size: 50px; margin: 0; text-align: center;\">+</p>","response":null,"trial_type":"html-keyboard-response","trial_index":233,"plugin_version":"2.1.0","time_elapsed":744616,"subject_id":"91030","group":"Group2","condition":"3_Rep","full_date":"2026-01-30T01:06:29.193Z","date":"2026-01-30","time":"01:06:29"},{"task":"memory_phase","broad_category":"S","image_png":"S_Rock Salt_15.png","image_id":447,"category_name":"Rock Salt","category":28,"distinct_rating":7.79,"distinct_type":"Top","rt":null,"stimulus":"Stimuli_Rocks480/S_Rock Salt_15.png","response":null,"trial_type":"image-keyboard-response","trial_index":234,"plugin_version":"2.1.0","time_elapsed":747122,"subject_id":"91030","group":"Group2","condition":"3_Rep","full_date":"2026-01-30T01:06:29.193Z","date":"2026-01-30","time":"01:06:29"},{"rt":null,"stimulus":"<p style=\"font-size: 50px; margin: 0; text-align: center;\">+</p>","response":null,"trial_type":"html-keyboard-response","trial_index":235,"plugin_version":"2.1.0","time_elapsed":748132,"subject_id":"91030","group":"Group2","condition":"3_Rep","full_date":"2026-01-30T01:06:29.193Z","date":"2026-01-30","time":"01:06:29"},{"task":"memory_phase","broad_category":"I","image_png":"I_Gabbro_14.png","image_id":62,"category_name":"Gabbro","category":4,"distinct_rating":2.95,"distinct_type":"Bottom","rt":null,"stimulus":"Stimu