[{"width":1660,"height":855,"webaudio":true,"browser":"chrome","browser_version":"144.0.0","mobile":false,"os":"Mac OS","fullscreen":true,"vsync_rate":60.17,"webcam":true,"microphone":true,"trial_type":"browser-check","trial_index":0,"plugin_version":"2.1.0","time_elapsed":1007,"subject_id":"92208","group":"Group2","condition":"3_Rep","full_date":"2026-02-12T17:18:18.947Z","date":"2026-02-12","time":"17:18:18"},{"success":true,"timeout":false,"failed_images":[],"failed_audio":[],"failed_video":[],"trial_type":"preload","trial_index":1,"plugin_version":"2.1.0","time_elapsed":7672,"subject_id":"92208","group":"Group2","condition":"3_Rep","full_date":"2026-02-12T17:18:18.947Z","date":"2026-02-12","time":"17:18:18"},{"rt":3527,"url":"SONA_consent_memorability.html","trial_type":"external-html","trial_index":2,"plugin_version":"2.1.0","time_elapsed":11252,"subject_id":"92208","group":"Group2","condition":"3_Rep","full_date":"2026-02-12T17:18:18.947Z","date":"2026-02-12","time":"17:18:18"},{"success":true,"rt":1648,"trial_type":"fullscreen","trial_index":3,"plugin_version":"2.1.0","time_elapsed":13906,"subject_id":"92208","group":"Group2","condition":"3_Rep","full_date":"2026-02-12T17:18:18.947Z","date":"2026-02-12","time":"17:18:18"},{"rt":2311,"stimulus":"<div style=\"max-width: 760px; margin: auto; font-size: 20px; line-height: 1.5;\">\n      <h1 style=\"text-align:center; font-size: 30px;\">Instructions</h1>\n      <p>\n        Welcome to the study on <b>visual memory</b>. This experiment consists of <b>two phases</b>: \n        a <b>study phase</b> and a <b>test phase</b>.\n      </p>\n      <p>\n        In the study phase, you will see a series of rock images along with their category labels.\n        The images will appear one at a time.\n        <b>Your task</b> is to learn the categories to which the rock images belong \n        and to remember each image as accurately as possible.\n      </p> \n      <p>\n        Note that we will repeat the study phase <b>3 times</b>, \n             so you will have multiple opportunities to see and remember each image.\n      </p>\n      <p>\n        After the study phase, <b>your memory will be tested</b>. \n        Additional instructions for the test phase will be provided at that time.\n      </p>\n      <p>\n        If your computer has multiple <b>language settings</b> (e.g., English and another language),\n        please make sure it is set to English before starting.\n      </p>\n      <p>\n        You can track your progress using the <b>completion bar</b> at the top of the screen. \n        Please note that the bar will refresh when the test phase begins \n        to give you an accurate sense of your progress in both phases.\n      </p> \n      <p>\n        Press the button below when you are ready to begin.\n      </p>\n    </div>","response":0,"trial_type":"html-button-response","trial_index":4,"plugin_version":"2.1.0","time_elapsed":16220,"subject_id":"92208","group":"Group2","condition":"3_Rep","full_date":"2026-02-12T17:18:18.947Z","date":"2026-02-12","time":"17:18:18"},{"rt":null,"stimulus":"<p style=\"font-size: 50px; margin: 0; text-align: center;\">+</p>","response":null,"trial_type":"html-keyboard-response","trial_index":5,"plugin_version":"2.1.0","time_elapsed":17224,"subject_id":"92208","group":"Group2","condition":"3_Rep","full_date":"2026-02-12T17:18:18.947Z","date":"2026-02-12","time":"17:18:18"},{"task":"memory_phase","broad_category":"I","image_png":"I_Pegmatite_03.png","image_id":99,"category_name":"Pegmatite","category":7,"distinct_rating":7.24,"distinct_type":"Top","rt":null,"stimulus":"Stimuli_Rocks480/I_Pegmatite_03.png","response":null,"trial_type":"image-keyboard-response","trial_index":6,"plugin_version":"2.1.0","time_elapsed":19729,"subject_id":"92208","group":"Group2","condition":"3_Rep","full_date":"2026-02-12T17:18:18.947Z","date":"2026-02-12","time":"17:18:18"},{"rt":null,"stimulus":"<p style=\"font-size: 50px; margin: 0; text-align: center;\">+</p>","response":null,"trial_type":"html-keyboard-response","trial_index":7,"plugin_version":"2.1.0","time_elapsed":20731,"subject_id":"92208","group":"Group2","condition":"3_Rep","full_date":"2026-02-12T17:18:18.947Z","date":"2026-02-12","time":"17:18:18"},{"task":"memory_phase","broad_category":"I","image_png":"I_Obsidian_06.png","image_id":86,"category_name":"Obsidian","category":6,"distinct_rating":8.01,"distinct_type":"Top","rt":null,"stimulus":"Stimuli_Rocks480/I_Obsidian_06.png","response":null,"trial_type":"image-keyboard-response","trial_index":8,"plugin_version":"2.1.0","time_elapsed":23236,"subject_id":"92208","group":"Group2","condition":"3_Rep","full_date":"2026-02-12T17:18:18.947Z","date":"2026-02-12","time":"17:18:18"},{"rt":null,"stimulus":"<p style=\"font-size: 50px; margin: 0; text-align: center;\">+</p>","response":null,"trial_type":"html-keyboard-response","trial_index":9,"plugin_version":"2.1.0","time_elapsed":24239,"subject_id":"92208","group":"Group2","condition":"3_Rep","full_date":"2026-02-12T17:18:18.947Z","date":"2026-02-12","time":"17:18:18"},{"task":"memory_phase","broad_category":"I","image_png":"I_Basalt_10.png","image_id":26,"category_name":"Basalt","category":2,"distinct_rating":2.76,"distinct_type":"Bottom","rt":null,"stimulus":"Stimuli_Rocks480/I_Basalt_10.png","response":null,"trial_type":"image-keyboard-response","trial_index":10,"plugin_version":"2.1.0","time_elapsed":26743,"subject_id":"92208","group":"Group2","condition":"3_Rep","full_date":"2026-02-12T17:18:18.947Z","date":"2026-02-12","time":"17:18:18"},{"rt":null,"stimulus":"<p style=\"font-size: 50px; margin: 0; text-align: center;\">+</p>","response":null,"trial_type":"html-keyboard-response","trial_index":11,"plugin_version":"2.1.0","time_elapsed":27745,"subject_id":"92208","group":"Group2","condition":"3_Rep","full_date":"2026-02-12T17:18:18.947Z","date":"2026-02-12","time":"17:18:18"},{"task":"memory_phase","broad_category":"M","image_png":"M_Gneiss_10.png","image_id":202,"category_name":"Gneiss","category":13,"distinct_rating":3.09,"distinct_type":"Bottom","rt":null,"stimulus":"Stimuli_Rocks480/M_Gneiss_10.png","response":null,"trial_type":"image-keyboard-response","trial_index":12,"plugin_version":"2.1.0","time_elapsed":30248,"subject_id":"92208","group":"Group2","condition":"3_Rep","full_date":"2026-02-12T17:18:18.947Z","date":"2026-02-12","time":"17:18:18"},{"rt":null,"stimulus":"<p style=\"font-size: 50px; margin: 0; text-align: center;\">+</p>","response":null,"trial_type":"html-keyboard-response","trial_index":13,"plugin_version":"2.1.0","time_elapsed":31251,"subject_id":"92208","group":"Group2","condition":"3_Rep","full_date":"2026-02-12T17:18:18.947Z","date":"2026-02-12","time":"17:18:18"},{"task":"memory_phase","broad_category":"M","image_png":"M_Quartzite_12.png","image_id":284,"category_name":"Quartzite","category":18,"distinct_rating":1.92,"distinct_type":"Bottom","rt":null,"stimulus":"Stimuli_Rocks480/M_Quartzite_12.png","response":null,"trial_type":"image-keyboard-response","trial_index":14,"plugin_version":"2.1.0","time_elapsed":33755,"subject_id":"92208","group":"Group2","condition":"3_Rep","full_date":"2026-02-12T17:18:18.947Z","date":"2026-02-12","time":"17:18:18"},{"rt":null,"stimulus":"<p style=\"font-size: 50px; margin: 0; text-align: center;\">+</p>","response":null,"trial_type":"html-keyboard-response","trial_index":15,"plugin_version":"2.1.0","time_elapsed":34757,"subject_id":"92208","group":"Group2","condition":"3_Rep","full_date":"2026-02-12T17:18:18.947Z","date":"2026-02-12","time":"17:18:18"},{"task":"memory_phase","broad_category":"S","image_png":"S_Shale_02.png","image_id":466,"category_name":"Shale","category":30,"distinct_rating":2.9,"distinct_type":"Bottom","rt":null,"stimulus":"Stimuli_Rocks480/S_Shale_02.png","response":null,"trial_type":"image-keyboard-response","trial_index":16,"plugin_version":"2.1.0","time_elapsed":37261,"subject_id":"92208","group":"Group2","condition":"3_Rep","full_date":"2026-02-12T17:18:18.947Z","date":"2026-02-12","time":"17:18:18"},{"rt":null,"stimulus":"<p style=\"font-size: 50px; margin: 0; text-align: center;\">+</p>","response":null,"trial_type":"html-keyboard-response","trial_index":17,"plugin_version":"2.1.0","time_elapsed":38263,"subject_id":"92208","group":"Group2","condition":"3_Rep","full_date":"2026-02-12T17:18:18.947Z","date":"2026-02-12","time":"17:18:18"},{"task":"memory_phase","broad_category":"M","image_png":"M_Marble_14.png","image_id":238,"category_name":"Marble","category":15,"distinct_rating":3.31,"distinct_type":"Bottom","rt":null,"stimulus":"Stimuli_Rocks480/M_Marble_14.png","response":null,"trial_type":"image-keyboard-response","trial_index":18,"plugin_version":"2.1.0","time_elapsed":40766,"subject_id":"92208","group":"Group2","condition":"3_Rep","full_date":"2026-02-12T17:18:18.947Z","date":"2026-02-12","time":"17:18:18"},{"rt":null,"stimulus":"<p style=\"font-size: 50px; margin: 0; text-align: center;\">+</p>","response":null,"trial_type":"html-keyboard-response","trial_index":19,"plugin_version":"2.1.0","time_elapsed":41769,"subject_id":"92208","group":"Group2","condition":"3_Rep","full_date":"2026-02-12T17:18:18.947Z","date":"2026-02-12","time":"17:18:18"},{"task":"memory_phase","broad_category":"I","image_png":"I_Diorite_01.png","image_id":33,"category_name":"Diorite","category":3,"distinct_rating":2.97,"distinct_type":"Bottom","rt":null,"stimulus":"Stimuli_Rocks480/I_Diorite_01.png","response":null,"trial_type":"image-keyboard-response","trial_index":20,"plugin_version":"2.1.0","time_elapsed":44272,"subject_id":"92208","group":"Group2","condition":"3_Rep","full_date":"2026-02-12T17:18:18.947Z","date":"2026-02-12","time":"17:18:18"},{"rt":null,"stimulus":"<p style=\"font-size: 50px; margin: 0; text-align: center;\">+</p>","response":null,"trial_type":"html-keyboard-response","trial_index":21,"plugin_version":"2.1.0","time_elapsed":45275,"subject_id":"92208","group":"Group2","condition":"3_Rep","full_date":"2026-02-12T17:18:18.947Z","date":"2026-02-12","time":"17:18:18"},{"task":"memory_phase","broad_category":"M","image_png":"M_Slate_10.png","image_id":314,"category_name":"Slate","category":20,"distinct_rating":1.94,"distinct_type":"Bottom","rt":null,"stimulus":"Stimuli_Rocks480/M_Slate_10.png","response":null,"trial_type":"image-keyboard-response","trial_index":22,"plugin_version":"2.1.0","time_elapsed":47778,"subject_id":"92208","group":"Group2","condition":"3_Rep","full_date":"2026-02-12T17:18:18.947Z","date":"2026-02-12","time":"17:18:18"},{"rt":null,"stimulus":"<p style=\"font-size: 50px; margin: 0; text-align: center;\">+</p>","response":null,"trial_type":"html-keyboard-response","trial_index":23,"plugin_version":"2.1.0","time_elapsed":48780,"subject_id":"92208","group":"Group2","condition":"3_Rep","full_date":"2026-02-12T17:18:18.947Z","date":"2026-02-12","time":"17:18:18"},{"task":"memory_phase","broad_category":"I","image_png":"I_Basalt_08.png","image_id":24,"category_name":"Basalt","category":2,"distinct_rating":2.31,"distinct_type":"Bottom","rt":null,"stimulus":"Stimuli_Rocks480/I_Basalt_08.png","response":null,"trial_type":"image-keyboard-response","trial_index":24,"plugin_version":"2.1.0","time_elapsed":51284,"subject_id":"92208","group":"Group2","condition":"3_Rep","full_date":"2026-02-12T17:18:18.947Z","date":"2026-02-12","time":"17:18:18"},{"rt":null,"stimulus":"<p style=\"font-size: 50px; margin: 0; text-align: center;\">+</p>","response":null,"trial_type":"html-keyboard-response","trial_index":25,"plugin_version":"2.1.0","time_elapsed":52286,"subject_id":"92208","group":"Group2","condition":"3_Rep","full_date":"2026-02-12T17:18:18.947Z","date":"2026-02-12","time":"17:18:18"},{"task":"memory_phase","broad_category":"I","image_png":"I_Andesite_04.png","image_id":4,"category_name":"Andesite","category":1,"distinct_rating":3.18,"distinct_type":"Bottom","rt":null,"stimulus":"Stimuli_Rocks480/I_Andesite_04.png","response":null,"trial_type":"image-keyboard-response","trial_index":26,"plugin_version":"2.1.0","time_elapsed":54790,"subject_id":"92208","group":"Group2","condition":"3_Rep","full_date":"2026-02-12T17:18:18.947Z","date":"2026-02-12","time":"17:18:18"},{"rt":null,"stimulus":"<p style=\"font-size: 50px; margin: 0; text-align: center;\">+</p>","response":null,"trial_type":"html-keyboard-response","trial_index":27,"plugin_version":"2.1.0","time_elapsed":55792,"subject_id":"92208","group":"Group2","condition":"3_Rep","full_date":"2026-02-12T17:18:18.947Z","date":"2026-02-12","time":"17:18:18"},{"task":"memory_phase","broad_category":"M","image_png":"M_Marble_03.png","image_id":227,"category_name":"Marble","category":15,"distinct_rating":2.67,"distinct_type":"Bottom","rt":null,"stimulus":"Stimuli_Rocks480/M_Marble_03.png","response":null,"trial_type":"image-keyboard-response","trial_index":28,"plugin_version":"2.1.0","time_elapsed":58296,"subject_id":"92208","group":"Group2","condition":"3_Rep","full_date":"2026-02-12T17:18:18.947Z","date":"2026-02-12","time":"17:18:18"},{"rt":null,"stimulus":"<p style=\"font-size: 50px; margin: 0; text-align: center;\">+</p>","response":null,"trial_type":"html-keyboard-response","trial_index":29,"plugin_version":"2.1.0","time_elapsed":59298,"subject_id":"92208","group":"Group2","condition":"3_Rep","full_date":"2026-02-12T17:18:18.947Z","date":"2026-02-12","time":"17:18:18"},{"task":"memory_phase","broad_category":"M","image_png":"M_Phyllite_02.png","image_id":258,"category_name":"Phyllite","category":17,"distinct_rating":2.89,"distinct_type":"Bottom","rt":null,"stimulus":"Stimuli_Rocks480/M_Phyllite_02.png","response":null,"trial_type":"image-keyboard-response","trial_index":30,"plugin_version":"2.1.0","time_elapsed":61801,"subject_id":"92208","group":"Group2","condition":"3_Rep","full_date":"2026-02-12T17:18:18.947Z","date":"2026-02-12","time":"17:18:18"},{"rt":null,"stimulus":"<p style=\"font-size: 50px; margin: 0; text-align: center;\">+</p>","response":null,"trial_type":"html-keyboard-response","trial_index":31,"plugin_version":"2.1.0","time_elapsed":62804,"subject_id":"92208","group":"Group2","condition":"3_Rep","full_date":"2026-02-12T17:18:18.947Z","date":"2026-02-12","time":"17:18:18"},{"task":"memory_phase","broad_category":"M","image_png":"M_Marble_02.png","image_id":226,"category_name":"Marble","category":15,"distinct_rating":3.2,"distinct_type":"Bottom","rt":null,"stimulus":"Stimuli_Rocks480/M_Marble_02.png","response":null,"trial_type":"image-keyboard-response","trial_index":32,"plugin_version":"2.1.0","time_elapsed":65307,"subject_id":"92208","group":"Group2","condition":"3_Rep","full_date":"2026-02-12T17:18:18.947Z","date":"2026-02-12","time":"17:18:18"},{"rt":null,"stimulus":"<p style=\"font-size: 50px; margin: 0; text-align: center;\">+</p>","response":null,"trial_type":"html-keyboard-response","trial_index":33,"plugin_version":"2.1.0","time_elapsed":66309,"subject_id":"92208","group":"Group2","condition":"3_Rep","full_date":"2026-02-12T17:18:18.947Z","date":"2026-02-12","time":"17:18:18"},{"task":"memory_phase","broad_category":"S","image_png":"S_Sandstone_08.png","image_id":456,"category_name":"Sandstone","category":29,"distinct_rating":1.5,"distinct_type":"Bottom","rt":null,"stimulus":"Stimuli_Rocks480/S_Sandstone_08.png","response":null,"trial_type":"image-keyboard-response","trial_index":34,"plugin_version":"2.1.0","time_elapsed":68813,"subject_id":"92208","group":"Group2","condition":"3_Rep","full_date":"2026-02-12T17:18:18.947Z","date":"2026-02-12","time":"17:18:18"},{"rt":null,"stimulus":"<p style=\"font-size: 50px; margin: 0; text-align: center;\">+</p>","response":null,"trial_type":"html-keyboard-response","trial_index":35,"plugin_version":"2.1.0","time_elapsed":69816,"subject_id":"92208","group":"Group2","condition":"3_Rep","full_date":"2026-02-12T17:18:18.947Z","date":"2026-02-12","time":"17:18:18"},{"task":"memory_phase","broad_category":"I","image_png":"I_Pumice_14.png","image_id":142,"category_name":"Pumice","category":9,"distinct_rating":3.22,"distinct_type":"Bottom","rt":null,"stimulus":"Stimuli_Rocks480/I_Pumice_14.png","response":null,"trial_type":"image-keyboard-response","trial_index":36,"plugin_version":"2.1.0","time_elapsed":72319,"subject_id":"92208","group":"Group2","condition":"3_Rep","full_date":"2026-02-12T17:18:18.947Z","date":"2026-02-12","time":"17:18:18"},{"rt":null,"stimulus":"<p style=\"font-size: 50px; margin: 0; text-align: center;\">+</p>","response":null,"trial_type":"html-keyboard-response","trial_index":37,"plugin_version":"2.1.0","time_elapsed":73321,"subject_id":"92208","group":"Group2","condition":"3_Rep","full_date":"2026-02-12T17:18:18.947Z","date":"2026-02-12","time":"17:18:18"},{"task":"memory_phase","broad_category":"M","image_png":"M_Slate_04.png","image_id":308,"category_name":"Slate","category":20,"distinct_rating":2.2,"distinct_type":"Bottom","rt":null,"stimulus":"Stimuli_Rocks480/M_Slate_04.png","response":null,"trial_type":"image-keyboard-response","trial_index":38,"plugin_version":"2.1.0","time_elapsed":75825,"subject_id":"92208","group":"Group2","condition":"3_Rep","full_date":"2026-02-12T17:18:18.947Z","date":"2026-02-12","time":"17:18:18"},{"rt":null,"stimulus":"<p style=\"font-size: 50px; margin: 0; text-align: center;\">+</p>","response":null,"trial_type":"html-keyboard-response","trial_index":39,"plugin_version":"2.1.0","time_elapsed":76827,"subject_id":"92208","group":"Group2","condition":"3_Rep","full_date":"2026-02-12T17:18:18.947Z","date":"2026-02-12","time":"17:18:18"},{"task":"memory_phase","broad_category":"I","image_png":"I_Gabbro_02.png","image_id":50,"category_name":"Gabbro","category":4,"distinct_rating":2.73,"distinct_type":"Bottom","rt":null,"stimulus":"Stimuli_Rocks480/I_Gabbro_02.png","response":null,"trial_type":"image-keyboard-response","trial_index":40,"plugin_version":"2.1.0","time_elapsed":79330,"subject_id":"92208","group":"Group2","condition":"3_Rep","full_date":"2026-02-12T17:18:18.947Z","date":"2026-02-12","time":"17:18:18"},{"rt":null,"stimulus":"<p style=\"font-size: 50px; margin: 0; text-align: center;\">+</p>","response":null,"trial_type":"html-keyboard-response","trial_index":41,"plugin_version":"2.1.0","time_elapsed":80333,"subject_id":"92208","group":"Group2","condition":"3_Rep","full_date":"2026-02-12T17:18:18.947Z","date":"2026-02-12","time":"17:18:18"},{"task":"memory_phase","broad_category":"I","image_png":"I_Pumice_13.png","image_id":141,"category_name":"Pumice","category":9,"distinct_rating":3.12,"distinct_type":"Bottom","rt":null,"stimulus":"Stimuli_Rocks480/I_Pumice_13.png","response":null,"trial_type":"image-keyboard-response","trial_index":42,"plugin_version":"2.1.0","time_elapsed":82836,"subject_id":"92208","group":"Group2","condition":"3_Rep","full_date":"2026-02-12T17:18:18.947Z","date":"2026-02-12","time":"17:18:18"},{"rt":null,"stimulus":"<p style=\"font-size: 50px; margin: 0; text-align: center;\">+</p>","response":null,"trial_type":"html-keyboard-response","trial_index":43,"plugin_version":"2.1.0","time_elapsed":83839,"subject_id":"92208","group":"Group2","condition":"3_Rep","full_date":"2026-02-12T17:18:18.947Z","date":"2026-02-12","time":"17:18:18"},{"task":"memory_phase","broad_category":"M","image_png":"M_Gneiss_14.png","image_id":206,"category_name":"Gneiss","category":13,"distinct_rating":3.41,"distinct_type":"Bottom","rt":null,"stimulus":"Stimuli_Rocks480/M_Gneiss_14.png","response":null,"trial_type":"image-keyboard-response","trial_index":44,"plugin_version":"2.1.0","time_elapsed":86342,"subject_id":"92208","group":"Group2","condition":"3_Rep","full_date":"2026-02-12T17:18:18.947Z","date":"2026-02-12","time":"17:18:18"},{"rt":null,"stimulus":"<p style=\"font-size: 50px; margin: 0; text-align: center;\">+</p>","response":null,"trial_type":"html-keyboard-response","trial_index":45,"plugin_version":"2.1.0","time_elapsed":87343,"subject_id":"92208","group":"Group2","condition":"3_Rep","full_date":"2026-02-12T17:18:18.947Z","date":"2026-02-12","time":"17:18:18"},{"task":"memory_phase","broad_category":"S","image_png":"S_Rock Salt_13.png","image_id":445,"category_name":"Rock Salt","category":28,"distinct_rating":7.58,"distinct_type":"Top","rt":null,"stimulus":"Stimuli_Rocks480/S_Rock Salt_13.png","response":null,"trial_type":"image-keyboard-response","trial_index":46,"plugin_version":"2.1.0","time_elapsed":89847,"subject_id":"92208","group":"Group2","condition":"3_Rep","full_date":"2026-02-12T17:18:18.947Z","date":"2026-02-12","time":"17:18:18"},{"rt":null,"stimulus":"<p style=\"font-size: 50px; margin: 0; text-align: center;\">+</p>","response":null,"trial_type":"html-keyboard-response","trial_index":47,"plugin_version":"2.1.0","time_elapsed":90850,"subject_id":"92208","group":"Group2","condition":"3_Rep","full_date":"2026-02-12T17:18:18.947Z","date":"2026-02-12","time":"17:18:18"},{"task":"memory_phase","broad_category":"S","image_png":"S_Dolomite_01.png","image_id":385,"category_name":"Dolomite","category":25,"distinct_rating":1.43,"distinct_type":"Bottom","rt":null,"stimulus":"Stimuli_Rocks480/S_Dolomite_01.png","response":null,"trial_type":"image-keyboard-response","trial_index":48,"plugin_version":"2.1.0","time_elapsed":93352,"subject_id":"92208","group":"Group2","condition":"3_Rep","full_date":"2026-02-12T17:18:18.947Z","date":"2026-02-12","time":"17:18:18"},{"rt":null,"stimulus":"<p style=\"font-size: 50px; margin: 0; text-align: center;\">+</p>","response":null,"trial_type":"html-keyboard-response","trial_index":49,"plugin_version":"2.1.0","time_elapsed":94355,"subject_id":"92208","group":"Group2","condition":"3_Rep","full_date":"2026-02-12T17:18:18.947Z","date":"2026-02-12","time":"17:18:18"},{"task":"memory_phase","broad_category":"I","image_png":"I_Gabbro_12.png","image_id":60,"category_name":"Gabbro","category":4,"distinct_rating":2.6,"distinct_type":"Bottom","rt":null,"stimulus":"Stimuli_Rocks480/I_Gabbro_12.png","response":null,"trial_type":"image-keyboard-response","trial_index":50,"plugin_version":"2.1.0","time_elapsed":96858,"subject_id":"92208","group":"Group2","condition":"3_Rep","full_date":"2026-02-12T17:18:18.947Z","date":"2026-02-12","time":"17:18:18"},{"rt":null,"stimulus":"<p style=\"font-size: 50px; margin: 0; text-align: center;\">+</p>","response":null,"trial_type":"html-keyboard-response","trial_index":51,"plugin_version":"2.1.0","time_elapsed":97861,"subject_id":"92208","group":"Group2","condition":"3_Rep","full_date":"2026-02-12T17:18:18.947Z","date":"2026-02-12","time":"17:18:18"},{"task":"memory_phase","broad_category":"I","image_png":"I_Diorite_10.png","image_id":42,"category_name":"Diorite","category":3,"distinct_rating":2.84,"distinct_type":"Bottom","rt":null,"stimulus":"Stimuli_Rocks480/I_Diorite_10.png","response":null,"trial_type":"image-keyboard-response","trial_index":52,"plugin_version":"2.1.0","time_elapsed":100365,"subject_id":"92208","group":"Group2","condition":"3_Rep","full_date":"2026-02-12T17:18:18.947Z","date":"2026-02-12","time":"17:18:18"},{"rt":null,"stimulus":"<p style=\"font-size: 50px; margin: 0; text-align: center;\">+</p>","response":null,"trial_type":"html-keyboard-response","trial_index":53,"plugin_version":"2.1.0","time_elapsed":101367,"subject_id":"92208","group":"Group2","condition":"3_Rep","full_date":"2026-02-12T17:18:18.947Z","date":"2026-02-12","time":"17:18:18"},{"task":"memory_phase","broad_category":"S","image_png":"S_Dolomite_07.png","image_id":391,"category_name":"Dolomite","category":25,"distinct_rating":1.73,"distinct_type":"Bottom","rt":null,"stimulus":"Stimuli_Rocks480/S_Dolomite_07.png","response":null,"trial_type":"image-keyboard-response","trial_index":54,"plugin_version":"2.1.0","time_elapsed":103870,"subject_id":"92208","group":"Group2","condition":"3_Rep","full_date":"2026-02-12T17:18:18.947Z","date":"2026-02-12","time":"17:18:18"},{"rt":3611,"stimulus":"<p style=\"max-width: 760px; margin: auto; font-size: 35px; line-height: 1.5;\">\n                Press SPACE to continue study phase\n              </p>","response":" ","trial_type":"html-keyboard-response","trial_index":55,"plugin_version":"2.1.0","time_elapsed":107483,"subject_id":"92208","group":"Group2","condition":"3_Rep","full_date":"2026-02-12T17:18:18.947Z","date":"2026-02-12","time":"17:18:18"},{"rt":null,"stimulus":"<p style=\"font-size: 50px; margin: 0; text-align: center;\">+</p>","response":null,"trial_type":"html-keyboard-response","trial_index":56,"plugin_version":"2.1.0","time_elapsed":108486,"subject_id":"92208","group":"Group2","condition":"3_Rep","full_date":"2026-02-12T17:18:18.947Z","date":"2026-02-12","time":"17:18:18"},{"task":"memory_phase","broad_category":"I","image_png":"I_Andesite_09.png","image_id":9,"category_name":"Andesite","category":1,"distinct_rating":2.49,"distinct_type":"Bottom","rt":null,"stimulus":"Stimuli_Rocks480/I_Andesite_09.png","response":null,"trial_type":"image-keyboard-response","trial_index":57,"plugin_version":"2.1.0","time_elapsed":110989,"subject_id":"92208","group":"Group2","condition":"3_Rep","full_date":"2026-02-12T17:18:18.947Z","date":"2026-02-12","time":"17:18:18"},{"rt":null,"stimulus":"<p style=\"font-size: 50px; margin: 0; text-align: center;\">+</p>","response":null,"trial_type":"html-keyboard-response","trial_index":58,"plugin_version":"2.1.0","time_elapsed":111992,"subject_id":"92208","group":"Group2","condition":"3_Rep","full_date":"2026-02-12T17:18:18.947Z","date":"2026-02-12","time":"17:18:18"},{"task":"memory_phase","broad_category":"M","image_png":"M_Quartzite_15.png","image_id":287,"category_name":"Quartzite","category":18,"distinct_rating":2.19,"distinct_type":"Bottom","rt":null,"stimulus":"Stimuli_Rocks480/M_Quartzite_15.png","response":null,"trial_type":"image-keyboard-response","trial_index":59,"plugin_version":"2.1.0","time_elapsed":114495,"subject_id":"92208","group":"Group2","condition":"3_Rep","full_date":"2026-02-12T17:18:18.947Z","date":"2026-02-12","time":"17:18:18"},{"rt":null,"stimulus":"<p style=\"font-size: 50px; margin: 0; text-align: center;\">+</p>","response":null,"trial_type":"html-keyboard-response","trial_index":60,"plugin_version":"2.1.0","time_elapsed":115498,"subject_id":"92208","group":"Group2","condition":"3_Rep","full_date":"2026-02-12T17:18:18.947Z","date":"2026-02-12","time":"17:18:18"},{"task":"memory_phase","broad_category":"M","image_png":"M_Phyllite_13.png","image_id":269,"category_name":"Phyllite","category":17,"distinct_rating":2.8,"distinct_type":"Bottom","rt":null,"stimulus":"Stimuli_Rocks480/M_Phyllite_13.png","response":null,"trial_type":"image-keyboard-response","trial_index":61,"plugin_version":"2.1.0","time_elapsed":118001,"subject_id":"92208","group":"Group2","condition":"3_Rep","full_date":"2026-02-12T17:18:18.947Z","date":"2026-02-12","time":"17:18:18"},{"rt":null,"stimulus":"<p style=\"font-size: 50px; margin: 0; text-align: center;\">+</p>","response":null,"trial_type":"html-keyboard-response","trial_index":62,"plugin_version":"2.1.0","time_elapsed":119004,"subject_id":"92208","group":"Group2","condition":"3_Rep","full_date":"2026-02-12T17:18:18.947Z","date":"2026-02-12","time":"17:18:18"},{"task":"memory_phase","broad_category":"I","image_png":"I_Rhyolite_08.png","image_id":152,"category_name":"Rhyolite","category":10,"distinct_rating":1.38,"distinct_type":"Bottom","rt":null,"stimulus":"Stimuli_Rocks480/I_Rhyolite_08.png","response":null,"trial_type":"image-keyboard-response","trial_index":63,"plugin_version":"2.1.0","time_elapsed":121512,"subject_id":"92208","group":"Group2","condition":"3_Rep","full_date":"2026-02-12T17:18:18.947Z","date":"2026-02-12","time":"17:18:18"},{"rt":null,"stimulus":"<p style=\"font-size: 50px; margin: 0; text-align: center;\">+</p>","response":null,"trial_type":"html-keyboard-response","trial_index":64,"plugin_version":"2.1.0","time_elapsed":122514,"subject_id":"92208","group":"Group2","condition":"3_Rep","full_date":"2026-02-12T17:18:18.947Z","date":"2026-02-12","time":"17:18:18"},{"task":"memory_phase","broad_category":"S","image_png":"S_Sandstone_11.png","image_id":459,"category_name":"Sandstone","category":29,"distinct_rating":1.82,"distinct_type":"Bottom","rt":null,"stimulus":"Stimuli_Rocks480/S_Sandstone_11.png","response":null,"trial_type":"image-keyboard-response","trial_index":65,"plugin_version":"2.1.0","time_elapsed":125017,"subject_id":"92208","group":"Group2","condition":"3_Rep","full_date":"2026-02-12T17:18:18.947Z","date":"2026-02-12","time":"17:18:18"},{"rt":null,"stimulus":"<p style=\"font-size: 50px; margin: 0; text-align: center;\">+</p>","response":null,"trial_type":"html-keyboard-response","trial_index":66,"plugin_version":"2.1.0","time_elapsed":126019,"subject_id":"92208","group":"Group2","condition":"3_Rep","full_date":"2026-02-12T17:18:18.947Z","date":"2026-02-12","time":"17:18:18"},{"task":"memory_phase","broad_category":"I","image_png":"I_Basalt_13.png","image_id":29,"category_name":"Basalt","category":2,"distinct_rating":2.68,"distinct_type":"Bottom","rt":null,"stimulus":"Stimuli_Rocks480/I_Basalt_13.png","response":null,"trial_type":"image-keyboard-response","trial_index":67,"plugin_version":"2.1.0","time_elapsed":128523,"subject_id":"92208","group":"Group2","condition":"3_Rep","full_date":"2026-02-12T17:18:18.947Z","date":"2026-02-12","time":"17:18:18"},{"rt":null,"stimulus":"<p style=\"font-size: 50px; margin: 0; text-align: center;\">+</p>","response":null,"trial_type":"html-keyboard-response","trial_index":68,"plugin_version":"2.1.0","time_elapsed":129525,"subject_id":"92208","group":"Group2","condition":"3_Rep","full_date":"2026-02-12T17:18:18.947Z","date":"2026-02-12","time":"17:18:18"},{"task":"memory_phase","broad_category":"S","image_png":"S_Shale_07.png","image_id":471,"category_name":"Shale","category":30,"distinct_rating":2.73,"distinct_type":"Bottom","rt":null,"stimulus":"Stimuli_Rocks480/S_Shale_07.png","response":null,"trial_type":"image-keyboard-response","trial_index":69,"plugin_version":"2.1.0","time_elapsed":132028,"subject_id":"92208","group":"Group2","condition":"3_Rep","full_date":"2026-02-12T17:18:18.947Z","date":"2026-02-12","time":"17:18:18"},{"rt":null,"stimulus":"<p style=\"font-size: 50px; margin: 0; text-align: center;\">+</p>","response":null,"trial_type":"html-keyboard-response","trial_index":70,"plugin_version":"2.1.0","time_elapsed":133031,"subject_id":"92208","group":"Group2","condition":"3_Rep","full_date":"2026-02-12T17:18:18.947Z","date":"2026-02-12","time":"17:18:18"},{"task":"memory_phase","broad_category":"I","image_png":"I_Pegmatite_11.png","image_id":107,"category_name":"Pegmatite","category":7,"distinct_rating":7.11,"distinct_type":"Top","rt":null,"stimulus":"Stimuli_Rocks480/I_Pegmatite_11.png","response":null,"trial_type":"image-keyboard-response","trial_index":71,"plugin_version":"2.1.0","time_elapsed":135534,"subject_id":"92208","group":"Group2","condition":"3_Rep","full_date":"2026-02-12T17:18:18.947Z","date":"2026-02-12","time":"17:18:18"},{"rt":null,"stimulus":"<p style=\"font-size: 50px; margin: 0; text-align: center;\">+</p>","response":null,"trial_type":"html-keyboard-response","trial_index":72,"plugin_version":"2.1.0","time_elapsed":136536,"subject_id":"92208","group":"Group2","condition":"3_Rep","full_date":"2026-02-12T17:18:18.947Z","date":"2026-02-12","time":"17:18:18"},{"task":"memory_phase","broad_category":"S","image_png":"S_Dolomite_16.png","image_id":400,"category_name":"Dolomite","category":25,"distinct_rating":1.71,"distinct_type":"Bottom","rt":null,"stimulus":"Stimuli_Rocks480/S_Dolomite_16.png","response":null,"trial_type":"image-keyboard-response","trial_index":73,"plugin_version":"2.1.0","time_elapsed":139039,"subject_id":"92208","group":"Group2","condition":"3_Rep","full_date":"2026-02-12T17:18:18.947Z","date":"2026-02-12","time":"17:18:18"},{"rt":null,"stimulus":"<p style=\"font-size: 50px; margin: 0; text-align: center;\">+</p>","response":null,"trial_type":"html-keyboard-response","trial_index":74,"plugin_version":"2.1.0","time_elapsed":140041,"subject_id":"92208","group":"Group2","condition":"3_Rep","full_date":"2026-02-12T17:18:18.947Z","date":"2026-02-12","time":"17:18:18"},{"task":"memory_phase","broad_category":"I","image_png":"I_Pumice_01.png","image_id":129,"category_name":"Pumice","category":9,"distinct_rating":3.25,"distinct_type":"Bottom","rt":null,"stimulus":"Stimuli_Rocks480/I_Pumice_01.png","response":null,"trial_type":"image-keyboard-response","trial_index":75,"plugin_version":"2.1.0","time_elapsed":142544,"subject_id":"92208","group":"Group2","condition":"3_Rep","full_date":"2026-02-12T17:18:18.947Z","date":"2026-02-12","time":"17:18:18"},{"rt":null,"stimulus":"<p style=\"font-size: 50px; margin: 0; text-align: center;\">+</p>","response":null,"trial_type":"html-keyboard-response","trial_index":76,"plugin_version":"2.1.0","time_elapsed":143547,"subject_id":"92208","group":"Group2","condition":"3_Rep","full_date":"2026-02-12T17:18:18.947Z","date":"2026-02-12","time":"17:18:18"},{"task":"memory_phase","broad_category":"S","image_png":"S_Conglomerate_14.png","image_id":382,"category_name":"Conglomerate","category":24,"distinct_rating":6.86,"distinct_type":"Top","rt":null,"stimulus":"Stimuli_Rocks480/S_Conglomerate_14.png","response":null,"trial_type":"image-keyboard-response","trial_index":77,"plugin_version":"2.1.0","time_elapsed":146050,"subject_id":"92208","group":"Group2","condition":"3_Rep","full_date":"2026-02-12T17:18:18.947Z","date":"2026-02-12","time":"17:18:18"},{"rt":null,"stimulus":"<p style=\"font-size: 50px; margin: 0; text-align: center;\">+</p>","response":null,"trial_type":"html-keyboard-response","trial_index":78,"plugin_version":"2.1.0","time_elapsed":147053,"subject_id":"92208","group":"Group2","condition":"3_Rep","full_date":"2026-02-12T17:18:18.947Z","date":"2026-02-12","time":"17:18:18"},{"task":"memory_phase","broad_category":"S","image_png":"S_Chert_13.png","image_id":365,"category_name":"Chert","category":23,"distinct_rating":6.57,"distinct_type":"Top","rt":null,"stimulus":"Stimuli_Rocks480/S_Chert_13.png","response":null,"trial_type":"image-keyboard-response","trial_index":79,"plugin_version":"2.1.0","time_elapsed":149556,"subject_id":"92208","group":"Group2","condition":"3_Rep","full_date":"2026-02-12T17:18:18.947Z","date":"2026-02-12","time":"17:18:18"},{"rt":null,"stimulus":"<p style=\"font-size: 50px; margin: 0; text-align: center;\">+</p>","response":null,"trial_type":"html-keyboard-response","trial_index":80,"plugin_version":"2.1.0","time_elapsed":150558,"subject_id":"92208","group":"Group2","condition":"3_Rep","full_date":"2026-02-12T17:18:18.947Z","date":"2026-02-12","time":"17:18:18"},{"task":"memory_phase","broad_category":"I","image_png":"I_Gabbro_14.png","image_id":62,"category_name":"Gabbro","category":4,"distinct_rating":2.95,"distinct_type":"Bottom","rt":null,"stimulus":"Stimuli_Rocks480/I_Gabbro_14.png","response":null,"trial_type":"image-keyboard-response","trial_index":81,"plugin_version":"2.1.0","time_elapsed":153061,"subject_id":"92208","group":"Group2","condition":"3_Rep","full_date":"2026-02-12T17:18:18.947Z","date":"2026-02-12","time":"17:18:18"},{"rt":null,"stimulus":"<p style=\"font-size: 50px; margin: 0; text-align: center;\">+</p>","response":null,"trial_type":"html-keyboard-response","trial_index":82,"plugin_version":"2.1.0","time_elapsed":154063,"subject_id":"92208","group":"Group2","condition":"3_Rep","full_date":"2026-02-12T17:18:18.947Z","date":"2026-02-12","time":"17:18:18"},{"task":"memory_phase","broad_category":"M","image_png":"M_Gneiss_15.png","image_id":207,"category_name":"Gneiss","category":13,"distinct_rating":3.11,"distinct_type":"Bottom","rt":null,"stimulus":"Stimuli_Rocks480/M_Gneiss_15.png","response":null,"trial_type":"image-keyboard-response","trial_index":83,"plugin_version":"2.1.0","time_elapsed":156567,"subject_id":"92208","group":"Group2","condition":"3_Rep","full_date":"2026-02-12T17:18:18.947Z","date":"2026-02-12","time":"17:18:18"},{"rt":null,"stimulus":"<p style=\"font-size: 50px; margin: 0; text-align: center;\">+</p>","response":null,"trial_type":"html-keyboard-response","trial_index":84,"plugin_version":"2.1.0","time_elapsed":157569,"subject_id":"92208","group":"Group2","condition":"3_Rep","full_date":"2026-02-12T17:18:18.947Z","date":"2026-02-12","time":"17:18:18"},{"task":"memory_phase","broad_category":"S","image_png":"S_Sandstone_04.png","image_id":452,"category_name":"Sandstone","category":29,"distinct_rating":1.8,"distinct_type":"Bottom","rt":null,"stimulus":"Stimuli_Rocks480/S_Sandstone_04.png","response":null,"trial_type":"image-keyboard-response","trial_index":85,"plugin_version":"2.1.0","time_elapsed":160073,"subject_id":"92208","group":"Group2","condition":"3_Rep","full_date":"2026-02-12T17:18:18.947Z","date":"2026-02-12","time":"17:18:18"},{"rt":null,"stimulus":"<p style=\"font-size: 50px; margin: 0; text-align: center;\">+</p>","response":null,"trial_type":"html-keyboard-response","trial_index":86,"plugin_version":"2.1.0","time_elapsed":161074,"subject_id":"92208","group":"Group2","condition":"3_Rep","full_date":"2026-02-12T17:18:18.947Z","date":"2026-02-12","time":"17:18:18"},{"task":"memory_phase","broad_category":"M","image_png":"M_Quartzite_07.png","image_id":279,"category_name":"Quartzite","category":18,"distinct_rating":1.97,"distinct_type":"Bottom","rt":null,"stimulus":"Stimuli_Rocks480/M_Quartzite_07.png","response":null,"trial_type":"image-keyboard-response","trial_index":87,"plugin_version":"2.1.0","time_elapsed":163577,"subject_id":"92208","group":"Group2","condition":"3_Rep","full_date":"2026-02-12T17:18:18.947Z","date":"2026-02-12","time":"17:18:18"},{"rt":null,"stimulus":"<p style=\"font-size: 50px; margin: 0; text-align: center;\">+</p>","response":null,"trial_type":"html-keyboard-response","trial_index":88,"plugin_version":"2.1.0","time_elapsed":164580,"subject_id":"92208","group":"Group2","condition":"3_Rep","full_date":"2026-02-12T17:18:18.947Z","date":"2026-02-12","time":"17:18:18"},{"task":"memory_phase","broad_category":"M","image_png":"M_Slate_14.png","image_id":318,"category_name":"Slate","category":20,"distinct_rating":2.58,"distinct_type":"Bottom","rt":null,"stimulus":"Stimuli_Rocks480/M_Slate_14.png","response":null,"trial_type":"image-keyboard-response","trial_index":89,"plugin_version":"2.1.0","time_elapsed":167084,"subject_id":"92208","group":"Group2","condition":"3_Rep","full_date":"2026-02-12T17:18:18.947Z","date":"2026-02-12","time":"17:18:18"},{"rt":null,"stimulus":"<p style=\"font-size: 50px; margin: 0; text-align: center;\">+</p>","response":null,"trial_type":"html-keyboard-response","trial_index":90,"plugin_version":"2.1.0","time_elapsed":168086,"subject_id":"92208","group":"Group2","condition":"3_Rep","full_date":"2026-02-12T17:18:18.947Z","date":"2026-02-12","time":"17:18:18"},{"task":"memory_phase","broad_category":"I","image_png":"I_Andesite_03.png","image_id":3,"category_name":"Andesite","category":1,"distinct_rating":3.17,"distinct_type":"Bottom","rt":null,"stimulus":"Stimuli_Rocks480/I_Andesite_03.png","response":null,"trial_type":"image-keyboard-response","trial_index":91,"plugin_version":"2.1.0","time_elapsed":170589,"subject_id":"92208","group":"Group2","condition":"3_Rep","full_date":"2026-02-12T17:18:18.947Z","date":"2026-02-12","time":"17:18:18"},{"rt":null,"stimulus":"<p style=\"font-size: 50px; margin: 0; text-align: center;\">+</p>","response":null,"trial_type":"html-keyboard-response","trial_index":92,"plugin_version":"2.1.0","time_elapsed":171592,"subject_id":"92208","group":"Group2","condition":"3_Rep","full_date":"2026-02-12T17:18:18.947Z","date":"2026-02-12","time":"17:18:18"},{"task":"memory_phase","broad_category":"S","image_png":"S_Shale_03.png","image_id":467,"category_name":"Shale","category":30,"distinct_rating":1.95,"distinct_type":"Bottom","rt":null,"stimulus":"Stimuli_Rocks480/S_Shale_03.png","response":null,"trial_type":"image-keyboard-response","trial_index":93,"plugin_version":"2.1.0","time_elapsed":174095,"subject_id":"92208","group":"Group2","condition":"3_Rep","full_date":"2026-02-12T17:18:18.947Z","date":"2026-02-12","time":"17:18:18"},{"rt":null,"stimulus":"<p style=\"font-size: 50px; margin: 0; text-align: center;\">+</p>","response":null,"trial_type":"html-keyboard-response","trial_index":94,"plugin_version":"2.1.0","time_elapsed":175098,"subject_id":"92208","group":"Group2","condition":"3_Rep","full_date":"2026-02-12T17:18:18.947Z","date":"2026-02-12","time":"17:18:18"},{"task":"memory_phase","broad_category":"I","image_png":"I_Peridotite_13.png","image_id":125,"category_name":"Peridotite","category":8,"distinct_rating":7.28,"distinct_type":"Top","rt":null,"stimulus":"Stimuli_Rocks480/I_Peridotite_13.png","response":null,"trial_type":"image-keyboard-response","trial_index":95,"plugin_version":"2.1.0","time_elapsed":177602,"subject_id":"92208","group":"Group2","condition":"3_Rep","full_date":"2026-02-12T17:18:18.947Z","date":"2026-02-12","time":"17:18:18"},{"rt":null,"stimulus":"<p style=\"font-size: 50px; margin: 0; text-align: center;\">+</p>","response":null,"trial_type":"html-keyboard-response","trial_index":96,"plugin_version":"2.1.0","time_elapsed":178604,"subject_id":"92208","group":"Group2","condition":"3_Rep","full_date":"2026-02-12T17:18:18.947Z","date":"2026-02-12","time":"17:18:18"},{"task":"memory_phase","broad_category":"S","image_png":"S_Rock Salt_15.png","image_id":447,"category_name":"Rock Salt","category":28,"distinct_rating":7.79,"distinct_type":"Top","rt":null,"stimulus":"Stimuli_Rocks480/S_Rock Salt_15.png","response":null,"trial_type":"image-keyboard-response","trial_index":97,"plugin_version":"2.1.0","time_elapsed":181107,"subject_id":"92208","group":"Group2","condition":"3_Rep","full_date":"2026-02-12T17:18:18.947Z","date":"2026-02-12","time":"17:18:18"},{"rt":null,"stimulus":"<p style=\"font-size: 50px; margin: 0; text-align: center;\">+</p>","response":null,"trial_type":"html-keyboard-response","trial_index":98,"plugin_version":"2.1.0","time_elapsed":182109,"subject_id":"92208","group":"Group2","condition":"3_Rep","full_date":"2026-02-12T17:18:18.947Z","date":"2026-02-12","time":"17:18:18"},{"task":"memory_phase","broad_category":"I","image_png":"I_Rhyolite_05.png","image_id":149,"category_name":"Rhyolite","category":10,"distinct_rating":3.02,"distinct_type":"Bottom","rt":null,"stimulus":"Stimuli_Rocks480/I_Rhyolite_05.png","response":null,"trial_type":"image-keyboard-response","trial_index":99,"plugin_version":"2.1.0","time_elapsed":184612,"subject_id":"92208","group":"Group2","condition":"3_Rep","full_date":"2026-02-12T17:18:18.947Z","date":"2026-02-12","time":"17:18:18"},{"rt":null,"stimulus":"<p style=\"font-size: 50px; margin: 0; text-align: center;\">+</p>","response":null,"trial_type":"html-keyboard-response","trial_index":100,"plugin_version":"2.1.0","time_elapsed":185614,"subject_id":"92208","group":"Group2","condition":"3_Rep","full_date":"2026-02-12T17:18:18.947Z","date":"2026-02-12","time":"17:18:18"},{"task":"memory_phase","broad_category":"I","image_png":"I_Diorite_15.png","image_id":47,"category_name":"Diorite","category":3,"distinct_rating":3.05,"distinct_type":"Bottom","rt":null,"stimulus":"Stimuli_Rocks480/I_Diorite_15.png","response":null,"trial_type":"image-keyboard-response","trial_index":101,"plugin_version":"2.1.0","time_elapsed":188118,"subject_id":"92208","group":"Group2","condition":"3_Rep","full_date":"2026-02-12T17:18:18.947Z","date":"2026-02-12","time":"17:18:18"},{"rt":null,"stimulus":"<p style=\"font-size: 50px; margin: 0; text-align: center;\">+</p>","response":null,"trial_type":"html-keyboard-response","trial_index":102,"plugin_version":"2.1.0","time_elapsed":189121,"subject_id":"92208","group":"Group2","condition":"3_Rep","full_date":"2026-02-12T17:18:18.947Z","date":"2026-02-12","time":"17:18:18"},{"task":"memory_phase","broad_category":"I","image_png":"I_Rhyolite_10.png","image_id":154,"category_name":"Rhyolite","category":10,"distinct_rating":2.88,"distinct_type":"Bottom","rt":null,"stimulus":"Stimuli_Rocks480/I_Rhyolite_10.png","response":null,"trial_type":"image-keyboard-response","trial_index":103,"plugin_version":"2.1.0","time_elapsed":191625,"subject_id":"92208","group":"Group2","condition":"3_Rep","full_date":"2026-02-12T17:18:18.947Z","date":"2026-02-12","time":"17:18:18"},{"rt":null,"stimulus":"<p style=\"font-size: 50px; margin: 0; text-align: center;\">+</p>","response":null,"trial_type":"html-keyboard-response","trial_index":104,"plugin_version":"2.1.0","time_elapsed":192627,"subject_id":"92208","group":"Group2","condition":"3_Rep","full_date":"2026-02-12T17:18:18.947Z","date":"2026-02-12","time":"17:18:18"},{"task":"memory_phase","broad_category":"M","image_png":"M_Phyllite_05.png","image_id":261,"category_name":"Phyllite","category":17,"distinct_rating":2.14,"distinct_type":"Bottom","rt":null,"stimulus":"Stimuli_Rocks480/M_Phyllite_05.png","response":null,"trial_type":"image-keyboard-response","trial_index":105,"plugin_version":"2.1.0","time_elapsed":195131,"subject_id":"92208","group":"Group2","condition":"3_Rep","full_date":"2026-02-12T17:18:18.947Z","date":"2026-02-12","time":"17:18:18"},{"rt":1368,"stimulus":"<p style=\"max-width: 760px; margin: auto; font-size: 35px; line-height: 1.5;\">\n                You have completed 1 study phase. \n                Now, we'll show you all the images again 2 more times.\n                <br><br>Press SPACE to continue\n              </p>","response":" ","trial_type":"html-keyboard-response","trial_index":106,"plugin_version":"2.1.0","time_elapsed":196500,"subject_id":"92208","group":"Group2","condition":"3_Rep","full_date":"2026-02-12T17:18:18.947Z","date":"2026-02-12","time":"17:18:18"},{"rt":null,"stimulus":"<p style=\"font-size: 50px; margin: 0; text-align: center;\">+</p>","response":null,"trial_type":"html-keyboard-response","trial_index":107,"plugin_version":"2.1.0","time_elapsed":197502,"subject_id":"92208","group":"Group2","condition":"3_Rep","full_date":"2026-02-12T17:18:18.947Z","date":"2026-02-12","time":"17:18:18"},{"task":"memory_phase","broad_category":"I","image_png":"I_Rhyolite_05.png","image_id":149,"category_name":"Rhyolite","category":10,"distinct_rating":3.02,"distinct_type":"Bottom","rt":null,"stimulus":"Stimuli_Rocks480/I_Rhyolite_05.png","response":null,"trial_type":"image-keyboard-response","trial_index":108,"plugin_version":"2.1.0","time_elapsed":200005,"subject_id":"92208","group":"Group2","condition":"3_Rep","full_date":"2026-02-12T17:18:18.947Z","date":"2026-02-12","time":"17:18:18"},{"rt":null,"stimulus":"<p style=\"font-size: 50px; margin: 0; text-align: center;\">+</p>","response":null,"trial_type":"html-keyboard-response","trial_index":109,"plugin_version":"2.1.0","time_elapsed":201008,"subject_id":"92208","group":"Group2","condition":"3_Rep","full_date":"2026-02-12T17:18:18.947Z","date":"2026-02-12","time":"17:18:18"},{"task":"memory_phase","broad_category":"M","image_png":"M_Phyllite_02.png","image_id":258,"category_name":"Phyllite","category":17,"distinct_rating":2.89,"distinct_type":"Bottom","rt":null,"stimulus":"Stimuli_Rocks480/M_Phyllite_02.png","response":null,"trial_type":"image-keyboard-response","trial_index":110,"plugin_version":"2.1.0","time_elapsed":203511,"subject_id":"92208","group":"Group2","condition":"3_Rep","full_date":"2026-02-12T17:18:18.947Z","date":"2026-02-12","time":"17:18:18"},{"rt":null,"stimulus":"<p style=\"font-size: 50px; margin: 0; text-align: center;\">+</p>","response":null,"trial_type":"html-keyboard-response","trial_index":111,"plugin_version":"2.1.0","time_elapsed":204514,"subject_id":"92208","group":"Group2","condition":"3_Rep","full_date":"2026-02-12T17:18:18.947Z","date":"2026-02-12","time":"17:18:18"},{"task":"memory_phase","broad_category":"S","image_png":"S_Dolomite_07.png","image_id":391,"category_name":"Dolomite","category":25,"distinct_rating":1.73,"distinct_type":"Bottom","rt":null,"stimulus":"Stimuli_Rocks480/S_Dolomite_07.png","response":null,"trial_type":"image-keyboard-response","trial_index":112,"plugin_version":"2.1.0","time_elapsed":207017,"subject_id":"92208","group":"Group2","condition":"3_Rep","full_date":"2026-02-12T17:18:18.947Z","date":"2026-02-12","time":"17:18:18"},{"rt":null,"stimulus":"<p style=\"font-size: 50px; margin: 0; text-align: center;\">+</p>","response":null,"trial_type":"html-keyboard-response","trial_index":113,"plugin_version":"2.1.0","time_elapsed":208020,"subject_id":"92208","group":"Group2","condition":"3_Rep","full_date":"2026-02-12T17:18:18.947Z","date":"2026-02-12","time":"17:18:18"},{"task":"memory_phase","broad_category":"S","image_png":"S_Sandstone_08.png","image_id":456,"category_name":"Sandstone","category":29,"distinct_rating":1.5,"distinct_type":"Bottom","rt":null,"stimulus":"Stimuli_Rocks480/S_Sandstone_08.png","response":null,"trial_type":"image-keyboard-response","trial_index":114,"plugin_version":"2.1.0","time_elapsed":210523,"subject_id":"92208","group":"Group2","condition":"3_Rep","full_date":"2026-02-12T17:18:18.947Z","date":"2026-02-12","time":"17:18:18"},{"rt":null,"stimulus":"<p style=\"font-size: 50px; margin: 0; text-align: center;\">+</p>","response":null,"trial_type":"html-keyboard-response","trial_index":115,"plugin_version":"2.1.0","time_elapsed":211526,"subject_id":"92208","group":"Group2","condition":"3_Rep","full_date":"2026-02-12T17:18:18.947Z","date":"2026-02-12","time":"17:18:18"},{"task":"memory_phase","broad_category":"I","image_png":"I_Gabbro_02.png","image_id":50,"category_name":"Gabbro","category":4,"distinct_rating":2.73,"distinct_type":"Bottom","rt":null,"stimulus":"Stimuli_Rocks480/I_Gabbro_02.png","response":null,"trial_type":"image-keyboard-response","trial_index":116,"plugin_version":"2.1.0","time_elapsed":214029,"subject_id":"92208","group":"Group2","condition":"3_Rep","full_date":"2026-02-12T17:18:18.947Z","date":"2026-02-12","time":"17:18:18"},{"rt":null,"stimulus":"<p style=\"font-size: 50px; margin: 0; text-align: center;\">+</p>","response":null,"trial_type":"html-keyboard-response","trial_index":117,"plugin_version":"2.1.0","time_elapsed":215031,"subject_id":"92208","group":"Group2","condition":"3_Rep","full_date":"2026-02-12T17:18:18.947Z","date":"2026-02-12","time":"17:18:18"},{"task":"memory_phase","broad_category":"I","image_png":"I_Diorite_10.png","image_id":42,"category_name":"Diorite","category":3,"distinct_rating":2.84,"distinct_type":"Bottom","rt":null,"stimulus":"Stimuli_Rocks480/I_Diorite_10.png","response":null,"trial_type":"image-keyboard-response","trial_index":118,"plugin_version":"2.1.0","time_elapsed":217534,"subject_id":"92208","group":"Group2","condition":"3_Rep","full_date":"2026-02-12T17:18:18.947Z","date":"2026-02-12","time":"17:18:18"},{"rt":null,"stimulus":"<p style=\"font-size: 50px; margin: 0; text-align: center;\">+</p>","response":null,"trial_type":"html-keyboard-response","trial_index":119,"plugin_version":"2.1.0","time_elapsed":218537,"subject_id":"92208","group":"Group2","condition":"3_Rep","full_date":"2026-02-12T17:18:18.947Z","date":"2026-02-12","time":"17:18:18"},{"task":"memory_phase","broad_category":"S","image_png":"S_Shale_07.png","image_id":471,"category_name":"Shale","category":30,"distinct_rating":2.73,"distinct_type":"Bottom","rt":null,"stimulus":"Stimuli_Rocks480/S_Shale_07.png","response":null,"trial_type":"image-keyboard-response","trial_index":120,"plugin_version":"2.1.0","time_elapsed":221040,"subject_id":"92208","group":"Group2","condition":"3_Rep","full_date":"2026-02-12T17:18:18.947Z","date":"2026-02-12","time":"17:18:18"},{"rt":null,"stimulus":"<p style=\"font-size: 50px; margin: 0; text-align: center;\">+</p>","response":null,"trial_type":"html-keyboard-response","trial_index":121,"plugin_version":"2.1.0","time_elapsed":222042,"subject_id":"92208","group":"Group2","condition":"3_Rep","full_date":"2026-02-12T17:18:18.947Z","date":"2026-02-12","time":"17:18:18"},{"task":"memory_phase","broad_category":"I","image_png":"I_Pegmatite_11.png","image_id":107,"category_name":"Pegmatite","category":7,"distinct_rating":7.11,"distinct_type":"Top","rt":null,"stimulus":"Stimuli_Rocks480/I_Pegmatite_11.png","response":null,"trial_type":"image-keyboard-response","trial_index":122,"plugin_version":"2.1.0","time_elapsed":224545,"subject_id":"92208","group":"Group2","condition":"3_Rep","full_date":"2026-02-12T17:18:18.947Z","date":"2026-02-12","time":"17:18:18"},{"rt":null,"stimulus":"<p style=\"font-size: 50px; margin: 0; text-align: center;\">+</p>","response":null,"trial_type":"html-keyboard-response","trial_index":123,"plugin_version":"2.1.0","time_elapsed":225548,"subject_id":"92208","group":"Group2","condition":"3_Rep","full_date":"2026-02-12T17:18:18.947Z","date":"2026-02-12","time":"17:18:18"},{"task":"memory_phase","broad_category":"I","image_png":"I_Pumice_13.png","image_id":141,"category_name":"Pumice","category":9,"distinct_rating":3.12,"distinct_type":"Bottom","rt":null,"stimulus":"Stimuli_Rocks480/I_Pumice_13.png","response":null,"trial_type":"image-keyboard-response","trial_index":124,"plugin_version":"2.1.0","time_elapsed":228051,"subject_id":"92208","group":"Group2","condition":"3_Rep","full_date":"2026-02-12T17:18:18.947Z","date":"2026-02-12","time":"17:18:18"},{"rt":null,"stimulus":"<p style=\"font-size: 50px; margin: 0; text-align: center;\">+</p>","response":null,"trial_type":"html-keyboard-response","trial_index":125,"plugin_version":"2.1.0","time_elapsed":229054,"subject_id":"92208","group":"Group2","condition":"3_Rep","full_date":"2026-02-12T17:18:18.947Z","date":"2026-02-12","time":"17:18:18"},{"task":"memory_phase","broad_category":"M","image_png":"M_Marble_02.png","image_id":226,"category_name":"Marble","category":15,"distinct_rating":3.2,"distinct_type":"Bottom","rt":null,"stimulus":"Stimuli_Rocks480/M_Marble_02.png","response":null,"trial_type":"image-keyboard-response","trial_index":126,"plugin_version":"2.1.0","time_elapsed":231558,"subject_id":"92208","group":"Group2","condition":"3_Rep","full_date":"2026-02-12T17:18:18.947Z","date":"2026-02-12","time":"17:18:18"},{"rt":null,"stimulus":"<p style=\"font-size: 50px; margin: 0; text-align: center;\">+</p>","response":null,"trial_type":"html-keyboard-response","trial_index":127,"plugin_version":"2.1.0","time_elapsed":232560,"subject_id":"92208","group":"Group2","condition":"3_Rep","full_date":"2026-02-12T17:18:18.947Z","date":"2026-02-12","time":"17:18:18"},{"task":"memory_phase","broad_category":"I","image_png":"I_Andesite_09.png","image_id":9,"category_name":"Andesite","category":1,"distinct_rating":2.49,"distinct_type":"Bottom","rt":null,"stimulus":"Stimuli_Rocks480/I_Andesite_09.png","response":null,"trial_type":"image-keyboard-response","trial_index":128,"plugin_version":"2.1.0","time_elapsed":235064,"subject_id":"92208","group":"Group2","condition":"3_Rep","full_date":"2026-02-12T17:18:18.947Z","date":"2026-02-12","time":"17:18:18"},{"rt":null,"stimulus":"<p style=\"font-size: 50px; margin: 0; text-align: center;\">+</p>","response":null,"trial_type":"html-keyboard-response","trial_index":129,"plugin_version":"2.1.0","time_elapsed":236066,"subject_id":"92208","group":"Group2","condition":"3_Rep","full_date":"2026-02-12T17:18:18.947Z","date":"2026-02-12","time":"17:18:18"},{"task":"memory_phase","broad_category":"M","image_png":"M_Marble_03.png","image_id":227,"category_name":"Marble","category":15,"distinct_rating":2.67,"distinct_type":"Bottom","rt":null,"stimulus":"Stimuli_Rocks480/M_Marble_03.png","response":null,"trial_type":"image-keyboard-response","trial_index":130,"plugin_version":"2.1.0","time_elapsed":238569,"subject_id":"92208","group":"Group2","condition":"3_Rep","full_date":"2026-02-12T17:18:18.947Z","date":"2026-02-12","time":"17:18:18"},{"rt":null,"stimulus":"<p style=\"font-size: 50px; margin: 0; text-align: center;\">+</p>","response":null,"trial_type":"html-keyboard-response","trial_index":131,"plugin_version":"2.1.0","time_elapsed":239572,"subject_id":"92208","group":"Group2","condition":"3_Rep","full_date":"2026-02-12T17:18:18.947Z","date":"2026-02-12","time":"17:18:18"},{"task":"memory_phase","broad_category":"M","image_png":"M_Quartzite_07.png","image_id":279,"category_name":"Quartzite","category":18,"distinct_rating":1.97,"distinct_type":"Bottom","rt":null,"stimulus":"Stimuli_Rocks480/M_Quartzite_07.png","response":null,"trial_type":"image-keyboard-response","trial_index":132,"plugin_version":"2.1.0","time_elapsed":242076,"subject_id":"92208","group":"Group2","condition":"3_Rep","full_date":"2026-02-12T17:18:18.947Z","date":"2026-02-12","time":"17:18:18"},{"rt":null,"stimulus":"<p style=\"font-size: 50px; margin: 0; text-align: center;\">+</p>","response":null,"trial_type":"html-keyboard-response","trial_index":133,"plugin_version":"2.1.0","time_elapsed":243079,"subject_id":"92208","group":"Group2","condition":"3_Rep","full_date":"2026-02-12T17:18:18.947Z","date":"2026-02-12","time":"17:18:18"},{"task":"memory_phase","broad_category":"I","image_png":"I_Rhyolite_08.png","image_id":152,"category_name":"Rhyolite","category":10,"distinct_rating":1.38,"distinct_type":"Bottom","rt":null,"stimulus":"Stimuli_Rocks480/I_Rhyolite_08.png","response":null,"trial_type":"image-keyboard-response","trial_index":134,"plugin_version":"2.1.0","time_elapsed":245582,"subject_id":"92208","group":"Group2","condition":"3_Rep","full_date":"2026-02-12T17:18:18.947Z","date":"2026-02-12","time":"17:18:18"},{"rt":null,"stimulus":"<p style=\"font-size: 50px; margin: 0; text-align: center;\">+</p>","response":null,"trial_type":"html-keyboard-response","trial_index":135,"plugin_version":"2.1.0","time_elapsed":246586,"subject_id":"92208","group":"Group2","condition":"3_Rep","full_date":"2026-02-12T17:18:18.947Z","date":"2026-02-12","time":"17:18:18"},{"task":"memory_phase","broad_category":"M","image_png":"M_Phyllite_05.png","image_id":261,"category_name":"Phyllite","category":17,"distinct_rating":2.14,"distinct_type":"Bottom","rt":null,"stimulus":"Stimuli_Rocks480/M_Phyllite_05.png","response":null,"trial_type":"image-keyboard-response","trial_index":136,"plugin_version":"2.1.0","time_elapsed":249089,"subject_id":"92208","group":"Group2","condition":"3_Rep","full_date":"2026-02-12T17:18:18.947Z","date":"2026-02-12","time":"17:18:18"},{"rt":null,"stimulus":"<p style=\"font-size: 50px; margin: 0; text-align: center;\">+</p>","response":null,"trial_type":"html-keyboard-response","trial_index":137,"plugin_version":"2.1.0","time_elapsed":250093,"subject_id":"92208","group":"Group2","condition":"3_Rep","full_date":"2026-02-12T17:18:18.947Z","date":"2026-02-12","time":"17:18:18"},{"task":"memory_phase","broad_category":"I","image_png":"I_Gabbro_12.png","image_id":60,"category_name":"Gabbro","category":4,"distinct_rating":2.6,"distinct_type":"Bottom","rt":null,"stimulus":"Stimuli_Rocks480/I_Gabbro_12.png","response":null,"trial_type":"image-keyboard-response","trial_index":138,"plugin_version":"2.1.0","time_elapsed":252596,"subject_id":"92208","group":"Group2","condition":"3_Rep","full_date":"2026-02-12T17:18:18.947Z","date":"2026-02-12","time":"17:18:18"},{"rt":null,"stimulus":"<p style=\"font-size: 50px; margin: 0; text-align: center;\">+</p>","response":null,"trial_type":"html-keyboard-response","trial_index":139,"plugin_version":"2.1.0","time_elapsed":253598,"subject_id":"92208","group":"Group2","condition":"3_Rep","full_date":"2026-02-12T17:18:18.947Z","date":"2026-02-12","time":"17:18:18"},{"task":"memory_phase","broad_category":"I","image_png":"I_Andesite_03.png","image_id":3,"category_name":"Andesite","category":1,"distinct_rating":3.17,"distinct_type":"Bottom","rt":null,"stimulus":"Stimuli_Rocks480/I_Andesite_03.png","response":null,"trial_type":"image-keyboard-response","trial_index":140,"plugin_version":"2.1.0","time_elapsed":256102,"subject_id":"92208","group":"Group2","condition":"3_Rep","full_date":"2026-02-12T17:18:18.947Z","date":"2026-02-12","time":"17:18:18"},{"rt":null,"stimulus":"<p style=\"font-size: 50px; margin: 0; text-align: center;\">+</p>","response":null,"trial_type":"html-keyboard-response","trial_index":141,"plugin_version":"2.1.0","time_elapsed":257105,"subject_id":"92208","group":"Group2","condition":"3_Rep","full_date":"2026-02-12T17:18:18.947Z","date":"2026-02-12","time":"17:18:18"},{"task":"memory_phase","broad_category":"S","image_png":"S_Conglomerate_14.png","image_id":382,"category_name":"Conglomerate","category":24,"distinct_rating":6.86,"distinct_type":"Top","rt":null,"stimulus":"Stimuli_Rocks480/S_Conglomerate_14.png","response":null,"trial_type":"image-keyboard-response","trial_index":142,"plugin_version":"2.1.0","time_elapsed":259608,"subject_id":"92208","group":"Group2","condition":"3_Rep","full_date":"2026-02-12T17:18:18.947Z","date":"2026-02-12","time":"17:18:18"},{"rt":null,"stimulus":"<p style=\"font-size: 50px; margin: 0; text-align: center;\">+</p>","response":null,"trial_type":"html-keyboard-response","trial_index":143,"plugin_version":"2.1.0","time_elapsed":260611,"subject_id":"92208","group":"Group2","condition":"3_Rep","full_date":"2026-02-12T17:18:18.947Z","date":"2026-02-12","time":"17:18:18"},{"task":"memory_phase","broad_category":"I","image_png":"I_Gabbro_14.png","image_id":62,"category_name":"Gabbro","category":4,"distinct_rating":2.95,"distinct_type":"Bottom","rt":null,"stimulus":"Stimuli_Rocks480/I_Gabbro_14.png","response":null,"trial_type":"image-keyboard-response","trial_index":144,"plugin_version":"2.1.0","time_elapsed":263114,"subject_id":"92208","group":"Group2","condition":"3_Rep","full_date":"2026-02-12T17:18:18.947Z","date":"2026-02-12","time":"17:18:18"},{"rt":null,"stimulus":"<p style=\"font-size: 50px; margin: 0; text-align: center;\">+</p>","response":null,"trial_type":"html-keyboard-response","trial_index":145,"plugin_version":"2.1.0","time_elapsed":264117,"subject_id":"92208","group":"Group2","condition":"3_Rep","full_date":"2026-02-12T17:18:18.947Z","date":"2026-02-12","time":"17:18:18"},{"task":"memory_phase","broad_category":"I","image_png":"I_Rhyolite_10.png","image_id":154,"category_name":"Rhyolite","category":10,"distinct_rating":2.88,"distinct_type":"Bottom","rt":null,"stimulus":"Stimuli_Rocks480/I_Rhyolite_10.png","response":null,"trial_type":"image-keyboard-response","trial_index":146,"plugin_version":"2.1.0","time_elapsed":266620,"subject_id":"92208","group":"Group2","condition":"3_Rep","full_date":"2026-02-12T17:18:18.947Z","date":"2026-02-12","time":"17:18:18"},{"rt":null,"stimulus":"<p style=\"font-size: 50px; margin: 0; text-align: center;\">+</p>","response":null,"trial_type":"html-keyboard-response","trial_index":147,"plugin_version":"2.1.0","time_elapsed":267623,"subject_id":"92208","group":"Group2","condition":"3_Rep","full_date":"2026-02-12T17:18:18.947Z","date":"2026-02-12","time":"17:18:18"},{"task":"memory_phase","broad_category":"I","image_png":"I_Andesite_04.png","image_id":4,"category_name":"Andesite","category":1,"distinct_rating":3.18,"distinct_type":"Bottom","rt":null,"stimulus":"Stimuli_Rocks480/I_Andesite_04.png","response":null,"trial_type":"image-keyboard-response","trial_index":148,"plugin_version":"2.1.0","time_elapsed":270126,"subject_id":"92208","group":"Group2","condition":"3_Rep","full_date":"2026-02-12T17:18:18.947Z","date":"2026-02-12","time":"17:18:18"},{"rt":null,"stimulus":"<p style=\"font-size: 50px; margin: 0; text-align: center;\">+</p>","response":null,"trial_type":"html-keyboard-response","trial_index":149,"plugin_version":"2.1.0","time_elapsed":271128,"subject_id":"92208","group":"Group2","condition":"3_Rep","full_date":"2026-02-12T17:18:18.947Z","date":"2026-02-12","time":"17:18:18"},{"task":"memory_phase","broad_category":"I","image_png":"I_Pegmatite_03.png","image_id":99,"category_name":"Pegmatite","category":7,"distinct_rating":7.24,"distinct_type":"Top","rt":null,"stimulus":"Stimuli_Rocks480/I_Pegmatite_03.png","response":null,"trial_type":"image-keyboard-response","trial_index":150,"plugin_version":"2.1.0","time_elapsed":273631,"subject_id":"92208","group":"Group2","condition":"3_Rep","full_date":"2026-02-12T17:18:18.947Z","date":"2026-02-12","time":"17:18:18"},{"rt":null,"stimulus":"<p style=\"font-size: 50px; margin: 0; text-align: center;\">+</p>","response":null,"trial_type":"html-keyboard-response","trial_index":151,"plugin_version":"2.1.0","time_elapsed":274634,"subject_id":"92208","group":"Group2","condition":"3_Rep","full_date":"2026-02-12T17:18:18.947Z","date":"2026-02-12","time":"17:18:18"},{"task":"memory_phase","broad_category":"M","image_png":"M_Quartzite_15.png","image_id":287,"category_name":"Quartzite","category":18,"distinct_rating":2.19,"distinct_type":"Bottom","rt":null,"stimulus":"Stimuli_Rocks480/M_Quartzite_15.png","response":null,"trial_type":"image-keyboard-response","trial_index":152,"plugin_version":"2.1.0","time_elapsed":277138,"subject_id":"92208","group":"Group2","condition":"3_Rep","full_date":"2026-02-12T17:18:18.947Z","date":"2026-02-12","time":"17:18:18"},{"rt":null,"stimulus":"<p style=\"font-size: 50px; margin: 0; text-align: center;\">+</p>","response":null,"trial_type":"html-keyboard-response","trial_index":153,"plugin_version":"2.1.0","time_elapsed":278140,"subject_id":"92208","group":"Group2","condition":"3_Rep","full_date":"2026-02-12T17:18:18.947Z","date":"2026-02-12","time":"17:18:18"},{"task":"memory_phase","broad_category":"M","image_png":"M_Phyllite_13.png","image_id":269,"category_name":"Phyllite","category":17,"distinct_rating":2.8,"distinct_type":"Bottom","rt":null,"stimulus":"Stimuli_Rocks480/M_Phyllite_13.png","response":null,"trial_type":"image-keyboard-response","trial_index":154,"plugin_version":"2.1.0","time_elapsed":280643,"subject_id":"92208","group":"Group2","condition":"3_Rep","full_date":"2026-02-12T17:18:18.947Z","date":"2026-02-12","time":"17:18:18"},{"rt":null,"stimulus":"<p style=\"font-size: 50px; margin: 0; text-align: center;\">+</p>","response":null,"trial_type":"html-keyboard-response","trial_index":155,"plugin_version":"2.1.0","time_elapsed":281646,"subject_id":"92208","group":"Group2","condition":"3_Rep","full_date":"2026-02-12T17:18:18.947Z","date":"2026-02-12","time":"17:18:18"},{"task":"memory_phase","broad_category":"S","image_png":"S_Chert_13.png","image_id":365,"category_name":"Chert","category":23,"distinct_rating":6.57,"distinct_type":"Top","rt":null,"stimulus":"Stimuli_Rocks480/S_Chert_13.png","response":null,"trial_type":"image-keyboard-response","trial_index":156,"plugin_version":"2.1.0","time_elapsed":284150,"subject_id":"92208","group":"Group2","condition":"3_Rep","full_date":"2026-02-12T17:18:18.947Z","date":"2026-02-12","time":"17:18:18"},{"rt":8096,"stimulus":"<p style=\"max-width: 760px; margin: auto; font-size: 35px; line-height: 1.5;\">\n                Press SPACE to continue study phase\n              </p>","response":" ","trial_type":"html-keyboard-response","trial_index":157,"plugin_version":"2.1.0","time_elapsed":292247,"subject_id":"92208","group":"Group2","condition":"3_Rep","full_date":"2026-02-12T17:18:18.947Z","date":"2026-02-12","time":"17:18:18"},{"rt":null,"stimulus":"<p style=\"font-size: 50px; margin: 0; text-align: center;\">+</p>","response":null,"trial_type":"html-keyboard-response","trial_index":158,"plugin_version":"2.1.0","time_elapsed":293250,"subject_id":"92208","group":"Group2","condition":"3_Rep","full_date":"2026-02-12T17:18:18.947Z","date":"2026-02-12","time":"17:18:18"},{"task":"memory_phase","broad_category":"M","image_png":"M_Slate_10.png","image_id":314,"category_name":"Slate","category":20,"distinct_rating":1.94,"distinct_type":"Bottom","rt":null,"stimulus":"Stimuli_Rocks480/M_Slate_10.png","response":null,"trial_type":"image-keyboard-response","trial_index":159,"plugin_version":"2.1.0","time_elapsed":295754,"subject_id":"92208","group":"Group2","condition":"3_Rep","full_date":"2026-02-12T17:18:18.947Z","date":"2026-02-12","time":"17:18:18"},{"rt":null,"stimulus":"<p style=\"font-size: 50px; margin: 0; text-align: center;\">+</p>","response":null,"trial_type":"html-keyboard-response","trial_index":160,"plugin_version":"2.1.0","time_elapsed":296757,"subject_id":"92208","group":"Group2","condition":"3_Rep","full_date":"2026-02-12T17:18:18.947Z","date":"2026-02-12","time":"17:18:18"},{"task":"memory_phase","broad_category":"S","image_png":"S_Dolomite_01.png","image_id":385,"category_name":"Dolomite","category":25,"distinct_rating":1.43,"distinct_type":"Bottom","rt":null,"stimulus":"Stimuli_Rocks480/S_Dolomite_01.png","response":null,"trial_type":"image-keyboard-response","trial_index":161,"plugin_version":"2.1.0","time_elapsed":299259,"subject_id":"92208","group":"Group2","condition":"3_Rep","full_date":"2026-02-12T17:18:18.947Z","date":"2026-02-12","time":"17:18:18"},{"rt":null,"stimulus":"<p style=\"font-size: 50px; margin: 0; text-align: center;\">+</p>","response":null,"trial_type":"html-keyboard-response","trial_index":162,"plugin_version":"2.1.0","time_elapsed":300262,"subject_id":"92208","group":"Group2","condition":"3_Rep","full_date":"2026-02-12T17:18:18.947Z","date":"2026-02-12","time":"17:18:18"},{"task":"memory_phase","broad_category":"S","image_png":"S_Rock Salt_15.png","image_id":447,"category_name":"Rock Salt","category":28,"distinct_rating":7.79,"distinct_type":"Top","rt":null,"stimulus":"Stimuli_Rocks480/S_Rock Salt_15.png","response":null,"trial_type":"image-keyboard-response","trial_index":163,"plugin_version":"2.1.0","time_elapsed":302765,"subject_id":"92208","group":"Group2","condition":"3_Rep","full_date":"2026-02-12T17:18:18.947Z","date":"2026-02-12","time":"17:18:18"},{"rt":null,"stimulus":"<p style=\"font-size: 50px; margin: 0; text-align: center;\">+</p>","response":null,"trial_type":"html-keyboard-response","trial_index":164,"plugin_version":"2.1.0","time_elapsed":303767,"subject_id":"92208","group":"Group2","condition":"3_Rep","full_date":"2026-02-12T17:18:18.947Z","date":"2026-02-12","time":"17:18:18"},{"task":"memory_phase","broad_category":"M","image_png":"M_Slate_04.png","image_id":308,"category_name":"Slate","category":20,"distinct_rating":2.2,"distinct_type":"Bottom","rt":null,"stimulus":"Stimuli_Rocks480/M_Slate_04.png","response":null,"trial_type":"image-keyboard-response","trial_index":165,"plugin_version":"2.1.0","time_elapsed":306271,"subject_id":"92208","group":"Group2","condition":"3_Rep","full_date":"2026-02-12T17:18:18.947Z","date":"2026-02-12","time":"17:18:18"},{"rt":null,"stimulus":"<p style=\"font-size: 50px; margin: 0; text-align: center;\">+</p>","response":null,"trial_type":"html-keyboard-response","trial_index":166,"plugin_version":"2.1.0","time_elapsed":307274,"subject_id":"92208","group":"Group2","condition":"3_Rep","full_date":"2026-02-12T17:18:18.947Z","date":"2026-02-12","time":"17:18:18"},{"task":"memory_phase","broad_category":"I","image_png":"I_Diorite_01.png","image_id":33,"category_name":"Diorite","category":3,"distinct_rating":2.97,"distinct_type":"Bottom","rt":null,"stimulus":"Stimuli_Rocks480/I_Diorite_01.png","response":null,"trial_type":"image-keyboard-response","trial_index":167,"plugin_version":"2.1.0","time_elapsed":309777,"subject_id":"92208","group":"Group2","condition":"3_Rep","full_date":"2026-02-12T17:18:18.947Z","date":"2026-02-12","time":"17:18:18"},{"rt":null,"stimulus":"<p style=\"font-size: 50px; margin: 0; text-align: center;\">+</p>","response":null,"trial_type":"html-keyboard-response","trial_index":168,"plugin_version":"2.1.0","time_elapsed":310780,"subject_id":"92208","group":"Group2","condition":"3_Rep","full_date":"2026-02-12T17:18:18.947Z","date":"2026-02-12","time":"17:18:18"},{"task":"memory_phase","broad_category":"I","image_png":"I_Peridotite_13.png","image_id":125,"category_name":"Peridotite","category":8,"distinct_rating":7.28,"distinct_type":"Top","rt":null,"stimulus":"Stimuli_Rocks480/I_Peridotite_13.png","response":null,"trial_type":"image-keyboard-response","trial_index":169,"plugin_version":"2.1.0","time_elapsed":313283,"subject_id":"92208","group":"Group2","condition":"3_Rep","full_date":"2026-02-12T17:18:18.947Z","date":"2026-02-12","time":"17:18:18"},{"rt":null,"stimulus":"<p style=\"font-size: 50px; margin: 0; text-align: center;\">+</p>","response":null,"trial_type":"html-keyboard-response","trial_index":170,"plugin_version":"2.1.0","time_elapsed":314285,"subject_id":"92208","group":"Group2","condition":"3_Rep","full_date":"2026-02-12T17:18:18.947Z","date":"2026-02-12","time":"17:18:18"},{"task":"memory_phase","broad_category":"M","image_png":"M_Slate_14.png","image_id":318,"category_name":"Slate","category":20,"distinct_rating":2.58,"distinct_type":"Bottom","rt":null,"stimulus":"Stimuli_Rocks480/M_Slate_14.png","response":null,"trial_type":"image-keyboard-response","trial_index":171,"plugin_version":"2.1.0","time_elapsed":316789,"subject_id":"92208","group":"Group2","condition":"3_Rep","full_date":"2026-02-12T17:18:18.947Z","date":"2026-02-12","time":"17:18:18"},{"rt":null,"stimulus":"<p style=\"font-size: 50px; margin: 0; text-align: center;\">+</p>","response":null,"trial_type":"html-keyboard-response","trial_index":172,"plugin_version":"2.1.0","time_elapsed":317791,"subject_id":"92208","group":"Group2","condition":"3_Rep","full_date":"2026-02-12T17:18:18.947Z","date":"2026-02-12","time":"17:18:18"},{"task":"memory_phase","broad_category":"I","image_png":"I_Basalt_13.png","image_id":29,"category_name":"Basalt","category":2,"distinct_rating":2.68,"distinct_type":"Bottom","rt":null,"stimulus":"Stimuli_Rocks480/I_Basalt_13.png","response":null,"trial_type":"image-keyboard-response","trial_index":173,"plugin_version":"2.1.0","time_elapsed":320295,"subject_id":"92208","group":"Group2","condition":"3_Rep","full_date":"2026-02-12T17:18:18.947Z","date":"2026-02-12","time":"17:18:18"},{"rt":null,"stimulus":"<p style=\"font-size: 50px; margin: 0; text-align: center;\">+</p>","response":null,"trial_type":"html-keyboard-response","trial_index":174,"plugin_version":"2.1.0","time_elapsed":321297,"subject_id":"92208","group":"Group2","condition":"3_Rep","full_date":"2026-02-12T17:18:18.947Z","date":"2026-02-12","time":"17:18:18"},{"task":"memory_phase","broad_category":"I","image_png":"I_Basalt_10.png","image_id":26,"category_name":"Basalt","category":2,"distinct_rating":2.76,"distinct_type":"Bottom","rt":null,"stimulus":"Stimuli_Rocks480/I_Basalt_10.png","response":null,"trial_type":"image-keyboard-response","trial_index":175,"plugin_version":"2.1.0","time_elapsed":323800,"subject_id":"92208","group":"Group2","condition":"3_Rep","full_date":"2026-02-12T17:18:18.947Z","date":"2026-02-12","time":"17:18:18"},{"rt":null,"stimulus":"<p style=\"font-size: 50px; margin: 0; text-align: center;\">+</p>","response":null,"trial_type":"html-keyboard-response","trial_index":176,"plugin_version":"2.1.0","time_elapsed":324802,"subject_id":"92208","group":"Group2","condition":"3_Rep","full_date":"2026-02-12T17:18:18.947Z","date":"2026-02-12","time":"17:18:18"},{"task":"memory_phase","broad_category":"I","image_png":"I_Diorite_15.png","image_id":47,"category_name":"Diorite","category":3,"distinct_rating":3.05,"distinct_type":"Bottom","rt":null,"stimulus":"Stimuli_Rocks480/I_Diorite_15.png","response":null,"trial_type":"image-keyboard-response","trial_index":177,"plugin_version":"2.1.0","time_elapsed":327305,"subject_id":"92208","group":"Group2","condition":"3_Rep","full_date":"2026-02-12T17:18:18.947Z","date":"2026-02-12","time":"17:18:18"},{"rt":null,"stimulus":"<p style=\"font-size: 50px; margin: 0; text-align: center;\">+</p>","response":null,"trial_type":"html-keyboard-response","trial_index":178,"plugin_version":"2.1.0","time_elapsed":328308,"subject_id":"92208","group":"Group2","condition":"3_Rep","full_date":"2026-02-12T17:18:18.947Z","date":"2026-02-12","time":"17:18:18"},{"task":"memory_phase","broad_category":"S","image_png":"S_Sandstone_04.png","image_id":452,"category_name":"Sandstone","category":29,"distinct_rating":1.8,"distinct_type":"Bottom","rt":null,"stimulus":"Stimuli_Rocks480/S_Sandstone_04.png","response":null,"trial_type":"image-keyboard-response","trial_index":179,"plugin_version":"2.1.0","time_elapsed":330811,"subject_id":"92208","group":"Group2","condition":"3_Rep","full_date":"2026-02-12T17:18:18.947Z","date":"2026-02-12","time":"17:18:18"},{"rt":null,"stimulus":"<p style=\"font-size: 50px; margin: 0; text-align: center;\">+</p>","response":null,"trial_type":"html-keyboard-response","trial_index":180,"plugin_version":"2.1.0","time_elapsed":331814,"subject_id":"92208","group":"Group2","condition":"3_Rep","full_date":"2026-02-12T17:18:18.947Z","date":"2026-02-12","time":"17:18:18"},{"task":"memory_phase","broad_category":"M","image_png":"M_Quartzite_12.png","image_id":284,"category_name":"Quartzite","category":18,"distinct_rating":1.92,"distinct_type":"Bottom","rt":null,"stimulus":"Stimuli_Rocks480/M_Quartzite_12.png","response":null,"trial_type":"image-keyboard-response","trial_index":181,"plugin_version":"2.1.0","time_elapsed":334318,"subject_id":"92208","group":"Group2","condition":"3_Rep","full_date":"2026-02-12T17:18:18.947Z","date":"2026-02-12","time":"17:18:18"},{"rt":null,"stimulus":"<p style=\"font-size: 50px; margin: 0; text-align: center;\">+</p>","response":null,"trial_type":"html-keyboard-response","trial_index":182,"plugin_version":"2.1.0","time_elapsed":335320,"subject_id":"92208","group":"Group2","condition":"3_Rep","full_date":"2026-02-12T17:18:18.947Z","date":"2026-02-12","time":"17:18:18"},{"task":"memory_phase","broad_category":"I","image_png":"I_Pumice_01.png","image_id":129,"category_name":"Pumice","category":9,"distinct_rating":3.25,"distinct_type":"Bottom","rt":null,"stimulus":"Stimuli_Rocks480/I_Pumice_01.png","response":null,"trial_type":"image-keyboard-response","trial_index":183,"plugin_version":"2.1.0","time_elapsed":337823,"subject_id":"92208","group":"Group2","condition":"3_Rep","full_date":"2026-02-12T17:18:18.947Z","date":"2026-02-12","time":"17:18:18"},{"rt":null,"stimulus":"<p style=\"font-size: 50px; margin: 0; text-align: center;\">+</p>","response":null,"trial_type":"html-keyboard-response","trial_index":184,"plugin_version":"2.1.0","time_elapsed":338825,"subject_id":"92208","group":"Group2","condition":"3_Rep","full_date":"2026-02-12T17:18:18.947Z","date":"2026-02-12","time":"17:18:18"},{"task":"memory_phase","broad_category":"M","image_png":"M_Gneiss_15.png","image_id":207,"category_name":"Gneiss","category":13,"distinct_rating":3.11,"distinct_type":"Bottom","rt":null,"stimulus":"Stimuli_Rocks480/M_Gneiss_15.png","response":null,"trial_type":"image-keyboard-response","trial_index":185,"plugin_version":"2.1.0","time_elapsed":341328,"subject_id":"92208","group":"Group2","condition":"3_Rep","full_date":"2026-02-12T17:18:18.947Z","date":"2026-02-12","time":"17:18:18"},{"rt":null,"stimulus":"<p style=\"font-size: 50px; margin: 0; text-align: center;\">+</p>","response":null,"trial_type":"html-keyboard-response","trial_index":186,"plugin_version":"2.1.0","time_elapsed":342331,"subject_id":"92208","group":"Group2","condition":"3_Rep","full_date":"2026-02-12T17:18:18.947Z","date":"2026-02-12","time":"17:18:18"},{"task":"memory_phase","broad_category":"S","image_png":"S_Shale_02.png","image_id":466,"category_name":"Shale","category":30,"distinct_rating":2.9,"distinct_type":"Bottom","rt":null,"stimulus":"Stimuli_Rocks480/S_Shale_02.png","response":null,"trial_type":"image-keyboard-response","trial_index":187,"plugin_version":"2.1.0","time_elapsed":344835,"subject_id":"92208","group":"Group2","condition":"3_Rep","full_date":"2026-02-12T17:18:18.947Z","date":"2026-02-12","time":"17:18:18"},{"rt":null,"stimulus":"<p style=\"font-size: 50px; margin: 0; text-align: center;\">+</p>","response":null,"trial_type":"html-keyboard-response","trial_index":188,"plugin_version":"2.1.0","time_elapsed":345838,"subject_id":"92208","group":"Group2","condition":"3_Rep","full_date":"2026-02-12T17:18:18.947Z","date":"2026-02-12","time":"17:18:18"},{"task":"memory_phase","broad_category":"S","image_png":"S_Dolomite_16.png","image_id":400,"category_name":"Dolomite","category":25,"distinct_rating":1.71,"distinct_type":"Bottom","rt":null,"stimulus":"Stimuli_Rocks480/S_Dolomite_16.png","response":null,"trial_type":"image-keyboard-response","trial_index":189,"plugin_version":"2.1.0","time_elapsed":348341,"subject_id":"92208","group":"Group2","condition":"3_Rep","full_date":"2026-02-12T17:18:18.947Z","date":"2026-02-12","time":"17:18:18"},{"rt":null,"stimulus":"<p style=\"font-size: 50px; margin: 0; text-align: center;\">+</p>","response":null,"trial_type":"html-keyboard-response","trial_index":190,"plugin_version":"2.1.0","time_elapsed":349343,"subject_id":"92208","group":"Group2","condition":"3_Rep","full_date":"2026-02-12T17:18:18.947Z","date":"2026-02-12","time":"17:18:18"},{"task":"memory_phase","broad_category":"S","image_png":"S_Sandstone_11.png","image_id":459,"category_name":"Sandstone","category":29,"distinct_rating":1.82,"distinct_type":"Bottom","rt":null,"stimulus":"Stimuli_Rocks480/S_Sandstone_11.png","response":null,"trial_type":"image-keyboard-response","trial_index":191,"plugin_version":"2.1.0","time_elapsed":351846,"subject_id":"92208","group":"Group2","condition":"3_Rep","full_date":"2026-02-12T17:18:18.947Z","date":"2026-02-12","time":"17:18:18"},{"rt":null,"stimulus":"<p style=\"font-size: 50px; margin: 0; text-align: center;\">+</p>","response":null,"trial_type":"html-keyboard-response","trial_index":192,"plugin_version":"2.1.0","time_elapsed":352848,"subject_id":"92208","group":"Group2","condition":"3_Rep","full_date":"2026-02-12T17:18:18.947Z","date":"2026-02-12","time":"17:18:18"},{"task":"memory_phase","broad_category":"M","image_png":"M_Gneiss_10.png","image_id":202,"category_name":"Gneiss","category":13,"distinct_rating":3.09,"distinct_type":"Bottom","rt":null,"stimulus":"Stimuli_Rocks480/M_Gneiss_10.png","response":null,"trial_type":"image-keyboard-response","trial_index":193,"plugin_version":"2.1.0","time_elapsed":355352,"subject_id":"92208","group":"Group2","condition":"3_Rep","full_date":"2026-02-12T17:18:18.947Z","date":"2026-02-12","time":"17:18:18"},{"rt":null,"stimulus":"<p style=\"font-size: 50px; margin: 0; text-align: center;\">+</p>","response":null,"trial_type":"html-keyboard-response","trial_index":194,"plugin_version":"2.1.0","time_elapsed":356354,"subject_id":"92208","group":"Group2","condition":"3_Rep","full_date":"2026-02-12T17:18:18.947Z","date":"2026-02-12","time":"17:18:18"},{"task":"memory_phase","broad_category":"M","image_png":"M_Marble_14.png","image_id":238,"category_name":"Marble","category":15,"distinct_rating":3.31,"distinct_type":"Bottom","rt":null,"stimulus":"Stimuli_Rocks480/M_Marble_14.png","response":null,"trial_type":"image-keyboard-response","trial_index":195,"plugin_version":"2.1.0","time_elapsed":358858,"subject_id":"92208","group":"Group2","condition":"3_Rep","full_date":"2026-02-12T17:18:18.947Z","date":"2026-02-12","time":"17:18:18"},{"rt":null,"stimulus":"<p style=\"font-size: 50px; margin: 0; text-align: center;\">+</p>","response":null,"trial_type":"html-keyboard-response","trial_index":196,"plugin_version":"2.1.0","time_elapsed":359861,"subject_id":"92208","group":"Group2","condition":"3_Rep","full_date":"2026-02-12T17:18:18.947Z","date":"2026-02-12","time":"17:18:18"},{"task":"memory_phase","broad_category":"M","image_png":"M_Gneiss_14.png","image_id":206,"category_name":"Gneiss","category":13,"distinct_rating":3.41,"distinct_type":"Bottom","rt":null,"stimulus":"Stimuli_Rocks480/M_Gneiss_14.png","response":null,"trial_type":"image-keyboard-response","trial_index":197,"plugin_version":"2.1.0","time_elapsed":362364,"subject_id":"92208","group":"Group2","condition":"3_Rep","full_date":"2026-02-12T17:18:18.947Z","date":"2026-02-12","time":"17:18:18"},{"rt":null,"stimulus":"<p style=\"font-size: 50px; margin: 0; text-align: center;\">+</p>","response":null,"trial_type":"html-keyboard-response","trial_index":198,"plugin_version":"2.1.0","time_elapsed":363367,"subject_id":"92208","group":"Group2","condition":"3_Rep","full_date":"2026-02-12T17:18:18.947Z","date":"2026-02-12","time":"17:18:18"},{"task":"memory_phase","broad_category":"I","image_png":"I_Pumice_14.png","image_id":142,"category_name":"Pumice","category":9,"distinct_rating":3.22,"distinct_type":"Bottom","rt":null,"stimulus":"Stimuli_Rocks480/I_Pumice_14.png","response":null,"trial_type":"image-keyboard-response","trial_index":199,"plugin_version":"2.1.0","time_elapsed":365870,"subject_id":"92208","group":"Group2","condition":"3_Rep","full_date":"2026-02-12T17:18:18.947Z","date":"2026-02-12","time":"17:18:18"},{"rt":null,"stimulus":"<p style=\"font-size: 50px; margin: 0; text-align: center;\">+</p>","response":null,"trial_type":"html-keyboard-response","trial_index":200,"plugin_version":"2.1.0","time_elapsed":366872,"subject_id":"92208","group":"Group2","condition":"3_Rep","full_date":"2026-02-12T17:18:18.947Z","date":"2026-02-12","time":"17:18:18"},{"task":"memory_phase","broad_category":"S","image_png":"S_Shale_03.png","image_id":467,"category_name":"Shale","category":30,"distinct_rating":1.95,"distinct_type":"Bottom","rt":null,"stimulus":"Stimuli_Rocks480/S_Shale_03.png","response":null,"trial_type":"image-keyboard-response","trial_index":201,"plugin_version":"2.1.0","time_elapsed":369375,"subject_id":"92208","group":"Group2","condition":"3_Rep","full_date":"2026-02-12T17:18:18.947Z","date":"2026-02-12","time":"17:18:18"},{"rt":null,"stimulus":"<p style=\"font-size: 50px; margin: 0; text-align: center;\">+</p>","response":null,"trial_type":"html-keyboard-response","trial_index":202,"plugin_version":"2.1.0","time_elapsed":370378,"subject_id":"92208","group":"Group2","condition":"3_Rep","full_date":"2026-02-12T17:18:18.947Z","date":"2026-02-12","time":"17:18:18"},{"task":"memory_phase","broad_category":"I","image_png":"I_Basalt_08.png","image_id":24,"category_name":"Basalt","category":2,"distinct_rating":2.31,"distinct_type":"Bottom","rt":null,"stimulus":"Stimuli_Rocks480/I_Basalt_08.png","response":null,"trial_type":"image-keyboard-response","trial_index":203,"plugin_version":"2.1.0","time_elapsed":372881,"subject_id":"92208","group":"Group2","condition":"3_Rep","full_date":"2026-02-12T17:18:18.947Z","date":"2026-02-12","time":"17:18:18"},{"rt":null,"stimulus":"<p style=\"font-size: 50px; margin: 0; text-align: center;\">+</p>","response":null,"trial_type":"html-keyboard-response","trial_index":204,"plugin_version":"2.1.0","time_elapsed":373882,"subject_id":"92208","group":"Group2","condition":"3_Rep","full_date":"2026-02-12T17:18:18.947Z","date":"2026-02-12","time":"17:18:18"},{"task":"memory_phase","broad_category":"I","image_png":"I_Obsidian_06.png","image_id":86,"category_name":"Obsidian","category":6,"distinct_rating":8.01,"distinct_type":"Top","rt":null,"stimulus":"Stimuli_Rocks480/I_Obsidian_06.png","response":null,"trial_type":"image-keyboard-response","trial_index":205,"plugin_version":"2.1.0","time_elapsed":376386,"subject_id":"92208","group":"Group2","condition":"3_Rep","full_date":"2026-02-12T17:18:18.947Z","date":"2026-02-12","time":"17:18:18"},{"rt":null,"stimulus":"<p style=\"font-size: 50px; margin: 0; text-align: center;\">+</p>","response":null,"trial_type":"html-keyboard-response","trial_index":206,"plugin_version":"2.1.0","time_elapsed":377389,"subject_id":"92208","group":"Group2","condition":"3_Rep","full_date":"2026-02-12T17:18:18.947Z","date":"2026-02-12","time":"17:18:18"},{"task":"memory_phase","broad_category":"S","image_png":"S_Rock Salt_13.png","image_id":445,"category_name":"Rock Salt","category":28,"distinct_rating":7.58,"distinct_type":"Top","rt":null,"stimulus":"Stimuli_Rocks480/S_Rock Salt_13.png","response":null,"trial_type":"image-keyboard-response","trial_index":207,"plugin_version":"2.1.0","time_elapsed":379891,"subject_id":"92208","group":"Group2","condition":"3_Rep","full_date":"2026-02-12T17:18:18.947Z","date":"2026-02-12","time":"17:18:18"},{"rt":2117,"stimulus":"<p style=\"max-width: 760px; margin: auto; font-size: 35px; line-height: 1.5;\">\n                You have completed 2 study phases. \n                Now, we'll show you all the images again 1 more time.\n                <br><br>Press SPACE to continue\n              </p>","response":" ","trial_type":"html-keyboard-response","trial_index":208,"plugin_version":"2.1.0","time_elapsed":382010,"subject_id":"92208","group":"Group2","condition":"3_Rep","full_date":"2026-02-12T17:18:18.947Z","date":"2026-02-12","time":"17:18:18"},{"rt":null,"stimulus":"<p style=\"font-size: 50px; margin: 0; text-align: center;\">+</p>","response":null,"trial_type":"html-keyboard-response","trial_index":209,"plugin_version":"2.1.0","time_elapsed":383013,"subject_id":"92208","group":"Group2","condition":"3_Rep","full_date":"2026-02-12T17:18:18.947Z","date":"2026-02-12","time":"17:18:18"},{"task":"memory_phase","broad_category":"M","image_png":"M_Quartzite_12.png","image_id":284,"category_name":"Quartzite","category":18,"distinct_rating":1.92,"distinct_type":"Bottom","rt":null,"stimulus":"Stimuli_Rocks480/M_Quartzite_12.png","response":null,"trial_type":"image-keyboard-response","trial_index":210,"plugin_version":"2.1.0","time_elapsed":385516,"subject_id":"92208","group":"Group2","condition":"3_Rep","full_date":"2026-02-12T17:18:18.947Z","date":"2026-02-12","time":"17:18:18"},{"rt":null,"stimulus":"<p style=\"font-size: 50px; margin: 0; text-align: center;\">+</p>","response":null,"trial_type":"html-keyboard-response","trial_index":211,"plugin_version":"2.1.0","time_elapsed":386519,"subject_id":"92208","group":"Group2","condition":"3_Rep","full_date":"2026-02-12T17:18:18.947Z","date":"2026-02-12","time":"17:18:18"},{"task":"memory_phase","broad_category":"I","image_png":"I_Pumice_14.png","image_id":142,"category_name":"Pumice","category":9,"distinct_rating":3.22,"distinct_type":"Bottom","rt":null,"stimulus":"Stimuli_Rocks480/I_Pumice_14.png","response":null,"trial_type":"image-keyboard-response","trial_index":212,"plugin_version":"2.1.0","time_elapsed":389022,"subject_id":"92208","group":"Group2","condition":"3_Rep","full_date":"2026-02-12T17:18:18.947Z","date":"2026-02-12","time":"17:18:18"},{"rt":null,"stimulus":"<p style=\"font-size: 50px; margin: 0; text-align: center;\">+</p>","response":null,"trial_type":"html-keyboard-response","trial_index":213,"plugin_version":"2.1.0","time_elapsed":390025,"subject_id":"92208","group":"Group2","condition":"3_Rep","full_date":"2026-02-12T17:18:18.947Z","date":"2026-02-12","time":"17:18:18"},{"task":"memory_phase","broad_category":"I","image_png":"I_Rhyolite_08.png","image_id":152,"category_name":"Rhyolite","category":10,"distinct_rating":1.38,"distinct_type":"Bottom","rt":null,"stimulus":"Stimuli_Rocks480/I_Rhyolite_08.png","response":null,"trial_type":"image-keyboard-response","trial_index":214,"plugin_version":"2.1.0","time_elapsed":392527,"subject_id":"92208","group":"Group2","condition":"3_Rep","full_date":"2026-02-12T17:18:18.947Z","date":"2026-02-12","time":"17:18:18"},{"rt":null,"stimulus":"<p style=\"font-size: 50px; margin: 0; text-align: center;\">+</p>","response":null,"trial_type":"html-keyboard-response","trial_index":215,"plugin_version":"2.1.0","time_elapsed":393529,"subject_id":"92208","group":"Group2","condition":"3_Rep","full_date":"2026-02-12T17:18:18.947Z","date":"2026-02-12","time":"17:18:18"},{"task":"memory_phase","broad_category":"I","image_png":"I_Pegmatite_03.png","image_id":99,"category_name":"Pegmatite","category":7,"distinct_rating":7.24,"distinct_type":"Top","rt":null,"stimulus":"Stimuli_Rocks480/I_Pegmatite_03.png","response":null,"trial_type":"image-keyboard-response","trial_index":216,"plugin_version":"2.1.0","time_elapsed":396032,"subject_id":"92208","group":"Group2","condition":"3_Rep","full_date":"2026-02-12T17:18:18.947Z","date":"2026-02-12","time":"17:18:18"},{"rt":null,"stimulus":"<p style=\"font-size: 50px; margin: 0; text-align: center;\">+</p>","response":null,"trial_type":"html-keyboard-response","trial_index":217,"plugin_version":"2.1.0","time_elapsed":397034,"subject_id":"92208","group":"Group2","condition":"3_Rep","full_date":"2026-02-12T17:18:18.947Z","date":"2026-02-12","time":"17:18:18"},{"task":"memory_phase","broad_category":"I","image_png":"I_Basalt_10.png","image_id":26,"category_name":"Basalt","category":2,"distinct_rating":2.76,"distinct_type":"Bottom","rt":null,"stimulus":"Stimuli_Rocks480/I_Basalt_10.png","response":null,"trial_type":"image-keyboard-response","trial_index":218,"plugin_version":"2.1.0","time_elapsed":399537,"subject_id":"92208","group":"Group2","condition":"3_Rep","full_date":"2026-02-12T17:18:18.947Z","date":"2026-02-12","time":"17:18:18"},{"rt":null,"stimulus":"<p style=\"font-size: 50px; margin: 0; text-align: center;\">+</p>","response":null,"trial_type":"html-keyboard-response","trial_index":219,"plugin_version":"2.1.0","time_elapsed":400538,"subject_id":"92208","group":"Group2","condition":"3_Rep","full_date":"2026-02-12T17:18:18.947Z","date":"2026-02-12","time":"17:18:18"},{"task":"memory_phase","broad_category":"S","image_png":"S_Sandstone_11.png","image_id":459,"category_name":"Sandstone","category":29,"distinct_rating":1.82,"distinct_type":"Bottom","rt":null,"stimulus":"Stimuli_Rocks480/S_Sandstone_11.png","response":null,"trial_type":"image-keyboard-response","trial_index":220,"plugin_version":"2.1.0","time_elapsed":403041,"subject_id":"92208","group":"Group2","condition":"3_Rep","full_date":"2026-02-12T17:18:18.947Z","date":"2026-02-12","time":"17:18:18"},{"rt":null,"stimulus":"<p style=\"font-size: 50px; margin: 0; text-align: center;\">+</p>","response":null,"trial_type":"html-keyboard-response","trial_index":221,"plugin_version":"2.1.0","time_elapsed":404043,"subject_id":"92208","group":"Group2","condition":"3_Rep","full_date":"2026-02-12T17:18:18.947Z","date":"2026-02-12","time":"17:18:18"},{"task":"memory_phase","broad_category":"S","image_png":"S_Shale_03.png","image_id":467,"category_name":"Shale","category":30,"distinct_rating":1.95,"distinct_type":"Bottom","rt":null,"stimulus":"Stimuli_Rocks480/S_Shale_03.png","response":null,"trial_type":"image-keyboard-response","trial_index":222,"plugin_version":"2.1.0","time_elapsed":406546,"subject_id":"92208","group":"Group2","condition":"3_Rep","full_date":"2026-02-12T17:18:18.947Z","date":"2026-02-12","time":"17:18:18"},{"rt":null,"stimulus":"<p style=\"font-size: 50px; margin: 0; text-align: center;\">+</p>","response":null,"trial_type":"html-keyboard-response","trial_index":223,"plugin_version":"2.1.0","time_elapsed":407548,"subject_id":"92208","group":"Group2","condition":"3_Rep","full_date":"2026-02-12T17:18:18.947Z","date":"2026-02-12","time":"17:18:18"},{"task":"memory_phase","broad_category":"M","image_png":"M_Phyllite_13.png","image_id":269,"category_name":"Phyllite","category":17,"distinct_rating":2.8,"distinct_type":"Bottom","rt":null,"stimulus":"Stimuli_Rocks480/M_Phyllite_13.png","response":null,"trial_type":"image-keyboard-response","trial_index":224,"plugin_version":"2.1.0","time_elapsed":410051,"subject_id":"92208","group":"Group2","condition":"3_Rep","full_date":"2026-02-12T17:18:18.947Z","date":"2026-02-12","time":"17:18:18"},{"rt":null,"stimulus":"<p style=\"font-size: 50px; margin: 0; text-align: center;\">+</p>","response":null,"trial_type":"html-keyboard-response","trial_index":225,"plugin_version":"2.1.0","time_elapsed":411053,"subject_id":"92208","group":"Group2","condition":"3_Rep","full_date":"2026-02-12T17:18:18.947Z","date":"2026-02-12","time":"17:18:18"},{"task":"memory_phase","broad_category":"S","image_png":"S_Rock Salt_13.png","image_id":445,"category_name":"Rock Salt","category":28,"distinct_rating":7.58,"distinct_type":"Top","rt":null,"stimulus":"Stimuli_Rocks480/S_Rock Salt_13.png","response":null,"trial_type":"image-keyboard-response","trial_index":226,"plugin_version":"2.1.0","time_elapsed":413556,"subject_id":"92208","group":"Group2","condition":"3_Rep","full_date":"2026-02-12T17:18:18.947Z","date":"2026-02-12","time":"17:18:18"},{"rt":null,"stimulus":"<p style=\"font-size: 50px; margin: 0; text-align: center;\">+</p>","response":null,"trial_type":"html-keyboard-response","trial_index":227,"plugin_version":"2.1.0","time_elapsed":414558,"subject_id":"92208","group":"Group2","condition":"3_Rep","full_date":"2026-02-12T17:18:18.947Z","date":"2026-02-12","time":"17:18:18"},{"task":"memory_phase","broad_category":"S","image_png":"S_Conglomerate_14.png","image_id":382,"category_name":"Conglomerate","category":24,"distinct_rating":6.86,"distinct_type":"Top","rt":null,"stimulus":"Stimuli_Rocks480/S_Conglomerate_14.png","response":null,"trial_type":"image-keyboard-response","trial_index":228,"plugin_version":"2.1.0","time_elapsed":417061,"subject_id":"92208","group":"Group2","condition":"3_Rep","full_date":"2026-02-12T17:18:18.947Z","date":"2026-02-12","time":"17:18:18"},{"rt":null,"stimulus":"<p style=\"font-size: 50px; margin: 0; text-align: center;\">+</p>","response":null,"trial_type":"html-keyboard-response","trial_index":229,"plugin_version":"2.1.0","time_elapsed":418064,"subject_id":"92208","group":"Group2","condition":"3_Rep","full_date":"2026-02-12T17:18:18.947Z","date":"2026-02-12","time":"17:18:18"},{"task":"memory_phase","broad_category":"S","image_png":"S_Shale_07.png","image_id":471,"category_name":"Shale","category":30,"distinct_rating":2.73,"distinct_type":"Bottom","rt":null,"stimulus":"Stimuli_Rocks480/S_Shale_07.png","response":null,"trial_type":"image-keyboard-response","trial_index":230,"plugin_version":"2.1.0","time_elapsed":420568,"subject_id":"92208","group":"Group2","condition":"3_Rep","full_date":"2026-02-12T17:18:18.947Z","date":"2026-02-12","time":"17:18:18"},{"rt":null,"stimulus":"<p style=\"font-size: 50px; margin: 0; text-align: center;\">+</p>","response":null,"trial_type":"html-keyboard-response","trial_index":231,"plugin_version":"2.1.0","time_elapsed":421570,"subject_id":"92208","group":"Group2","condition":"3_Rep","full_date":"2026-02-12T17:18:18.947Z","date":"2026-02-12","time":"17:18:18"},{"task":"memory_phase","broad_category":"M","image_png":"M_Gneiss_14.png","image_id":206,"category_name":"Gneiss","category":13,"distinct_rating":3.41,"distinct_type":"Bottom","rt":null,"stimulus":"Stimuli_Rocks480/M_Gneiss_14.png","response":null,"trial_type":"image-keyboard-response","trial_index":232,"plugin_version":"2.1.0","time_elapsed":424073,"subject_id":"92208","group":"Group2","condition":"3_Rep","full_date":"2026-02-12T17:18:18.947Z","date":"2026-02-12","time":"17:18:18"},{"rt":null,"stimulus":"<p style=\"font-size: 50px; margin: 0; text-align: center;\">+</p>","response":null,"trial_type":"html-keyboard-response","trial_index":233,"plugin_version":"2.1.0","time_elapsed":425076,"subject_id":"92208","group":"Group2","condition":"3_Rep","full_date":"2026-02-12T17:18:18.947Z","date":"2026-02-12","time":"17:18:18"},{"task":"memory_phase","broad_category":"I","image_png":"I_Pegmatite_11.png","image_id":107,"category_name":"Pegmatite","category":7,"distinct_rating":7.11,"distinct_type":"Top","rt":null,"stimulus":"Stimuli_Rocks480/I_Pegmatite_11.png","response":null,"trial_type":"image-keyboard-response","trial_index":234,"plugin_version":"2.1.0","time_elapsed":427579,"subject_id":"92208","group":"Group2","condition":"3_Rep","full_date":"2026-02-12T17:18:18.947Z","date":"2026-02-12","time":"17:18:18"},{"rt":null,"stimulus":"<p style=\"font-size: 50px; margin: 0; text-align: center;\">+</p>","response":null,"trial_type":"html-keyboard-response","trial_index":235,"plugin_version":"2.1.0","time_elapsed":428581,"subject_id":"92208","group":"Group2","condition":"3_Rep","full_date":"2026-02-12T17:18:18.947Z","date":"2026-02-12","time":"17:18:18"},{"task":"memory_phase","broad_category":"S","image_png":"S_Dolomite_16.png","image_id":400,"category_name":"Dolomite","category":25,"distinct_rating":1.71,"distinct_type":"Bottom","rt":null,"stimulus":"Stimuli_Rocks480/S_D