[{"width":1280,"height":645,"webaudio":true,"browser":"edge-chromium","browser_version":"143.0.0","mobile":false,"os":"Windows 10","fullscreen":true,"vsync_rate":60.17,"webcam":true,"microphone":true,"trial_type":"browser-check","trial_index":0,"plugin_version":"2.1.0","time_elapsed":1007,"subject_id":"90823","group":"Group2","condition":"1_Rep","full_date":"2026-02-13T12:40:37.679Z","date":"2026-02-13","time":"12:40:37"},{"success":true,"timeout":false,"failed_images":[],"failed_audio":[],"failed_video":[],"trial_type":"preload","trial_index":1,"plugin_version":"2.1.0","time_elapsed":3384,"subject_id":"90823","group":"Group2","condition":"1_Rep","full_date":"2026-02-13T12:40:37.679Z","date":"2026-02-13","time":"12:40:37"},{"rt":44474,"url":"SONA_consent_memorability.html","trial_type":"external-html","trial_index":2,"plugin_version":"2.1.0","time_elapsed":47914,"subject_id":"90823","group":"Group2","condition":"1_Rep","full_date":"2026-02-13T12:40:37.679Z","date":"2026-02-13","time":"12:40:37"},{"success":true,"rt":1700,"trial_type":"fullscreen","trial_index":3,"plugin_version":"2.1.0","time_elapsed":50627,"subject_id":"90823","group":"Group2","condition":"1_Rep","full_date":"2026-02-13T12:40:37.679Z","date":"2026-02-13","time":"12:40:37"},{"rt":27299,"stimulus":"<div style=\"max-width: 760px; margin: auto; font-size: 20px; line-height: 1.5;\">\n      <h1 style=\"text-align:center; font-size: 30px;\">Instructions</h1>\n      <p>\n        Welcome to the study on <b>visual memory</b>. This experiment consists of <b>two phases</b>: \n        a <b>study phase</b> and a <b>test phase</b>.\n      </p>\n      <p>\n        In the study phase, you will see a series of rock images along with their category labels.\n        The images will appear one at a time.\n        <b>Your task</b> is to learn the categories to which the rock images belong \n        and to remember each image as accurately as possible.\n      </p> \n      <p>\n        Note that you will see each image only <b>once</b> during the study phase. \n          So, please pay close attention and try to remember each image carefully.\n      </p>\n      <p>\n        After the study phase, <b>your memory will be tested</b>. \n        Additional instructions for the test phase will be provided at that time.\n      </p>\n      <p>\n        If your computer has multiple <b>language settings</b> (e.g., English and another language),\n        please make sure it is set to English before starting.\n      </p>\n      <p>\n        You can track your progress using the <b>completion bar</b> at the top of the screen. \n        Please note that the bar will refresh when the test phase begins \n        to give you an accurate sense of your progress in both phases.\n      </p> \n      <p>\n        Press the button below when you are ready to begin.\n      </p>\n    </div>","response":0,"trial_type":"html-button-response","trial_index":4,"plugin_version":"2.1.0","time_elapsed":77930,"subject_id":"90823","group":"Group2","condition":"1_Rep","full_date":"2026-02-13T12:40:37.679Z","date":"2026-02-13","time":"12:40:37"},{"rt":null,"stimulus":"<p style=\"font-size: 50px; margin: 0; text-align: center;\">+</p>","response":null,"trial_type":"html-keyboard-response","trial_index":5,"plugin_version":"2.1.0","time_elapsed":78944,"subject_id":"90823","group":"Group2","condition":"1_Rep","full_date":"2026-02-13T12:40:37.679Z","date":"2026-02-13","time":"12:40:37"},{"task":"memory_phase","broad_category":"S","image_png":"S_Dolomite_01.png","image_id":385,"category_name":"Dolomite","category":25,"distinct_rating":1.43,"distinct_type":"Bottom","rt":null,"stimulus":"Stimuli_Rocks480/S_Dolomite_01.png","response":null,"trial_type":"image-keyboard-response","trial_index":6,"plugin_version":"2.1.0","time_elapsed":81458,"subject_id":"90823","group":"Group2","condition":"1_Rep","full_date":"2026-02-13T12:40:37.679Z","date":"2026-02-13","time":"12:40:37"},{"rt":null,"stimulus":"<p style=\"font-size: 50px; margin: 0; text-align: center;\">+</p>","response":null,"trial_type":"html-keyboard-response","trial_index":7,"plugin_version":"2.1.0","time_elapsed":82476,"subject_id":"90823","group":"Group2","condition":"1_Rep","full_date":"2026-02-13T12:40:37.679Z","date":"2026-02-13","time":"12:40:37"},{"task":"memory_phase","broad_category":"I","image_png":"I_Andesite_04.png","image_id":4,"category_name":"Andesite","category":1,"distinct_rating":3.18,"distinct_type":"Bottom","rt":null,"stimulus":"Stimuli_Rocks480/I_Andesite_04.png","response":null,"trial_type":"image-keyboard-response","trial_index":8,"plugin_version":"2.1.0","time_elapsed":84990,"subject_id":"90823","group":"Group2","condition":"1_Rep","full_date":"2026-02-13T12:40:37.679Z","date":"2026-02-13","time":"12:40:37"},{"rt":null,"stimulus":"<p style=\"font-size: 50px; margin: 0; text-align: center;\">+</p>","response":null,"trial_type":"html-keyboard-response","trial_index":9,"plugin_version":"2.1.0","time_elapsed":85996,"subject_id":"90823","group":"Group2","condition":"1_Rep","full_date":"2026-02-13T12:40:37.679Z","date":"2026-02-13","time":"12:40:37"},{"task":"memory_phase","broad_category":"I","image_png":"I_Pegmatite_11.png","image_id":107,"category_name":"Pegmatite","category":7,"distinct_rating":7.11,"distinct_type":"Top","rt":null,"stimulus":"Stimuli_Rocks480/I_Pegmatite_11.png","response":null,"trial_type":"image-keyboard-response","trial_index":10,"plugin_version":"2.1.0","time_elapsed":88511,"subject_id":"90823","group":"Group2","condition":"1_Rep","full_date":"2026-02-13T12:40:37.679Z","date":"2026-02-13","time":"12:40:37"},{"rt":null,"stimulus":"<p style=\"font-size: 50px; margin: 0; text-align: center;\">+</p>","response":null,"trial_type":"html-keyboard-response","trial_index":11,"plugin_version":"2.1.0","time_elapsed":89529,"subject_id":"90823","group":"Group2","condition":"1_Rep","full_date":"2026-02-13T12:40:37.679Z","date":"2026-02-13","time":"12:40:37"},{"task":"memory_phase","broad_category":"I","image_png":"I_Basalt_08.png","image_id":24,"category_name":"Basalt","category":2,"distinct_rating":2.31,"distinct_type":"Bottom","rt":null,"stimulus":"Stimuli_Rocks480/I_Basalt_08.png","response":null,"trial_type":"image-keyboard-response","trial_index":12,"plugin_version":"2.1.0","time_elapsed":92046,"subject_id":"90823","group":"Group2","condition":"1_Rep","full_date":"2026-02-13T12:40:37.679Z","date":"2026-02-13","time":"12:40:37"},{"rt":null,"stimulus":"<p style=\"font-size: 50px; margin: 0; text-align: center;\">+</p>","response":null,"trial_type":"html-keyboard-response","trial_index":13,"plugin_version":"2.1.0","time_elapsed":93059,"subject_id":"90823","group":"Group2","condition":"1_Rep","full_date":"2026-02-13T12:40:37.679Z","date":"2026-02-13","time":"12:40:37"},{"task":"memory_phase","broad_category":"M","image_png":"M_Quartzite_12.png","image_id":284,"category_name":"Quartzite","category":18,"distinct_rating":1.92,"distinct_type":"Bottom","rt":null,"stimulus":"Stimuli_Rocks480/M_Quartzite_12.png","response":null,"trial_type":"image-keyboard-response","trial_index":14,"plugin_version":"2.1.0","time_elapsed":95572,"subject_id":"90823","group":"Group2","condition":"1_Rep","full_date":"2026-02-13T12:40:37.679Z","date":"2026-02-13","time":"12:40:37"},{"rt":null,"stimulus":"<p style=\"font-size: 50px; margin: 0; text-align: center;\">+</p>","response":null,"trial_type":"html-keyboard-response","trial_index":15,"plugin_version":"2.1.0","time_elapsed":96586,"subject_id":"90823","group":"Group2","condition":"1_Rep","full_date":"2026-02-13T12:40:37.679Z","date":"2026-02-13","time":"12:40:37"},{"task":"memory_phase","broad_category":"M","image_png":"M_Slate_10.png","image_id":314,"category_name":"Slate","category":20,"distinct_rating":1.94,"distinct_type":"Bottom","rt":null,"stimulus":"Stimuli_Rocks480/M_Slate_10.png","response":null,"trial_type":"image-keyboard-response","trial_index":16,"plugin_version":"2.1.0","time_elapsed":99099,"subject_id":"90823","group":"Group2","condition":"1_Rep","full_date":"2026-02-13T12:40:37.679Z","date":"2026-02-13","time":"12:40:37"},{"rt":null,"stimulus":"<p style=\"font-size: 50px; margin: 0; text-align: center;\">+</p>","response":null,"trial_type":"html-keyboard-response","trial_index":17,"plugin_version":"2.1.0","time_elapsed":100101,"subject_id":"90823","group":"Group2","condition":"1_Rep","full_date":"2026-02-13T12:40:37.679Z","date":"2026-02-13","time":"12:40:37"},{"task":"memory_phase","broad_category":"M","image_png":"M_Marble_02.png","image_id":226,"category_name":"Marble","category":15,"distinct_rating":3.2,"distinct_type":"Bottom","rt":null,"stimulus":"Stimuli_Rocks480/M_Marble_02.png","response":null,"trial_type":"image-keyboard-response","trial_index":18,"plugin_version":"2.1.0","time_elapsed":102609,"subject_id":"90823","group":"Group2","condition":"1_Rep","full_date":"2026-02-13T12:40:37.679Z","date":"2026-02-13","time":"12:40:37"},{"rt":null,"stimulus":"<p style=\"font-size: 50px; margin: 0; text-align: center;\">+</p>","response":null,"trial_type":"html-keyboard-response","trial_index":19,"plugin_version":"2.1.0","time_elapsed":103625,"subject_id":"90823","group":"Group2","condition":"1_Rep","full_date":"2026-02-13T12:40:37.679Z","date":"2026-02-13","time":"12:40:37"},{"task":"memory_phase","broad_category":"S","image_png":"S_Rock Salt_13.png","image_id":445,"category_name":"Rock Salt","category":28,"distinct_rating":7.58,"distinct_type":"Top","rt":null,"stimulus":"Stimuli_Rocks480/S_Rock Salt_13.png","response":null,"trial_type":"image-keyboard-response","trial_index":20,"plugin_version":"2.1.0","time_elapsed":106131,"subject_id":"90823","group":"Group2","condition":"1_Rep","full_date":"2026-02-13T12:40:37.679Z","date":"2026-02-13","time":"12:40:37"},{"rt":null,"stimulus":"<p style=\"font-size: 50px; margin: 0; text-align: center;\">+</p>","response":null,"trial_type":"html-keyboard-response","trial_index":21,"plugin_version":"2.1.0","time_elapsed":107135,"subject_id":"90823","group":"Group2","condition":"1_Rep","full_date":"2026-02-13T12:40:37.679Z","date":"2026-02-13","time":"12:40:37"},{"task":"memory_phase","broad_category":"S","image_png":"S_Shale_02.png","image_id":466,"category_name":"Shale","category":30,"distinct_rating":2.9,"distinct_type":"Bottom","rt":null,"stimulus":"Stimuli_Rocks480/S_Shale_02.png","response":null,"trial_type":"image-keyboard-response","trial_index":22,"plugin_version":"2.1.0","time_elapsed":109645,"subject_id":"90823","group":"Group2","condition":"1_Rep","full_date":"2026-02-13T12:40:37.679Z","date":"2026-02-13","time":"12:40:37"},{"rt":null,"stimulus":"<p style=\"font-size: 50px; margin: 0; text-align: center;\">+</p>","response":null,"trial_type":"html-keyboard-response","trial_index":23,"plugin_version":"2.1.0","time_elapsed":110655,"subject_id":"90823","group":"Group2","condition":"1_Rep","full_date":"2026-02-13T12:40:37.679Z","date":"2026-02-13","time":"12:40:37"},{"task":"memory_phase","broad_category":"I","image_png":"I_Rhyolite_10.png","image_id":154,"category_name":"Rhyolite","category":10,"distinct_rating":2.88,"distinct_type":"Bottom","rt":null,"stimulus":"Stimuli_Rocks480/I_Rhyolite_10.png","response":null,"trial_type":"image-keyboard-response","trial_index":24,"plugin_version":"2.1.0","time_elapsed":113159,"subject_id":"90823","group":"Group2","condition":"1_Rep","full_date":"2026-02-13T12:40:37.679Z","date":"2026-02-13","time":"12:40:37"},{"rt":null,"stimulus":"<p style=\"font-size: 50px; margin: 0; text-align: center;\">+</p>","response":null,"trial_type":"html-keyboard-response","trial_index":25,"plugin_version":"2.1.0","time_elapsed":114174,"subject_id":"90823","group":"Group2","condition":"1_Rep","full_date":"2026-02-13T12:40:37.679Z","date":"2026-02-13","time":"12:40:37"},{"task":"memory_phase","broad_category":"I","image_png":"I_Andesite_03.png","image_id":3,"category_name":"Andesite","category":1,"distinct_rating":3.17,"distinct_type":"Bottom","rt":null,"stimulus":"Stimuli_Rocks480/I_Andesite_03.png","response":null,"trial_type":"image-keyboard-response","trial_index":26,"plugin_version":"2.1.0","time_elapsed":116679,"subject_id":"90823","group":"Group2","condition":"1_Rep","full_date":"2026-02-13T12:40:37.679Z","date":"2026-02-13","time":"12:40:37"},{"rt":null,"stimulus":"<p style=\"font-size: 50px; margin: 0; text-align: center;\">+</p>","response":null,"trial_type":"html-keyboard-response","trial_index":27,"plugin_version":"2.1.0","time_elapsed":117689,"subject_id":"90823","group":"Group2","condition":"1_Rep","full_date":"2026-02-13T12:40:37.679Z","date":"2026-02-13","time":"12:40:37"},{"task":"memory_phase","broad_category":"S","image_png":"S_Sandstone_11.png","image_id":459,"category_name":"Sandstone","category":29,"distinct_rating":1.82,"distinct_type":"Bottom","rt":null,"stimulus":"Stimuli_Rocks480/S_Sandstone_11.png","response":null,"trial_type":"image-keyboard-response","trial_index":28,"plugin_version":"2.1.0","time_elapsed":120208,"subject_id":"90823","group":"Group2","condition":"1_Rep","full_date":"2026-02-13T12:40:37.679Z","date":"2026-02-13","time":"12:40:37"},{"rt":null,"stimulus":"<p style=\"font-size: 50px; margin: 0; text-align: center;\">+</p>","response":null,"trial_type":"html-keyboard-response","trial_index":29,"plugin_version":"2.1.0","time_elapsed":121225,"subject_id":"90823","group":"Group2","condition":"1_Rep","full_date":"2026-02-13T12:40:37.679Z","date":"2026-02-13","time":"12:40:37"},{"task":"memory_phase","broad_category":"I","image_png":"I_Peridotite_13.png","image_id":125,"category_name":"Peridotite","category":8,"distinct_rating":7.28,"distinct_type":"Top","rt":null,"stimulus":"Stimuli_Rocks480/I_Peridotite_13.png","response":null,"trial_type":"image-keyboard-response","trial_index":30,"plugin_version":"2.1.0","time_elapsed":123735,"subject_id":"90823","group":"Group2","condition":"1_Rep","full_date":"2026-02-13T12:40:37.679Z","date":"2026-02-13","time":"12:40:37"},{"rt":null,"stimulus":"<p style=\"font-size: 50px; margin: 0; text-align: center;\">+</p>","response":null,"trial_type":"html-keyboard-response","trial_index":31,"plugin_version":"2.1.0","time_elapsed":124750,"subject_id":"90823","group":"Group2","condition":"1_Rep","full_date":"2026-02-13T12:40:37.679Z","date":"2026-02-13","time":"12:40:37"},{"task":"memory_phase","broad_category":"M","image_png":"M_Quartzite_07.png","image_id":279,"category_name":"Quartzite","category":18,"distinct_rating":1.97,"distinct_type":"Bottom","rt":null,"stimulus":"Stimuli_Rocks480/M_Quartzite_07.png","response":null,"trial_type":"image-keyboard-response","trial_index":32,"plugin_version":"2.1.0","time_elapsed":127255,"subject_id":"90823","group":"Group2","condition":"1_Rep","full_date":"2026-02-13T12:40:37.679Z","date":"2026-02-13","time":"12:40:37"},{"rt":null,"stimulus":"<p style=\"font-size: 50px; margin: 0; text-align: center;\">+</p>","response":null,"trial_type":"html-keyboard-response","trial_index":33,"plugin_version":"2.1.0","time_elapsed":128271,"subject_id":"90823","group":"Group2","condition":"1_Rep","full_date":"2026-02-13T12:40:37.679Z","date":"2026-02-13","time":"12:40:37"},{"task":"memory_phase","broad_category":"S","image_png":"S_Sandstone_04.png","image_id":452,"category_name":"Sandstone","category":29,"distinct_rating":1.8,"distinct_type":"Bottom","rt":null,"stimulus":"Stimuli_Rocks480/S_Sandstone_04.png","response":null,"trial_type":"image-keyboard-response","trial_index":34,"plugin_version":"2.1.0","time_elapsed":130780,"subject_id":"90823","group":"Group2","condition":"1_Rep","full_date":"2026-02-13T12:40:37.679Z","date":"2026-02-13","time":"12:40:37"},{"rt":null,"stimulus":"<p style=\"font-size: 50px; margin: 0; text-align: center;\">+</p>","response":null,"trial_type":"html-keyboard-response","trial_index":35,"plugin_version":"2.1.0","time_elapsed":131787,"subject_id":"90823","group":"Group2","condition":"1_Rep","full_date":"2026-02-13T12:40:37.679Z","date":"2026-02-13","time":"12:40:37"},{"task":"memory_phase","broad_category":"S","image_png":"S_Dolomite_16.png","image_id":400,"category_name":"Dolomite","category":25,"distinct_rating":1.71,"distinct_type":"Bottom","rt":null,"stimulus":"Stimuli_Rocks480/S_Dolomite_16.png","response":null,"trial_type":"image-keyboard-response","trial_index":36,"plugin_version":"2.1.0","time_elapsed":134302,"subject_id":"90823","group":"Group2","condition":"1_Rep","full_date":"2026-02-13T12:40:37.679Z","date":"2026-02-13","time":"12:40:37"},{"rt":null,"stimulus":"<p style=\"font-size: 50px; margin: 0; text-align: center;\">+</p>","response":null,"trial_type":"html-keyboard-response","trial_index":37,"plugin_version":"2.1.0","time_elapsed":135314,"subject_id":"90823","group":"Group2","condition":"1_Rep","full_date":"2026-02-13T12:40:37.679Z","date":"2026-02-13","time":"12:40:37"},{"task":"memory_phase","broad_category":"S","image_png":"S_Rock Salt_15.png","image_id":447,"category_name":"Rock Salt","category":28,"distinct_rating":7.79,"distinct_type":"Top","rt":null,"stimulus":"Stimuli_Rocks480/S_Rock Salt_15.png","response":null,"trial_type":"image-keyboard-response","trial_index":38,"plugin_version":"2.1.0","time_elapsed":137820,"subject_id":"90823","group":"Group2","condition":"1_Rep","full_date":"2026-02-13T12:40:37.679Z","date":"2026-02-13","time":"12:40:37"},{"rt":null,"stimulus":"<p style=\"font-size: 50px; margin: 0; text-align: center;\">+</p>","response":null,"trial_type":"html-keyboard-response","trial_index":39,"plugin_version":"2.1.0","time_elapsed":138836,"subject_id":"90823","group":"Group2","condition":"1_Rep","full_date":"2026-02-13T12:40:37.679Z","date":"2026-02-13","time":"12:40:37"},{"task":"memory_phase","broad_category":"I","image_png":"I_Rhyolite_08.png","image_id":152,"category_name":"Rhyolite","category":10,"distinct_rating":1.38,"distinct_type":"Bottom","rt":null,"stimulus":"Stimuli_Rocks480/I_Rhyolite_08.png","response":null,"trial_type":"image-keyboard-response","trial_index":40,"plugin_version":"2.1.0","time_elapsed":141342,"subject_id":"90823","group":"Group2","condition":"1_Rep","full_date":"2026-02-13T12:40:37.679Z","date":"2026-02-13","time":"12:40:37"},{"rt":null,"stimulus":"<p style=\"font-size: 50px; margin: 0; text-align: center;\">+</p>","response":null,"trial_type":"html-keyboard-response","trial_index":41,"plugin_version":"2.1.0","time_elapsed":142349,"subject_id":"90823","group":"Group2","condition":"1_Rep","full_date":"2026-02-13T12:40:37.679Z","date":"2026-02-13","time":"12:40:37"},{"task":"memory_phase","broad_category":"S","image_png":"S_Sandstone_08.png","image_id":456,"category_name":"Sandstone","category":29,"distinct_rating":1.5,"distinct_type":"Bottom","rt":null,"stimulus":"Stimuli_Rocks480/S_Sandstone_08.png","response":null,"trial_type":"image-keyboard-response","trial_index":42,"plugin_version":"2.1.0","time_elapsed":144866,"subject_id":"90823","group":"Group2","condition":"1_Rep","full_date":"2026-02-13T12:40:37.679Z","date":"2026-02-13","time":"12:40:37"},{"rt":null,"stimulus":"<p style=\"font-size: 50px; margin: 0; text-align: center;\">+</p>","response":null,"trial_type":"html-keyboard-response","trial_index":43,"plugin_version":"2.1.0","time_elapsed":145871,"subject_id":"90823","group":"Group2","condition":"1_Rep","full_date":"2026-02-13T12:40:37.679Z","date":"2026-02-13","time":"12:40:37"},{"task":"memory_phase","broad_category":"M","image_png":"M_Gneiss_14.png","image_id":206,"category_name":"Gneiss","category":13,"distinct_rating":3.41,"distinct_type":"Bottom","rt":null,"stimulus":"Stimuli_Rocks480/M_Gneiss_14.png","response":null,"trial_type":"image-keyboard-response","trial_index":44,"plugin_version":"2.1.0","time_elapsed":148382,"subject_id":"90823","group":"Group2","condition":"1_Rep","full_date":"2026-02-13T12:40:37.679Z","date":"2026-02-13","time":"12:40:37"},{"rt":null,"stimulus":"<p style=\"font-size: 50px; margin: 0; text-align: center;\">+</p>","response":null,"trial_type":"html-keyboard-response","trial_index":45,"plugin_version":"2.1.0","time_elapsed":149389,"subject_id":"90823","group":"Group2","condition":"1_Rep","full_date":"2026-02-13T12:40:37.679Z","date":"2026-02-13","time":"12:40:37"},{"task":"memory_phase","broad_category":"S","image_png":"S_Conglomerate_14.png","image_id":382,"category_name":"Conglomerate","category":24,"distinct_rating":6.86,"distinct_type":"Top","rt":null,"stimulus":"Stimuli_Rocks480/S_Conglomerate_14.png","response":null,"trial_type":"image-keyboard-response","trial_index":46,"plugin_version":"2.1.0","time_elapsed":151900,"subject_id":"90823","group":"Group2","condition":"1_Rep","full_date":"2026-02-13T12:40:37.679Z","date":"2026-02-13","time":"12:40:37"},{"rt":null,"stimulus":"<p style=\"font-size: 50px; margin: 0; text-align: center;\">+</p>","response":null,"trial_type":"html-keyboard-response","trial_index":47,"plugin_version":"2.1.0","time_elapsed":152904,"subject_id":"90823","group":"Group2","condition":"1_Rep","full_date":"2026-02-13T12:40:37.679Z","date":"2026-02-13","time":"12:40:37"},{"task":"memory_phase","broad_category":"M","image_png":"M_Gneiss_15.png","image_id":207,"category_name":"Gneiss","category":13,"distinct_rating":3.11,"distinct_type":"Bottom","rt":null,"stimulus":"Stimuli_Rocks480/M_Gneiss_15.png","response":null,"trial_type":"image-keyboard-response","trial_index":48,"plugin_version":"2.1.0","time_elapsed":155422,"subject_id":"90823","group":"Group2","condition":"1_Rep","full_date":"2026-02-13T12:40:37.679Z","date":"2026-02-13","time":"12:40:37"},{"rt":null,"stimulus":"<p style=\"font-size: 50px; margin: 0; text-align: center;\">+</p>","response":null,"trial_type":"html-keyboard-response","trial_index":49,"plugin_version":"2.1.0","time_elapsed":156435,"subject_id":"90823","group":"Group2","condition":"1_Rep","full_date":"2026-02-13T12:40:37.679Z","date":"2026-02-13","time":"12:40:37"},{"task":"memory_phase","broad_category":"I","image_png":"I_Gabbro_12.png","image_id":60,"category_name":"Gabbro","category":4,"distinct_rating":2.6,"distinct_type":"Bottom","rt":null,"stimulus":"Stimuli_Rocks480/I_Gabbro_12.png","response":null,"trial_type":"image-keyboard-response","trial_index":50,"plugin_version":"2.1.0","time_elapsed":158940,"subject_id":"90823","group":"Group2","condition":"1_Rep","full_date":"2026-02-13T12:40:37.679Z","date":"2026-02-13","time":"12:40:37"},{"rt":null,"stimulus":"<p style=\"font-size: 50px; margin: 0; text-align: center;\">+</p>","response":null,"trial_type":"html-keyboard-response","trial_index":51,"plugin_version":"2.1.0","time_elapsed":159949,"subject_id":"90823","group":"Group2","condition":"1_Rep","full_date":"2026-02-13T12:40:37.679Z","date":"2026-02-13","time":"12:40:37"},{"task":"memory_phase","broad_category":"M","image_png":"M_Phyllite_05.png","image_id":261,"category_name":"Phyllite","category":17,"distinct_rating":2.14,"distinct_type":"Bottom","rt":null,"stimulus":"Stimuli_Rocks480/M_Phyllite_05.png","response":null,"trial_type":"image-keyboard-response","trial_index":52,"plugin_version":"2.1.0","time_elapsed":162454,"subject_id":"90823","group":"Group2","condition":"1_Rep","full_date":"2026-02-13T12:40:37.679Z","date":"2026-02-13","time":"12:40:37"},{"rt":null,"stimulus":"<p style=\"font-size: 50px; margin: 0; text-align: center;\">+</p>","response":null,"trial_type":"html-keyboard-response","trial_index":53,"plugin_version":"2.1.0","time_elapsed":163460,"subject_id":"90823","group":"Group2","condition":"1_Rep","full_date":"2026-02-13T12:40:37.679Z","date":"2026-02-13","time":"12:40:37"},{"task":"memory_phase","broad_category":"M","image_png":"M_Gneiss_10.png","image_id":202,"category_name":"Gneiss","category":13,"distinct_rating":3.09,"distinct_type":"Bottom","rt":null,"stimulus":"Stimuli_Rocks480/M_Gneiss_10.png","response":null,"trial_type":"image-keyboard-response","trial_index":54,"plugin_version":"2.1.0","time_elapsed":165974,"subject_id":"90823","group":"Group2","condition":"1_Rep","full_date":"2026-02-13T12:40:37.679Z","date":"2026-02-13","time":"12:40:37"},{"rt":1187,"stimulus":"<p style=\"max-width: 760px; margin: auto; font-size: 35px; line-height: 1.5;\">\n                Press SPACE to continue study phase\n              </p>","response":" ","trial_type":"html-keyboard-response","trial_index":55,"plugin_version":"2.1.0","time_elapsed":167163,"subject_id":"90823","group":"Group2","condition":"1_Rep","full_date":"2026-02-13T12:40:37.679Z","date":"2026-02-13","time":"12:40:37"},{"rt":null,"stimulus":"<p style=\"font-size: 50px; margin: 0; text-align: center;\">+</p>","response":null,"trial_type":"html-keyboard-response","trial_index":56,"plugin_version":"2.1.0","time_elapsed":168171,"subject_id":"90823","group":"Group2","condition":"1_Rep","full_date":"2026-02-13T12:40:37.679Z","date":"2026-02-13","time":"12:40:37"},{"task":"memory_phase","broad_category":"M","image_png":"M_Slate_14.png","image_id":318,"category_name":"Slate","category":20,"distinct_rating":2.58,"distinct_type":"Bottom","rt":null,"stimulus":"Stimuli_Rocks480/M_Slate_14.png","response":null,"trial_type":"image-keyboard-response","trial_index":57,"plugin_version":"2.1.0","time_elapsed":170684,"subject_id":"90823","group":"Group2","condition":"1_Rep","full_date":"2026-02-13T12:40:37.679Z","date":"2026-02-13","time":"12:40:37"},{"rt":null,"stimulus":"<p style=\"font-size: 50px; margin: 0; text-align: center;\">+</p>","response":null,"trial_type":"html-keyboard-response","trial_index":58,"plugin_version":"2.1.0","time_elapsed":171698,"subject_id":"90823","group":"Group2","condition":"1_Rep","full_date":"2026-02-13T12:40:37.679Z","date":"2026-02-13","time":"12:40:37"},{"task":"memory_phase","broad_category":"S","image_png":"S_Shale_03.png","image_id":467,"category_name":"Shale","category":30,"distinct_rating":1.95,"distinct_type":"Bottom","rt":null,"stimulus":"Stimuli_Rocks480/S_Shale_03.png","response":null,"trial_type":"image-keyboard-response","trial_index":59,"plugin_version":"2.1.0","time_elapsed":174208,"subject_id":"90823","group":"Group2","condition":"1_Rep","full_date":"2026-02-13T12:40:37.679Z","date":"2026-02-13","time":"12:40:37"},{"rt":null,"stimulus":"<p style=\"font-size: 50px; margin: 0; text-align: center;\">+</p>","response":null,"trial_type":"html-keyboard-response","trial_index":60,"plugin_version":"2.1.0","time_elapsed":175226,"subject_id":"90823","group":"Group2","condition":"1_Rep","full_date":"2026-02-13T12:40:37.679Z","date":"2026-02-13","time":"12:40:37"},{"task":"memory_phase","broad_category":"I","image_png":"I_Basalt_13.png","image_id":29,"category_name":"Basalt","category":2,"distinct_rating":2.68,"distinct_type":"Bottom","rt":null,"stimulus":"Stimuli_Rocks480/I_Basalt_13.png","response":null,"trial_type":"image-keyboard-response","trial_index":61,"plugin_version":"2.1.0","time_elapsed":177738,"subject_id":"90823","group":"Group2","condition":"1_Rep","full_date":"2026-02-13T12:40:37.679Z","date":"2026-02-13","time":"12:40:37"},{"rt":null,"stimulus":"<p style=\"font-size: 50px; margin: 0; text-align: center;\">+</p>","response":null,"trial_type":"html-keyboard-response","trial_index":62,"plugin_version":"2.1.0","time_elapsed":178755,"subject_id":"90823","group":"Group2","condition":"1_Rep","full_date":"2026-02-13T12:40:37.679Z","date":"2026-02-13","time":"12:40:37"},{"task":"memory_phase","broad_category":"M","image_png":"M_Marble_03.png","image_id":227,"category_name":"Marble","category":15,"distinct_rating":2.67,"distinct_type":"Bottom","rt":null,"stimulus":"Stimuli_Rocks480/M_Marble_03.png","response":null,"trial_type":"image-keyboard-response","trial_index":63,"plugin_version":"2.1.0","time_elapsed":181262,"subject_id":"90823","group":"Group2","condition":"1_Rep","full_date":"2026-02-13T12:40:37.679Z","date":"2026-02-13","time":"12:40:37"},{"rt":null,"stimulus":"<p style=\"font-size: 50px; margin: 0; text-align: center;\">+</p>","response":null,"trial_type":"html-keyboard-response","trial_index":64,"plugin_version":"2.1.0","time_elapsed":182275,"subject_id":"90823","group":"Group2","condition":"1_Rep","full_date":"2026-02-13T12:40:37.679Z","date":"2026-02-13","time":"12:40:37"},{"task":"memory_phase","broad_category":"S","image_png":"S_Chert_13.png","image_id":365,"category_name":"Chert","category":23,"distinct_rating":6.57,"distinct_type":"Top","rt":null,"stimulus":"Stimuli_Rocks480/S_Chert_13.png","response":null,"trial_type":"image-keyboard-response","trial_index":65,"plugin_version":"2.1.0","time_elapsed":184790,"subject_id":"90823","group":"Group2","condition":"1_Rep","full_date":"2026-02-13T12:40:37.679Z","date":"2026-02-13","time":"12:40:37"},{"rt":null,"stimulus":"<p style=\"font-size: 50px; margin: 0; text-align: center;\">+</p>","response":null,"trial_type":"html-keyboard-response","trial_index":66,"plugin_version":"2.1.0","time_elapsed":185796,"subject_id":"90823","group":"Group2","condition":"1_Rep","full_date":"2026-02-13T12:40:37.679Z","date":"2026-02-13","time":"12:40:37"},{"task":"memory_phase","broad_category":"I","image_png":"I_Gabbro_14.png","image_id":62,"category_name":"Gabbro","category":4,"distinct_rating":2.95,"distinct_type":"Bottom","rt":null,"stimulus":"Stimuli_Rocks480/I_Gabbro_14.png","response":null,"trial_type":"image-keyboard-response","trial_index":67,"plugin_version":"2.1.0","time_elapsed":188303,"subject_id":"90823","group":"Group2","condition":"1_Rep","full_date":"2026-02-13T12:40:37.679Z","date":"2026-02-13","time":"12:40:37"},{"rt":null,"stimulus":"<p style=\"font-size: 50px; margin: 0; text-align: center;\">+</p>","response":null,"trial_type":"html-keyboard-response","trial_index":68,"plugin_version":"2.1.0","time_elapsed":189313,"subject_id":"90823","group":"Group2","condition":"1_Rep","full_date":"2026-02-13T12:40:37.679Z","date":"2026-02-13","time":"12:40:37"},{"task":"memory_phase","broad_category":"M","image_png":"M_Phyllite_02.png","image_id":258,"category_name":"Phyllite","category":17,"distinct_rating":2.89,"distinct_type":"Bottom","rt":null,"stimulus":"Stimuli_Rocks480/M_Phyllite_02.png","response":null,"trial_type":"image-keyboard-response","trial_index":69,"plugin_version":"2.1.0","time_elapsed":191831,"subject_id":"90823","group":"Group2","condition":"1_Rep","full_date":"2026-02-13T12:40:37.679Z","date":"2026-02-13","time":"12:40:37"},{"rt":null,"stimulus":"<p style=\"font-size: 50px; margin: 0; text-align: center;\">+</p>","response":null,"trial_type":"html-keyboard-response","trial_index":70,"plugin_version":"2.1.0","time_elapsed":192848,"subject_id":"90823","group":"Group2","condition":"1_Rep","full_date":"2026-02-13T12:40:37.679Z","date":"2026-02-13","time":"12:40:37"},{"task":"memory_phase","broad_category":"I","image_png":"I_Pumice_14.png","image_id":142,"category_name":"Pumice","category":9,"distinct_rating":3.22,"distinct_type":"Bottom","rt":null,"stimulus":"Stimuli_Rocks480/I_Pumice_14.png","response":null,"trial_type":"image-keyboard-response","trial_index":71,"plugin_version":"2.1.0","time_elapsed":195367,"subject_id":"90823","group":"Group2","condition":"1_Rep","full_date":"2026-02-13T12:40:37.679Z","date":"2026-02-13","time":"12:40:37"},{"rt":null,"stimulus":"<p style=\"font-size: 50px; margin: 0; text-align: center;\">+</p>","response":null,"trial_type":"html-keyboard-response","trial_index":72,"plugin_version":"2.1.0","time_elapsed":196370,"subject_id":"90823","group":"Group2","condition":"1_Rep","full_date":"2026-02-13T12:40:37.679Z","date":"2026-02-13","time":"12:40:37"},{"task":"memory_phase","broad_category":"M","image_png":"M_Phyllite_13.png","image_id":269,"category_name":"Phyllite","category":17,"distinct_rating":2.8,"distinct_type":"Bottom","rt":null,"stimulus":"Stimuli_Rocks480/M_Phyllite_13.png","response":null,"trial_type":"image-keyboard-response","trial_index":73,"plugin_version":"2.1.0","time_elapsed":198886,"subject_id":"90823","group":"Group2","condition":"1_Rep","full_date":"2026-02-13T12:40:37.679Z","date":"2026-02-13","time":"12:40:37"},{"rt":null,"stimulus":"<p style=\"font-size: 50px; margin: 0; text-align: center;\">+</p>","response":null,"trial_type":"html-keyboard-response","trial_index":74,"plugin_version":"2.1.0","time_elapsed":199897,"subject_id":"90823","group":"Group2","condition":"1_Rep","full_date":"2026-02-13T12:40:37.679Z","date":"2026-02-13","time":"12:40:37"},{"task":"memory_phase","broad_category":"I","image_png":"I_Andesite_09.png","image_id":9,"category_name":"Andesite","category":1,"distinct_rating":2.49,"distinct_type":"Bottom","rt":null,"stimulus":"Stimuli_Rocks480/I_Andesite_09.png","response":null,"trial_type":"image-keyboard-response","trial_index":75,"plugin_version":"2.1.0","time_elapsed":202414,"subject_id":"90823","group":"Group2","condition":"1_Rep","full_date":"2026-02-13T12:40:37.679Z","date":"2026-02-13","time":"12:40:37"},{"rt":null,"stimulus":"<p style=\"font-size: 50px; margin: 0; text-align: center;\">+</p>","response":null,"trial_type":"html-keyboard-response","trial_index":76,"plugin_version":"2.1.0","time_elapsed":203419,"subject_id":"90823","group":"Group2","condition":"1_Rep","full_date":"2026-02-13T12:40:37.679Z","date":"2026-02-13","time":"12:40:37"},{"task":"memory_phase","broad_category":"I","image_png":"I_Gabbro_02.png","image_id":50,"category_name":"Gabbro","category":4,"distinct_rating":2.73,"distinct_type":"Bottom","rt":null,"stimulus":"Stimuli_Rocks480/I_Gabbro_02.png","response":null,"trial_type":"image-keyboard-response","trial_index":77,"plugin_version":"2.1.0","time_elapsed":205934,"subject_id":"90823","group":"Group2","condition":"1_Rep","full_date":"2026-02-13T12:40:37.679Z","date":"2026-02-13","time":"12:40:37"},{"rt":null,"stimulus":"<p style=\"font-size: 50px; margin: 0; text-align: center;\">+</p>","response":null,"trial_type":"html-keyboard-response","trial_index":78,"plugin_version":"2.1.0","time_elapsed":206936,"subject_id":"90823","group":"Group2","condition":"1_Rep","full_date":"2026-02-13T12:40:37.679Z","date":"2026-02-13","time":"12:40:37"},{"task":"memory_phase","broad_category":"I","image_png":"I_Pumice_01.png","image_id":129,"category_name":"Pumice","category":9,"distinct_rating":3.25,"distinct_type":"Bottom","rt":null,"stimulus":"Stimuli_Rocks480/I_Pumice_01.png","response":null,"trial_type":"image-keyboard-response","trial_index":79,"plugin_version":"2.1.0","time_elapsed":209453,"subject_id":"90823","group":"Group2","condition":"1_Rep","full_date":"2026-02-13T12:40:37.679Z","date":"2026-02-13","time":"12:40:37"},{"rt":null,"stimulus":"<p style=\"font-size: 50px; margin: 0; text-align: center;\">+</p>","response":null,"trial_type":"html-keyboard-response","trial_index":80,"plugin_version":"2.1.0","time_elapsed":210467,"subject_id":"90823","group":"Group2","condition":"1_Rep","full_date":"2026-02-13T12:40:37.679Z","date":"2026-02-13","time":"12:40:37"},{"task":"memory_phase","broad_category":"M","image_png":"M_Slate_04.png","image_id":308,"category_name":"Slate","category":20,"distinct_rating":2.2,"distinct_type":"Bottom","rt":null,"stimulus":"Stimuli_Rocks480/M_Slate_04.png","response":null,"trial_type":"image-keyboard-response","trial_index":81,"plugin_version":"2.1.0","time_elapsed":212976,"subject_id":"90823","group":"Group2","condition":"1_Rep","full_date":"2026-02-13T12:40:37.679Z","date":"2026-02-13","time":"12:40:37"},{"rt":null,"stimulus":"<p style=\"font-size: 50px; margin: 0; text-align: center;\">+</p>","response":null,"trial_type":"html-keyboard-response","trial_index":82,"plugin_version":"2.1.0","time_elapsed":213994,"subject_id":"90823","group":"Group2","condition":"1_Rep","full_date":"2026-02-13T12:40:37.679Z","date":"2026-02-13","time":"12:40:37"},{"task":"memory_phase","broad_category":"I","image_png":"I_Obsidian_06.png","image_id":86,"category_name":"Obsidian","category":6,"distinct_rating":8.01,"distinct_type":"Top","rt":null,"stimulus":"Stimuli_Rocks480/I_Obsidian_06.png","response":null,"trial_type":"image-keyboard-response","trial_index":83,"plugin_version":"2.1.0","time_elapsed":216510,"subject_id":"90823","group":"Group2","condition":"1_Rep","full_date":"2026-02-13T12:40:37.679Z","date":"2026-02-13","time":"12:40:37"},{"rt":null,"stimulus":"<p style=\"font-size: 50px; margin: 0; text-align: center;\">+</p>","response":null,"trial_type":"html-keyboard-response","trial_index":84,"plugin_version":"2.1.0","time_elapsed":217520,"subject_id":"90823","group":"Group2","condition":"1_Rep","full_date":"2026-02-13T12:40:37.679Z","date":"2026-02-13","time":"12:40:37"},{"task":"memory_phase","broad_category":"I","image_png":"I_Diorite_15.png","image_id":47,"category_name":"Diorite","category":3,"distinct_rating":3.05,"distinct_type":"Bottom","rt":null,"stimulus":"Stimuli_Rocks480/I_Diorite_15.png","response":null,"trial_type":"image-keyboard-response","trial_index":85,"plugin_version":"2.1.0","time_elapsed":220033,"subject_id":"90823","group":"Group2","condition":"1_Rep","full_date":"2026-02-13T12:40:37.679Z","date":"2026-02-13","time":"12:40:37"},{"rt":null,"stimulus":"<p style=\"font-size: 50px; margin: 0; text-align: center;\">+</p>","response":null,"trial_type":"html-keyboard-response","trial_index":86,"plugin_version":"2.1.0","time_elapsed":221045,"subject_id":"90823","group":"Group2","condition":"1_Rep","full_date":"2026-02-13T12:40:37.679Z","date":"2026-02-13","time":"12:40:37"},{"task":"memory_phase","broad_category":"M","image_png":"M_Quartzite_15.png","image_id":287,"category_name":"Quartzite","category":18,"distinct_rating":2.19,"distinct_type":"Bottom","rt":null,"stimulus":"Stimuli_Rocks480/M_Quartzite_15.png","response":null,"trial_type":"image-keyboard-response","trial_index":87,"plugin_version":"2.1.0","time_elapsed":223555,"subject_id":"90823","group":"Group2","condition":"1_Rep","full_date":"2026-02-13T12:40:37.679Z","date":"2026-02-13","time":"12:40:37"},{"rt":null,"stimulus":"<p style=\"font-size: 50px; margin: 0; text-align: center;\">+</p>","response":null,"trial_type":"html-keyboard-response","trial_index":88,"plugin_version":"2.1.0","time_elapsed":224557,"subject_id":"90823","group":"Group2","condition":"1_Rep","full_date":"2026-02-13T12:40:37.679Z","date":"2026-02-13","time":"12:40:37"},{"task":"memory_phase","broad_category":"S","image_png":"S_Dolomite_07.png","image_id":391,"category_name":"Dolomite","category":25,"distinct_rating":1.73,"distinct_type":"Bottom","rt":null,"stimulus":"Stimuli_Rocks480/S_Dolomite_07.png","response":null,"trial_type":"image-keyboard-response","trial_index":89,"plugin_version":"2.1.0","time_elapsed":227075,"subject_id":"90823","group":"Group2","condition":"1_Rep","full_date":"2026-02-13T12:40:37.679Z","date":"2026-02-13","time":"12:40:37"},{"rt":null,"stimulus":"<p style=\"font-size: 50px; margin: 0; text-align: center;\">+</p>","response":null,"trial_type":"html-keyboard-response","trial_index":90,"plugin_version":"2.1.0","time_elapsed":228088,"subject_id":"90823","group":"Group2","condition":"1_Rep","full_date":"2026-02-13T12:40:37.679Z","date":"2026-02-13","time":"12:40:37"},{"task":"memory_phase","broad_category":"I","image_png":"I_Diorite_01.png","image_id":33,"category_name":"Diorite","category":3,"distinct_rating":2.97,"distinct_type":"Bottom","rt":null,"stimulus":"Stimuli_Rocks480/I_Diorite_01.png","response":null,"trial_type":"image-keyboard-response","trial_index":91,"plugin_version":"2.1.0","time_elapsed":230607,"subject_id":"90823","group":"Group2","condition":"1_Rep","full_date":"2026-02-13T12:40:37.679Z","date":"2026-02-13","time":"12:40:37"},{"rt":null,"stimulus":"<p style=\"font-size: 50px; margin: 0; text-align: center;\">+</p>","response":null,"trial_type":"html-keyboard-response","trial_index":92,"plugin_version":"2.1.0","time_elapsed":231623,"subject_id":"90823","group":"Group2","condition":"1_Rep","full_date":"2026-02-13T12:40:37.679Z","date":"2026-02-13","time":"12:40:37"},{"task":"memory_phase","broad_category":"I","image_png":"I_Rhyolite_05.png","image_id":149,"category_name":"Rhyolite","category":10,"distinct_rating":3.02,"distinct_type":"Bottom","rt":null,"stimulus":"Stimuli_Rocks480/I_Rhyolite_05.png","response":null,"trial_type":"image-keyboard-response","trial_index":93,"plugin_version":"2.1.0","time_elapsed":234138,"subject_id":"90823","group":"Group2","condition":"1_Rep","full_date":"2026-02-13T12:40:37.679Z","date":"2026-02-13","time":"12:40:37"},{"rt":null,"stimulus":"<p style=\"font-size: 50px; margin: 0; text-align: center;\">+</p>","response":null,"trial_type":"html-keyboard-response","trial_index":94,"plugin_version":"2.1.0","time_elapsed":235141,"subject_id":"90823","group":"Group2","condition":"1_Rep","full_date":"2026-02-13T12:40:37.679Z","date":"2026-02-13","time":"12:40:37"},{"task":"memory_phase","broad_category":"S","image_png":"S_Shale_07.png","image_id":471,"category_name":"Shale","category":30,"distinct_rating":2.73,"distinct_type":"Bottom","rt":null,"stimulus":"Stimuli_Rocks480/S_Shale_07.png","response":null,"trial_type":"image-keyboard-response","trial_index":95,"plugin_version":"2.1.0","time_elapsed":237650,"subject_id":"90823","group":"Group2","condition":"1_Rep","full_date":"2026-02-13T12:40:37.679Z","date":"2026-02-13","time":"12:40:37"},{"rt":null,"stimulus":"<p style=\"font-size: 50px; margin: 0; text-align: center;\">+</p>","response":null,"trial_type":"html-keyboard-response","trial_index":96,"plugin_version":"2.1.0","time_elapsed":238664,"subject_id":"90823","group":"Group2","condition":"1_Rep","full_date":"2026-02-13T12:40:37.679Z","date":"2026-02-13","time":"12:40:37"},{"task":"memory_phase","broad_category":"M","image_png":"M_Marble_14.png","image_id":238,"category_name":"Marble","category":15,"distinct_rating":3.31,"distinct_type":"Bottom","rt":null,"stimulus":"Stimuli_Rocks480/M_Marble_14.png","response":null,"trial_type":"image-keyboard-response","trial_index":97,"plugin_version":"2.1.0","time_elapsed":241173,"subject_id":"90823","group":"Group2","condition":"1_Rep","full_date":"2026-02-13T12:40:37.679Z","date":"2026-02-13","time":"12:40:37"},{"rt":null,"stimulus":"<p style=\"font-size: 50px; margin: 0; text-align: center;\">+</p>","response":null,"trial_type":"html-keyboard-response","trial_index":98,"plugin_version":"2.1.0","time_elapsed":242179,"subject_id":"90823","group":"Group2","condition":"1_Rep","full_date":"2026-02-13T12:40:37.679Z","date":"2026-02-13","time":"12:40:37"},{"task":"memory_phase","broad_category":"I","image_png":"I_Diorite_10.png","image_id":42,"category_name":"Diorite","category":3,"distinct_rating":2.84,"distinct_type":"Bottom","rt":null,"stimulus":"Stimuli_Rocks480/I_Diorite_10.png","response":null,"trial_type":"image-keyboard-response","trial_index":99,"plugin_version":"2.1.0","time_elapsed":244695,"subject_id":"90823","group":"Group2","condition":"1_Rep","full_date":"2026-02-13T12:40:37.679Z","date":"2026-02-13","time":"12:40:37"},{"rt":null,"stimulus":"<p style=\"font-size: 50px; margin: 0; text-align: center;\">+</p>","response":null,"trial_type":"html-keyboard-response","trial_index":100,"plugin_version":"2.1.0","time_elapsed":245697,"subject_id":"90823","group":"Group2","condition":"1_Rep","full_date":"2026-02-13T12:40:37.679Z","date":"2026-02-13","time":"12:40:37"},{"task":"memory_phase","broad_category":"I","image_png":"I_Pumice_13.png","image_id":141,"category_name":"Pumice","category":9,"distinct_rating":3.12,"distinct_type":"Bottom","rt":null,"stimulus":"Stimuli_Rocks480/I_Pumice_13.png","response":null,"trial_type":"image-keyboard-response","trial_index":101,"plugin_version":"2.1.0","time_elapsed":248204,"subject_id":"90823","group":"Group2","condition":"1_Rep","full_date":"2026-02-13T12:40:37.679Z","date":"2026-02-13","time":"12:40:37"},{"rt":null,"stimulus":"<p style=\"font-size: 50px; margin: 0; text-align: center;\">+</p>","response":null,"trial_type":"html-keyboard-response","trial_index":102,"plugin_version":"2.1.0","time_elapsed":249218,"subject_id":"90823","group":"Group2","condition":"1_Rep","full_date":"2026-02-13T12:40:37.679Z","date":"2026-02-13","time":"12:40:37"},{"task":"memory_phase","broad_category":"I","image_png":"I_Pegmatite_03.png","image_id":99,"category_name":"Pegmatite","category":7,"distinct_rating":7.24,"distinct_type":"Top","rt":null,"stimulus":"Stimuli_Rocks480/I_Pegmatite_03.png","response":null,"trial_type":"image-keyboard-response","trial_index":103,"plugin_version":"2.1.0","time_elapsed":251734,"subject_id":"90823","group":"Group2","condition":"1_Rep","full_date":"2026-02-13T12:40:37.679Z","date":"2026-02-13","time":"12:40:37"},{"rt":null,"stimulus":"<p style=\"font-size: 50px; margin: 0; text-align: center;\">+</p>","response":null,"trial_type":"html-keyboard-response","trial_index":104,"plugin_version":"2.1.0","time_elapsed":252744,"subject_id":"90823","group":"Group2","condition":"1_Rep","full_date":"2026-02-13T12:40:37.679Z","date":"2026-02-13","time":"12:40:37"},{"task":"memory_phase","broad_category":"I","image_png":"I_Basalt_10.png","image_id":26,"category_name":"Basalt","category":2,"distinct_rating":2.76,"distinct_type":"Bottom","rt":null,"stimulus":"Stimuli_Rocks480/I_Basalt_10.png","response":null,"trial_type":"image-keyboard-response","trial_index":105,"plugin_version":"2.1.0","time_elapsed":255262,"subject_id":"90823","group":"Group2","condition":"1_Rep","full_date":"2026-02-13T12:40:37.679Z","date":"2026-02-13","time":"12:40:37"},{"rt":19923,"stimulus":"<div style=\"max-width: 760px; margin: auto; font-size: 20px; line-height: 1.5;\">\n      <h1 style=\"text-align:center; font-size: 30px;\">Instructions for the Test Phase</h1>\n      <p>\n        The study phase is now complete.\n      </p>\n      <p>\n        In the test phase, you will again see a series of rock images. \n        Some will be ones you saw before - during the study phase, while others will be new.  \n        <b>Your task</b> is to decide whether you have seen each image before by pressing the corresponding key on your keyboard:<br><br>\n          <b>A</b> - NO (you did not see this image before)<br>\n          <b>L</b> - YES (you saw this image before)<br><br>\n        The test will proceed at your own pace. You will receive feedback after each response.  \n        Please try to respond <b>as accurately as possible</b>.\n      </p>\n      <p>\n        <b>Reminder:</b> If your computer has multiple language settings (e.g., English and another language),\n        please ensure it is set to English during the test phase.\n      </p>\n      <p>\n        You can track your progress using the <b>completion bar</b> at the top of the screen.  \n        Note that it has been refreshed to reflect your progress during this final phase.\n      </p>\n      <p>\n        Press the button below when you are ready to continue.\n      </p>\n    </div>","response":0,"trial_type":"html-button-response","trial_index":106,"plugin_version":"2.1.0","time_elapsed":275189,"subject_id":"90823","group":"Group2","condition":"1_Rep","full_date":"2026-02-13T12:40:37.679Z","date":"2026-02-13","time":"12:40:37"},{"correct_response":"l","task":"test_phase","broad_category":"I","image_png":"I_Diorite_01.png","image_id":33,"category_name":"Diorite","category":3,"distinct_rating":2.97,"distinct_type":"Bottom","item_type":"Target","rt":6773,"stimulus":"Stimuli_Rocks480/I_Diorite_01.png","response":"a","trial_type":"image-keyboard-response","trial_index":107,"plugin_version":"2.1.0","time_elapsed":281965,"subject_id":"90823","group":"Group2","condition":"1_Rep","full_date":"2026-02-13T12:40:37.679Z","date":"2026-02-13","time":"12:40:37","cor_ans":false},{"trial_type":"html-keyboard-response","rt":null,"stimulus":"<p style=\"color: red; font-size: 50px; font-weight: bold;\">Incorrect</p>","response":null,"trial_index":108,"plugin_version":"2.1.0","time_elapsed":282476,"subject_id":"90823","group":"Group2","condition":"1_Rep","full_date":"2026-02-13T12:40:37.679Z","date":"2026-02-13","time":"12:40:37"},{"correct_response":"l","task":"test_phase","broad_category":"M","image_png":"M_Slate_14.png","image_id":318,"category_name":"Slate","category":20,"distinct_rating":2.58,"distinct_type":"Bottom","item_type":"Target","rt":2599,"stimulus":"Stimuli_Rocks480/M_Slate_14.png","response":"l","trial_type":"image-keyboard-response","trial_index":109,"plugin_version":"2.1.0","time_elapsed":285077,"subject_id":"90823","group":"Group2","condition":"1_Rep","full_date":"2026-02-13T12:40:37.679Z","date":"2026-02-13","time":"12:40:37","cor_ans":true},{"trial_type":"html-keyboard-response","rt":null,"stimulus":"<p style=\"color: green; font-size: 50px; font-weight: bold;\">Correct</p>","response":null,"trial_index":110,"plugin_version":"2.1.0","time_elapsed":285579,"subject_id":"90823","group":"Group2","condition":"1_Rep","full_date":"2026-02-13T12:40:37.679Z","date":"2026-02-13","time":"12:40:37"},{"correct_response":"a","task":"test_phase","broad_category":"S","image_png":"S_Conglomerate_05.png","image_id":373,"category_name":"Conglomerate","category":24,"distinct_rating":7.32,"distinct_type":"Top","item_type":"Foil","rt":2136,"stimulus":"Stimuli_Rocks480/S_Conglomerate_05.png","response":"a","trial_type":"image-keyboard-response","trial_index":111,"plugin_version":"2.1.0","time_elapsed":287719,"subject_id":"90823","group":"Group2","condition":"1_Rep","full_date":"2026-02-13T12:40:37.679Z","date":"2026-02-13","time":"12:40:37","cor_ans":true},{"trial_type":"html-keyboard-response","rt":null,"stimulus":"<p style=\"color: green; font-size: 50px; font-weight: bold;\">Correct</p>","response":null,"trial_index":112,"plugin_version":"2.1.0","time_elapsed":288225,"subject_id":"90823","group":"Group2","condition":"1_Rep","full_date":"2026-02-13T12:40:37.679Z","date":"2026-02-13","time":"12:40:37"},{"correct_response":"a","task":"test_phase","broad_category":"M","image_png":"M_Phyllite_07.png","image_id":263,"category_name":"Phyllite","category":17,"distinct_rating":2.59,"distinct_type":"Bottom","item_type":"Foil","rt":1130,"stimulus":"Stimuli_Rocks480/M_Phyllite_07.png","response":"l","trial_type":"image-keyboard-response","trial_index":113,"plugin_version":"2.1.0","time_elapsed":289360,"subject_id":"90823","group":"Group2","condition":"1_Rep","full_date":"2026-02-13T12:40:37.679Z","date":"2026-02-13","time":"12:40:37","cor_ans":false},{"trial_type":"html-keyboard-response","rt":null,"stimulus":"<p style=\"color: red; font-size: 50px; font-weight: bold;\">Incorrect</p>","response":null,"trial_index":114,"plugin_version":"2.1.0","time_elapsed":289875,"subject_id":"90823","group":"Group2","condition":"1_Rep","full_date":"2026-02-13T12:40:37.679Z","date":"2026-02-13","time":"12:40:37"},{"correct_response":"l","task":"test_phase","broad_category":"M","image_png":"M_Marble_02.png","image_id":226,"category_name":"Marble","category":15,"distinct_rating":3.2,"distinct_type":"Bottom","item_type":"Target","rt":1008,"stimulus":"Stimuli_Rocks480/M_Marble_02.png","response":"l","trial_type":"image-keyboard-response","trial_index":115,"plugin_version":"2.1.0","time_elapsed":290887,"subject_id":"90823","group":"Group2","condition":"1_Rep","full_date":"2026-02-13T12:40:37.679Z","date":"2026-02-13","time":"12:40:37","cor_ans":true},{"trial_type":"html-keyboard-response","rt":null,"stimulus":"<p style=\"color: green; font-size: 50px; font-weight: bold;\">Correct</p>","response":null,"trial_index":116,"plugin_version":"2.1.0","time_elapsed":291394,"subject_id":"90823","group":"Group2","condition":"1_Rep","full_date":"2026-02-13T12:40:37.679Z","date":"2026-02-13","time":"12:40:37"},{"correct_response":"l","task":"test_phase","broad_category":"I","image_png":"I_Basalt_08.png","image_id":24,"category_name":"Basalt","category":2,"distinct_rating":2.31,"distinct_type":"Bottom","item_type":"Target","rt":1066,"stimulus":"Stimuli_Rocks480/I_Basalt_08.png","response":"a","trial_type":"image-keyboard-response","trial_index":117,"plugin_version":"2.1.0","time_elapsed":292463,"subject_id":"90823","group":"Group2","condition":"1_Rep","full_date":"2026-02-13T12:40:37.679Z","date":"2026-02-13","time":"12:40:37","cor_ans":false},{"trial_type":"html-keyboard-response","rt":null,"stimulus":"<p style=\"color: red; font-size: 50px; font-weight: bold;\">Incorrect</p>","response":null,"trial_index":118,"plugin_version":"2.1.0","time_elapsed":292965,"subject_id":"90823","group":"Group2","condition":"1_Rep","full_date":"2026-02-13T12:40:37.679Z","date":"2026-02-13","time":"12:40:37"},{"correct_response":"a","task":"test_phase","broad_category":"M","image_png":"M_Gneiss_05.png","image_id":197,"category_name":"Gneiss","category":13,"distinct_rating":2.97,"distinct_type":"Bottom","item_type":"Foil","rt":835,"stimulus":"Stimuli_Rocks480/M_Gneiss_05.png","response":"l","trial_type":"image-keyboard-response","trial_index":119,"plugin_version":"2.1.0","time_elapsed":293803,"subject_id":"90823","group":"Group2","condition":"1_Rep","full_date":"2026-02-13T12:40:37.679Z","date":"2026-02-13","time":"12:40:37","cor_ans":false},{"trial_type":"html-keyboard-response","rt":null,"stimulus":"<p style=\"color: red; font-size: 50px; font-weight: bold;\">Incorrect</p>","response":null,"trial_index":120,"plugin_version":"2.1.0","time_elapsed":294316,"subject_id":"90823","group":"Group2","condition":"1_Rep","full_date":"2026-02-13T12:40:37.679Z","date":"2026-02-13","time":"12:40:37"},{"correct_response":"l","task":"test_phase","broad_category":"S","image_png":"S_Chert_13.png","image_id":365,"category_name":"Chert","category":23,"distinct_rating":6.57,"distinct_type":"Top","item_type":"Target","rt":921,"stimulus":"Stimuli_Rocks480/S_Chert_13.png","response":"l","trial_type":"image-keyboard-response","trial_index":121,"plugin_version":"2.1.0","time_elapsed":295240,"subject_id":"90823","group":"Group2","condition":"1_Rep","full_date":"2026-02-13T12:40:37.679Z","date":"2026-02-13","time":"12:40:37","cor_ans":true},{"trial_type":"html-keyboard-response","rt":null,"stimulus":"<p style=\"color: green; font-size: 50px; font-weight: bold;\">Correct</p>","response":null,"trial_index":122,"plugin_version":"2.1.0","time_elapsed":295744,"subject_id":"90823","group":"Group2","condition":"1_Rep","full_date":"2026-02-13T12:40:37.679Z","date":"2026-02-13","time":"12:40:37"},{"correct_response":"l","task":"test_phase","broad_category":"I","image_png":"I_Pumice_13.png","image_id":141,"category_name":"Pumice","category":9,"distinct_rating":3.12,"distinct_type":"Bottom","item_type":"Target","rt":788,"stimulus":"Stimuli_Rocks480/I_Pumice_13.png","response":"l","trial_type":"image-keyboard-response","trial_index":123,"plugin_version":"2.1.0","time_elapsed":296536,"subject_id":"90823","group":"Group2","condition":"1_Rep","full_date":"2026-02-13T12:40:37.679Z","date":"2026-02-13","time":"12:40:37","cor_ans":true},{"trial_type":"html-keyboard-response","rt":null,"stimulus":"<p style=\"color: green; font-size: 50px; font-weight: bold;\">Correct</p>","response":null,"trial_index":124,"plugin_version":"2.1.0","time_elapsed":297043,"subject_id":"90823","group":"Group2","condition":"1_Rep","full_date":"2026-02-13T12:40:37.679Z","date":"2026-02-13","time":"12:40:37"},{"correct_response":"l","task":"test_phase","broad_category":"S","image_png":"S_Shale_03.png","image_id":467,"category_name":"Shale","category":30,"distinct_rating":1.95,"distinct_type":"Bottom","item_type":"Target","rt":752,"stimulus":"Stimuli_Rocks480/S_Shale_03.png","response":"l","trial_type":"image-keyboard-response","trial_index":125,"plugin_version":"2.1.0","time_elapsed":297799,"subject_id":"90823","group":"Group2","condition":"1_Rep","full_date":"2026-02-13T12:40:37.679Z","date":"2026-02-13","time":"12:40:37","cor_ans":true},{"trial_type":"html-keyboard-response","rt":null,"stimulus":"<p style=\"color: green; font-size: 50px; font-weight: bold;\">Correct</p>","response":null,"trial_index":126,"plugin_version":"2.1.0","time_elapsed":298314,"subject_id":"90823","group":"Group2","condition":"1_Rep","full_date":"2026-02-13T12:40:37.679Z","date":"2026-02-13","time":"12:40:37"},{"correct_response":"a","task":"test_phase","broad_category":"I","image_png":"I_Pegmatite_10.png","image_id":106,"category_name":"Pegmatite","category":7,"distinct_rating":7.66,"distinct_type":"Top","item_type":"Foil","rt":1355,"stimulus":"Stimuli_Rocks480/I_Pegmatite_10.png","response":"l","trial_type":"image-keyboard-response","trial_index":127,"plugin_version":"2.1.0","time_elapsed":299674,"subject_id":"90823","group":"Group2","condition":"1_Rep","full_date":"2026-02-13T12:40:37.679Z","date":"2026-02-13","time":"12:40:37","cor_ans":false},{"trial_type":"html-keyboard-response","rt":null,"stimulus":"<p style=\"color: red; font-size: 50px; font-weight: bold;\">Incorrect</p>","response":null,"trial_index":128,"plugin_version":"2.1.0","time_elapsed":300190,"subject_id":"90823","group":"Group2","condition":"1_Rep","full_date":"2026-02-13T12:40:37.679Z","date":"2026-02-13","time":"12:40:37"},{"correct_response":"a","task":"test_phase","broad_category":"I","image_png":"I_Pumice_08.png","image_id":136,"category_name":"Pumice","category":9,"distinct_rating":3.1,"distinct_type":"Bottom","item_type":"Foil","rt":807,"stimulus":"Stimuli_Rocks480/I_Pumice_08.png","response":"l","trial_type":"image-keyboard-response","trial_index":129,"plugin_version":"2.1.0","time_elapsed":301001,"subject_id":"90823","group":"Group2","condition":"1_Rep","full_date":"2026-02-13T12:40:37.679Z","date":"2026-02-13","time":"12:40:37","cor_ans":false},{"trial_type":"html-keyboard-response","rt":null,"stimulus":"<p style=\"color: red; font-size: 50px; font-weight: bold;\">Incorrect</p>","response":null,"trial_index":130,"plugin_version":"2.1.0","time_elapsed":301502,"subject_id":"90823","group":"Group2","condition":"1_Rep","full_date":"2026-02-13T12:40:37.679Z","date":"2026-02-13","time":"12:40:37"},{"correct_response":"a","task":"test_phase","broad_category":"I","image_png":"I_Rhyolite_14.png","image_id":158,"category_name":"Rhyolite","category":10,"distinct_rating":2.59,"distinct_type":"Bottom","item_type":"Foil","rt":742,"stimulus":"Stimuli_Rocks480/I_Rhyolite_14.png","response":"a","trial_type":"image-keyboard-response","trial_index":131,"plugin_version":"2.1.0","time_elapsed":302247,"subject_id":"90823","group":"Group2","condition":"1_Rep","full_date":"2026-02-13T12:40:37.679Z","date":"2026-02-13","time":"12:40:37","cor_ans":true},{"trial_type":"html-keyboard-response","rt":null,"stimulus":"<p style=\"color: green; font-size: 50px; font-weight: bold;\">Correct</p>","response":null,"trial_index":132,"plugin_version":"2.1.0","time_elapsed":302748,"subject_id":"90823","group":"Group2","condition":"1_Rep","full_date":"2026-02-13T12:40:37.679Z","date":"2026-02-13","time":"12:40:37"},{"correct_response":"l","task":"test_phase","broad_category":"I","image_png":"I_Pumice_14.png","image_id":142,"category_name":"Pumice","category":9,"distinct_rating":3.22,"distinct_type":"Bottom","item_type":"Target","rt":846,"stimulus":"Stimuli_Rocks480/I_Pumice_14.png","response":"l","trial_type":"image-keyboard-response","trial_index":133,"plugin_version":"2.1.0","time_elapsed":303597,"subject_id":"90823","group":"Group2","condition":"1_Rep","full_date":"2026-02-13T12:40:37.679Z","date":"2026-02-13","time":"12:40:37","cor_ans":true},{"trial_type":"html-keyboard-response","rt":null,"stimulus":"<p style=\"color: green; font-size: 50px; font-weight: bold;\">Correct</p>","response":null,"trial_index":134,"plugin_version":"2.1.0","time_elapsed":304109,"subject_id":"90823","group":"Group2","condition":"1_Rep","full_date":"2026-02-13T12:40:37.679Z","date":"2026-02-13","time":"12:40:37"},{"correct_response":"a","task":"test_phase","broad_category":"M","image_png":"M_Slate_11.png","image_id":315,"category_name":"Slate","category":20,"distinct_rating":2.75,"distinct_type":"Bottom","item_type":"Foil","rt":993,"stimulus":"Stimuli_Rocks480/M_Slate_11.png","response":"l","trial_type":"image-keyboard-response","trial_index":135,"plugin_version":"2.1.0","time_elapsed":305106,"subject_id":"90823","group":"Group2","condition":"1_Rep","full_date":"2026-02-13T12:40:37.679Z","date":"2026-02-13","time":"12:40:37","cor_ans":false},{"trial_type":"html-keyboard-response","rt":null,"stimulus":"<p style=\"color: red; font-size: 50px; font-weight: bold;\">Incorrect</p>","response":null,"trial_index":136,"plugin_version":"2.1.0","time_elapsed":305619,"subject_id":"90823","group":"Group2","condition":"1_Rep","full_date":"2026-02-13T12:40:37.679Z","date":"2026-02-13","time":"12:40:37"},{"correct_response":"l","task":"test_phase","broad_category":"M","image_png":"M_Quartzite_15.png","image_id":287,"category_name":"Quartzite","category":18,"distinct_rating":2.19,"distinct_type":"Bottom","item_type":"Target","rt":2297,"stimulus":"Stimuli_Rocks480/M_Quartzite_15.png","response":"l","trial_type":"image-keyboard-response","trial_index":137,"plugin_version":"2.1.0","time_elapsed":307921,"subject_id":"90823","group":"Group2","condition":"1_Rep","full_date":"2026-02-13T12:40:37.679Z","date":"2026-02-13","time":"12:40:37","cor_ans":true},{"trial_type":"html-keyboard-response","rt":null,"stimulus":"<p style=\"color: green; font-size: 50px; font-weight: bold;\">Correct</p>","response":null,"trial_index":138,"plugin_version":"2.1.0","time_elapsed":308438,"subject_id":"90823","group":"Group2","condition":"1_Rep","full_date":"2026-02-13T12:40:37.679Z","date":"2026-02-13","time":"12:40:37"},{"correct_response":"l","task":"test_phase","broad_category":"I","image_png":"I_Diorite_15.png","image_id":47,"category_name":"Diorite","category":3,"distinct_rating":3.05,"distinct_type":"Bottom","item_type":"Target","rt":1107,"stimulus":"Stimuli_Rocks480/I_Diorite_15.png","response":"l","trial_type":"image-keyboard-response","trial_index":139,"plugin_version":"2.1.0","time_elapsed":309551,"subject_id":"90823","group":"Group2","condition":"1_Rep","full_date":"2026-02-13T12:40:37.679Z","date":"2026-02-13","time":"12:40:37","cor_ans":true},{"trial_type":"html-keyboard-response","rt":null,"stimulus":"<p style=\"color: green; font-size: 50px; font-weight: bold;\">Correct</p>","response":null,"trial_index":140,"plugin_version":"2.1.0","time_elapsed":310054,"subject_id":"90823","group":"Group2","condition":"1_Rep","full_date":"2026-02-13T12:40:37.679Z","date":"2026-02-13","time":"12:40:37"},{"correct_response":"l","task":"test_phase","broad_category":"S","image_png":"S_Shale_07.png","image_id":471,"category_name":"Shale","category":30,"distinct_rating":2.73,"distinct_type":"Bottom","item_type":"Target","rt":697,"stimulus":"Stimuli_Rocks480/S_Shale_07.png","response":"a","trial_type":"image-keyboard-response","trial_index":141,"plugin_version":"2.1.0","time_elapsed":310755,"subject_id":"90823","group":"Group2","condition":"1_Rep","full_date":"2026-02-13T12:40:37.679Z","date":"2026-02-13","time":"12:40:37","cor_ans":false},{"trial_type":"html-keyboard-response","rt":null,"stimulus":"<p style=\"color: red; font-size: 50px; font-weight: bold;\">Incorrect</p>","response":null,"trial_index":142,"plugin_version":"2.1.0","time_elapsed":311256,"subject_id":"90823","group":"Group2","condition":"1_Rep","full_date":"2026-02-13T12:40:37.679Z","date":"2026-02-13","time":"12:40:37"},{"correct_response":"l","task":"test_phase","broad_category":"I","image_png":"I_Diorite_10.png","image_id":42,"category_name":"Diorite","category":3,"distinct_rating":2.84,"distinct_type":"Bottom","item_type":"Target","rt":853,"stimulus":"Stimuli_Rocks480/I_Diorite_10.png","response":"l","trial_type":"image-keyboard-response","trial_index":143,"plugin_version":"2.1.0","time_elapsed":312114,"subject_id":"90823","group":"Group2","condition":"1_Rep","full_date":"2026-02-13T12:40:37.679Z","date":"2026-02-13","time":"12:40:37","cor_ans":true},{"trial_type":"html-keyboard-response","rt":null,"stimulus":"<p style=\"color: green; font-size: 50px; font-weight: bold;\">Correct</p>","response":null,"trial_index":144,"plugin_version":"2.1.0","time_elapsed":312619,"subject_id":"90823","group":"Group2","condition":"1_Rep","full_date":"2026-02-13T12:40:37.679Z","date":"2026-02-13","time":"12:40:37"},{"correct_response":"a","task":"test_phase","broad_category":"M","image_png":"M_Quartzite_13.png","image_id":285,"category_name":"Quartzite","category":18,"distinct_rating":2.27,"distinct_type":"Bottom","item_type":"Foil","rt":805,"stimulus":"Stimuli_Rocks480/M_Quartzite_13.png","response":"l","trial_type":"image-keyboard-response","trial_index":145,"plugin_version":"2.1.0","time_elapsed":313426,"subject_id":"90823","group":"Group2","condition":"1_Rep","full_date":"2026-02-13T12:40:37.679Z","date":"2026-02-13","time":"12:40:37","cor_ans":false},{"trial_type":"html-keyboard-response","rt":null,"stimulus":"<p style=\"color: red; font-size: 50px; font-weight: bold;\">Incorrect</p>","response":null,"trial_index":146,"plugin_version":"2.1.0","time_elapsed":313935,"subject_id":"90823","group":"Group2","condition":"1_Rep","full_date":"2026-02-13T12:40:37.679Z","date":"2026-02-13","time":"12:40:37"},{"correct_response":"a","task":"test_phase","broad_category":"S","image_png":"S_Breccia_11.png","image_id":347,"category_name":"Breccia","category":22,"distinct_rating":6.7,"distinct_type":"Top","item_type":"Foil","rt":675,"stimulus":"Stimuli_Rocks480/S_Breccia_11.png","response":"a","trial_type":"image-keyboard-response","trial_index":147,"plugin_version":"2.1.0","time_elapsed":314613,"subject_id":"90823","group":"Group2","condition":"1_Rep","full_date":"2026-02-13T12:40:37.679Z","date":"2026-02-13","time":"12:40:37","cor_ans":true},{"trial_type":"html-keyboard-response","rt":null,"stimulus":"<p style=\"color: green; font-size: 50px; font-weight: bold;\">Correct</p>","response":null,"trial_index":148,"plugin_version":"2.1.0","time_elapsed":315124,"subject_id":"90823","group":"Group2","condition":"1_Rep","full_date":"2026-02-13T12:40:37.679Z","date":"2026-02-13","time":"12:40:37"},{"correct_response":"a","task":"test_phase","broad_category":"I","image_png":"I_Basalt_02.png","image_id":18,"category_name":"Basalt","category":2,"distinct_rating":1.84,"distinct_type":"Bottom","item_type":"Foil","rt":1041,"stimulus":"Stimuli_Rocks480/I_Basalt_02.png","response":"l","trial_type":"image-keyboard-response","trial_index":149,"plugin_version":"2.1.0","time_elapsed":316168,"subject_id":"90823","group":"Group2","condition":"1_Rep","full_date":"2026-02-13T12:40:37.679Z","date":"2026-02-13","time":"12:40:37","cor_ans":false},{"trial_type":"html-keyboard-response","rt":null,"stimulus":"<p style=\"color: red; font-size: 50px; font-weight: bold;\">Incorrect</p>","response":null,"trial_index":150,"plugin_version":"2.1.0","time_elapsed":316669,"subject_id":"90823","group":"Group2","condition":"1_Rep","full_date":"2026-02-13T12:40:37.679Z","date":"2026-02-13","time":"12:40:37"},{"correct_response":"a","task":"test_phase","broad_category":"M","image_png":"M_Phyllite_10.png","image_id":266,"category_name":"Phyllite","category":17,"distinct_rating":2.6,"distinct_type":"Bottom","item_type":"Foil","rt":1932,"stimulus":"Stimuli_Rocks480/M_Phyllite_10.png","response":"l","trial_type":"image-keyboard-response","trial_index":151,"plugin_version":"2.1.0","time_elapsed":318603,"subject_id":"90823","group":"Group2","condition":"1_Rep","full_date":"2026-02-13T12:40:37.679Z","date":"2026-02-13","time":"12:40:37","cor_ans":false},{"trial_type":"html-keyboard-response","rt":null,"stimulus":"<p style=\"color: red; font-size: 50px; font-weight: bold;\">Incorrect</p>","response":null,"trial_index":152,"plugin_version":"2.1.0","time_elapsed":319110,"subject_id":"90823","group":"Group2","condition":"1_Rep","full_date":"2026-02-13T12:40:37.679Z","date":"2026-02-13","time":"12:40:37"},{"correct_response":"l","task":"test_phase","broad_category":"S","image_png":"S_Rock Salt_15.png","image_id":447,"category_name":"Rock Salt","category":28,"distinct_rating":7.79,"distinct_type":"Top","item_type":"Target","rt":760,"stimulus":"Stimuli_Rocks480/S_Rock Salt_15.png","response":"l","trial_type":"image-keyboard-response","trial_index":153,"plugin_version":"2.1.0","time_elapsed":319872,"subject_id":"90823","group":"Group2","condition":"1_Rep","full_date":"2026-02-13T12:40:37.679Z","date":"2026-02-13","time":"12:40:37","cor_ans":true},{"trial_type":"html-keyboard-response","rt":null,"stimulus":"<p style=\"color: green; font-size: 50px; font-weight: bold;\">Correct</p>","response":null,"trial_index":154,"plugin_version":"2.1.0","time_elapsed":320388,"subject_id":"90823","group":"Group2","condition":"1_Rep","full_date":"2026-02-13T12:40:37.679Z","date":"2026-02-13","time":"12:40:37"},{"correct_response":"l","task":"test_phase","broad_category":"I","image_png":"I_Pegmatite_11.png","image_id":107,"category_name":"Pegmatite","category":7,"distinct_rating":7.11,"distinct_type":"Top","item_type":"Target","rt":776,"stimulus":"Stimuli_Rocks480/I_Pegmatite_11.png","response":"l","trial_type":"image-keyboard-response","trial_index":155,"plugin_version":"2.1.0","time_elapsed":321167,"subject_id":"90823","group":"Group2","condition":"1_Rep","full_date":"2026-02-13T12:40:37.679Z","date":"2026-02-13","time":"12:40:37","cor_ans":true},{"trial_type":"html-keyboard-response","rt":null,"stimulus":"<p style=\"color: green; font-size: 50px; font-weight: bold;\">Correct</p>","response":null,"trial_index":156,"plugin_version":"2.1.0","time_elapsed":321672,"subject_id":"90823","group":"Group2","condition":"1_Rep","full_date":"2026-02-13T12:40:37.679Z","date":"2026-02-13","time":"12:40:37"},{"correct_response":"l","task":"test_phase","broad_category":"M","image_png":"M_Gneiss_10.png","image_id":202,"category_name":"Gneiss","category":13,"distinct_rating":3.09,"distinct_type":"Bottom","item_type":"Target","rt":1034,"stimulus":"Stimuli_Rocks480/M_Gneiss_10.png","response":"a","trial_type":"image-keyboard-response","trial_index":157,"plugin_version":"2.1.0","time_elapsed":322708,"subject_id":"90823","group":"Group2","condition":"1_Rep","full_date":"2026-02-13T12:40:37.679Z","date":"2026-02-13","time":"12:40:37","cor_ans":false},{"trial_type":"html-keyboard-response","rt":null,"stimulus":"<p style=\"color: red; font-size: 50px; font-weight: bold;\">Incorrect</p>","response":null,"trial_index":158,"plugin_version":"2.1.0","time_elapsed":323212,"subject_id":"90823","group":"Group2","condition":"1_Rep","full_date":"2026-02-13T12:40:37.679Z","date":"2026-02-13","time":"12:40:37"},{"correct_response":"a","task":"test_phase","broad_category":"I","image_png":"I_Pegmatite_16.png","image_id":112,"category_name":"Pegmatite","category":7,"distinct_rating":7.03,"distinct_type":"Top","item_type":"Foil","rt":765,"stimulus":"Stimuli_Rocks480/I_Pegmatite_16.png","response":"a","trial_type":"image-keyboard-response","trial_index":159,"plugin_version":"2.1.0","time_elapsed":323980,"subject_id":"90823","group":"Group2","condition":"1_Rep","full_date":"2026-02-13T12:40:37.679Z","date":"2026-02-13","time":"12:40:37","cor_ans":true},{"trial_type":"html-keyboard-response","rt":null,"stimulus":"<p style=\"color: green; font-size: 50px; font-weight: bold;\">Correct</p>","response":null,"trial_index":160,"plugin_version":"2.1.0","time_elapsed":324492,"subject_id":"90823","group":"Group2","condition":"1_Rep","full_date":"2026-02-13T12:40:37.679Z","date":"2026-02-13","time":"12:40:37"},{"correct_response":"a","task":"test_phase","broad_category":"M","image_png":"M_Slate_15.png","image_id":319,"category_name":"Slate","category":20,"distinct_rating":2.13,"distinct_type":"Bottom","item_type":"Foil","rt":924,"stimulus":"Stimuli_Rocks480/M_Slate_15.png","response":"l","trial_type":"image-keyboard-response","trial_index":161,"plugin_version":"2.1.0","time_elapsed":325419,"subject_id":"90823","group":"Group2","condition":"1_Rep","full_date":"2026-02-13T12:40:37.679Z","date":"2026-02-13","time":"12:40:37","cor_ans":false},{"trial_type":"html-keyboard-response","rt":null,"stimulus":"<p style=\"color: red; font-size: 50px; font-weight: bold;\">Incorrect</p>","response":null,"trial_index":162,"plugin_version":"2.1.0","time_elapsed":325926,"subject_id":"90823","group":"Group2","condition":"1_Rep","full_date":"2026-02-13T12:40:37.679Z","date":"2026-02-13","time":"12:40:37"},{"correct_response":"a","task":"test_phase","broad_category":"M","image_png":"M_Gneiss_06.png","image_id":198,"category_name":"Gneiss","category":13,"distinct_rating":2.65,"distinct_type":"Bottom","item_type":"Foil","rt":885,"stimulus":"Stimuli_Rocks480/M_Gneiss_06.png","response":"l","trial_type":"image-keyboard-response","trial_index":163,"plugin_version":"2.1.0","time_elapsed":326813,"subject_id":"90823","group":"Group2","condition":"1_Rep","full_date":"2026-02-13T12:40:37.679Z","date":"2026-02-13","time":"12:40:37","cor_ans":false},{"trial_type":"html-keyboard-response","rt":null,"stimulus":"<p style=\"color: red; font-size: 50px; font-weight: bold;\">Incorrect</p>","response":null,"trial_index":164,"plugin_version":"2.1.0","time_elapsed":327322,"subject_id":"90823","group":"Group2","condition":"1_Rep","full_date":"2026-02-13T12:40:37.679Z","date":"2026-02-13","time":"12:40:37"},{"correct_response":"l","task":"test_phase","broad_category":"M","image_png":"M_Slate_04.png","image_id":308,"category_name":"Slate","category":20,"distinct_rating":2.2,"distinct_type":"Bottom","item_type":"Target","rt":708,"stimulus":"Stimuli_Rocks480/M_Slate_04.png","response":"l","trial_type":"image-keyboard-response","trial_index":165,"plugin_version":"2.1.0","time_elapsed":328035,"subject_id":"90823","group":"Group2","condition":"1_Rep","full_date":"2026-02-13T12:40:37.679Z","date":"2026-02-13","time":"12:40:37","cor_ans":true},{"trial_type":"html-keyboard-response","rt":null,"stimulus":"<p style=\"color: green; font-size: 50px; font-weight: bold;\">Correct</p>","response":null,"trial_index":166,"plugin_version":"2.1.0","time_elapsed":328539,"subject_id":"90823","group":"Group2","condition":"1_Rep","full_date":"2026-02-13T12:40:37.679Z","date":"2026-02-13","time":"12:40:37"},{"correct_response":"l","task":"test_phase","broad_category":"I","image_png":"I_Pegmatite_03.png","image_id":99,"category_name":"Pegmatite","category":7,"distinct_rating":7.24,"distinct_type":"Top","item_type":"Target","rt":1087,"stimulus":"Stimuli_Rocks480/I_Pegmatite_03.png","response":"l","trial_type":"image-keyboard-response","trial_index":167,"plugin_version":"2.1.0","time_elapsed":329629,"subject_id":"90823","group":"Group2","condition":"1_Rep","full_date":"2026-02-13T12:40:37.679Z","date":"2026-02-13","time":"12:40:37","cor_ans":true},{"trial_type":"html-keyboard-response","rt":null,"stimulus":"<p style=\"color: green; font-size: 50px; font-weight: bold;\">Correct</p>","response":null,"trial_index":168,"plugin_version":"2.1.0","time_elapsed":330138,"subject_id":"90823","group":"Group2","condition":"1_Rep","full_date":"2026-02-13T12:40:37.679Z","date":"2026-02-13","time":"12:40:37"},{"correct_response":"a","task":"test_phase","broad_category":"S","image_png":"S_Sandstone_16.png","image_id":464,"category_name":"Sandstone","category":29,"distinct_rating":1.93,"distinct_type":"Bottom","item_type":"Foil","rt":805,"stimulus":"Stimuli_Rocks480/S_Sandstone_16.png","response":"a","trial_type":"image-keyboard-response","trial_index":169,"plugin_version":"2.1.0","time_elapsed":330948,"subject_id":"90823","group":"Group2","condition":"1_Rep","full_date":"2026-02-13T12:40:37.679Z","date":"2026-02-13","time":"12:40:37","cor_ans":true},{"trial_type":"html-keyboard-response","rt":null,"stimulus":"<p style=\"color: green; font-size: 50px; font-weight: bold;\">Correct</p>","response":null,"trial_index":170,"plugin_version":"2.1.0","time_elapsed":331460,"subject_id":"90823","group":"Group2","condition":"1_Rep","full_date":"2026-02-13T12:40:37.679Z","date":"2026-02-13","time":"12:40:37"},{"correct_response":"a","task":"test_phase","broad_category":"S","image_png":"S_Dolomite_14.png","image_id":398,"category_name":"Dolomite","category":25,"distinct_rating":1.43,"distinct_type":"Bottom","item_type":"Foil","rt":985,"stimulus":"Stimuli_Rocks480/S_Dolomite_14.png","response":"l","trial_type":"image-keyboard-response","trial_index":171,"plugin_version":"2.1.0","time_elapsed":332449,"subject_id":"90823","group":"Group2","condition":"1_Rep","full_date":"2026-02-13T12:40:37.679Z","date":"2026-02-13","time":"12:40:37","cor_ans":false},{"trial_type":"html-keyboard-response","rt":null,"stimulus":"<p style=\"color: red; font-size: 50px; font-weight: bold;\">Incorrect</p>","response":null,"trial_index":172,"plugin_version":"2.1.0","time_elapsed":332955,"subject_id":"90823","group":"Group2","condition":"1_Rep","full_date":"2026-02-13T12:40:37.679Z","date":"2026-02-13","time":"12:40:37"},{"correct_response":"a","task":"test_phase","broad_category":"I","image_png":"I_Andesite_06.png","image_id":6,"category_name":"Andesite","category":1,"distinct_rating":3.17,"distinct_type":"Bottom","item_type":"Foil","rt":1297,"stimulus":"Stimuli_Rocks480/I_Andesite_06.png","response":"l","trial_type":"image-keyboard-response","trial_index":173,"plugin_version":"2.1.0","time_elapsed":334256,"subject_id":"90823","group":"Group2","condition":"1_Rep","full_date":"2026-02-13T12:40:37.679Z","date":"2026-02-13","time":"12:40:37","cor_ans":false},{"trial_type":"html-keyboard-response","rt":null,"stimulus":"<p style=\"color: red; font-size: 50px; font-weight: bold;\">Incorrect</p>","response":null,"trial_index":174,"plugin_version":"2.1.0","time_elapsed":334758,"subject_id":"90823","group":"Group2","condition":"1_Rep","full_date":"2026-02-13T12:40:37.679Z","date":"2026-02-13","time":"12:40:37"},{"correct_response":"l","task":"test_phase","broad_category":"M","image_png":"M_Phyllite_02.png","image_id":258,"category_name":"Phyllite","category":17,"distinct_rating":2.89,"distinct_type":"Bottom","item_type":"Target","rt":718,"stimulus":"Stimuli_Rocks480/M_Phyllite_02.png","response":"a","trial_type":"image-keyboard-response","trial_index":175,"plugin_version":"2.1.0","time_elapsed":335478,"subject_id":"90823","group":"Group2","condition":"1_Rep","full_date":"2026-02-13T12:40:37.679Z","date":"2026-02-13","time":"12:40:37","cor_ans":false},{"trial_type":"html-keyboard-response","rt":null,"stimulus":"<p style=\"color: red; font-size: 50px; font-weight: bold;\">Incorrect</p>","response":null,"trial_index":176,"plugin_version":"2.1.0","time_elapsed":335992,"subject_id":"90823","group":"Group2","condition":"1_Rep","full_date":"2026-02-13T12:40:37.679Z","date":"2026-02-13","time":"12:40:37"},{"correct_response":"a","task":"test_phase","broad_category":"S","image_png":"S_Rock Gypsum_04.png","image_id":420,"category_name":"Rock Gypsum","category":27,"distinct_rating":7.61,"distinct_type":"Top","item_type":"Foil","rt":917,"stimulus":"Stimuli_Rocks480/S_Rock Gypsum_04.png","response":"a","trial_type":"image-keyboard-response","trial_index":177,"plugin_version":"2.1.0","time_elapsed":336912,"subject_id":"90823","group":"Group2","condition":"1_Rep","full_date":"2026-02-13T12:40:37.679Z","date":"2026-02-13","time":"12:40:37","cor_ans":true},{"trial_type":"html-keyboard-response","rt":null,"stimulus":"<p style=\"color: green; font-size: 50px; font-weight: bold;\">Correct</p>","response":null,"trial_index":178,"plugin_version":"2.1.0","time_elapsed":337423,"subject_id":"90823","group":"Group2","condition":"1_Rep","full_date":"2026-02-13T12:40:37.679Z","date":"2026-02-13","time":"12:40:37"},{"correct_response":"a","task":"test_phase","broad_category":"I","image_png":"I_Gabbro_08.png","image_id":56,"category_name":"Gabbro","category":4,"distinct_rating":3.02,"distinct_type":"Bottom","item_type":"Foil","rt":1322,"stimulus":"Stimuli_Rocks480/I_Gabbro_08.png","response":"a","trial_type":"image-keyboard-response","trial_index":179,"plugin_version":"2.1.0","time_elapsed":338748,"subject_id":"90823","group":"Group2","condition":"1_Rep","full_date":"2026-02-13T12:40:37.679Z","date":"2026-02-13","time":"12:40:37","cor_ans":true},{"trial_type":"html-keyboard-response","rt":null,"stimulus":"<p style=\"color: green; font-size: 50px; font-weight: bold;\">Correct</p>","response":null,"trial_index":180,"plugin_version":"2.1.0","time_elapsed":339263,"subject_id":"90823","group":"Group2","condition":"1_Rep","full_date":"2026-02-13T12:40:37.679Z","date":"2026-02-13","time":"12:40:37"},{"correct_response":"a","task":"test_phase","broad_category":"I","image_png":"I_Rhyolite_11.png","image_id":155,"category_name":"Rhyolite","category":10,"distinct_rating":1.73,"distinct_type":"Bottom","item_type":"Foil","rt":1024,"stimulus":"Stimuli_Rocks480/I_Rhyolite_11.png","response":"l","trial_type":"image-keyboard-response","trial_index":181,"plugin_version":"2.1.0","time_elapsed":340289,"subject_id":"90823","group":"Group2","condition":"1_Rep","full_date":"2026-02-13T12:40:37.679Z","date":"2026-02-13","time":"12:40:37","cor_ans":false},{"trial_type":"html-keyboard-response","rt":null,"stimulus":"<p style=\"color: red; font-size: 50px; font-weight: bold;\">Incorrect</p>","response":null,"trial_index":182,"plugin_version":"2.1.0","time_elapsed":340791,"subject_id":"90823","group":"Group2","condition":"1_Rep","full_date":"2026-02-13T12:40:37.679Z","date":"2026-02-13","time":"12:40:37"},{"correct_response":"l","task":"test_phase","broad_category":"S","image_png":"S_Sandstone_11.png","image_id":459,"category_name":"Sandstone","category":29,"distinct_rating":1.82,"distinct_type":"Bottom","item_type":"Target","rt":816,"stimulus":"Stimuli_Rocks480/S_Sandstone_11.png","response":"l","trial_type":"image-keyboard-response","trial_index":183,"plugin_version":"2.1.0","time_elapsed":341608,"subject_id":"90823","group":"Group2","condition":"1_Rep","full_date":"2026-02-13T12:40:37.679Z","date":"2026-02-13","time":"12:40:37","cor_ans":true},{"trial_type":"html-keyboard-response","rt":null,"stimulus":"<p style=\"color: green; font-size: 50px; font-weight: bold;\">Correct</p>","response":null,"trial_index":184,"plugin_version":"2.1.0","time_elapsed":342115,"subject_id":"90823","group":"Group2","condition":"1_Rep","full_date":"2026-02-13T12:40:37.679Z","date":"2026-02-13","time":"12:40:37"},{"correct_response":"a","task":"test_phase","broad_category":"I","image_png":"I_Rhyolite_16.png","image_id":160,"category_name":"Rhyolite","category":10,"distinct_rating":2.19,"distinct_type":"Bottom","item_type":"Foil","rt":1241,"stimulus":"Stimuli_Rocks480/I_Rhyolite_16.png","response":"l","trial_type":"image-keyboard-response","trial_index":185,"plugin_version":"2.1.0","time_elapsed":343360,"subject_id":"90823","group":"Group2","condition":"1_Rep","full_date":"2026-02-13T12:40:37.679Z","date":"2026-02-13","time":"12:40:37","cor_ans":false},{"trial_type":"html-keyboard-response","rt":null,"stimulus":"<p style=\"color: red; font-size: 50px; font-weight: bold;\">Incorrect</p>","response":null,"trial_index":186,"plugin_version":"2.1.0","time_elapsed":343864,"subject_id":"90823","group":"Group2","condition":"1_Rep","full_date":"2026-02-13T12:40:37.679Z","date":"2026-02-13","time":"12:40:37"},{"correct_response":"l","task":"test_phase","broad_category":"S","image_png":"S_Sandstone_08.png","image_id":456,"category_name":"Sandstone","category":29,"distinct_rating":1.5,"distinct_type":"Bottom","item_type":"Target","rt":676,"stimulus":"Stimuli_Rocks480/S_Sandstone_08.png","response":"a","trial_type":"image-keyboard-response","trial_index":187,"plugin_version":"2.1.0","time_elapsed":344544,"subject_id":"90823","group":"Group2","condition":"1_Rep","full_date":"2026-02-13T12:40:37.679Z","date":"2026-02-13","time":"12:40:37","cor_ans":false},{"trial_type":"html-keyboard-response","rt":null,"stimulus":"<p style=\"color: red; font-size: 50px; font-weight: bold;\">Incorrect</p>","response":null,"trial_index":188,"plugin_version":"2.1.0","time_elapsed":345053,"subject_id":"90823","group":"Group2","condition":"1_Rep","full_date":"2026-02-13T12:40:37.679Z","date":"2026-02-13","time":"12:40:37"},{"correct_response":"l","task":"test_phase","broad_category":"M","image_png":"M_Quartzite_12.png","image_id":284,"category_name":"Quartzite","category":18,"distinct_rating":1.92,"distinct_type":"Bottom","item_type":"Target","rt":659,"stimulus":"Stimuli_Rocks480/M_Quartzite_12.png","response":"l","trial_type":"image-keyboard-response","trial_index":189,"plugin_version":"2.1.0","time_elapsed":345717,"subject_id":"90823","group":"Group2","condition":"1_Rep","full_date":"2026-02-13T12:40:37.679Z","date":"2026-02-13","time":"12:40:37","cor_ans":true},{"trial_type":"html-keyboard-response","rt":null,"stimulus":"<p style=\"color: green; font-size: 50px; font-weight: bold;\">Correct</p>","response":null,"trial_index":190,"plugin_version":"2.1.0","time_elapsed":346223,"subject_id":"90823","group":"Group2","condition":"1_Rep","full_date":"2026-02-13T12:40:37.679Z","date":"2026-02-13","time":"12:40:37"},{"correct_response":"a","task":"test_phase","broad_category":"I","image_png":"I_Pumice_11.png","image_id":139,"category_name":"Pumice","category":9,"distinct_rating":1.74,"distinct_type":"Bottom","item_type":"Foil","rt":1066,"stimulus":"Stimuli_Rocks480/I_Pumice_11.png","response":"a","trial_type":"image-keyboard-response","trial_index":191,"plugin_version":"2.1.0","time_elapsed":347294,"subject_id":"90823","group":"Group2","condition":"1_Rep","full_date":"2026-02-13T12:40:37.679Z","date":"2026-02-13","time":"12:40:37","cor_ans":true},{"trial_type":"html-keyboard-response","rt":null,"stimulus":"<p style=\"color: green; font-size: 50px; font-weight: bold;\">Correct</p>","response":null,"trial_index":192,"plugin_version":"2.1.0","time_elapsed":347800,"subject_id":"90823","group":"Group2","condition":"1_Rep","full_date":"2026-02-13T12:40:37.679Z","date":"2026-02-13","time":"12:40:37"},{"correct_response":"l","task":"test_phase","broad_category":"M","image_png":"M_Phyllite_13.png","image_id":269,"category_name":"Phyllite","category":17,"distinct_rating":2.8,"distinct_type":"Bottom","item_type":"Target","rt":924,"stimulus":"Stimuli_Rocks480/M_Phyllite_13.png","response":"l","trial_type":"image-keyboard-response","trial_index":193,"plugin_version":"2.1.0","time_elapsed":348729,"subject_id":"90823","group":"Group2","condition":"1_Rep","full_date":"2026-02-13T12:40:37.679Z","date":"2026-02-13","time":"12:40:37","cor_ans":true},{"trial_type":"html-keyboard-response","rt":null,"stimulus":"<p style=\"color: green; font-size: 50px; font-weight: bold;\">Correct</p>","response":null,"trial_index":194,"plugin_version":"2.1.0","time_elapsed":349234,"subject_id":"90823","group":"Group2","condition":"1_Rep","full_date":"2026-02-13T12:40:37.679Z","date":"2026-02-13","time":"12:40:37"},{"correct_response":"l","task":"test_phase","broad_category":"I","image_png":"I_Basalt_10.png","image_id":26,"category_name":"Basalt","category":2,"distinct_rating":2.76,"distinct_type":"Bottom","item_type":"Target","rt":890,"stimulus":"Stimuli_Rocks480/I_Basalt_10.png","response":"l","trial_type":"image-keyboard-response","trial_index":195,"plugin_version":"2.1.0","time_elapsed":350130,"subject_id":"90823","group":"Group2","condition":"1_Rep","full_date":"2026-02-13T12:40:37.679Z","date":"2026-02-13","time":"12:40:37","cor_ans":true},{"trial_type":"html-keyboard-response","rt":null,"stimulus":"<p style=\"color: green; font-size: 50px; font-weight: bold;\">Correct</p>","response":null,"trial_index":196,"plugin_version":"2.1.0","time_elapsed":350637,"subject_id":"90823","group":"Group2","condition":"1_Rep","full_date":"2026-02-13T12:40:37.679Z","date":"2026-02-13","time":"12:40:37"},{"correct_response":"a","task":"test_phase","broad_category":"M","image_png":"M_Gneiss_13.png","image_id":205,"category_name":"Gneiss","category":13,"distinct_rating":3.26,"distinct_type":"Bottom","item_type":"Foil","rt":721,"stimulus":"Stimuli_Rocks480/M_Gneiss_13.png","response":"a","trial_type":"image-keyboard-response","trial_index":197,"plugin_version":"2.1.0","time_elapsed":351363,"subject_id":"90823","group":"Group2","condition":"1_Rep","full_date":"2026-02-13T12:40:37.679Z","date":"2026-02-13","time":"12:40:37","cor_ans":true},{"trial_type":"html-keyboard-response","rt":null,"stimulus":"<p style=\"color: green; font-size: 50px; font-weight: bold;\">Correct</p>","response":null,"trial_index":198,"plugin_version":"2.1.0","time_elapsed":351879,"subject_id":"90823","group":"Group2","condition":"1_Rep","full_date":"2026-02-13T12:40:37.679Z","date":"2026-02-13","time":"12:40:37"},{"correct_response":"a","task":"test_phase","broad_category":"S","image_png":"S_Shale_08.png","image_id":472,"category_name":"Shale","category":30,"distinct_rating":2.55,"distinct_type":"Bottom","item_type":"Foil","rt":1242,"stimulus":"Stimuli_Rocks480/S_Shale_08.png","response":"l","trial_type":"image-keyboard-response","trial_index":199,"plugin_version":"2.1.0","time_elapsed":353124,"subject_id":"90823","group":"Group2","condition":"1_Rep","full_date":"2026-02-13T12:40:37.679Z","date":"2026-02-13","time":"12:40:37","cor_ans":false},{"trial_type":"html-keyboard-response","rt":null,"stimulus":"<p style=\"color: red; font-size: 50px; font-weight: bold;\">Incorrect</p>","response":null,"trial_index":200,"plugin_version":"2.1.0","time_elapsed":353637,"subject_id":"90823","group":"Group2","condition":"1_Rep","full_date":"2026-02-13T12:40:37.679Z","date":"2026-02-13","time":"12:40:37"},{"correct_response":"l","task":"test_phase","broad_category":"M","image_png":"M_Slate_10.png","image_id":314,"category_name":"Slate","category":20,"distinct_rating":1.94,"distinct_type":"Bottom","item_type":"Target","rt":1552,"stimulus":"Stimuli_Rocks480/M_Slate_10.png","response":"l","trial_type":"image-keyboard-response","trial_index":201,"plugin_version":"2.1.0","time_elapsed":355194,"subject_id":"90823","group":"Group2","condition":"1_Rep","full_date":"2026-02-13T12:40:37.679Z","date":"2026-02-13","time":"12:40:37","cor_ans":true},{"trial_type":"html-keyboard-response","rt":null,"stimulus":"<p style=\"color: green; font-size: 50px; font-weight: bold;\">Correct</p>","response":null,"trial_index":202,"plugin_version":"2.1.0","time_elapsed":355705,"subject_id":"90823","group":"Group2","condition":"1_Rep","full_date":"2026-02-13T12:40:37.679Z","date":"2026-02-13","time":"12:40:37"},{"correct_response":"l","task":"test_phase","broad_category":"M","image_png":"M_Gneiss_15.png","image_id":207,"category_name":"Gneiss","category":13,"distinct_rating":3.11,"distinct_type":"Bottom","item_type":"Target","rt":1626,"stimulus":"Stimuli_Rocks480/M_Gneiss_15.png","response":"a","trial_type":"image-keyboard-response","trial_index":203,"plugin_version":"2.1.0","time_elapsed":357335,"subject_id":"90823","group":"Group2","condition":"1_Rep","full_date":"2026-02-13T12:40:37.679Z","date":"2026-02-13","time":"12:40:37","cor_ans":false},{"trial_type":"html-keyboard-response","rt":null,"stimulus":"<p style=\"color: red; font-size: 50px; font-weight: bold;\">Incorrect</p>","response":null,"trial_index":204,"plugin_version":"2.1.0","time_elapsed":357850,"subject_id":"90823","group":"Group2","condition":"1_Rep","full_date":"2026-02-13T12:40:37.679Z","date":"2026-02-13","time":"12:40:37"},{"correct_response":"l","task":"test_phase","broad_category":"S","image_png":"S_Dolomite_01.png","image_id":385,"category_name":"Dolomite","category":25,"distinct_rating":1.43,"distinct_type":"Bottom","item_type":"Target","rt":1122,"stimulus":"Stimuli_Rocks480/S_Dolomite_01.png","response":"l","trial_type":"image-keyboard-response","trial_index":205,"plugin_version":"2.1.0","time_elapsed":358976,"subject_id":"90823","group":"Group2","condition":"1_Rep","full_date":"2026-02-13T12:40:37.679Z","date":"2026-02-13","time":"12:40:37","cor_ans":true},{"trial_type":"html-keyboard-response","rt":null,"stimulus":"<p style=\"color: green; font-size: 50px; font-weight: bold;\">Correct</p>","response":null,"trial_index":206,"plugin_version":"2.1.0","time_elapsed":359486,"subject_id":"90823","group":"Group2","condition":"1_Rep","full_date":"2026-02-13T12:40:37.679Z","date":"2026-02-13","time":"12:40:37"},{"correct_response":"a","task":"test_phase","broad_category":"S","image_png":"S_Sandstone_03.png","image_id":451,"category_name":"Sandstone","category":29,"distinct_rating":1.86,"distinct_type":"Bottom","item_type":"Foil","rt":910,"stimulus":"Stimuli_Rocks480/S_Sandstone_03.png","response":"a","trial_type":"image-keyboard-response","trial_index":207,"plugin_version":"2.1.0","time_elapsed":360401,"subject_id":"90823","group":"Group2","condition":"1_Rep","full_date":"2026-02-13T12:40:37.679Z","date":"2026-02-13","time":"12:40:37","cor_ans":true},{"trial_type":"html-keyboard-response","rt":null,"stimulus":"<p style=\"color: green; font-size: 50px; font-weight: bold;\">Correct</p>","response":null,"trial_index":208,"plugin_version":"2.1.0","time_elapsed":360917,"subject_id":"90823","group":"Group2","condition":"1_Rep","full_date":"2026-02-13T12:40:37.679Z","date":"2026-02-13","time":"12:40:37"},{"correct_response":"a","task":"test_phase","broad_category":"I","image_png":"I_Gabbro_16.png","image_id":64,"category_name":"Gabbro","category":4,"distinct_rating":2.52,"distinct_type":"Bottom","item_type":"Foil","rt":876,"stimulus":"Stimuli_Rocks480/I_Gabbro_16.png","response":"a","trial_type":"image-keyboard-response","trial_index":209,"plugin_version":"2.1.0","time_elapsed":361797,"subject_id":"90823","group":"Group2","condition":"1_Rep","full_date":"2026-02-13T12:40:37.679Z","date":"2026-02-13","time":"12:40:37","cor_ans":true},{"trial_type":"html-keyboard-response","rt":null,"stimulus":"<p style=\"color: green; font-size: 50px; font-weight: bold;\">Correct</p>","response":null,"trial_index":210,"plugin_version":"2.1.0","time_elapsed":362299,"subject_id":"90823","group":"Group2","condition":"1_Rep","full_date":"2026-02-13T12:40:37.679Z","date":"2026-02-13","time":"12:40:37"},{"correct_response":"a","task":"test_phase","broad_category":"I","image_png":"I_Diorite_04.png","image_id":36,"category_name":"Diorite","category":3,"distinct_rating":2.98,"distinct_type":"Bottom","item_type":"Foil","rt":1505,"stimulus":"Stimuli_Rocks480/I_Diorite_04.png","response":"l","trial_type":"image-keyboard-response","trial_index":211,"plugin_version":"2.1.0","time_elapsed":363809,"subject_id":"90823","group":"Group2","condition":"1_Rep","full_date":"2026-02-13T12:40:37.679Z","date":"2026-02-13","time":"12:40:37","cor_ans":false},{"trial_type":"html-keyboard-response","rt":null,"stimulus":"<p style=\"color: red; font-size: 50px; font-weight: bold;\">Incorrect</p>","response":null,"trial_index":212,"plugin_version":"2.1.0","time_elapsed":364324,"subject_id":"90823","group":"Group2","condition":"1_Rep","full_date":"2026-02-13T12:40:37.679Z","date":"2026-02-13","time":"12:40:37"},{"correct_response":"l","task":"test_phase","broad_category":"S","image_png":"S_Rock Salt_13.png","image_id":445,"category_name":"Rock Salt","category":28,"distinct_rating":7.58,"distinct_type":"Top","item_type":"Target","rt":1117,"stimulus":"Stimuli_Rocks480/S_Rock Salt_13.png","response":"l","trial_type":"image-keyboard-response","trial_index":213,"plugin_version":"2.1.0","time_elapsed":365443,"subject_id":"90823","group":"Group2","condition":"1_Rep","full_date":"2026-02-13T12:40:37.679Z","date":"2026-02-13","time":"12:40:37","cor_ans":true},{"trial_type":"html-keyboard-response","rt":null,"stimulus":"<p style=\"color: green; font-size: 50px; font-weight: bold;\">Correct</p>","response":null,"trial_index":214,"plugin_version":"2.1.0","time_elapsed":365948,"subject_id":"90823","group":"Group2","condition":"1_Rep","full_date":"2026-02-13T12:40:37.679Z","date":"2026-02-13","time":"12:40:37"},{"correct_response":"l","task":"test_phase","broad_category":"I","image_png":"I_Andesite_09.png","image_id":9,"category_name":"Andesite","category":1,"distinct_rating":2.49,"distinct_type":"Bottom","item_type":"Target","rt":824,"stimulus":"Stimuli_Rocks480/I_Andesite_09.png","response":"a","trial_type":"image-keyboard-response","trial_index":215,"plugin_version":"2.1.0","time_elapsed":366774,"subject_id":"90823","group":"Group2","condition":"1_Rep","full_date":"2026-02-13T12:40:37.679Z","date":"2026-02-13","time":"12:40:37","cor_ans":false},{"trial_type":"html-keyboard-response","rt":null,"stimulus":"<p style=\"color: red; font-size: 50px; font-weight: bold;\">Incorrect</p>","response":null,"trial_index":216,"plugin_version":"2.1.0","time_elapsed":367289,"subject_id":"90823","group":"Group2","condition":"1_Rep","full_date":"2026-02-13T12:40:37.679Z","date":"2026-02-13","time":"12:40:37"},{"correct_response":"l","task":"test_phase","broad_category":"I","image_png":"I_Gabbro_12.png","image_id":60,"category_name":"Gabbro","category":4,"distinct_rating":2.6,"distinct_type":"Bottom","item_type":"Target","rt":998,"stimulus":"Stimuli_Rocks480/I_Gabbro_12.png","response":"l","trial_type":"image-keyboard-response","trial_index":217,"plugin_version":"2.1.0","time_elapsed":368289,"subject_id":"90823","group":"Group2","condition":"1_Rep","full_date":"2026-02-13T12:40:37.679Z","date":"2026-02-13","time":"12:40:37","cor_ans":true},{"trial_type":"html-keyboard-response","rt":null,"stimulus":"<p style=\"color: green; font-size: 50px; font-weight: bold;\">Correct</p>","response":null,"trial_index":218,"plugin_version":"2.1.0","time_elapsed":368793,"subject_id":"90823","group":"Group2","condition":"1_Rep","full_date":"2026-02-13T12:40:37.679Z","date":"2026-02-13","time":"12:40:37"},{"correct_response":"a","task":"test_phase","broad_category":"M","image_png":"M_Slate_03.png","image_id":307,"category_name":"Slate","category":20,"distinct_rating":1.87,"distinct_type":"Bottom","item_type":"Foil","rt":1448,"stimulus":"Stimuli_Rocks480/M_Slate_03.png","response":"a","trial_type":"image-keyboard-response","trial_index":219,"plugin_version":"2.1.0","time_elapsed":370244,"subject_id":"90823","group":"Group2","condition":"1_Rep","full_date":"2026-02-13T12:40:37.679Z","date":"2026-02-13","time":"12:40:37","cor_ans":true},{"trial_type":"html-keyboard-response","rt":null,"stimulus":"<p style=\"color: green; font-size: 50px; font-weight: bold;\">Correct</p>","response":null,"trial_index":220,"plugin_version":"2.1.0","time_elapsed":370759,"subject_id":"90823","group":"Group2","condition":"1_Rep","full_date":"2026-02-13T12:40:37.679Z","date":"2026-02-13","time":"12:40:37"},{"correct_response":"l","task":"test_phase","broad_category":"M","image_png":"M_Phyllite_05.png","image_id":261,"category_name":"Phyllite","category":17,"distinct_rating":2.14,"distinct_type":"Bottom","item_type":"Target","rt":1148,"stimulus":"Stimuli_Rocks480/M_Phyllite_05.png","response":"l","trial_type":"image-keyboard-response","trial_index":221,"plugin_version":"2.1.0","time_elapsed":371910,"subject_id":"90823","group":"Group2","condition":"1_Rep","full_date":"2026-02-13T12:40:37.679Z","date":"2026-02-13","time":"12:40:37","cor_ans":true},{"trial_type":"html-keyboard-response","rt":null,"stimulus":"<p style=\"color: green; font-size: 50px; font-weight: bold;\">Correct</p>","response":null,"trial_index":222,"plugin_version":"2.1.0","time_elapsed":372412,"subject_id":"90823","group":"Group2","condition":"1_Rep","full_date":"2026-02-13T12:40:37.679Z","date":"2026-02-13","time":"12:40:37"},{"correct_response":"a","task":"test_phase","broad_category":"S","image_png":"S_Shale_01.png","image_id":465,"category_name":"Shale","category":30,"distinct_rating":2.7,"distinct_type":"Bottom","item_type":"Foil","rt":749,"stimulus":"Stimuli_Rocks480/S_Shale_01.png","response":"a","trial_type":"image-keyboard-response","trial_index":223,"plugin_version":"2.1.0","time_elapsed":373164,"subject_id":"90823","group":"Group2","condition":"1_Rep","full_date":"2026-02-13T12:40:37.679Z","date":"2026-02-13","time":"12:40:37","cor_ans":true},{"trial_type":"html-keyboard-response","rt":null,"stimulus":"<p style=\"color: green; font-size: 50px; font-weight: bold;\">Correct</p>","response":null,"trial_index":224,"plugin_version":"2.1.0","time_elapsed":373679,"subject_id":"90823","group":"Group2","condition":"1_Rep","full_date":"2026-02-13T12:40:37.679Z","date":"2026-02-13","time":"12:40:37"},{"correct_response":"a","task":"test_phase","broad_categ