[{"width":1440,"height":900,"webaudio":true,"browser":"chrome","browser_version":"144.0.0","mobile":false,"os":"Mac OS","fullscreen":true,"vsync_rate":60.51,"webcam":true,"microphone":true,"trial_type":"browser-check","trial_index":0,"plugin_version":"2.1.0","time_elapsed":1000,"subject_id":"91703","group":"Group2","condition":"1_Rep","full_date":"2026-02-23T19:38:12.105Z","date":"2026-02-23","time":"19:38:12"},{"success":true,"timeout":false,"failed_images":[],"failed_audio":[],"failed_video":[],"trial_type":"preload","trial_index":1,"plugin_version":"2.1.0","time_elapsed":3571,"subject_id":"91703","group":"Group2","condition":"1_Rep","full_date":"2026-02-23T19:38:12.105Z","date":"2026-02-23","time":"19:38:12"},{"rt":4060,"url":"SONA_consent_memorability.html","trial_type":"external-html","trial_index":2,"plugin_version":"2.1.0","time_elapsed":7679,"subject_id":"91703","group":"Group2","condition":"1_Rep","full_date":"2026-02-23T19:38:12.105Z","date":"2026-02-23","time":"19:38:12"},{"success":true,"rt":3115,"trial_type":"fullscreen","trial_index":3,"plugin_version":"2.1.0","time_elapsed":11799,"subject_id":"91703","group":"Group2","condition":"1_Rep","full_date":"2026-02-23T19:38:12.105Z","date":"2026-02-23","time":"19:38:12"},{"rt":14517,"stimulus":"<div style=\"max-width: 760px; margin: auto; font-size: 20px; line-height: 1.5;\">\n      <h1 style=\"text-align:center; font-size: 30px;\">Instructions</h1>\n      <p>\n        Welcome to the study on <b>visual memory</b>. This experiment consists of <b>two phases</b>: \n        a <b>study phase</b> and a <b>test phase</b>.\n      </p>\n      <p>\n        In the study phase, you will see a series of rock images along with their category labels.\n        The images will appear one at a time.\n        <b>Your task</b> is to learn the categories to which the rock images belong \n        and to remember each image as accurately as possible.\n      </p> \n      <p>\n        Note that you will see each image only <b>once</b> during the study phase. \n          So, please pay close attention and try to remember each image carefully.\n      </p>\n      <p>\n        After the study phase, <b>your memory will be tested</b>. \n        Additional instructions for the test phase will be provided at that time.\n      </p>\n      <p>\n        If your computer has multiple <b>language settings</b> (e.g., English and another language),\n        please make sure it is set to English before starting.\n      </p>\n      <p>\n        You can track your progress using the <b>completion bar</b> at the top of the screen. \n        Please note that the bar will refresh when the test phase begins \n        to give you an accurate sense of your progress in both phases.\n      </p> \n      <p>\n        Press the button below when you are ready to begin.\n      </p>\n    </div>","response":0,"trial_type":"html-button-response","trial_index":4,"plugin_version":"2.1.0","time_elapsed":26319,"subject_id":"91703","group":"Group2","condition":"1_Rep","full_date":"2026-02-23T19:38:12.105Z","date":"2026-02-23","time":"19:38:12"},{"rt":null,"stimulus":"<p style=\"font-size: 50px; margin: 0; text-align: center;\">+</p>","response":null,"trial_type":"html-keyboard-response","trial_index":5,"plugin_version":"2.1.0","time_elapsed":27324,"subject_id":"91703","group":"Group2","condition":"1_Rep","full_date":"2026-02-23T19:38:12.105Z","date":"2026-02-23","time":"19:38:12"},{"task":"memory_phase","broad_category":"S","image_png":"S_Dolomite_01.png","image_id":385,"category_name":"Dolomite","category":25,"distinct_rating":1.43,"distinct_type":"Bottom","rt":null,"stimulus":"Stimuli_Rocks480/S_Dolomite_01.png","response":null,"trial_type":"image-keyboard-response","trial_index":6,"plugin_version":"2.1.0","time_elapsed":29831,"subject_id":"91703","group":"Group2","condition":"1_Rep","full_date":"2026-02-23T19:38:12.105Z","date":"2026-02-23","time":"19:38:12"},{"rt":null,"stimulus":"<p style=\"font-size: 50px; margin: 0; text-align: center;\">+</p>","response":null,"trial_type":"html-keyboard-response","trial_index":7,"plugin_version":"2.1.0","time_elapsed":30835,"subject_id":"91703","group":"Group2","condition":"1_Rep","full_date":"2026-02-23T19:38:12.105Z","date":"2026-02-23","time":"19:38:12"},{"task":"memory_phase","broad_category":"I","image_png":"I_Gabbro_14.png","image_id":62,"category_name":"Gabbro","category":4,"distinct_rating":2.95,"distinct_type":"Bottom","rt":null,"stimulus":"Stimuli_Rocks480/I_Gabbro_14.png","response":null,"trial_type":"image-keyboard-response","trial_index":8,"plugin_version":"2.1.0","time_elapsed":33339,"subject_id":"91703","group":"Group2","condition":"1_Rep","full_date":"2026-02-23T19:38:12.105Z","date":"2026-02-23","time":"19:38:12"},{"rt":null,"stimulus":"<p style=\"font-size: 50px; margin: 0; text-align: center;\">+</p>","response":null,"trial_type":"html-keyboard-response","trial_index":9,"plugin_version":"2.1.0","time_elapsed":34343,"subject_id":"91703","group":"Group2","condition":"1_Rep","full_date":"2026-02-23T19:38:12.105Z","date":"2026-02-23","time":"19:38:12"},{"task":"memory_phase","broad_category":"I","image_png":"I_Diorite_15.png","image_id":47,"category_name":"Diorite","category":3,"distinct_rating":3.05,"distinct_type":"Bottom","rt":null,"stimulus":"Stimuli_Rocks480/I_Diorite_15.png","response":null,"trial_type":"image-keyboard-response","trial_index":10,"plugin_version":"2.1.0","time_elapsed":36847,"subject_id":"91703","group":"Group2","condition":"1_Rep","full_date":"2026-02-23T19:38:12.105Z","date":"2026-02-23","time":"19:38:12"},{"rt":null,"stimulus":"<p style=\"font-size: 50px; margin: 0; text-align: center;\">+</p>","response":null,"trial_type":"html-keyboard-response","trial_index":11,"plugin_version":"2.1.0","time_elapsed":37850,"subject_id":"91703","group":"Group2","condition":"1_Rep","full_date":"2026-02-23T19:38:12.105Z","date":"2026-02-23","time":"19:38:12"},{"task":"memory_phase","broad_category":"I","image_png":"I_Pumice_13.png","image_id":141,"category_name":"Pumice","category":9,"distinct_rating":3.12,"distinct_type":"Bottom","rt":null,"stimulus":"Stimuli_Rocks480/I_Pumice_13.png","response":null,"trial_type":"image-keyboard-response","trial_index":12,"plugin_version":"2.1.0","time_elapsed":40354,"subject_id":"91703","group":"Group2","condition":"1_Rep","full_date":"2026-02-23T19:38:12.105Z","date":"2026-02-23","time":"19:38:12"},{"rt":null,"stimulus":"<p style=\"font-size: 50px; margin: 0; text-align: center;\">+</p>","response":null,"trial_type":"html-keyboard-response","trial_index":13,"plugin_version":"2.1.0","time_elapsed":41357,"subject_id":"91703","group":"Group2","condition":"1_Rep","full_date":"2026-02-23T19:38:12.105Z","date":"2026-02-23","time":"19:38:12"},{"task":"memory_phase","broad_category":"M","image_png":"M_Slate_10.png","image_id":314,"category_name":"Slate","category":20,"distinct_rating":1.94,"distinct_type":"Bottom","rt":null,"stimulus":"Stimuli_Rocks480/M_Slate_10.png","response":null,"trial_type":"image-keyboard-response","trial_index":14,"plugin_version":"2.1.0","time_elapsed":43861,"subject_id":"91703","group":"Group2","condition":"1_Rep","full_date":"2026-02-23T19:38:12.105Z","date":"2026-02-23","time":"19:38:12"},{"rt":null,"stimulus":"<p style=\"font-size: 50px; margin: 0; text-align: center;\">+</p>","response":null,"trial_type":"html-keyboard-response","trial_index":15,"plugin_version":"2.1.0","time_elapsed":44864,"subject_id":"91703","group":"Group2","condition":"1_Rep","full_date":"2026-02-23T19:38:12.105Z","date":"2026-02-23","time":"19:38:12"},{"task":"memory_phase","broad_category":"I","image_png":"I_Pegmatite_11.png","image_id":107,"category_name":"Pegmatite","category":7,"distinct_rating":7.11,"distinct_type":"Top","rt":null,"stimulus":"Stimuli_Rocks480/I_Pegmatite_11.png","response":null,"trial_type":"image-keyboard-response","trial_index":16,"plugin_version":"2.1.0","time_elapsed":47368,"subject_id":"91703","group":"Group2","condition":"1_Rep","full_date":"2026-02-23T19:38:12.105Z","date":"2026-02-23","time":"19:38:12"},{"rt":null,"stimulus":"<p style=\"font-size: 50px; margin: 0; text-align: center;\">+</p>","response":null,"trial_type":"html-keyboard-response","trial_index":17,"plugin_version":"2.1.0","time_elapsed":48371,"subject_id":"91703","group":"Group2","condition":"1_Rep","full_date":"2026-02-23T19:38:12.105Z","date":"2026-02-23","time":"19:38:12"},{"task":"memory_phase","broad_category":"I","image_png":"I_Pegmatite_03.png","image_id":99,"category_name":"Pegmatite","category":7,"distinct_rating":7.24,"distinct_type":"Top","rt":null,"stimulus":"Stimuli_Rocks480/I_Pegmatite_03.png","response":null,"trial_type":"image-keyboard-response","trial_index":18,"plugin_version":"2.1.0","time_elapsed":50875,"subject_id":"91703","group":"Group2","condition":"1_Rep","full_date":"2026-02-23T19:38:12.105Z","date":"2026-02-23","time":"19:38:12"},{"rt":null,"stimulus":"<p style=\"font-size: 50px; margin: 0; text-align: center;\">+</p>","response":null,"trial_type":"html-keyboard-response","trial_index":19,"plugin_version":"2.1.0","time_elapsed":51878,"subject_id":"91703","group":"Group2","condition":"1_Rep","full_date":"2026-02-23T19:38:12.105Z","date":"2026-02-23","time":"19:38:12"},{"task":"memory_phase","broad_category":"I","image_png":"I_Gabbro_12.png","image_id":60,"category_name":"Gabbro","category":4,"distinct_rating":2.6,"distinct_type":"Bottom","rt":null,"stimulus":"Stimuli_Rocks480/I_Gabbro_12.png","response":null,"trial_type":"image-keyboard-response","trial_index":20,"plugin_version":"2.1.0","time_elapsed":54382,"subject_id":"91703","group":"Group2","condition":"1_Rep","full_date":"2026-02-23T19:38:12.105Z","date":"2026-02-23","time":"19:38:12"},{"rt":null,"stimulus":"<p style=\"font-size: 50px; margin: 0; text-align: center;\">+</p>","response":null,"trial_type":"html-keyboard-response","trial_index":21,"plugin_version":"2.1.0","time_elapsed":55384,"subject_id":"91703","group":"Group2","condition":"1_Rep","full_date":"2026-02-23T19:38:12.105Z","date":"2026-02-23","time":"19:38:12"},{"task":"memory_phase","broad_category":"I","image_png":"I_Diorite_01.png","image_id":33,"category_name":"Diorite","category":3,"distinct_rating":2.97,"distinct_type":"Bottom","rt":null,"stimulus":"Stimuli_Rocks480/I_Diorite_01.png","response":null,"trial_type":"image-keyboard-response","trial_index":22,"plugin_version":"2.1.0","time_elapsed":57889,"subject_id":"91703","group":"Group2","condition":"1_Rep","full_date":"2026-02-23T19:38:12.105Z","date":"2026-02-23","time":"19:38:12"},{"rt":null,"stimulus":"<p style=\"font-size: 50px; margin: 0; text-align: center;\">+</p>","response":null,"trial_type":"html-keyboard-response","trial_index":23,"plugin_version":"2.1.0","time_elapsed":58891,"subject_id":"91703","group":"Group2","condition":"1_Rep","full_date":"2026-02-23T19:38:12.105Z","date":"2026-02-23","time":"19:38:12"},{"task":"memory_phase","broad_category":"M","image_png":"M_Gneiss_14.png","image_id":206,"category_name":"Gneiss","category":13,"distinct_rating":3.41,"distinct_type":"Bottom","rt":null,"stimulus":"Stimuli_Rocks480/M_Gneiss_14.png","response":null,"trial_type":"image-keyboard-response","trial_index":24,"plugin_version":"2.1.0","time_elapsed":61396,"subject_id":"91703","group":"Group2","condition":"1_Rep","full_date":"2026-02-23T19:38:12.105Z","date":"2026-02-23","time":"19:38:12"},{"rt":null,"stimulus":"<p style=\"font-size: 50px; margin: 0; text-align: center;\">+</p>","response":null,"trial_type":"html-keyboard-response","trial_index":25,"plugin_version":"2.1.0","time_elapsed":62399,"subject_id":"91703","group":"Group2","condition":"1_Rep","full_date":"2026-02-23T19:38:12.105Z","date":"2026-02-23","time":"19:38:12"},{"task":"memory_phase","broad_category":"I","image_png":"I_Gabbro_02.png","image_id":50,"category_name":"Gabbro","category":4,"distinct_rating":2.73,"distinct_type":"Bottom","rt":null,"stimulus":"Stimuli_Rocks480/I_Gabbro_02.png","response":null,"trial_type":"image-keyboard-response","trial_index":26,"plugin_version":"2.1.0","time_elapsed":64903,"subject_id":"91703","group":"Group2","condition":"1_Rep","full_date":"2026-02-23T19:38:12.105Z","date":"2026-02-23","time":"19:38:12"},{"rt":null,"stimulus":"<p style=\"font-size: 50px; margin: 0; text-align: center;\">+</p>","response":null,"trial_type":"html-keyboard-response","trial_index":27,"plugin_version":"2.1.0","time_elapsed":65906,"subject_id":"91703","group":"Group2","condition":"1_Rep","full_date":"2026-02-23T19:38:12.105Z","date":"2026-02-23","time":"19:38:12"},{"task":"memory_phase","broad_category":"I","image_png":"I_Rhyolite_05.png","image_id":149,"category_name":"Rhyolite","category":10,"distinct_rating":3.02,"distinct_type":"Bottom","rt":null,"stimulus":"Stimuli_Rocks480/I_Rhyolite_05.png","response":null,"trial_type":"image-keyboard-response","trial_index":28,"plugin_version":"2.1.0","time_elapsed":68410,"subject_id":"91703","group":"Group2","condition":"1_Rep","full_date":"2026-02-23T19:38:12.105Z","date":"2026-02-23","time":"19:38:12"},{"rt":null,"stimulus":"<p style=\"font-size: 50px; margin: 0; text-align: center;\">+</p>","response":null,"trial_type":"html-keyboard-response","trial_index":29,"plugin_version":"2.1.0","time_elapsed":69413,"subject_id":"91703","group":"Group2","condition":"1_Rep","full_date":"2026-02-23T19:38:12.105Z","date":"2026-02-23","time":"19:38:12"},{"task":"memory_phase","broad_category":"S","image_png":"S_Chert_13.png","image_id":365,"category_name":"Chert","category":23,"distinct_rating":6.57,"distinct_type":"Top","rt":null,"stimulus":"Stimuli_Rocks480/S_Chert_13.png","response":null,"trial_type":"image-keyboard-response","trial_index":30,"plugin_version":"2.1.0","time_elapsed":71917,"subject_id":"91703","group":"Group2","condition":"1_Rep","full_date":"2026-02-23T19:38:12.105Z","date":"2026-02-23","time":"19:38:12"},{"rt":null,"stimulus":"<p style=\"font-size: 50px; margin: 0; text-align: center;\">+</p>","response":null,"trial_type":"html-keyboard-response","trial_index":31,"plugin_version":"2.1.0","time_elapsed":72919,"subject_id":"91703","group":"Group2","condition":"1_Rep","full_date":"2026-02-23T19:38:12.105Z","date":"2026-02-23","time":"19:38:12"},{"task":"memory_phase","broad_category":"I","image_png":"I_Basalt_08.png","image_id":24,"category_name":"Basalt","category":2,"distinct_rating":2.31,"distinct_type":"Bottom","rt":null,"stimulus":"Stimuli_Rocks480/I_Basalt_08.png","response":null,"trial_type":"image-keyboard-response","trial_index":32,"plugin_version":"2.1.0","time_elapsed":75423,"subject_id":"91703","group":"Group2","condition":"1_Rep","full_date":"2026-02-23T19:38:12.105Z","date":"2026-02-23","time":"19:38:12"},{"rt":null,"stimulus":"<p style=\"font-size: 50px; margin: 0; text-align: center;\">+</p>","response":null,"trial_type":"html-keyboard-response","trial_index":33,"plugin_version":"2.1.0","time_elapsed":76427,"subject_id":"91703","group":"Group2","condition":"1_Rep","full_date":"2026-02-23T19:38:12.105Z","date":"2026-02-23","time":"19:38:12"},{"task":"memory_phase","broad_category":"M","image_png":"M_Marble_03.png","image_id":227,"category_name":"Marble","category":15,"distinct_rating":2.67,"distinct_type":"Bottom","rt":null,"stimulus":"Stimuli_Rocks480/M_Marble_03.png","response":null,"trial_type":"image-keyboard-response","trial_index":34,"plugin_version":"2.1.0","time_elapsed":78930,"subject_id":"91703","group":"Group2","condition":"1_Rep","full_date":"2026-02-23T19:38:12.105Z","date":"2026-02-23","time":"19:38:12"},{"rt":null,"stimulus":"<p style=\"font-size: 50px; margin: 0; text-align: center;\">+</p>","response":null,"trial_type":"html-keyboard-response","trial_index":35,"plugin_version":"2.1.0","time_elapsed":79933,"subject_id":"91703","group":"Group2","condition":"1_Rep","full_date":"2026-02-23T19:38:12.105Z","date":"2026-02-23","time":"19:38:12"},{"task":"memory_phase","broad_category":"S","image_png":"S_Sandstone_11.png","image_id":459,"category_name":"Sandstone","category":29,"distinct_rating":1.82,"distinct_type":"Bottom","rt":null,"stimulus":"Stimuli_Rocks480/S_Sandstone_11.png","response":null,"trial_type":"image-keyboard-response","trial_index":36,"plugin_version":"2.1.0","time_elapsed":82437,"subject_id":"91703","group":"Group2","condition":"1_Rep","full_date":"2026-02-23T19:38:12.105Z","date":"2026-02-23","time":"19:38:12"},{"rt":null,"stimulus":"<p style=\"font-size: 50px; margin: 0; text-align: center;\">+</p>","response":null,"trial_type":"html-keyboard-response","trial_index":37,"plugin_version":"2.1.0","time_elapsed":83440,"subject_id":"91703","group":"Group2","condition":"1_Rep","full_date":"2026-02-23T19:38:12.105Z","date":"2026-02-23","time":"19:38:12"},{"task":"memory_phase","broad_category":"I","image_png":"I_Basalt_10.png","image_id":26,"category_name":"Basalt","category":2,"distinct_rating":2.76,"distinct_type":"Bottom","rt":null,"stimulus":"Stimuli_Rocks480/I_Basalt_10.png","response":null,"trial_type":"image-keyboard-response","trial_index":38,"plugin_version":"2.1.0","time_elapsed":85944,"subject_id":"91703","group":"Group2","condition":"1_Rep","full_date":"2026-02-23T19:38:12.105Z","date":"2026-02-23","time":"19:38:12"},{"rt":null,"stimulus":"<p style=\"font-size: 50px; margin: 0; text-align: center;\">+</p>","response":null,"trial_type":"html-keyboard-response","trial_index":39,"plugin_version":"2.1.0","time_elapsed":86946,"subject_id":"91703","group":"Group2","condition":"1_Rep","full_date":"2026-02-23T19:38:12.105Z","date":"2026-02-23","time":"19:38:12"},{"task":"memory_phase","broad_category":"S","image_png":"S_Shale_02.png","image_id":466,"category_name":"Shale","category":30,"distinct_rating":2.9,"distinct_type":"Bottom","rt":null,"stimulus":"Stimuli_Rocks480/S_Shale_02.png","response":null,"trial_type":"image-keyboard-response","trial_index":40,"plugin_version":"2.1.0","time_elapsed":89450,"subject_id":"91703","group":"Group2","condition":"1_Rep","full_date":"2026-02-23T19:38:12.105Z","date":"2026-02-23","time":"19:38:12"},{"rt":null,"stimulus":"<p style=\"font-size: 50px; margin: 0; text-align: center;\">+</p>","response":null,"trial_type":"html-keyboard-response","trial_index":41,"plugin_version":"2.1.0","time_elapsed":90453,"subject_id":"91703","group":"Group2","condition":"1_Rep","full_date":"2026-02-23T19:38:12.105Z","date":"2026-02-23","time":"19:38:12"},{"task":"memory_phase","broad_category":"S","image_png":"S_Rock Salt_13.png","image_id":445,"category_name":"Rock Salt","category":28,"distinct_rating":7.58,"distinct_type":"Top","rt":null,"stimulus":"Stimuli_Rocks480/S_Rock Salt_13.png","response":null,"trial_type":"image-keyboard-response","trial_index":42,"plugin_version":"2.1.0","time_elapsed":92957,"subject_id":"91703","group":"Group2","condition":"1_Rep","full_date":"2026-02-23T19:38:12.105Z","date":"2026-02-23","time":"19:38:12"},{"rt":null,"stimulus":"<p style=\"font-size: 50px; margin: 0; text-align: center;\">+</p>","response":null,"trial_type":"html-keyboard-response","trial_index":43,"plugin_version":"2.1.0","time_elapsed":93959,"subject_id":"91703","group":"Group2","condition":"1_Rep","full_date":"2026-02-23T19:38:12.105Z","date":"2026-02-23","time":"19:38:12"},{"task":"memory_phase","broad_category":"I","image_png":"I_Andesite_04.png","image_id":4,"category_name":"Andesite","category":1,"distinct_rating":3.18,"distinct_type":"Bottom","rt":null,"stimulus":"Stimuli_Rocks480/I_Andesite_04.png","response":null,"trial_type":"image-keyboard-response","trial_index":44,"plugin_version":"2.1.0","time_elapsed":96463,"subject_id":"91703","group":"Group2","condition":"1_Rep","full_date":"2026-02-23T19:38:12.105Z","date":"2026-02-23","time":"19:38:12"},{"rt":null,"stimulus":"<p style=\"font-size: 50px; margin: 0; text-align: center;\">+</p>","response":null,"trial_type":"html-keyboard-response","trial_index":45,"plugin_version":"2.1.0","time_elapsed":97466,"subject_id":"91703","group":"Group2","condition":"1_Rep","full_date":"2026-02-23T19:38:12.105Z","date":"2026-02-23","time":"19:38:12"},{"task":"memory_phase","broad_category":"M","image_png":"M_Gneiss_15.png","image_id":207,"category_name":"Gneiss","category":13,"distinct_rating":3.11,"distinct_type":"Bottom","rt":null,"stimulus":"Stimuli_Rocks480/M_Gneiss_15.png","response":null,"trial_type":"image-keyboard-response","trial_index":46,"plugin_version":"2.1.0","time_elapsed":99970,"subject_id":"91703","group":"Group2","condition":"1_Rep","full_date":"2026-02-23T19:38:12.105Z","date":"2026-02-23","time":"19:38:12"},{"rt":null,"stimulus":"<p style=\"font-size: 50px; margin: 0; text-align: center;\">+</p>","response":null,"trial_type":"html-keyboard-response","trial_index":47,"plugin_version":"2.1.0","time_elapsed":100973,"subject_id":"91703","group":"Group2","condition":"1_Rep","full_date":"2026-02-23T19:38:12.105Z","date":"2026-02-23","time":"19:38:12"},{"task":"memory_phase","broad_category":"I","image_png":"I_Andesite_03.png","image_id":3,"category_name":"Andesite","category":1,"distinct_rating":3.17,"distinct_type":"Bottom","rt":null,"stimulus":"Stimuli_Rocks480/I_Andesite_03.png","response":null,"trial_type":"image-keyboard-response","trial_index":48,"plugin_version":"2.1.0","time_elapsed":103476,"subject_id":"91703","group":"Group2","condition":"1_Rep","full_date":"2026-02-23T19:38:12.105Z","date":"2026-02-23","time":"19:38:12"},{"rt":null,"stimulus":"<p style=\"font-size: 50px; margin: 0; text-align: center;\">+</p>","response":null,"trial_type":"html-keyboard-response","trial_index":49,"plugin_version":"2.1.0","time_elapsed":104479,"subject_id":"91703","group":"Group2","condition":"1_Rep","full_date":"2026-02-23T19:38:12.105Z","date":"2026-02-23","time":"19:38:12"},{"task":"memory_phase","broad_category":"M","image_png":"M_Gneiss_10.png","image_id":202,"category_name":"Gneiss","category":13,"distinct_rating":3.09,"distinct_type":"Bottom","rt":null,"stimulus":"Stimuli_Rocks480/M_Gneiss_10.png","response":null,"trial_type":"image-keyboard-response","trial_index":50,"plugin_version":"2.1.0","time_elapsed":106983,"subject_id":"91703","group":"Group2","condition":"1_Rep","full_date":"2026-02-23T19:38:12.105Z","date":"2026-02-23","time":"19:38:12"},{"rt":null,"stimulus":"<p style=\"font-size: 50px; margin: 0; text-align: center;\">+</p>","response":null,"trial_type":"html-keyboard-response","trial_index":51,"plugin_version":"2.1.0","time_elapsed":107986,"subject_id":"91703","group":"Group2","condition":"1_Rep","full_date":"2026-02-23T19:38:12.105Z","date":"2026-02-23","time":"19:38:12"},{"task":"memory_phase","broad_category":"S","image_png":"S_Dolomite_16.png","image_id":400,"category_name":"Dolomite","category":25,"distinct_rating":1.71,"distinct_type":"Bottom","rt":null,"stimulus":"Stimuli_Rocks480/S_Dolomite_16.png","response":null,"trial_type":"image-keyboard-response","trial_index":52,"plugin_version":"2.1.0","time_elapsed":110490,"subject_id":"91703","group":"Group2","condition":"1_Rep","full_date":"2026-02-23T19:38:12.105Z","date":"2026-02-23","time":"19:38:12"},{"rt":null,"stimulus":"<p style=\"font-size: 50px; margin: 0; text-align: center;\">+</p>","response":null,"trial_type":"html-keyboard-response","trial_index":53,"plugin_version":"2.1.0","time_elapsed":111494,"subject_id":"91703","group":"Group2","condition":"1_Rep","full_date":"2026-02-23T19:38:12.105Z","date":"2026-02-23","time":"19:38:12"},{"task":"memory_phase","broad_category":"M","image_png":"M_Quartzite_15.png","image_id":287,"category_name":"Quartzite","category":18,"distinct_rating":2.19,"distinct_type":"Bottom","rt":null,"stimulus":"Stimuli_Rocks480/M_Quartzite_15.png","response":null,"trial_type":"image-keyboard-response","trial_index":54,"plugin_version":"2.1.0","time_elapsed":113998,"subject_id":"91703","group":"Group2","condition":"1_Rep","full_date":"2026-02-23T19:38:12.105Z","date":"2026-02-23","time":"19:38:12"},{"rt":1279,"stimulus":"<p style=\"max-width: 760px; margin: auto; font-size: 35px; line-height: 1.5;\">\n                Press SPACE to continue study phase\n              </p>","response":" ","trial_type":"html-keyboard-response","trial_index":55,"plugin_version":"2.1.0","time_elapsed":115280,"subject_id":"91703","group":"Group2","condition":"1_Rep","full_date":"2026-02-23T19:38:12.105Z","date":"2026-02-23","time":"19:38:12"},{"rt":null,"stimulus":"<p style=\"font-size: 50px; margin: 0; text-align: center;\">+</p>","response":null,"trial_type":"html-keyboard-response","trial_index":56,"plugin_version":"2.1.0","time_elapsed":116283,"subject_id":"91703","group":"Group2","condition":"1_Rep","full_date":"2026-02-23T19:38:12.105Z","date":"2026-02-23","time":"19:38:12"},{"task":"memory_phase","broad_category":"M","image_png":"M_Marble_02.png","image_id":226,"category_name":"Marble","category":15,"distinct_rating":3.2,"distinct_type":"Bottom","rt":null,"stimulus":"Stimuli_Rocks480/M_Marble_02.png","response":null,"trial_type":"image-keyboard-response","trial_index":57,"plugin_version":"2.1.0","time_elapsed":118787,"subject_id":"91703","group":"Group2","condition":"1_Rep","full_date":"2026-02-23T19:38:12.105Z","date":"2026-02-23","time":"19:38:12"},{"rt":null,"stimulus":"<p style=\"font-size: 50px; margin: 0; text-align: center;\">+</p>","response":null,"trial_type":"html-keyboard-response","trial_index":58,"plugin_version":"2.1.0","time_elapsed":119790,"subject_id":"91703","group":"Group2","condition":"1_Rep","full_date":"2026-02-23T19:38:12.105Z","date":"2026-02-23","time":"19:38:12"},{"task":"memory_phase","broad_category":"M","image_png":"M_Phyllite_13.png","image_id":269,"category_name":"Phyllite","category":17,"distinct_rating":2.8,"distinct_type":"Bottom","rt":null,"stimulus":"Stimuli_Rocks480/M_Phyllite_13.png","response":null,"trial_type":"image-keyboard-response","trial_index":59,"plugin_version":"2.1.0","time_elapsed":122294,"subject_id":"91703","group":"Group2","condition":"1_Rep","full_date":"2026-02-23T19:38:12.105Z","date":"2026-02-23","time":"19:38:12"},{"rt":null,"stimulus":"<p style=\"font-size: 50px; margin: 0; text-align: center;\">+</p>","response":null,"trial_type":"html-keyboard-response","trial_index":60,"plugin_version":"2.1.0","time_elapsed":123297,"subject_id":"91703","group":"Group2","condition":"1_Rep","full_date":"2026-02-23T19:38:12.105Z","date":"2026-02-23","time":"19:38:12"},{"task":"memory_phase","broad_category":"S","image_png":"S_Sandstone_08.png","image_id":456,"category_name":"Sandstone","category":29,"distinct_rating":1.5,"distinct_type":"Bottom","rt":null,"stimulus":"Stimuli_Rocks480/S_Sandstone_08.png","response":null,"trial_type":"image-keyboard-response","trial_index":61,"plugin_version":"2.1.0","time_elapsed":125801,"subject_id":"91703","group":"Group2","condition":"1_Rep","full_date":"2026-02-23T19:38:12.105Z","date":"2026-02-23","time":"19:38:12"},{"rt":null,"stimulus":"<p style=\"font-size: 50px; margin: 0; text-align: center;\">+</p>","response":null,"trial_type":"html-keyboard-response","trial_index":62,"plugin_version":"2.1.0","time_elapsed":126804,"subject_id":"91703","group":"Group2","condition":"1_Rep","full_date":"2026-02-23T19:38:12.105Z","date":"2026-02-23","time":"19:38:12"},{"task":"memory_phase","broad_category":"I","image_png":"I_Obsidian_06.png","image_id":86,"category_name":"Obsidian","category":6,"distinct_rating":8.01,"distinct_type":"Top","rt":null,"stimulus":"Stimuli_Rocks480/I_Obsidian_06.png","response":null,"trial_type":"image-keyboard-response","trial_index":63,"plugin_version":"2.1.0","time_elapsed":129308,"subject_id":"91703","group":"Group2","condition":"1_Rep","full_date":"2026-02-23T19:38:12.105Z","date":"2026-02-23","time":"19:38:12"},{"rt":null,"stimulus":"<p style=\"font-size: 50px; margin: 0; text-align: center;\">+</p>","response":null,"trial_type":"html-keyboard-response","trial_index":64,"plugin_version":"2.1.0","time_elapsed":130311,"subject_id":"91703","group":"Group2","condition":"1_Rep","full_date":"2026-02-23T19:38:12.105Z","date":"2026-02-23","time":"19:38:12"},{"task":"memory_phase","broad_category":"M","image_png":"M_Phyllite_02.png","image_id":258,"category_name":"Phyllite","category":17,"distinct_rating":2.89,"distinct_type":"Bottom","rt":null,"stimulus":"Stimuli_Rocks480/M_Phyllite_02.png","response":null,"trial_type":"image-keyboard-response","trial_index":65,"plugin_version":"2.1.0","time_elapsed":132814,"subject_id":"91703","group":"Group2","condition":"1_Rep","full_date":"2026-02-23T19:38:12.105Z","date":"2026-02-23","time":"19:38:12"},{"rt":null,"stimulus":"<p style=\"font-size: 50px; margin: 0; text-align: center;\">+</p>","response":null,"trial_type":"html-keyboard-response","trial_index":66,"plugin_version":"2.1.0","time_elapsed":133817,"subject_id":"91703","group":"Group2","condition":"1_Rep","full_date":"2026-02-23T19:38:12.105Z","date":"2026-02-23","time":"19:38:12"},{"task":"memory_phase","broad_category":"S","image_png":"S_Rock Salt_15.png","image_id":447,"category_name":"Rock Salt","category":28,"distinct_rating":7.79,"distinct_type":"Top","rt":null,"stimulus":"Stimuli_Rocks480/S_Rock Salt_15.png","response":null,"trial_type":"image-keyboard-response","trial_index":67,"plugin_version":"2.1.0","time_elapsed":136321,"subject_id":"91703","group":"Group2","condition":"1_Rep","full_date":"2026-02-23T19:38:12.105Z","date":"2026-02-23","time":"19:38:12"},{"rt":null,"stimulus":"<p style=\"font-size: 50px; margin: 0; text-align: center;\">+</p>","response":null,"trial_type":"html-keyboard-response","trial_index":68,"plugin_version":"2.1.0","time_elapsed":137324,"subject_id":"91703","group":"Group2","condition":"1_Rep","full_date":"2026-02-23T19:38:12.105Z","date":"2026-02-23","time":"19:38:12"},{"task":"memory_phase","broad_category":"M","image_png":"M_Quartzite_12.png","image_id":284,"category_name":"Quartzite","category":18,"distinct_rating":1.92,"distinct_type":"Bottom","rt":null,"stimulus":"Stimuli_Rocks480/M_Quartzite_12.png","response":null,"trial_type":"image-keyboard-response","trial_index":69,"plugin_version":"2.1.0","time_elapsed":139828,"subject_id":"91703","group":"Group2","condition":"1_Rep","full_date":"2026-02-23T19:38:12.105Z","date":"2026-02-23","time":"19:38:12"},{"rt":null,"stimulus":"<p style=\"font-size: 50px; margin: 0; text-align: center;\">+</p>","response":null,"trial_type":"html-keyboard-response","trial_index":70,"plugin_version":"2.1.0","time_elapsed":140830,"subject_id":"91703","group":"Group2","condition":"1_Rep","full_date":"2026-02-23T19:38:12.105Z","date":"2026-02-23","time":"19:38:12"},{"task":"memory_phase","broad_category":"M","image_png":"M_Marble_14.png","image_id":238,"category_name":"Marble","category":15,"distinct_rating":3.31,"distinct_type":"Bottom","rt":null,"stimulus":"Stimuli_Rocks480/M_Marble_14.png","response":null,"trial_type":"image-keyboard-response","trial_index":71,"plugin_version":"2.1.0","time_elapsed":143334,"subject_id":"91703","group":"Group2","condition":"1_Rep","full_date":"2026-02-23T19:38:12.105Z","date":"2026-02-23","time":"19:38:12"},{"rt":null,"stimulus":"<p style=\"font-size: 50px; margin: 0; text-align: center;\">+</p>","response":null,"trial_type":"html-keyboard-response","trial_index":72,"plugin_version":"2.1.0","time_elapsed":144337,"subject_id":"91703","group":"Group2","condition":"1_Rep","full_date":"2026-02-23T19:38:12.105Z","date":"2026-02-23","time":"19:38:12"},{"task":"memory_phase","broad_category":"M","image_png":"M_Slate_14.png","image_id":318,"category_name":"Slate","category":20,"distinct_rating":2.58,"distinct_type":"Bottom","rt":null,"stimulus":"Stimuli_Rocks480/M_Slate_14.png","response":null,"trial_type":"image-keyboard-response","trial_index":73,"plugin_version":"2.1.0","time_elapsed":146841,"subject_id":"91703","group":"Group2","condition":"1_Rep","full_date":"2026-02-23T19:38:12.105Z","date":"2026-02-23","time":"19:38:12"},{"rt":null,"stimulus":"<p style=\"font-size: 50px; margin: 0; text-align: center;\">+</p>","response":null,"trial_type":"html-keyboard-response","trial_index":74,"plugin_version":"2.1.0","time_elapsed":147843,"subject_id":"91703","group":"Group2","condition":"1_Rep","full_date":"2026-02-23T19:38:12.105Z","date":"2026-02-23","time":"19:38:12"},{"task":"memory_phase","broad_category":"I","image_png":"I_Diorite_10.png","image_id":42,"category_name":"Diorite","category":3,"distinct_rating":2.84,"distinct_type":"Bottom","rt":null,"stimulus":"Stimuli_Rocks480/I_Diorite_10.png","response":null,"trial_type":"image-keyboard-response","trial_index":75,"plugin_version":"2.1.0","time_elapsed":150347,"subject_id":"91703","group":"Group2","condition":"1_Rep","full_date":"2026-02-23T19:38:12.105Z","date":"2026-02-23","time":"19:38:12"},{"rt":null,"stimulus":"<p style=\"font-size: 50px; margin: 0; text-align: center;\">+</p>","response":null,"trial_type":"html-keyboard-response","trial_index":76,"plugin_version":"2.1.0","time_elapsed":151350,"subject_id":"91703","group":"Group2","condition":"1_Rep","full_date":"2026-02-23T19:38:12.105Z","date":"2026-02-23","time":"19:38:12"},{"task":"memory_phase","broad_category":"I","image_png":"I_Pumice_01.png","image_id":129,"category_name":"Pumice","category":9,"distinct_rating":3.25,"distinct_type":"Bottom","rt":null,"stimulus":"Stimuli_Rocks480/I_Pumice_01.png","response":null,"trial_type":"image-keyboard-response","trial_index":77,"plugin_version":"2.1.0","time_elapsed":153854,"subject_id":"91703","group":"Group2","condition":"1_Rep","full_date":"2026-02-23T19:38:12.105Z","date":"2026-02-23","time":"19:38:12"},{"rt":null,"stimulus":"<p style=\"font-size: 50px; margin: 0; text-align: center;\">+</p>","response":null,"trial_type":"html-keyboard-response","trial_index":78,"plugin_version":"2.1.0","time_elapsed":154856,"subject_id":"91703","group":"Group2","condition":"1_Rep","full_date":"2026-02-23T19:38:12.105Z","date":"2026-02-23","time":"19:38:12"},{"task":"memory_phase","broad_category":"I","image_png":"I_Rhyolite_10.png","image_id":154,"category_name":"Rhyolite","category":10,"distinct_rating":2.88,"distinct_type":"Bottom","rt":null,"stimulus":"Stimuli_Rocks480/I_Rhyolite_10.png","response":null,"trial_type":"image-keyboard-response","trial_index":79,"plugin_version":"2.1.0","time_elapsed":157360,"subject_id":"91703","group":"Group2","condition":"1_Rep","full_date":"2026-02-23T19:38:12.105Z","date":"2026-02-23","time":"19:38:12"},{"rt":null,"stimulus":"<p style=\"font-size: 50px; margin: 0; text-align: center;\">+</p>","response":null,"trial_type":"html-keyboard-response","trial_index":80,"plugin_version":"2.1.0","time_elapsed":158363,"subject_id":"91703","group":"Group2","condition":"1_Rep","full_date":"2026-02-23T19:38:12.105Z","date":"2026-02-23","time":"19:38:12"},{"task":"memory_phase","broad_category":"I","image_png":"I_Peridotite_13.png","image_id":125,"category_name":"Peridotite","category":8,"distinct_rating":7.28,"distinct_type":"Top","rt":null,"stimulus":"Stimuli_Rocks480/I_Peridotite_13.png","response":null,"trial_type":"image-keyboard-response","trial_index":81,"plugin_version":"2.1.0","time_elapsed":160867,"subject_id":"91703","group":"Group2","condition":"1_Rep","full_date":"2026-02-23T19:38:12.105Z","date":"2026-02-23","time":"19:38:12"},{"rt":null,"stimulus":"<p style=\"font-size: 50px; margin: 0; text-align: center;\">+</p>","response":null,"trial_type":"html-keyboard-response","trial_index":82,"plugin_version":"2.1.0","time_elapsed":161870,"subject_id":"91703","group":"Group2","condition":"1_Rep","full_date":"2026-02-23T19:38:12.105Z","date":"2026-02-23","time":"19:38:12"},{"task":"memory_phase","broad_category":"I","image_png":"I_Rhyolite_08.png","image_id":152,"category_name":"Rhyolite","category":10,"distinct_rating":1.38,"distinct_type":"Bottom","rt":null,"stimulus":"Stimuli_Rocks480/I_Rhyolite_08.png","response":null,"trial_type":"image-keyboard-response","trial_index":83,"plugin_version":"2.1.0","time_elapsed":164374,"subject_id":"91703","group":"Group2","condition":"1_Rep","full_date":"2026-02-23T19:38:12.105Z","date":"2026-02-23","time":"19:38:12"},{"rt":null,"stimulus":"<p style=\"font-size: 50px; margin: 0; text-align: center;\">+</p>","response":null,"trial_type":"html-keyboard-response","trial_index":84,"plugin_version":"2.1.0","time_elapsed":165377,"subject_id":"91703","group":"Group2","condition":"1_Rep","full_date":"2026-02-23T19:38:12.105Z","date":"2026-02-23","time":"19:38:12"},{"task":"memory_phase","broad_category":"M","image_png":"M_Quartzite_07.png","image_id":279,"category_name":"Quartzite","category":18,"distinct_rating":1.97,"distinct_type":"Bottom","rt":null,"stimulus":"Stimuli_Rocks480/M_Quartzite_07.png","response":null,"trial_type":"image-keyboard-response","trial_index":85,"plugin_version":"2.1.0","time_elapsed":167880,"subject_id":"91703","group":"Group2","condition":"1_Rep","full_date":"2026-02-23T19:38:12.105Z","date":"2026-02-23","time":"19:38:12"},{"rt":null,"stimulus":"<p style=\"font-size: 50px; margin: 0; text-align: center;\">+</p>","response":null,"trial_type":"html-keyboard-response","trial_index":86,"plugin_version":"2.1.0","time_elapsed":168883,"subject_id":"91703","group":"Group2","condition":"1_Rep","full_date":"2026-02-23T19:38:12.105Z","date":"2026-02-23","time":"19:38:12"},{"task":"memory_phase","broad_category":"M","image_png":"M_Phyllite_05.png","image_id":261,"category_name":"Phyllite","category":17,"distinct_rating":2.14,"distinct_type":"Bottom","rt":null,"stimulus":"Stimuli_Rocks480/M_Phyllite_05.png","response":null,"trial_type":"image-keyboard-response","trial_index":87,"plugin_version":"2.1.0","time_elapsed":171387,"subject_id":"91703","group":"Group2","condition":"1_Rep","full_date":"2026-02-23T19:38:12.105Z","date":"2026-02-23","time":"19:38:12"},{"rt":null,"stimulus":"<p style=\"font-size: 50px; margin: 0; text-align: center;\">+</p>","response":null,"trial_type":"html-keyboard-response","trial_index":88,"plugin_version":"2.1.0","time_elapsed":172389,"subject_id":"91703","group":"Group2","condition":"1_Rep","full_date":"2026-02-23T19:38:12.105Z","date":"2026-02-23","time":"19:38:12"},{"task":"memory_phase","broad_category":"S","image_png":"S_Dolomite_07.png","image_id":391,"category_name":"Dolomite","category":25,"distinct_rating":1.73,"distinct_type":"Bottom","rt":null,"stimulus":"Stimuli_Rocks480/S_Dolomite_07.png","response":null,"trial_type":"image-keyboard-response","trial_index":89,"plugin_version":"2.1.0","time_elapsed":174892,"subject_id":"91703","group":"Group2","condition":"1_Rep","full_date":"2026-02-23T19:38:12.105Z","date":"2026-02-23","time":"19:38:12"},{"rt":null,"stimulus":"<p style=\"font-size: 50px; margin: 0; text-align: center;\">+</p>","response":null,"trial_type":"html-keyboard-response","trial_index":90,"plugin_version":"2.1.0","time_elapsed":175895,"subject_id":"91703","group":"Group2","condition":"1_Rep","full_date":"2026-02-23T19:38:12.105Z","date":"2026-02-23","time":"19:38:12"},{"task":"memory_phase","broad_category":"M","image_png":"M_Slate_04.png","image_id":308,"category_name":"Slate","category":20,"distinct_rating":2.2,"distinct_type":"Bottom","rt":null,"stimulus":"Stimuli_Rocks480/M_Slate_04.png","response":null,"trial_type":"image-keyboard-response","trial_index":91,"plugin_version":"2.1.0","time_elapsed":178398,"subject_id":"91703","group":"Group2","condition":"1_Rep","full_date":"2026-02-23T19:38:12.105Z","date":"2026-02-23","time":"19:38:12"},{"rt":null,"stimulus":"<p style=\"font-size: 50px; margin: 0; text-align: center;\">+</p>","response":null,"trial_type":"html-keyboard-response","trial_index":92,"plugin_version":"2.1.0","time_elapsed":179401,"subject_id":"91703","group":"Group2","condition":"1_Rep","full_date":"2026-02-23T19:38:12.105Z","date":"2026-02-23","time":"19:38:12"},{"task":"memory_phase","broad_category":"S","image_png":"S_Shale_03.png","image_id":467,"category_name":"Shale","category":30,"distinct_rating":1.95,"distinct_type":"Bottom","rt":null,"stimulus":"Stimuli_Rocks480/S_Shale_03.png","response":null,"trial_type":"image-keyboard-response","trial_index":93,"plugin_version":"2.1.0","time_elapsed":181905,"subject_id":"91703","group":"Group2","condition":"1_Rep","full_date":"2026-02-23T19:38:12.105Z","date":"2026-02-23","time":"19:38:12"},{"rt":null,"stimulus":"<p style=\"font-size: 50px; margin: 0; text-align: center;\">+</p>","response":null,"trial_type":"html-keyboard-response","trial_index":94,"plugin_version":"2.1.0","time_elapsed":182907,"subject_id":"91703","group":"Group2","condition":"1_Rep","full_date":"2026-02-23T19:38:12.105Z","date":"2026-02-23","time":"19:38:12"},{"task":"memory_phase","broad_category":"I","image_png":"I_Andesite_09.png","image_id":9,"category_name":"Andesite","category":1,"distinct_rating":2.49,"distinct_type":"Bottom","rt":null,"stimulus":"Stimuli_Rocks480/I_Andesite_09.png","response":null,"trial_type":"image-keyboard-response","trial_index":95,"plugin_version":"2.1.0","time_elapsed":185411,"subject_id":"91703","group":"Group2","condition":"1_Rep","full_date":"2026-02-23T19:38:12.105Z","date":"2026-02-23","time":"19:38:12"},{"rt":null,"stimulus":"<p style=\"font-size: 50px; margin: 0; text-align: center;\">+</p>","response":null,"trial_type":"html-keyboard-response","trial_index":96,"plugin_version":"2.1.0","time_elapsed":186413,"subject_id":"91703","group":"Group2","condition":"1_Rep","full_date":"2026-02-23T19:38:12.105Z","date":"2026-02-23","time":"19:38:12"},{"task":"memory_phase","broad_category":"I","image_png":"I_Pumice_14.png","image_id":142,"category_name":"Pumice","category":9,"distinct_rating":3.22,"distinct_type":"Bottom","rt":null,"stimulus":"Stimuli_Rocks480/I_Pumice_14.png","response":null,"trial_type":"image-keyboard-response","trial_index":97,"plugin_version":"2.1.0","time_elapsed":188917,"subject_id":"91703","group":"Group2","condition":"1_Rep","full_date":"2026-02-23T19:38:12.105Z","date":"2026-02-23","time":"19:38:12"},{"rt":null,"stimulus":"<p style=\"font-size: 50px; margin: 0; text-align: center;\">+</p>","response":null,"trial_type":"html-keyboard-response","trial_index":98,"plugin_version":"2.1.0","time_elapsed":189920,"subject_id":"91703","group":"Group2","condition":"1_Rep","full_date":"2026-02-23T19:38:12.105Z","date":"2026-02-23","time":"19:38:12"},{"task":"memory_phase","broad_category":"S","image_png":"S_Conglomerate_14.png","image_id":382,"category_name":"Conglomerate","category":24,"distinct_rating":6.86,"distinct_type":"Top","rt":null,"stimulus":"Stimuli_Rocks480/S_Conglomerate_14.png","response":null,"trial_type":"image-keyboard-response","trial_index":99,"plugin_version":"2.1.0","time_elapsed":192424,"subject_id":"91703","group":"Group2","condition":"1_Rep","full_date":"2026-02-23T19:38:12.105Z","date":"2026-02-23","time":"19:38:12"},{"rt":null,"stimulus":"<p style=\"font-size: 50px; margin: 0; text-align: center;\">+</p>","response":null,"trial_type":"html-keyboard-response","trial_index":100,"plugin_version":"2.1.0","time_elapsed":193427,"subject_id":"91703","group":"Group2","condition":"1_Rep","full_date":"2026-02-23T19:38:12.105Z","date":"2026-02-23","time":"19:38:12"},{"task":"memory_phase","broad_category":"S","image_png":"S_Sandstone_04.png","image_id":452,"category_name":"Sandstone","category":29,"distinct_rating":1.8,"distinct_type":"Bottom","rt":null,"stimulus":"Stimuli_Rocks480/S_Sandstone_04.png","response":null,"trial_type":"image-keyboard-response","trial_index":101,"plugin_version":"2.1.0","time_elapsed":195931,"subject_id":"91703","group":"Group2","condition":"1_Rep","full_date":"2026-02-23T19:38:12.105Z","date":"2026-02-23","time":"19:38:12"},{"rt":null,"stimulus":"<p style=\"font-size: 50px; margin: 0; text-align: center;\">+</p>","response":null,"trial_type":"html-keyboard-response","trial_index":102,"plugin_version":"2.1.0","time_elapsed":196933,"subject_id":"91703","group":"Group2","condition":"1_Rep","full_date":"2026-02-23T19:38:12.105Z","date":"2026-02-23","time":"19:38:12"},{"task":"memory_phase","broad_category":"I","image_png":"I_Basalt_13.png","image_id":29,"category_name":"Basalt","category":2,"distinct_rating":2.68,"distinct_type":"Bottom","rt":null,"stimulus":"Stimuli_Rocks480/I_Basalt_13.png","response":null,"trial_type":"image-keyboard-response","trial_index":103,"plugin_version":"2.1.0","time_elapsed":199437,"subject_id":"91703","group":"Group2","condition":"1_Rep","full_date":"2026-02-23T19:38:12.105Z","date":"2026-02-23","time":"19:38:12"},{"rt":null,"stimulus":"<p style=\"font-size: 50px; margin: 0; text-align: center;\">+</p>","response":null,"trial_type":"html-keyboard-response","trial_index":104,"plugin_version":"2.1.0","time_elapsed":200439,"subject_id":"91703","group":"Group2","condition":"1_Rep","full_date":"2026-02-23T19:38:12.105Z","date":"2026-02-23","time":"19:38:12"},{"task":"memory_phase","broad_category":"S","image_png":"S_Shale_07.png","image_id":471,"category_name":"Shale","category":30,"distinct_rating":2.73,"distinct_type":"Bottom","rt":null,"stimulus":"Stimuli_Rocks480/S_Shale_07.png","response":null,"trial_type":"image-keyboard-response","trial_index":105,"plugin_version":"2.1.0","time_elapsed":202941,"subject_id":"91703","group":"Group2","condition":"1_Rep","full_date":"2026-02-23T19:38:12.105Z","date":"2026-02-23","time":"19:38:12"},{"rt":1579,"stimulus":"<div style=\"max-width: 760px; margin: auto; font-size: 20px; line-height: 1.5;\">\n      <h1 style=\"text-align:center; font-size: 30px;\">Instructions for the Test Phase</h1>\n      <p>\n        The study phase is now complete.\n      </p>\n      <p>\n        In the test phase, you will again see a series of rock images. \n        Some will be ones you saw before - during the study phase, while others will be new.  \n        <b>Your task</b> is to decide whether you have seen each image before by pressing the corresponding key on your keyboard:<br><br>\n          <b>A</b> - NO (you did not see this image before)<br>\n          <b>L</b> - YES (you saw this image before)<br><br>\n        The test will proceed at your own pace. You will receive feedback after each response.  \n        Please try to respond <b>as accurately as possible</b>.\n      </p>\n      <p>\n        <b>Reminder:</b> If your computer has multiple language settings (e.g., English and another language),\n        please ensure it is set to English during the test phase.\n      </p>\n      <p>\n        You can track your progress using the <b>completion bar</b> at the top of the screen.  \n        Note that it has been refreshed to reflect your progress during this final phase.\n      </p>\n      <p>\n        Press the button below when you are ready to continue.\n      </p>\n    </div>","response":0,"trial_type":"html-button-response","trial_index":106,"plugin_version":"2.1.0","time_elapsed":204524,"subject_id":"91703","group":"Group2","condition":"1_Rep","full_date":"2026-02-23T19:38:12.105Z","date":"2026-02-23","time":"19:38:12"},{"correct_response":"a","task":"test_phase","broad_category":"M","image_png":"M_Gneiss_06.png","image_id":198,"category_name":"Gneiss","category":13,"distinct_rating":2.65,"distinct_type":"Bottom","item_type":"Foil","rt":3623,"stimulus":"Stimuli_Rocks480/M_Gneiss_06.png","response":"a","trial_type":"image-keyboard-response","trial_index":107,"plugin_version":"2.1.0","time_elapsed":208150,"subject_id":"91703","group":"Group2","condition":"1_Rep","full_date":"2026-02-23T19:38:12.105Z","date":"2026-02-23","time":"19:38:12","cor_ans":true},{"trial_type":"html-keyboard-response","rt":null,"stimulus":"<p style=\"color: green; font-size: 50px; font-weight: bold;\">Correct</p>","response":null,"trial_index":108,"plugin_version":"2.1.0","time_elapsed":208653,"subject_id":"91703","group":"Group2","condition":"1_Rep","full_date":"2026-02-23T19:38:12.105Z","date":"2026-02-23","time":"19:38:12"},{"correct_response":"a","task":"test_phase","broad_category":"S","image_png":"S_Sandstone_15.png","image_id":463,"category_name":"Sandstone","category":29,"distinct_rating":2,"distinct_type":"Bottom","item_type":"Foil","rt":2134,"stimulus":"Stimuli_Rocks480/S_Sandstone_15.png","response":"l","trial_type":"image-keyboard-response","trial_index":109,"plugin_version":"2.1.0","time_elapsed":210789,"subject_id":"91703","group":"Group2","condition":"1_Rep","full_date":"2026-02-23T19:38:12.105Z","date":"2026-02-23","time":"19:38:12","cor_ans":false},{"trial_type":"html-keyboard-response","rt":null,"stimulus":"<p style=\"color: red; font-size: 50px; font-weight: bold;\">Incorrect</p>","response":null,"trial_index":110,"plugin_version":"2.1.0","time_elapsed":211292,"subject_id":"91703","group":"Group2","condition":"1_Rep","full_date":"2026-02-23T19:38:12.105Z","date":"2026-02-23","time":"19:38:12"},{"correct_response":"a","task":"test_phase","broad_category":"I","image_png":"I_Basalt_09.png","image_id":25,"category_name":"Basalt","category":2,"distinct_rating":1.89,"distinct_type":"Bottom","item_type":"Foil","rt":1337,"stimulus":"Stimuli_Rocks480/I_Basalt_09.png","response":"l","trial_type":"image-keyboard-response","trial_index":111,"plugin_version":"2.1.0","time_elapsed":212631,"subject_id":"91703","group":"Group2","condition":"1_Rep","full_date":"2026-02-23T19:38:12.105Z","date":"2026-02-23","time":"19:38:12","cor_ans":false},{"trial_type":"html-keyboard-response","rt":null,"stimulus":"<p style=\"color: red; font-size: 50px; font-weight: bold;\">Incorrect</p>","response":null,"trial_index":112,"plugin_version":"2.1.0","time_elapsed":213133,"subject_id":"91703","group":"Group2","condition":"1_Rep","full_date":"2026-02-23T19:38:12.105Z","date":"2026-02-23","time":"19:38:12"},{"correct_response":"l","task":"test_phase","broad_category":"S","image_png":"S_Shale_07.png","image_id":471,"category_name":"Shale","category":30,"distinct_rating":2.73,"distinct_type":"Bottom","item_type":"Target","rt":3604,"stimulus":"Stimuli_Rocks480/S_Shale_07.png","response":"a","trial_type":"image-keyboard-response","trial_index":113,"plugin_version":"2.1.0","time_elapsed":216739,"subject_id":"91703","group":"Group2","condition":"1_Rep","full_date":"2026-02-23T19:38:12.105Z","date":"2026-02-23","time":"19:38:12","cor_ans":false},{"trial_type":"html-keyboard-response","rt":null,"stimulus":"<p style=\"color: red; font-size: 50px; font-weight: bold;\">Incorrect</p>","response":null,"trial_index":114,"plugin_version":"2.1.0","time_elapsed":217241,"subject_id":"91703","group":"Group2","condition":"1_Rep","full_date":"2026-02-23T19:38:12.105Z","date":"2026-02-23","time":"19:38:12"},{"correct_response":"l","task":"test_phase","broad_category":"I","image_png":"I_Pegmatite_11.png","image_id":107,"category_name":"Pegmatite","category":7,"distinct_rating":7.11,"distinct_type":"Top","item_type":"Target","rt":3173,"stimulus":"Stimuli_Rocks480/I_Pegmatite_11.png","response":"l","trial_type":"image-keyboard-response","trial_index":115,"plugin_version":"2.1.0","time_elapsed":220416,"subject_id":"91703","group":"Group2","condition":"1_Rep","full_date":"2026-02-23T19:38:12.105Z","date":"2026-02-23","time":"19:38:12","cor_ans":true},{"trial_type":"html-keyboard-response","rt":null,"stimulus":"<p style=\"color: green; font-size: 50px; font-weight: bold;\">Correct</p>","response":null,"trial_index":116,"plugin_version":"2.1.0","time_elapsed":220918,"subject_id":"91703","group":"Group2","condition":"1_Rep","full_date":"2026-02-23T19:38:12.105Z","date":"2026-02-23","time":"19:38:12"},{"correct_response":"l","task":"test_phase","broad_category":"M","image_png":"M_Phyllite_02.png","image_id":258,"category_name":"Phyllite","category":17,"distinct_rating":2.89,"distinct_type":"Bottom","item_type":"Target","rt":1448,"stimulus":"Stimuli_Rocks480/M_Phyllite_02.png","response":"l","trial_type":"image-keyboard-response","trial_index":117,"plugin_version":"2.1.0","time_elapsed":222369,"subject_id":"91703","group":"Group2","condition":"1_Rep","full_date":"2026-02-23T19:38:12.105Z","date":"2026-02-23","time":"19:38:12","cor_ans":true},{"trial_type":"html-keyboard-response","rt":null,"stimulus":"<p style=\"color: green; font-size: 50px; font-weight: bold;\">Correct</p>","response":null,"trial_index":118,"plugin_version":"2.1.0","time_elapsed":222871,"subject_id":"91703","group":"Group2","condition":"1_Rep","full_date":"2026-02-23T19:38:12.105Z","date":"2026-02-23","time":"19:38:12"},{"correct_response":"a","task":"test_phase","broad_category":"S","image_png":"S_Shale_08.png","image_id":472,"category_name":"Shale","category":30,"distinct_rating":2.55,"distinct_type":"Bottom","item_type":"Foil","rt":1483,"stimulus":"Stimuli_Rocks480/S_Shale_08.png","response":"l","trial_type":"image-keyboard-response","trial_index":119,"plugin_version":"2.1.0","time_elapsed":224356,"subject_id":"91703","group":"Group2","condition":"1_Rep","full_date":"2026-02-23T19:38:12.105Z","date":"2026-02-23","time":"19:38:12","cor_ans":false},{"trial_type":"html-keyboard-response","rt":null,"stimulus":"<p style=\"color: red; font-size: 50px; font-weight: bold;\">Incorrect</p>","response":null,"trial_index":120,"plugin_version":"2.1.0","time_elapsed":224858,"subject_id":"91703","group":"Group2","condition":"1_Rep","full_date":"2026-02-23T19:38:12.105Z","date":"2026-02-23","time":"19:38:12"},{"correct_response":"a","task":"test_phase","broad_category":"M","image_png":"M_Phyllite_03.png","image_id":259,"category_name":"Phyllite","category":17,"distinct_rating":2.5,"distinct_type":"Bottom","item_type":"Foil","rt":1188,"stimulus":"Stimuli_Rocks480/M_Phyllite_03.png","response":"l","trial_type":"image-keyboard-response","trial_index":121,"plugin_version":"2.1.0","time_elapsed":226049,"subject_id":"91703","group":"Group2","condition":"1_Rep","full_date":"2026-02-23T19:38:12.105Z","date":"2026-02-23","time":"19:38:12","cor_ans":false},{"trial_type":"html-keyboard-response","rt":null,"stimulus":"<p style=\"color: red; font-size: 50px; font-weight: bold;\">Incorrect</p>","response":null,"trial_index":122,"plugin_version":"2.1.0","time_elapsed":226551,"subject_id":"91703","group":"Group2","condition":"1_Rep","full_date":"2026-02-23T19:38:12.105Z","date":"2026-02-23","time":"19:38:12"},{"correct_response":"l","task":"test_phase","broad_category":"I","image_png":"I_Basalt_10.png","image_id":26,"category_name":"Basalt","category":2,"distinct_rating":2.76,"distinct_type":"Bottom","item_type":"Target","rt":753,"stimulus":"Stimuli_Rocks480/I_Basalt_10.png","response":"l","trial_type":"image-keyboard-response","trial_index":123,"plugin_version":"2.1.0","time_elapsed":227307,"subject_id":"91703","group":"Group2","condition":"1_Rep","full_date":"2026-02-23T19:38:12.105Z","date":"2026-02-23","time":"19:38:12","cor_ans":true},{"trial_type":"html-keyboard-response","rt":null,"stimulus":"<p style=\"color: green; font-size: 50px; font-weight: bold;\">Correct</p>","response":null,"trial_index":124,"plugin_version":"2.1.0","time_elapsed":227808,"subject_id":"91703","group":"Group2","condition":"1_Rep","full_date":"2026-02-23T19:38:12.105Z","date":"2026-02-23","time":"19:38:12"},{"correct_response":"l","task":"test_phase","broad_category":"M","image_png":"M_Marble_03.png","image_id":227,"category_name":"Marble","category":15,"distinct_rating":2.67,"distinct_type":"Bottom","item_type":"Target","rt":818,"stimulus":"Stimuli_Rocks480/M_Marble_03.png","response":"l","trial_type":"image-keyboard-response","trial_index":125,"plugin_version":"2.1.0","time_elapsed":228629,"subject_id":"91703","group":"Group2","condition":"1_Rep","full_date":"2026-02-23T19:38:12.105Z","date":"2026-02-23","time":"19:38:12","cor_ans":true},{"trial_type":"html-keyboard-response","rt":null,"stimulus":"<p style=\"color: green; font-size: 50px; font-weight: bold;\">Correct</p>","response":null,"trial_index":126,"plugin_version":"2.1.0","time_elapsed":229131,"subject_id":"91703","group":"Group2","condition":"1_Rep","full_date":"2026-02-23T19:38:12.105Z","date":"2026-02-23","time":"19:38:12"},{"correct_response":"l","task":"test_phase","broad_category":"M","image_png":"M_Marble_14.png","image_id":238,"category_name":"Marble","category":15,"distinct_rating":3.31,"distinct_type":"Bottom","item_type":"Target","rt":1455,"stimulus":"Stimuli_Rocks480/M_Marble_14.png","response":"l","trial_type":"image-keyboard-response","trial_index":127,"plugin_version":"2.1.0","time_elapsed":230588,"subject_id":"91703","group":"Group2","condition":"1_Rep","full_date":"2026-02-23T19:38:12.105Z","date":"2026-02-23","time":"19:38:12","cor_ans":true},{"trial_type":"html-keyboard-response","rt":null,"stimulus":"<p style=\"color: green; font-size: 50px; font-weight: bold;\">Correct</p>","response":null,"trial_index":128,"plugin_version":"2.1.0","time_elapsed":231089,"subject_id":"91703","group":"Group2","condition":"1_Rep","full_date":"2026-02-23T19:38:12.105Z","date":"2026-02-23","time":"19:38:12"},{"correct_response":"l","task":"test_phase","broad_category":"I","image_png":"I_Pumice_01.png","image_id":129,"category_name":"Pumice","category":9,"distinct_rating":3.25,"distinct_type":"Bottom","item_type":"Target","rt":779,"stimulus":"Stimuli_Rocks480/I_Pumice_01.png","response":"l","trial_type":"image-keyboard-response","trial_index":129,"plugin_version":"2.1.0","time_elapsed":231870,"subject_id":"91703","group":"Group2","condition":"1_Rep","full_date":"2026-02-23T19:38:12.105Z","date":"2026-02-23","time":"19:38:12","cor_ans":true},{"trial_type":"html-keyboard-response","rt":null,"stimulus":"<p style=\"color: green; font-size: 50px; font-weight: bold;\">Correct</p>","response":null,"trial_index":130,"plugin_version":"2.1.0","time_elapsed":232372,"subject_id":"91703","group":"Group2","condition":"1_Rep","full_date":"2026-02-23T19:38:12.105Z","date":"2026-02-23","time":"19:38:12"},{"correct_response":"a","task":"test_phase","broad_category":"I","image_png":"I_Basalt_02.png","image_id":18,"category_name":"Basalt","category":2,"distinct_rating":1.84,"distinct_type":"Bottom","item_type":"Foil","rt":1058,"stimulus":"Stimuli_Rocks480/I_Basalt_02.png","response":"l","trial_type":"image-keyboard-response","trial_index":131,"plugin_version":"2.1.0","time_elapsed":233432,"subject_id":"91703","group":"Group2","condition":"1_Rep","full_date":"2026-02-23T19:38:12.105Z","date":"2026-02-23","time":"19:38:12","cor_ans":false},{"trial_type":"html-keyboard-response","rt":null,"stimulus":"<p style=\"color: red; font-size: 50px; font-weight: bold;\">Incorrect</p>","response":null,"trial_index":132,"plugin_version":"2.1.0","time_elapsed":233934,"subject_id":"91703","group":"Group2","condition":"1_Rep","full_date":"2026-02-23T19:38:12.105Z","date":"2026-02-23","time":"19:38:12"},{"correct_response":"l","task":"test_phase","broad_category":"M","image_png":"M_Slate_10.png","image_id":314,"category_name":"Slate","category":20,"distinct_rating":1.94,"distinct_type":"Bottom","item_type":"Target","rt":1217,"stimulus":"Stimuli_Rocks480/M_Slate_10.png","response":"l","trial_type":"image-keyboard-response","trial_index":133,"plugin_version":"2.1.0","time_elapsed":235154,"subject_id":"91703","group":"Group2","condition":"1_Rep","full_date":"2026-02-23T19:38:12.105Z","date":"2026-02-23","time":"19:38:12","cor_ans":true},{"trial_type":"html-keyboard-response","rt":null,"stimulus":"<p style=\"color: green; font-size: 50px; font-weight: bold;\">Correct</p>","response":null,"trial_index":134,"plugin_version":"2.1.0","time_elapsed":235656,"subject_id":"91703","group":"Group2","condition":"1_Rep","full_date":"2026-02-23T19:38:12.105Z","date":"2026-02-23","time":"19:38:12"},{"correct_response":"a","task":"test_phase","broad_category":"I","image_png":"I_Rhyolite_14.png","image_id":158,"category_name":"Rhyolite","category":10,"distinct_rating":2.59,"distinct_type":"Bottom","item_type":"Foil","rt":1172,"stimulus":"Stimuli_Rocks480/I_Rhyolite_14.png","response":"l","trial_type":"image-keyboard-response","trial_index":135,"plugin_version":"2.1.0","time_elapsed":236830,"subject_id":"91703","group":"Group2","condition":"1_Rep","full_date":"2026-02-23T19:38:12.105Z","date":"2026-02-23","time":"19:38:12","cor_ans":false},{"trial_type":"html-keyboard-response","rt":null,"stimulus":"<p style=\"color: red; font-size: 50px; font-weight: bold;\">Incorrect</p>","response":null,"trial_index":136,"plugin_version":"2.1.0","time_elapsed":237332,"subject_id":"91703","group":"Group2","condition":"1_Rep","full_date":"2026-02-23T19:38:12.105Z","date":"2026-02-23","time":"19:38:12"},{"correct_response":"a","task":"test_phase","broad_category":"M","image_png":"M_Slate_15.png","image_id":319,"category_name":"Slate","category":20,"distinct_rating":2.13,"distinct_type":"Bottom","item_type":"Foil","rt":854,"stimulus":"Stimuli_Rocks480/M_Slate_15.png","response":"l","trial_type":"image-keyboard-response","trial_index":137,"plugin_version":"2.1.0","time_elapsed":238188,"subject_id":"91703","group":"Group2","condition":"1_Rep","full_date":"2026-02-23T19:38:12.105Z","date":"2026-02-23","time":"19:38:12","cor_ans":false},{"trial_type":"html-keyboard-response","rt":null,"stimulus":"<p style=\"color: red; font-size: 50px; font-weight: bold;\">Incorrect</p>","response":null,"trial_index":138,"plugin_version":"2.1.0","time_elapsed":238690,"subject_id":"91703","group":"Group2","condition":"1_Rep","full_date":"2026-02-23T19:38:12.105Z","date":"2026-02-23","time":"19:38:12"},{"correct_response":"a","task":"test_phase","broad_category":"I","image_png":"I_Andesite_06.png","image_id":6,"category_name":"Andesite","category":1,"distinct_rating":3.17,"distinct_type":"Bottom","item_type":"Foil","rt":931,"stimulus":"Stimuli_Rocks480/I_Andesite_06.png","response":"l","trial_type":"image-keyboard-response","trial_index":139,"plugin_version":"2.1.0","time_elapsed":239624,"subject_id":"91703","group":"Group2","condition":"1_Rep","full_date":"2026-02-23T19:38:12.105Z","date":"2026-02-23","time":"19:38:12","cor_ans":false},{"trial_type":"html-keyboard-response","rt":null,"stimulus":"<p style=\"color: red; font-size: 50px; font-weight: bold;\">Incorrect</p>","response":null,"trial_index":140,"plugin_version":"2.1.0","time_elapsed":240125,"subject_id":"91703","group":"Group2","condition":"1_Rep","full_date":"2026-02-23T19:38:12.105Z","date":"2026-02-23","time":"19:38:12"},{"correct_response":"a","task":"test_phase","broad_category":"M","image_png":"M_Gneiss_05.png","image_id":197,"category_name":"Gneiss","category":13,"distinct_rating":2.97,"distinct_type":"Bottom","item_type":"Foil","rt":1087,"stimulus":"Stimuli_Rocks480/M_Gneiss_05.png","response":"l","trial_type":"image-keyboard-response","trial_index":141,"plugin_version":"2.1.0","time_elapsed":241215,"subject_id":"91703","group":"Group2","condition":"1_Rep","full_date":"2026-02-23T19:38:12.105Z","date":"2026-02-23","time":"19:38:12","cor_ans":false},{"trial_type":"html-keyboard-response","rt":null,"stimulus":"<p style=\"color: red; font-size: 50px; font-weight: bold;\">Incorrect</p>","response":null,"trial_index":142,"plugin_version":"2.1.0","time_elapsed":241716,"subject_id":"91703","group":"Group2","condition":"1_Rep","full_date":"2026-02-23T19:38:12.105Z","date":"2026-02-23","time":"19:38:12"},{"correct_response":"a","task":"test_phase","broad_category":"M","image_png":"M_Phyllite_10.png","image_id":266,"category_name":"Phyllite","category":17,"distinct_rating":2.6,"distinct_type":"Bottom","item_type":"Foil","rt":1711,"stimulus":"Stimuli_Rocks480/M_Phyllite_10.png","response":"l","trial_type":"image-keyboard-response","trial_index":143,"plugin_version":"2.1.0","time_elapsed":243430,"subject_id":"91703","group":"Group2","condition":"1_Rep","full_date":"2026-02-23T19:38:12.105Z","date":"2026-02-23","time":"19:38:12","cor_ans":false},{"trial_type":"html-keyboard-response","rt":null,"stimulus":"<p style=\"color: red; font-size: 50px; font-weight: bold;\">Incorrect</p>","response":null,"trial_index":144,"plugin_version":"2.1.0","time_elapsed":243932,"subject_id":"91703","group":"Group2","condition":"1_Rep","full_date":"2026-02-23T19:38:12.105Z","date":"2026-02-23","time":"19:38:12"},{"correct_response":"l","task":"test_phase","broad_category":"S","image_png":"S_Rock Salt_15.png","image_id":447,"category_name":"Rock Salt","category":28,"distinct_rating":7.79,"distinct_type":"Top","item_type":"Target","rt":623,"stimulus":"Stimuli_Rocks480/S_Rock Salt_15.png","response":"l","trial_type":"image-keyboard-response","trial_index":145,"plugin_version":"2.1.0","time_elapsed":244558,"subject_id":"91703","group":"Group2","condition":"1_Rep","full_date":"2026-02-23T19:38:12.105Z","date":"2026-02-23","time":"19:38:12","cor_ans":true},{"trial_type":"html-keyboard-response","rt":null,"stimulus":"<p style=\"color: green; font-size: 50px; font-weight: bold;\">Correct</p>","response":null,"trial_index":146,"plugin_version":"2.1.0","time_elapsed":245059,"subject_id":"91703","group":"Group2","condition":"1_Rep","full_date":"2026-02-23T19:38:12.105Z","date":"2026-02-23","time":"19:38:12"},{"correct_response":"a","task":"test_phase","broad_category":"S","image_png":"S_Rock Salt_01.png","image_id":433,"category_name":"Rock Salt","category":28,"distinct_rating":7.18,"distinct_type":"Top","item_type":"Foil","rt":1612,"stimulus":"Stimuli_Rocks480/S_Rock Salt_01.png","response":"l","trial_type":"image-keyboard-response","trial_index":147,"plugin_version":"2.1.0","time_elapsed":246674,"subject_id":"91703","group":"Group2","condition":"1_Rep","full_date":"2026-02-23T19:38:12.105Z","date":"2026-02-23","time":"19:38:12","cor_ans":false},{"trial_type":"html-keyboard-response","rt":null,"stimulus":"<p style=\"color: red; font-size: 50px; font-weight: bold;\">Incorrect</p>","response":null,"trial_index":148,"plugin_version":"2.1.0","time_elapsed":247175,"subject_id":"91703","group":"Group2","condition":"1_Rep","full_date":"2026-02-23T19:38:12.105Z","date":"2026-02-23","time":"19:38:12"},{"correct_response":"a","task":"test_phase","broad_category":"I","image_png":"I_Pumice_08.png","image_id":136,"category_name":"Pumice","category":9,"distinct_rating":3.1,"distinct_type":"Bottom","item_type":"Foil","rt":1352,"stimulus":"Stimuli_Rocks480/I_Pumice_08.png","response":"l","trial_type":"image-keyboard-response","trial_index":149,"plugin_version":"2.1.0","time_elapsed":248529,"subject_id":"91703","group":"Group2","condition":"1_Rep","full_date":"2026-02-23T19:38:12.105Z","date":"2026-02-23","time":"19:38:12","cor_ans":false},{"trial_type":"html-keyboard-response","rt":null,"stimulus":"<p style=\"color: red; font-size: 50px; font-weight: bold;\">Incorrect</p>","response":null,"trial_index":150,"plugin_version":"2.1.0","time_elapsed":249031,"subject_id":"91703","group":"Group2","condition":"1_Rep","full_date":"2026-02-23T19:38:12.105Z","date":"2026-02-23","time":"19:38:12"},{"correct_response":"a","task":"test_phase","broad_category":"I","image_png":"I_Gabbro_11.png","image_id":59,"category_name":"Gabbro","category":4,"distinct_rating":1.99,"distinct_type":"Bottom","item_type":"Foil","rt":724,"stimulus":"Stimuli_Rocks480/I_Gabbro_11.png","response":"l","trial_type":"image-keyboard-response","trial_index":151,"plugin_version":"2.1.0","time_elapsed":249757,"subject_id":"91703","group":"Group2","condition":"1_Rep","full_date":"2026-02-23T19:38:12.105Z","date":"2026-02-23","time":"19:38:12","cor_ans":false},{"trial_type":"html-keyboard-response","rt":null,"stimulus":"<p style=\"color: red; font-size: 50px; font-weight: bold;\">Incorrect</p>","response":null,"trial_index":152,"plugin_version":"2.1.0","time_elapsed":250260,"subject_id":"91703","group":"Group2","condition":"1_Rep","full_date":"2026-02-23T19:38:12.105Z","date":"2026-02-23","time":"19:38:12"},{"correct_response":"a","task":"test_phase","broad_category":"I","image_png":"I_Diorite_05.png","image_id":37,"category_name":"Diorite","category":3,"distinct_rating":3.08,"distinct_type":"Bottom","item_type":"Foil","rt":1055,"stimulus":"Stimuli_Rocks480/I_Diorite_05.png","response":"l","trial_type":"image-keyboard-response","trial_index":153,"plugin_version":"2.1.0","time_elapsed":251316,"subject_id":"91703","group":"Group2","condition":"1_Rep","full_date":"2026-02-23T19:38:12.105Z","date":"2026-02-23","time":"19:38:12","cor_ans":false},{"trial_type":"html-keyboard-response","rt":null,"stimulus":"<p style=\"color: red; font-size: 50px; font-weight: bold;\">Incorrect</p>","response":null,"trial_index":154,"plugin_version":"2.1.0","time_elapsed":251818,"subject_id":"91703","group":"Group2","condition":"1_Rep","full_date":"2026-02-23T19:38:12.105Z","date":"2026-02-23","time":"19:38:12"},{"correct_response":"a","task":"test_phase","broad_category":"S","image_png":"S_Chert_10.png","image_id":362,"category_name":"Chert","category":23,"distinct_rating":7.17,"distinct_type":"Top","item_type":"Foil","rt":1273,"stimulus":"Stimuli_Rocks480/S_Chert_10.png","response":"a","trial_type":"image-keyboard-response","trial_index":155,"plugin_version":"2.1.0","time_elapsed":253093,"subject_id":"91703","group":"Group2","condition":"1_Rep","full_date":"2026-02-23T19:38:12.105Z","date":"2026-02-23","time":"19:38:12","cor_ans":true},{"trial_type":"html-keyboard-response","rt":null,"stimulus":"<p style=\"color: green; font-size: 50px; font-weight: bold;\">Correct</p>","response":null,"trial_index":156,"plugin_version":"2.1.0","time_elapsed":253595,"subject_id":"91703","group":"Group2","condition":"1_Rep","full_date":"2026-02-23T19:38:12.105Z","date":"2026-02-23","time":"19:38:12"},{"correct_response":"l","task":"test_phase","broad_category":"I","image_png":"I_Diorite_10.png","image_id":42,"category_name":"Diorite","category":3,"distinct_rating":2.84,"distinct_type":"Bottom","item_type":"Target","rt":993,"stimulus":"Stimuli_Rocks480/I_Diorite_10.png","response":"l","trial_type":"image-keyboard-response","trial_index":157,"plugin_version":"2.1.0","time_elapsed":254590,"subject_id":"91703","group":"Group2","condition":"1_Rep","full_date":"2026-02-23T19:38:12.105Z","date":"2026-02-23","time":"19:38:12","cor_ans":true},{"trial_type":"html-keyboard-response","rt":null,"stimulus":"<p style=\"color: green; font-size: 50px; font-weight: bold;\">Correct</p>","response":null,"trial_index":158,"plugin_version":"2.1.0","time_elapsed":255091,"subject_id":"91703","group":"Group2","condition":"1_Rep","full_date":"2026-02-23T19:38:12.105Z","date":"2026-02-23","time":"19:38:12"},{"correct_response":"a","task":"test_phase","broad_category":"I","image_png":"I_Diorite_04.png","image_id":36,"category_name":"Diorite","category":3,"distinct_rating":2.98,"distinct_type":"Bottom","item_type":"Foil","rt":1288,"stimulus":"Stimuli_Rocks480/I_Diorite_04.png","response":"l","trial_type":"image-keyboard-response","trial_index":159,"plugin_version":"2.1.0","time_elapsed":256381,"subject_id":"91703","group":"Group2","condition":"1_Rep","full_date":"2026-02-23T19:38:12.105Z","date":"2026-02-23","time":"19:38:12","cor_ans":false},{"trial_type":"html-keyboard-response","rt":null,"stimulus":"<p style=\"color: red; font-size: 50px; font-weight: bold;\">Incorrect</p>","response":null,"trial_index":160,"plugin_version":"2.1.0","time_elapsed":256883,"subject_id":"91703","group":"Group2","condition":"1_Rep","full_date":"2026-02-23T19:38:12.105Z","date":"2026-02-23","time":"19:38:12"},{"correct_response":"a","task":"test_phase","broad_category":"S","image_png":"S_Dolomite_12.png","image_id":396,"category_name":"Dolomite","category":25,"distinct_rating":1.85,"distinct_type":"Bottom","item_type":"Foil","rt":786,"stimulus":"Stimuli_Rocks480/S_Dolomite_12.png","response":"l","trial_type":"image-keyboard-response","trial_index":161,"plugin_version":"2.1.0","time_elapsed":257671,"subject_id":"91703","group":"Group2","condition":"1_Rep","full_date":"2026-02-23T19:38:12.105Z","date":"2026-02-23","time":"19:38:12","cor_ans":false},{"trial_type":"html-keyboard-response","rt":null,"stimulus":"<p style=\"color: red; font-size: 50px; font-weight: bold;\">Incorrect</p>","response":null,"trial_index":162,"plugin_version":"2.1.0","time_elapsed":258173,"subject_id":"91703","group":"Group2","condition":"1_Rep","full_date":"2026-02-23T19:38:12.105Z","date":"2026-02-23","time":"19:38:12"},{"correct_response":"a","task":"test_phase","broad_category":"M","image_png":"M_Slate_11.png","image_id":315,"category_name":"Slate","category":20,"distinct_rating":2.75,"distinct_type":"Bottom","item_type":"Foil","rt":767,"stimulus":"Stimuli_Rocks480/M_Slate_11.png","response":"l","trial_type":"image-keyboard-response","trial_index":163,"plugin_version":"2.1.0","time_elapsed":258942,"subject_id":"91703","group":"Group2","condition":"1_Rep","full_date":"2026-02-23T19:38:12.105Z","date":"2026-02-23","time":"19:38:12","cor_ans":false},{"trial_type":"html-keyboard-response","rt":null,"stimulus":"<p style=\"color: red; font-size: 50px; font-weight: bold;\">Incorrect</p>","response":null,"trial_index":164,"plugin_version":"2.1.0","time_elapsed":259443,"subject_id":"91703","group":"Group2","condition":"1_Rep","full_date":"2026-02-23T19:38:12.105Z","date":"2026-02-23","time":"19:38:12"},{"correct_response":"l","task":"test_phase","broad_category":"I","image_png":"I_Andesite_03.png","image_id":3,"category_name":"Andesite","category":1,"distinct_rating":3.17,"distinct_type":"Bottom","item_type":"Target","rt":1046,"stimulus":"Stimuli_Rocks480/I_Andesite_03.png","response":"l","trial_type":"image-keyboard-response","trial_index":165,"plugin_version":"2.1.0","time_elapsed":260492,"subject_id":"91703","group":"Group2","condition":"1_Rep","full_date":"2026-02-23T19:38:12.105Z","date":"2026-02-23","time":"19:38:12","cor_ans":true},{"trial_type":"html-keyboard-response","rt":null,"stimulus":"<p style=\"color: green; font-size: 50px; font-weight: bold;\">Correct</p>","response":null,"trial_index":166,"plugin_version":"2.1.0","time_elapsed":260993,"subject_id":"91703","group":"Group2","condition":"1_Rep","full_date":"2026-02-23T19:38:12.105Z","date":"2026-02-23","time":"19:38:12"},{"correct_response":"a","task":"test_phase","broad_category":"S","image_png":"S_Dolomite_14.png","image_id":398,"category_name":"Dolomite","category":25,"distinct_rating":1.43,"distinct_type":"Bottom","item_type":"Foil","rt":945,"stimulus":"Stimuli_Rocks480/S_Dolomite_14.png","response":"l","trial_type":"image-keyboard-response","trial_index":167,"plugin_version":"2.1.0","time_elapsed":261941,"subject_id":"91703","group":"Group2","condition":"1_Rep","full_date":"2026-02-23T19:38:12.105Z","date":"2026-02-23","time":"19:38:12","cor_ans":false},{"trial_type":"html-keyboard-response","rt":null,"stimulus":"<p style=\"color: red; font-size: 50px; font-weight: bold;\">Incorrect</p>","response":null,"trial_index":168,"plugin_version":"2.1.0","time_elapsed":262443,"subject_id":"91703","group":"Group2","condition":"1_Rep","full_date":"2026-02-23T19:38:12.105Z","date":"2026-02-23","time":"19:38:12"},{"correct_response":"a","task":"test_phase","broad_category":"I","image_png":"I_Pegmatite_10.png","image_id":106,"category_name":"Pegmatite","category":7,"distinct_rating":7.66,"distinct_type":"Top","item_type":"Foil","rt":741,"stimulus":"Stimuli_Rocks480/I_Pegmatite_10.png","response":"a","trial_type":"image-keyboard-response","trial_index":169,"plugin_version":"2.1.0","time_elapsed":263186,"subject_id":"91703","group":"Group2","condition":"1_Rep","full_date":"2026-02-23T19:38:12.105Z","date":"2026-02-23","time":"19:38:12","cor_ans":true},{"trial_type":"html-keyboard-response","rt":null,"stimulus":"<p style=\"color: green; font-size: 50px; font-weight: bold;\">Correct</p>","response":null,"trial_index":170,"plugin_version":"2.1.0","time_elapsed":263688,"subject_id":"91703","group":"Group2","condition":"1_Rep","full_date":"2026-02-23T19:38:12.105Z","date":"2026-02-23","time":"19:38:12"},{"correct_response":"l","task":"test_phase","broad_category":"S","image_png":"S_Dolomite_07.png","image_id":391,"category_name":"Dolomite","category":25,"distinct_rating":1.73,"distinct_type":"Bottom","item_type":"Target","rt":672,"stimulus":"Stimuli_Rocks480/S_Dolomite_07.png","response":"l","trial_type":"image-keyboard-response","trial_index":171,"plugin_version":"2.1.0","time_elapsed":264362,"subject_id":"91703","group":"Group2","condition":"1_Rep","full_date":"2026-02-23T19:38:12.105Z","date":"2026-02-23","time":"19:38:12","cor_ans":true},{"trial_type":"html-keyboard-response","rt":null,"stimulus":"<p style=\"color: green; font-size: 50px; font-weight: bold;\">Correct</p>","response":null,"trial_index":172,"plugin_version":"2.1.0","time_elapsed":264863,"subject_id":"91703","group":"Group2","condition":"1_Rep","full_date":"2026-02-23T19:38:12.105Z","date":"2026-02-23","time":"19:38:12"},{"correct_response":"a","task":"test_phase","broad_category":"S","image_png":"S_Sandstone_16.png","image_id":464,"category_name":"Sandstone","category":29,"distinct_rating":1.93,"distinct_type":"Bottom","item_type":"Foil","rt":901,"stimulus":"Stimuli_Rocks480/S_Sandstone_16.png","response":"l","trial_type":"image-keyboard-response","trial_index":173,"plugin_version":"2.1.0","time_elapsed":265767,"subject_id":"91703","group":"Group2","condition":"1_Rep","full_date":"2026-02-23T19:38:12.105Z","date":"2026-02-23","time":"19:38:12","cor_ans":false},{"trial_type":"html-keyboard-response","rt":null,"stimulus":"<p style=\"color: red; font-size: 50px; font-weight: bold;\">Incorrect</p>","response":null,"trial_index":174,"plugin_version":"2.1.0","time_elapsed":266269,"subject_id":"91703","group":"Group2","condition":"1_Rep","full_date":"2026-02-23T19:38:12.105Z","date":"2026-02-23","time":"19:38:12"},{"correct_response":"l","task":"test_phase","broad_category":"I","image_png":"I_Gabbro_12.png","image_id":60,"category_name":"Gabbro","category":4,"distinct_rating":2.6,"distinct_type":"Bottom","item_type":"Target","rt":892,"stimulus":"Stimuli_Rocks480/I_Gabbro_12.png","response":"l","trial_type":"image-keyboard-response","trial_index":175,"plugin_version":"2.1.0","time_elapsed":267163,"subject_id":"91703","group":"Group2","condition":"1_Rep","full_date":"2026-02-23T19:38:12.105Z","date":"2026-02-23","time":"19:38:12","cor_ans":true},{"trial_type":"html-keyboard-response","rt":null,"stimulus":"<p style=\"color: green; font-size: 50px; font-weight: bold;\">Correct</p>","response":null,"trial_index":176,"plugin_version":"2.1.0","time_elapsed":267664,"subject_id":"91703","group":"Group2","condition":"1_Rep","full_date":"2026-02-23T19:38:12.105Z","date":"2026-02-23","time":"19:38:12"},{"correct_response":"a","task":"test_phase","broad_category":"I","image_png":"I_Gabbro_08.png","image_id":56,"category_name":"Gabbro","category":4,"distinct_rating":3.02,"distinct_type":"Bottom","item_type":"Foil","rt":911,"stimulus":"Stimuli_Rocks480/I_Gabbro_08.png","response":"l","trial_type":"image-keyboard-response","trial_index":177,"plugin_version":"2.1.0","time_elapsed":268578,"subject_id":"91703","group":"Group2","condition":"1_Rep","full_date":"2026-02-23T19:38:12.105Z","date":"2026-02-23","time":"19:38:12","cor_ans":false},{"trial_type":"html-keyboard-response","rt":null,"stimulus":"<p style=\"color: red; font-size: 50px; font-weight: bold;\">Incorrect</p>","response":null,"trial_index":178,"plugin_version":"2.1.0","time_elapsed":269079,"subject_id":"91703","group":"Group2","condition":"1_Rep","full_date":"2026-02-23T19:38:12.105Z","date":"2026-02-23","time":"19:38:12"},{"correct_response":"a","task":"test_phase","broad_category":"I","image_png":"I_Andesite_08.png","image_id":8,"category_name":"Andesite","category":1,"distinct_rating":1.95,"distinct_type":"Bottom","item_type":"Foil","rt":1101,"stimulus":"Stimuli_Rocks480/I_Andesite_08.png","response":"a","trial_type":"image-keyboard-response","trial_index":179,"plugin_version":"2.1.0","time_elapsed":270183,"subject_id":"91703","group":"Group2","condition":"1_Rep","full_date":"2026-02-23T19:38:12.105Z","date":"2026-02-23","time":"19:38:12","cor_ans":true},{"trial_type":"html-keyboard-response","rt":null,"stimulus":"<p style=\"color: green; font-size: 50px; font-weight: bold;\">Correct</p>","response":null,"trial_index":180,"plugin_version":"2.1.0","time_elapsed":270685,"subject_id":"91703","group":"Group2","condition":"1_Rep","full_date":"2026-02-23T19:38:12.105Z","date":"2026-02-23","time":"19:38:12"},{"correct_response":"l","task":"test_phase","broad_category":"I","image_png":"I_Pegmatite_03.png","image_id":99,"category_name":"Pegmatite","category":7,"distinct_rating":7.24,"distinct_type":"Top","item_type":"Target","rt":833,"stimulus":"Stimuli_Rocks480/I_Pegmatite_03.png","response":"l","trial_type":"image-keyboard-response","trial_index":181,"plugin_version":"2.1.0","time_elapsed":271520,"subject_id":"91703","group":"Group2","condition":"1_Rep","full_date":"2026-02-23T19:38:12.105Z","date":"2026-02-23","time":"19:38:12","cor_ans":true},{"trial_type":"html-keyboard-response","rt":null,"stimulus":"<p style=\"color: green; font-size: 50px; font-weight: bold;\">Correct</p>","response":null,"trial_index":182,"plugin_version":"2.1.0","time_elapsed":272023,"subject_id":"91703","group":"Group2","condition":"1_Rep","full_date":"2026-02-23T19:38:12.105Z","date":"2026-02-23","time":"19:38:12"},{"correct_response":"a","task":"test_phase","broad_category":"I","image_png":"I_Diorite_03.png","image_id":35,"category_name":"Diorite","category":3,"distinct_rating":3.14,"distinct_type":"Bottom","item_type":"Foil","rt":861,"stimulus":"Stimuli_Rocks480/I_Diorite_03.png","response":"l","trial_type":"image-keyboard-response","trial_index":183,"plugin_version":"2.1.0","time_elapsed":272886,"subject_id":"91703","group":"Group2","condition":"1_Rep","full_date":"2026-02-23T19:38:12.105Z","date":"2026-02-23","time":"19:38:12","cor_ans":false},{"trial_type":"html-keyboard-response","rt":null,"stimulus":"<p style=\"color: red; font-size: 50px; font-weight: bold;\">Incorrect</p>","response":null,"trial_index":184,"plugin_version":"2.1.0","time_elapsed":273388,"subject_id":"91703","group":"Group2","condition":"1_Rep","full_date":"2026-02-23T19:38:12.105Z","date":"2026-02-23","time":"19:38:12"},{"correct_response":"a","task":"test_phase","broad_category":"I","image_png":"I_Pumice_12.png","image_id":140,"category_name":"Pumice","category":9,"distinct_rating":2.97,"distinct_type":"Bottom","item_type":"Foil","rt":970,"stimulus":"Stimuli_Rocks480/I_Pumice_12.png","response":"l","trial_type":"image-keyboard-response","trial_index":185,"plugin_version":"2.1.0","time_elapsed":274360,"subject_id":"91703","group":"Group2","condition":"1_Rep","full_date":"2026-02-23T19:38:12.105Z","date":"2026-02-23","time":"19:38:12","cor_ans":false},{"trial_type":"html-keyboard-response","rt":null,"stimulus":"<p style=\"color: red; font-size: 50px; font-weight: bold;\">Incorrect</p>","response":null,"trial_index":186,"plugin_version":"2.1.0","time_elapsed":274862,"subject_id":"91703","group":"Group2","condition":"1_Rep","full_date":"2026-02-23T19:38:12.105Z","date":"2026-02-23","time":"19:38:12"},{"correct_response":"a","task":"test_phase","broad_category":"M","image_png":"M_Marble_06.png","image_id":230,"category_name":"Marble","category":15,"distinct_rating":3.4,"distinct_type":"Bottom","item_type":"Foil","rt":665,"stimulus":"Stimuli_Rocks480/M_Marble_06.png","response":"l","trial_type":"image-keyboard-response","trial_index":187,"plugin_version":"2.1.0","time_elapsed":275529,"subject_id":"91703","group":"Group2","condition":"1_Rep","full_date":"2026-02-23T19:38:12.105Z","date":"2026-02-23","time":"19:38:12","cor_ans":false},{"trial_type":"html-keyboard-response","rt":null,"stimulus":"<p style=\"color: red; font-size: 50px; font-weight: bold;\">Incorrect</p>","response":null,"trial_index":188,"plugin_version":"2.1.0","time_elapsed":276031,"subject_id":"91703","group":"Group2","condition":"1_Rep","full_date":"2026-02-23T19:38:12.105Z","date":"2026-02-23","time":"19:38:12"},{"correct_response":"l","task":"test_phase","broad_category":"S","image_png":"S_Dolomite_01.png","image_id":385,"category_name":"Dolomite","category":25,"distinct_rating":1.43,"distinct_type":"Bottom","item_type":"Target","rt":1168,"stimulus":"Stimuli_Rocks480/S_Dolomite_01.png","response":"l","trial_type":"image-keyboard-response","trial_index":189,"plugin_version":"2.1.0","time_elapsed":277201,"subject_id":"91703","group":"Group2","condition":"1_Rep","full_date":"2026-02-23T19:38:12.105Z","date":"2026-02-23","time":"19:38:12","cor_ans":true},{"trial_type":"html-keyboard-response","rt":null,"stimulus":"<p style=\"color: green; font-size: 50px; font-weight: bold;\">Correct</p>","response":null,"trial_index":190,"plugin_version":"2.1.0","time_elapsed":277702,"subject_id":"91703","group":"Group2","condition":"1_Rep","full_date":"2026-02-23T19:38:12.105Z","date":"2026-02-23","time":"19:38:12"},{"correct_response":"l","task":"test_phase","broad_category":"S","image_png":"S_Shale_03.png","image_id":467,"category_name":"Shale","category":30,"distinct_rating":1.95,"distinct_type":"Bottom","item_type":"Target","rt":671,"stimulus":"Stimuli_Rocks480/S_Shale_03.png","response":"l","trial_type":"image-keyboard-response","trial_index":191,"plugin_version":"2.1.0","time_elapsed":278376,"subject_id":"91703","group":"Group2","condition":"1_Rep","full_date":"2026-02-23T19:38:12.105Z","date":"2026-02-23","time":"19:38:12","cor_ans":true},{"trial_type":"html-keyboard-response","rt":null,"stimulus":"<p style=\"color: green; font-size: 50px; font-weight: bold;\">Correct</p>","response":null,"trial_index":192,"plugin_version":"2.1.0","time_elapsed":278877,"subject_id":"91703","group":"Group2","condition":"1_Rep","full_date":"2026-02-23T19:38:12.105Z","date":"2026-02-23","time":"19:38:12"},{"correct_response":"a","task":"test_phase","broad_category":"S","image_png":"S_Breccia_11.png","image_id":347,"category_name":"Breccia","category":22,"distinct_rating":6.7,"distinct_type":"Top","item_type":"Foil","rt":1044,"stimulus":"Stimuli_Rocks480/S_Breccia_11.png","response":"a","trial_type":"image-keyboard-response","trial_index":193,"plugin_version":"2.1.0","time_elapsed":279923,"subject_id":"91703","group":"Group2","condition":"1_Rep","full_date":"2026-02-23T19:38:12.105Z","date":"2026-02-23","time":"19:38:12","cor_ans":true},{"trial_type":"html-keyboard-response","rt":null,"stimulus":"<p style=\"color: green; font-size: 50px; font-weight: bold;\">Correct</p>","response":null,"trial_index":194,"plugin_version":"2.1.0","time_elapsed":280426,"subject_id":"91703","group":"Group2","condition":"1_Rep","full_date":"2026-02-23T19:38:12.105Z","date":"2026-02-23","time":"19:38:12"},{"correct_response":"l","task":"test_phase","broad_category":"S","image_png":"S_Conglomerate_14.png","image_id":382,"category_name":"Conglomerate","category":24,"distinct_rating":6.86,"distinct_type":"Top","item_type":"Target","rt":802,"stimulus":"Stimuli_Rocks480/S_Conglomerate_14.png","response":"l","trial_type":"image-keyboard-response","trial_index":195,"plugin_version":"2.1.0","time_elapsed":281230,"subject_id":"91703","group":"Group2","condition":"1_Rep","full_date":"2026-02-23T19:38:12.105Z","date":"2026-02-23","time":"19:38:12","cor_ans":true},{"trial_type":"html-keyboard-response","rt":null,"stimulus":"<p style=\"color: green; font-size: 50px; font-weight: bold;\">Correct</p>","response":null,"trial_index":196,"plugin_version":"2.1.0","time_elapsed":281732,"subject_id":"91703","group":"Group2","condition":"1_Rep","full_date":"2026-02-23T19:38:12.105Z","date":"2026-02-23","time":"19:38:12"},{"correct_response":"a","task":"test_phase","broad_category":"I","image_png":"I_Rhyolite_11.png","image_id":155,"category_name":"Rhyolite","category":10,"distinct_rating":1.73,"distinct_type":"Bottom","item_type":"Foil","rt":984,"stimulus":"Stimuli_Rocks480/I_Rhyolite_11.png","response":"l","trial_type":"image-keyboard-response","trial_index":197,"plugin_version":"2.1.0","time_elapsed":282719,"subject_id":"91703","group":"Group2","condition":"1_Rep","full_date":"2026-02-23T19:38:12.105Z","date":"2026-02-23","time":"19:38:12","cor_ans":false},{"trial_type":"html-keyboard-response","rt":null,"stimulus":"<p style=\"color: red; font-size: 50px; font-weight: bold;\">Incorrect</p>","response":null,"trial_index":198,"plugin_version":"2.1.0","time_elapsed":283220,"subject_id":"91703","group":"Group2","condition":"1_Rep","full_date":"2026-02-23T19:38:12.105Z","date":"2026-02-23","time":"19:38:12"},{"correct_response":"l","task":"test_phase","broad_category":"I","image_png":"I_Rhyolite_08.png","image_id":152,"category_name":"Rhyolite","category":10,"distinct_rating":1.38,"distinct_type":"Bottom","item_type":"Target","rt":713,"stimulus":"Stimuli_Rocks480/I_Rhyolite_08.png","response":"l","trial_type":"image-keyboard-response","trial_index":199,"plugin_version":"2.1.0","time_elapsed":283936,"subject_id":"91703","group":"Group2","condition":"1_Rep","full_date":"2026-02-23T19:38:12.105Z","date":"2026-02-23","time":"19:38:12","cor_ans":true},{"trial_type":"html-keyboard-response","rt":null,"stimulus":"<p style=\"color: green; font-size: 50px; font-weight: bold;\">Correct</p>","response":null,"trial_index":200,"plugin_version":"2.1.0","time_elapsed":284437,"subject_id":"91703","group":"Group2","condition":"1_Rep","full_date":"2026-02-23T19:38:12.105Z","date":"2026-02-23","time":"19:38:12"},{"correct_response":"a","task":"test_phase","broad_category":"S","image_png":"S_Sandstone_03.png","image_id":451,"category_name":"Sandstone","category":29,"distinct_rating":1.86,"distinct_type":"Bottom","item_type":"Foil","rt":836,"stimulus":"Stimuli_Rocks480/S_Sandstone_03.png","response":"l","trial_type":"image-keyboard-response","trial_index":201,"plugin_version":"2.1.0","time_elapsed":285276,"subject_id":"91703","group":"Group2","condition":"1_Rep","full_date":"2026-02-23T19:38:12.105Z","date":"2026-02-23","time":"19:38:12","cor_ans":false},{"trial_type":"html-keyboard-response","rt":null,"stimulus":"<p style=\"color: red; font-size: 50px; font-weight: bold;\">Incorrect</p>","response":null,"trial_index":202,"plugin_version":"2.1.0","time_elapsed":285777,"subject_id":"91703","group":"Group2","condition":"1_Rep","full_date":"2026-02-23T19:38:12.105Z","date":"2026-02-23","time":"19:38:12"},{"correct_response":"a","task":"test_phase","broad_category":"M","image_png":"M_Marble_04.png","image_id":228,"category_name":"Marble","category":15,"distinct_rating":3.15,"distinct_type":"Bottom","item_type":"Foil","rt":540,"stimulus":"Stimuli_Rocks480/M_Marble_04.png","response":"l","trial_type":"image-keyboard-response","trial_index":203,"plugin_version":"2.1.0","time_elapsed":286319,"subject_id":"91703","group":"Group2","condition":"1_Rep","full_date":"2026-02-23T19:38:12.105Z","date":"2026-02-23","time":"19:38:12","cor_ans":false},{"trial_type":"html-keyboard-response","rt":null,"stimulus":"<p style=\"color: red; font-size: 50px; font-weight: bold;\">Incorrect</p>","response":null,"trial_index":204,"plugin_version":"2.1.0","time_elapsed":286821,"subject_id":"91703","group":"Group2","condition":"1_Rep","full_date":"2026-02-23T19:38:12.105Z","date":"2026-02-23","time":"19:38:12"},{"correct_response":"a","task":"test_phase","broad_category":"M","image_png":"M_Quartzite_08.png","image_id":280,"category_name":"Quartzite","category":18,"distinct_rating":2.15,"distinct_type":"Bottom","item_type":"Foil","rt":415,"stimulus":"Stimuli_Rocks480/M_Quartzite_08.png","response":"l","trial_type":"image-keyboard-response","trial_index":205,"plugin_version":"2.1.0","time_elapsed":287238,"subject_id":"91703","group":"Group2","condition":"1_Rep","full_date":"2026-02-23T19:38:12.105Z","date":"2026-02-23","time":"19:38:12","cor_ans":false},{"trial_type":"html-keyboard-response","rt":null,"stimulus":"<p style=\"color: red; font-size: 50px; font-weight: bold;\">Incorrect</p>","response":null,"trial_index":206,"plugin_version":"2.1.0","time_elapsed":287740,"subject_id":"91703","group":"Group2","condition":"1_Rep","full_date":"2026-02-23T19:38:12.105Z","date":"2026-02-23","time":"19:38:12"},{"correct_response":"l","task":"test_phase","broad_category":"I","image_png":"I_Peridotite_13.png","image_id":125,"category_name":"Peridotite","category":8,"distinct_rating":7.28,"distinct_type":"Top","item_type":"Target","rt":716,"stimulus":"Stimuli_Rocks480/I_Peridotite_13.png","response":"l","trial_type":"image-keyboard-response","trial_index":207,"plugin_version":"2.1.0","time_elapsed":288458,"subject_id":"91703","group":"Group2","condition":"1_Rep","full_date":"2026-02-23T19:38:12.105Z","date":"2026-02-23","time":"19:38:12","cor_ans":true},{"trial_type":"html-keyboard-response","rt":null,"stimulus":"<p style=\"color: green; font-size: 50px; font-weight: bold;\">Correct</p>","response":null,"trial_index":208,"plugin_version":"2.1.0","time_elapsed":288960,"subject_id":"91703","group":"Group2","condition":"1_Rep","full_date":"2026-02-23T19:38:12.105Z","date":"2026-02-23","time":"19:38:12"},{"correct_response":"l","task":"test_phase","broad_category":"S","image_png":"S_Sandstone_11.png","image_id":459,"category_name":"Sandstone","category":29,"distinct_rating":1.82,"distinct_type":"Bottom","item_type":"Target","rt":1027,"stimulus":"Stimuli_Rocks480/S_Sandstone_11.png","response":"l","trial_type":"image-keyboard-response","trial_index":209,"plugin_version":"2.1.0","time_elapsed":289990,"subject_id":"91703","group":"Group2","condition":"1_Rep","full_date":"2026-02-23T19:38:12.105Z","date":"2026-02-23","time":"19:38:12","cor_ans":true},{"trial_type":"html-keyboard-response","rt":null,"stimulus":"<p style=\"color: green; font-size: 50px; font-weight: bold;\">Correct</p>","response":null,"trial_index":210,"plugin_version":"2.1.0","time_elapsed":290491,"subject_id":"91703","group":"Group2","condition":"1_Rep","full_date":"2026-02-23T19:38:12.105Z","date":"2026-02-23","time":"19:38:12"},{"correct_response":"l","task":"test_phase","broad_category":"I","image_png":"I_Pumice_13.png","image_id":141,"category_name":"Pumice","category":9,"distinct_rating":3.12,"distinct_type":"Bottom","item_type":"Target","rt":775,"stimulus":"Stimuli_Rocks480/I_Pumice_13.png","response":"l","trial_type":"image-keyboard-response","trial_index":211,"plugin_version":"2.1.0","time_elapsed":291269,"subject_id":"91703","group":"Group2","condition":"1_Rep","full_date":"2026-02-23T19:38:12.105Z","date":"2026-02-23","time":"19:38:12","cor_ans":true},{"trial_type":"html-keyboard-response","rt":null,"stimulus":"<p style=\"color: green; font-size: 50px; font-weight: bold;\">Correct</p>","response":null,"trial_index":212,"plugin_version":"2.1.0","time_elapsed":291770,"subject_id":"91703","group":"Group2","condition":"1_Rep","full_date":"2026-02-23T19:38:12.105Z","date":"2026-02-23","time":"19:38:12"},{"correct_response":"l","task":"test_phase","broad_category":"S","image_png":"S_Sandstone_08.png","image_id":456,"category_name":"Sandstone","category":29,"distinct_rating":1.5,"distinct_type":"Bottom","item_type":"Target","rt":1058,"stimulus":"Stimuli_Rocks480/S_Sandstone_08.png","response":"a","trial_type":"image-keyboard-response","trial_index":213,"plugin_version":"2.1.0","time_elapsed":292830,"subject_id":"91703","group":"Group2","condition":"1_Rep","full_date":"2026-02-23T19:38:12.105Z","date":"2026-02-23","time":"19:38:12","cor_ans":false},{"trial_type":"html-keyboard-response","rt":null,"stimulus":"<p style=\"color: red; font-size: 50px; font-weight: bold;\">Incorrect</p>","response":null,"trial_index":214,"plugin_version":"2.1.0","time_elapsed":293332,"subject_id":"91703","group":"Group2","condition":"1_Rep","full_date":"2026-02-23T19:38:12.105Z","date":"2026-02-23","time":"19:38:12"},{"correct_response":"a","task":"test_phase","broad_category":"M","image_png":"M_Phyllite_07.png","image_id":263,"category_name":"Phyllite","category":17,"distinct_rating":2.59,"distinct_type":"Bottom","item_type":"Foil","rt":1250,"stimulus":"Stimuli_Rocks480/M_Phyllite_07.png","response":"l","trial_type":"image-keyboard-response","trial_index":215,"plugin_version":"2.1.0","time_elapsed":294585,"subject_id":"91703","group":"Group2","condition":"1_Rep","full_date":"2026-02-23T19:38:12.105Z","date":"2026-02-23","time":"19:38:12","cor_ans":false},{"trial_type":"html-keyboard-response","rt":null,"stimulus":"<p style=\"color: red; font-size: 50px; font-weight: bold;\">Incorrect</p>","response":null,"trial_index":216,"plugin_version":"2.1.0","time_elapsed":295087,"subject_id":"91703","group":"Group2","condition":"1_Rep","full_date":"2026-02-23T19:38:12.105Z","date":"2026-02-23","time":"19:38:12"},{"correct_response":"l","task":"test_phase","broad_category":"M","image_png":"M_Quartzite_12.png","image_id":284,"category_name":"Quartzite","category":18,"distinct_rating":1.92,"distinct_type":"Bottom","item_type":"Target","rt":649,"stimulus":"Stimuli_Rocks480/M_Quartzite_12.png","response":"l","trial_type":"image-keyboard-response","trial_index":217,"plugin_version":"2.1.0","time_elapsed":295738,"subject_id":"91703","group":"Group2","condition":"1_Rep","full_date":"2026-02-23T19:38:12.105Z","date":"2026-02-23","time":"19:38:12","cor_ans":true},{"trial_type":"html-keyboard-response","rt":null,"stimulus":"<p style=\"color: green; font-size: 50px; font-weight: bold;\">Correct</p>","response":null,"trial_index":218,"plugin_version":"2.1.0","time_elapsed":296240,"subject_id":"91703","group":"Group2","condition":"1_Rep","full_date":"2026-02-23T19:38:12.105Z","date":"2026-02-23","time":"19:38:12"},{"correct_response":"a","task":"test_phase","broad_category":"I","image_png":"I_Gabbro_16.png","image_id":64,"category_name":"Gabbro","category":4,"distinct_rating":2.52,"distinct_type":"Bottom","item_type":"Foil","rt":1586,"stimulus":"Stimuli_Rocks480/I_Gabbro_16.png","response":"a","trial_type":"image-keyboard-response","trial_index":219,"plugin_version":"2.1.0","time_elapsed":297829,"subject_id":"91703","group":"Group2","condition":"1_Rep","full_date":"2026-02-23T19:38:12.105Z","date":"2026-02-23","time":"19:38:12","cor_ans":true},{"trial_type":"html-keyboard-response","rt":null,"stimulus":"<p style=\"color: green; font-size: 50px; font-weight: bold;\">Correct</p>","response":null,"trial_index":220,"plugin_version":"2.1.0","time_elapsed":298331,"subject_id":"91703","group":"Group2","condition":"1_Rep","full_date":"2026-02-23T19:38:12.105Z","date":"2026-02-23","time":"19:38:12"},{"correct_response":"l","task":"test_phase","broad_category":"I","image_png":"I_Diorite_15.png","image_id":47,"category_name":"Diorite","category":3,"distinct_rating":3.05,"distinct_type":"Bottom","item_type":"Target","rt":827,"stimulus":"Stimuli_Rocks480/I_Diorite_15.png","response":"l","trial_type":"image-keyboard-response","trial_index":221,"plugin_version":"2.1.0","time_elapsed":299160,"subject_id":"91703","group":"Group2","condition":"1_Rep","full_date":"2026-02-23T19:38:12.105Z","date":"2026-02-23","time":"19:38:12","cor_ans":true},{"trial_type":"html-keyboard-response","rt":null,"stimulus":"<p style=\"color: green; font-size: 50px; font-weight: bold;\">Correct</p>","response":null,"trial_index":222,"plugin_version":"2.1.0","time_elapsed":299661,"subject_id":"91703","group":"Group2","condition":"1_Rep","full_date":"2026-02-23T19:38:12.105Z","date":"2026-02-23","time":"19:38:12"},{"correct_response":"l","task":"test_phase","broad_category":"I","image_png":"I_Rhyolite_05.png","image_id":149,"category_name":"Rhyolite","category":10,"distinct_rating":3.02,"distinct_type":"Bottom","item_type":"Target","rt":1301,"stimulus":"Stimuli_Rocks480/I_Rhyolite_05.png","response":"l","trial_type":"image-keyboard-response","trial_index":223,"plugin_version":"2.1.0","time_elapsed":300965,"subject_id":"91703","group":"Group2","condition":"1_Rep","full_date":"2026-02-23T19:38:12.105Z","date":"2026-02-23","time":"19:38:12","cor_ans":true},{"trial_type":"html-keyboard-response","rt":null,"stimulus":"<p style=\"color: green; font-size: 50px; font-weight: bold;\">Correct</p>","response":null,"trial_index":224,"plugin_version":"2.1.0","time_elapsed":301466,"subject_id":"91703","group":"Group2","condition":"1_Rep","full_date":"2026-02-23T19:38:12.105Z","date":"2026-02-23","time":"19:38:12"},{"correct_response":"l","task":"test_phase","broad_category":"I","image_png":"I_Andesi