[{"width":1469,"height":754,"webaudio":true,"browser":"chrome","browser_version":"143.0.0","mobile":false,"os":"Mac OS","fullscreen":true,"vsync_rate":60.01,"webcam":true,"microphone":true,"trial_type":"browser-check","trial_index":0,"plugin_version":"2.1.0","time_elapsed":1013,"subject_id":"92504","group":"Group2","condition":"1_Rep","full_date":"2026-02-02T20:12:01.192Z","date":"2026-02-02","time":"20:12:01"},{"success":true,"timeout":false,"failed_images":[],"failed_audio":[],"failed_video":[],"trial_type":"preload","trial_index":1,"plugin_version":"2.1.0","time_elapsed":2576,"subject_id":"92504","group":"Group2","condition":"1_Rep","full_date":"2026-02-02T20:12:01.192Z","date":"2026-02-02","time":"20:12:01"},{"rt":5698,"url":"SONA_consent_memorability.html","trial_type":"external-html","trial_index":2,"plugin_version":"2.1.0","time_elapsed":8323,"subject_id":"92504","group":"Group2","condition":"1_Rep","full_date":"2026-02-02T20:12:01.192Z","date":"2026-02-02","time":"20:12:01"},{"success":true,"rt":4617,"trial_type":"fullscreen","trial_index":3,"plugin_version":"2.1.0","time_elapsed":13944,"subject_id":"92504","group":"Group2","condition":"1_Rep","full_date":"2026-02-02T20:12:01.192Z","date":"2026-02-02","time":"20:12:01"},{"rt":27035,"stimulus":"<div style=\"max-width: 760px; margin: auto; font-size: 20px; line-height: 1.5;\">\n      <h1 style=\"text-align:center; font-size: 30px;\">Instructions</h1>\n      <p>\n        Welcome to the study on <b>visual memory</b>. This experiment consists of <b>two phases</b>: \n        a <b>study phase</b> and a <b>test phase</b>.\n      </p>\n      <p>\n        In the study phase, you will see a series of rock images along with their category labels.\n        The images will appear one at a time.\n        <b>Your task</b> is to learn the categories to which the rock images belong \n        and to remember each image as accurately as possible.\n      </p> \n      <p>\n        Note that you will see each image only <b>once</b> during the study phase. \n          So, please pay close attention and try to remember each image carefully.\n      </p>\n      <p>\n        After the study phase, <b>your memory will be tested</b>. \n        Additional instructions for the test phase will be provided at that time.\n      </p>\n      <p>\n        If your computer has multiple <b>language settings</b> (e.g., English and another language),\n        please make sure it is set to English before starting.\n      </p>\n      <p>\n        You can track your progress using the <b>completion bar</b> at the top of the screen. \n        Please note that the bar will refresh when the test phase begins \n        to give you an accurate sense of your progress in both phases.\n      </p> \n      <p>\n        Press the button below when you are ready to begin.\n      </p>\n    </div>","response":0,"trial_type":"html-button-response","trial_index":4,"plugin_version":"2.1.0","time_elapsed":40983,"subject_id":"92504","group":"Group2","condition":"1_Rep","full_date":"2026-02-02T20:12:01.192Z","date":"2026-02-02","time":"20:12:01"},{"rt":null,"stimulus":"<p style=\"font-size: 50px; margin: 0; text-align: center;\">+</p>","response":null,"trial_type":"html-keyboard-response","trial_index":5,"plugin_version":"2.1.0","time_elapsed":41988,"subject_id":"92504","group":"Group2","condition":"1_Rep","full_date":"2026-02-02T20:12:01.192Z","date":"2026-02-02","time":"20:12:01"},{"task":"memory_phase","broad_category":"M","image_png":"M_Phyllite_05.png","image_id":261,"category_name":"Phyllite","category":17,"distinct_rating":2.14,"distinct_type":"Bottom","rt":null,"stimulus":"Stimuli_Rocks480/M_Phyllite_05.png","response":null,"trial_type":"image-keyboard-response","trial_index":6,"plugin_version":"2.1.0","time_elapsed":44495,"subject_id":"92504","group":"Group2","condition":"1_Rep","full_date":"2026-02-02T20:12:01.192Z","date":"2026-02-02","time":"20:12:01"},{"rt":null,"stimulus":"<p style=\"font-size: 50px; margin: 0; text-align: center;\">+</p>","response":null,"trial_type":"html-keyboard-response","trial_index":7,"plugin_version":"2.1.0","time_elapsed":45498,"subject_id":"92504","group":"Group2","condition":"1_Rep","full_date":"2026-02-02T20:12:01.192Z","date":"2026-02-02","time":"20:12:01"},{"task":"memory_phase","broad_category":"I","image_png":"I_Gabbro_14.png","image_id":62,"category_name":"Gabbro","category":4,"distinct_rating":2.95,"distinct_type":"Bottom","rt":null,"stimulus":"Stimuli_Rocks480/I_Gabbro_14.png","response":null,"trial_type":"image-keyboard-response","trial_index":8,"plugin_version":"2.1.0","time_elapsed":48003,"subject_id":"92504","group":"Group2","condition":"1_Rep","full_date":"2026-02-02T20:12:01.192Z","date":"2026-02-02","time":"20:12:01"},{"rt":null,"stimulus":"<p style=\"font-size: 50px; margin: 0; text-align: center;\">+</p>","response":null,"trial_type":"html-keyboard-response","trial_index":9,"plugin_version":"2.1.0","time_elapsed":49006,"subject_id":"92504","group":"Group2","condition":"1_Rep","full_date":"2026-02-02T20:12:01.192Z","date":"2026-02-02","time":"20:12:01"},{"task":"memory_phase","broad_category":"S","image_png":"S_Sandstone_11.png","image_id":459,"category_name":"Sandstone","category":29,"distinct_rating":1.82,"distinct_type":"Bottom","rt":null,"stimulus":"Stimuli_Rocks480/S_Sandstone_11.png","response":null,"trial_type":"image-keyboard-response","trial_index":10,"plugin_version":"2.1.0","time_elapsed":51511,"subject_id":"92504","group":"Group2","condition":"1_Rep","full_date":"2026-02-02T20:12:01.192Z","date":"2026-02-02","time":"20:12:01"},{"rt":null,"stimulus":"<p style=\"font-size: 50px; margin: 0; text-align: center;\">+</p>","response":null,"trial_type":"html-keyboard-response","trial_index":11,"plugin_version":"2.1.0","time_elapsed":52514,"subject_id":"92504","group":"Group2","condition":"1_Rep","full_date":"2026-02-02T20:12:01.192Z","date":"2026-02-02","time":"20:12:01"},{"task":"memory_phase","broad_category":"I","image_png":"I_Basalt_08.png","image_id":24,"category_name":"Basalt","category":2,"distinct_rating":2.31,"distinct_type":"Bottom","rt":null,"stimulus":"Stimuli_Rocks480/I_Basalt_08.png","response":null,"trial_type":"image-keyboard-response","trial_index":12,"plugin_version":"2.1.0","time_elapsed":55018,"subject_id":"92504","group":"Group2","condition":"1_Rep","full_date":"2026-02-02T20:12:01.192Z","date":"2026-02-02","time":"20:12:01"},{"rt":null,"stimulus":"<p style=\"font-size: 50px; margin: 0; text-align: center;\">+</p>","response":null,"trial_type":"html-keyboard-response","trial_index":13,"plugin_version":"2.1.0","time_elapsed":56020,"subject_id":"92504","group":"Group2","condition":"1_Rep","full_date":"2026-02-02T20:12:01.192Z","date":"2026-02-02","time":"20:12:01"},{"task":"memory_phase","broad_category":"S","image_png":"S_Conglomerate_14.png","image_id":382,"category_name":"Conglomerate","category":24,"distinct_rating":6.86,"distinct_type":"Top","rt":null,"stimulus":"Stimuli_Rocks480/S_Conglomerate_14.png","response":null,"trial_type":"image-keyboard-response","trial_index":14,"plugin_version":"2.1.0","time_elapsed":58524,"subject_id":"92504","group":"Group2","condition":"1_Rep","full_date":"2026-02-02T20:12:01.192Z","date":"2026-02-02","time":"20:12:01"},{"rt":null,"stimulus":"<p style=\"font-size: 50px; margin: 0; text-align: center;\">+</p>","response":null,"trial_type":"html-keyboard-response","trial_index":15,"plugin_version":"2.1.0","time_elapsed":59527,"subject_id":"92504","group":"Group2","condition":"1_Rep","full_date":"2026-02-02T20:12:01.192Z","date":"2026-02-02","time":"20:12:01"},{"task":"memory_phase","broad_category":"M","image_png":"M_Slate_04.png","image_id":308,"category_name":"Slate","category":20,"distinct_rating":2.2,"distinct_type":"Bottom","rt":null,"stimulus":"Stimuli_Rocks480/M_Slate_04.png","response":null,"trial_type":"image-keyboard-response","trial_index":16,"plugin_version":"2.1.0","time_elapsed":62031,"subject_id":"92504","group":"Group2","condition":"1_Rep","full_date":"2026-02-02T20:12:01.192Z","date":"2026-02-02","time":"20:12:01"},{"rt":null,"stimulus":"<p style=\"font-size: 50px; margin: 0; text-align: center;\">+</p>","response":null,"trial_type":"html-keyboard-response","trial_index":17,"plugin_version":"2.1.0","time_elapsed":63034,"subject_id":"92504","group":"Group2","condition":"1_Rep","full_date":"2026-02-02T20:12:01.192Z","date":"2026-02-02","time":"20:12:01"},{"task":"memory_phase","broad_category":"I","image_png":"I_Andesite_03.png","image_id":3,"category_name":"Andesite","category":1,"distinct_rating":3.17,"distinct_type":"Bottom","rt":null,"stimulus":"Stimuli_Rocks480/I_Andesite_03.png","response":null,"trial_type":"image-keyboard-response","trial_index":18,"plugin_version":"2.1.0","time_elapsed":65538,"subject_id":"92504","group":"Group2","condition":"1_Rep","full_date":"2026-02-02T20:12:01.192Z","date":"2026-02-02","time":"20:12:01"},{"rt":null,"stimulus":"<p style=\"font-size: 50px; margin: 0; text-align: center;\">+</p>","response":null,"trial_type":"html-keyboard-response","trial_index":19,"plugin_version":"2.1.0","time_elapsed":66540,"subject_id":"92504","group":"Group2","condition":"1_Rep","full_date":"2026-02-02T20:12:01.192Z","date":"2026-02-02","time":"20:12:01"},{"task":"memory_phase","broad_category":"S","image_png":"S_Shale_07.png","image_id":471,"category_name":"Shale","category":30,"distinct_rating":2.73,"distinct_type":"Bottom","rt":null,"stimulus":"Stimuli_Rocks480/S_Shale_07.png","response":null,"trial_type":"image-keyboard-response","trial_index":20,"plugin_version":"2.1.0","time_elapsed":69043,"subject_id":"92504","group":"Group2","condition":"1_Rep","full_date":"2026-02-02T20:12:01.192Z","date":"2026-02-02","time":"20:12:01"},{"rt":null,"stimulus":"<p style=\"font-size: 50px; margin: 0; text-align: center;\">+</p>","response":null,"trial_type":"html-keyboard-response","trial_index":21,"plugin_version":"2.1.0","time_elapsed":70046,"subject_id":"92504","group":"Group2","condition":"1_Rep","full_date":"2026-02-02T20:12:01.192Z","date":"2026-02-02","time":"20:12:01"},{"task":"memory_phase","broad_category":"I","image_png":"I_Rhyolite_10.png","image_id":154,"category_name":"Rhyolite","category":10,"distinct_rating":2.88,"distinct_type":"Bottom","rt":null,"stimulus":"Stimuli_Rocks480/I_Rhyolite_10.png","response":null,"trial_type":"image-keyboard-response","trial_index":22,"plugin_version":"2.1.0","time_elapsed":72550,"subject_id":"92504","group":"Group2","condition":"1_Rep","full_date":"2026-02-02T20:12:01.192Z","date":"2026-02-02","time":"20:12:01"},{"rt":null,"stimulus":"<p style=\"font-size: 50px; margin: 0; text-align: center;\">+</p>","response":null,"trial_type":"html-keyboard-response","trial_index":23,"plugin_version":"2.1.0","time_elapsed":73553,"subject_id":"92504","group":"Group2","condition":"1_Rep","full_date":"2026-02-02T20:12:01.192Z","date":"2026-02-02","time":"20:12:01"},{"task":"memory_phase","broad_category":"I","image_png":"I_Diorite_01.png","image_id":33,"category_name":"Diorite","category":3,"distinct_rating":2.97,"distinct_type":"Bottom","rt":null,"stimulus":"Stimuli_Rocks480/I_Diorite_01.png","response":null,"trial_type":"image-keyboard-response","trial_index":24,"plugin_version":"2.1.0","time_elapsed":76057,"subject_id":"92504","group":"Group2","condition":"1_Rep","full_date":"2026-02-02T20:12:01.192Z","date":"2026-02-02","time":"20:12:01"},{"rt":null,"stimulus":"<p style=\"font-size: 50px; margin: 0; text-align: center;\">+</p>","response":null,"trial_type":"html-keyboard-response","trial_index":25,"plugin_version":"2.1.0","time_elapsed":77059,"subject_id":"92504","group":"Group2","condition":"1_Rep","full_date":"2026-02-02T20:12:01.192Z","date":"2026-02-02","time":"20:12:01"},{"task":"memory_phase","broad_category":"M","image_png":"M_Gneiss_14.png","image_id":206,"category_name":"Gneiss","category":13,"distinct_rating":3.41,"distinct_type":"Bottom","rt":null,"stimulus":"Stimuli_Rocks480/M_Gneiss_14.png","response":null,"trial_type":"image-keyboard-response","trial_index":26,"plugin_version":"2.1.0","time_elapsed":79563,"subject_id":"92504","group":"Group2","condition":"1_Rep","full_date":"2026-02-02T20:12:01.192Z","date":"2026-02-02","time":"20:12:01"},{"rt":null,"stimulus":"<p style=\"font-size: 50px; margin: 0; text-align: center;\">+</p>","response":null,"trial_type":"html-keyboard-response","trial_index":27,"plugin_version":"2.1.0","time_elapsed":80566,"subject_id":"92504","group":"Group2","condition":"1_Rep","full_date":"2026-02-02T20:12:01.192Z","date":"2026-02-02","time":"20:12:01"},{"task":"memory_phase","broad_category":"S","image_png":"S_Chert_13.png","image_id":365,"category_name":"Chert","category":23,"distinct_rating":6.57,"distinct_type":"Top","rt":null,"stimulus":"Stimuli_Rocks480/S_Chert_13.png","response":null,"trial_type":"image-keyboard-response","trial_index":28,"plugin_version":"2.1.0","time_elapsed":83075,"subject_id":"92504","group":"Group2","condition":"1_Rep","full_date":"2026-02-02T20:12:01.192Z","date":"2026-02-02","time":"20:12:01"},{"rt":null,"stimulus":"<p style=\"font-size: 50px; margin: 0; text-align: center;\">+</p>","response":null,"trial_type":"html-keyboard-response","trial_index":29,"plugin_version":"2.1.0","time_elapsed":84078,"subject_id":"92504","group":"Group2","condition":"1_Rep","full_date":"2026-02-02T20:12:01.192Z","date":"2026-02-02","time":"20:12:01"},{"task":"memory_phase","broad_category":"M","image_png":"M_Marble_03.png","image_id":227,"category_name":"Marble","category":15,"distinct_rating":2.67,"distinct_type":"Bottom","rt":null,"stimulus":"Stimuli_Rocks480/M_Marble_03.png","response":null,"trial_type":"image-keyboard-response","trial_index":30,"plugin_version":"2.1.0","time_elapsed":86582,"subject_id":"92504","group":"Group2","condition":"1_Rep","full_date":"2026-02-02T20:12:01.192Z","date":"2026-02-02","time":"20:12:01"},{"rt":null,"stimulus":"<p style=\"font-size: 50px; margin: 0; text-align: center;\">+</p>","response":null,"trial_type":"html-keyboard-response","trial_index":31,"plugin_version":"2.1.0","time_elapsed":87585,"subject_id":"92504","group":"Group2","condition":"1_Rep","full_date":"2026-02-02T20:12:01.192Z","date":"2026-02-02","time":"20:12:01"},{"task":"memory_phase","broad_category":"M","image_png":"M_Marble_02.png","image_id":226,"category_name":"Marble","category":15,"distinct_rating":3.2,"distinct_type":"Bottom","rt":null,"stimulus":"Stimuli_Rocks480/M_Marble_02.png","response":null,"trial_type":"image-keyboard-response","trial_index":32,"plugin_version":"2.1.0","time_elapsed":90089,"subject_id":"92504","group":"Group2","condition":"1_Rep","full_date":"2026-02-02T20:12:01.192Z","date":"2026-02-02","time":"20:12:01"},{"rt":null,"stimulus":"<p style=\"font-size: 50px; margin: 0; text-align: center;\">+</p>","response":null,"trial_type":"html-keyboard-response","trial_index":33,"plugin_version":"2.1.0","time_elapsed":91092,"subject_id":"92504","group":"Group2","condition":"1_Rep","full_date":"2026-02-02T20:12:01.192Z","date":"2026-02-02","time":"20:12:01"},{"task":"memory_phase","broad_category":"M","image_png":"M_Slate_14.png","image_id":318,"category_name":"Slate","category":20,"distinct_rating":2.58,"distinct_type":"Bottom","rt":null,"stimulus":"Stimuli_Rocks480/M_Slate_14.png","response":null,"trial_type":"image-keyboard-response","trial_index":34,"plugin_version":"2.1.0","time_elapsed":93597,"subject_id":"92504","group":"Group2","condition":"1_Rep","full_date":"2026-02-02T20:12:01.192Z","date":"2026-02-02","time":"20:12:01"},{"rt":null,"stimulus":"<p style=\"font-size: 50px; margin: 0; text-align: center;\">+</p>","response":null,"trial_type":"html-keyboard-response","trial_index":35,"plugin_version":"2.1.0","time_elapsed":94599,"subject_id":"92504","group":"Group2","condition":"1_Rep","full_date":"2026-02-02T20:12:01.192Z","date":"2026-02-02","time":"20:12:01"},{"task":"memory_phase","broad_category":"I","image_png":"I_Pegmatite_11.png","image_id":107,"category_name":"Pegmatite","category":7,"distinct_rating":7.11,"distinct_type":"Top","rt":null,"stimulus":"Stimuli_Rocks480/I_Pegmatite_11.png","response":null,"trial_type":"image-keyboard-response","trial_index":36,"plugin_version":"2.1.0","time_elapsed":97103,"subject_id":"92504","group":"Group2","condition":"1_Rep","full_date":"2026-02-02T20:12:01.192Z","date":"2026-02-02","time":"20:12:01"},{"rt":null,"stimulus":"<p style=\"font-size: 50px; margin: 0; text-align: center;\">+</p>","response":null,"trial_type":"html-keyboard-response","trial_index":37,"plugin_version":"2.1.0","time_elapsed":98106,"subject_id":"92504","group":"Group2","condition":"1_Rep","full_date":"2026-02-02T20:12:01.192Z","date":"2026-02-02","time":"20:12:01"},{"task":"memory_phase","broad_category":"M","image_png":"M_Gneiss_10.png","image_id":202,"category_name":"Gneiss","category":13,"distinct_rating":3.09,"distinct_type":"Bottom","rt":null,"stimulus":"Stimuli_Rocks480/M_Gneiss_10.png","response":null,"trial_type":"image-keyboard-response","trial_index":38,"plugin_version":"2.1.0","time_elapsed":100611,"subject_id":"92504","group":"Group2","condition":"1_Rep","full_date":"2026-02-02T20:12:01.192Z","date":"2026-02-02","time":"20:12:01"},{"rt":null,"stimulus":"<p style=\"font-size: 50px; margin: 0; text-align: center;\">+</p>","response":null,"trial_type":"html-keyboard-response","trial_index":39,"plugin_version":"2.1.0","time_elapsed":101613,"subject_id":"92504","group":"Group2","condition":"1_Rep","full_date":"2026-02-02T20:12:01.192Z","date":"2026-02-02","time":"20:12:01"},{"task":"memory_phase","broad_category":"I","image_png":"I_Pumice_13.png","image_id":141,"category_name":"Pumice","category":9,"distinct_rating":3.12,"distinct_type":"Bottom","rt":null,"stimulus":"Stimuli_Rocks480/I_Pumice_13.png","response":null,"trial_type":"image-keyboard-response","trial_index":40,"plugin_version":"2.1.0","time_elapsed":104117,"subject_id":"92504","group":"Group2","condition":"1_Rep","full_date":"2026-02-02T20:12:01.192Z","date":"2026-02-02","time":"20:12:01"},{"rt":null,"stimulus":"<p style=\"font-size: 50px; margin: 0; text-align: center;\">+</p>","response":null,"trial_type":"html-keyboard-response","trial_index":41,"plugin_version":"2.1.0","time_elapsed":105119,"subject_id":"92504","group":"Group2","condition":"1_Rep","full_date":"2026-02-02T20:12:01.192Z","date":"2026-02-02","time":"20:12:01"},{"task":"memory_phase","broad_category":"S","image_png":"S_Dolomite_07.png","image_id":391,"category_name":"Dolomite","category":25,"distinct_rating":1.73,"distinct_type":"Bottom","rt":null,"stimulus":"Stimuli_Rocks480/S_Dolomite_07.png","response":null,"trial_type":"image-keyboard-response","trial_index":42,"plugin_version":"2.1.0","time_elapsed":107623,"subject_id":"92504","group":"Group2","condition":"1_Rep","full_date":"2026-02-02T20:12:01.192Z","date":"2026-02-02","time":"20:12:01"},{"rt":null,"stimulus":"<p style=\"font-size: 50px; margin: 0; text-align: center;\">+</p>","response":null,"trial_type":"html-keyboard-response","trial_index":43,"plugin_version":"2.1.0","time_elapsed":108628,"subject_id":"92504","group":"Group2","condition":"1_Rep","full_date":"2026-02-02T20:12:01.192Z","date":"2026-02-02","time":"20:12:01"},{"task":"memory_phase","broad_category":"I","image_png":"I_Basalt_13.png","image_id":29,"category_name":"Basalt","category":2,"distinct_rating":2.68,"distinct_type":"Bottom","rt":null,"stimulus":"Stimuli_Rocks480/I_Basalt_13.png","response":null,"trial_type":"image-keyboard-response","trial_index":44,"plugin_version":"2.1.0","time_elapsed":111133,"subject_id":"92504","group":"Group2","condition":"1_Rep","full_date":"2026-02-02T20:12:01.192Z","date":"2026-02-02","time":"20:12:01"},{"rt":null,"stimulus":"<p style=\"font-size: 50px; margin: 0; text-align: center;\">+</p>","response":null,"trial_type":"html-keyboard-response","trial_index":45,"plugin_version":"2.1.0","time_elapsed":112135,"subject_id":"92504","group":"Group2","condition":"1_Rep","full_date":"2026-02-02T20:12:01.192Z","date":"2026-02-02","time":"20:12:01"},{"task":"memory_phase","broad_category":"S","image_png":"S_Sandstone_08.png","image_id":456,"category_name":"Sandstone","category":29,"distinct_rating":1.5,"distinct_type":"Bottom","rt":null,"stimulus":"Stimuli_Rocks480/S_Sandstone_08.png","response":null,"trial_type":"image-keyboard-response","trial_index":46,"plugin_version":"2.1.0","time_elapsed":114640,"subject_id":"92504","group":"Group2","condition":"1_Rep","full_date":"2026-02-02T20:12:01.192Z","date":"2026-02-02","time":"20:12:01"},{"rt":null,"stimulus":"<p style=\"font-size: 50px; margin: 0; text-align: center;\">+</p>","response":null,"trial_type":"html-keyboard-response","trial_index":47,"plugin_version":"2.1.0","time_elapsed":115642,"subject_id":"92504","group":"Group2","condition":"1_Rep","full_date":"2026-02-02T20:12:01.192Z","date":"2026-02-02","time":"20:12:01"},{"task":"memory_phase","broad_category":"I","image_png":"I_Andesite_04.png","image_id":4,"category_name":"Andesite","category":1,"distinct_rating":3.18,"distinct_type":"Bottom","rt":null,"stimulus":"Stimuli_Rocks480/I_Andesite_04.png","response":null,"trial_type":"image-keyboard-response","trial_index":48,"plugin_version":"2.1.0","time_elapsed":118146,"subject_id":"92504","group":"Group2","condition":"1_Rep","full_date":"2026-02-02T20:12:01.192Z","date":"2026-02-02","time":"20:12:01"},{"rt":null,"stimulus":"<p style=\"font-size: 50px; margin: 0; text-align: center;\">+</p>","response":null,"trial_type":"html-keyboard-response","trial_index":49,"plugin_version":"2.1.0","time_elapsed":119150,"subject_id":"92504","group":"Group2","condition":"1_Rep","full_date":"2026-02-02T20:12:01.192Z","date":"2026-02-02","time":"20:12:01"},{"task":"memory_phase","broad_category":"M","image_png":"M_Gneiss_15.png","image_id":207,"category_name":"Gneiss","category":13,"distinct_rating":3.11,"distinct_type":"Bottom","rt":null,"stimulus":"Stimuli_Rocks480/M_Gneiss_15.png","response":null,"trial_type":"image-keyboard-response","trial_index":50,"plugin_version":"2.1.0","time_elapsed":121654,"subject_id":"92504","group":"Group2","condition":"1_Rep","full_date":"2026-02-02T20:12:01.192Z","date":"2026-02-02","time":"20:12:01"},{"rt":null,"stimulus":"<p style=\"font-size: 50px; margin: 0; text-align: center;\">+</p>","response":null,"trial_type":"html-keyboard-response","trial_index":51,"plugin_version":"2.1.0","time_elapsed":122656,"subject_id":"92504","group":"Group2","condition":"1_Rep","full_date":"2026-02-02T20:12:01.192Z","date":"2026-02-02","time":"20:12:01"},{"task":"memory_phase","broad_category":"M","image_png":"M_Phyllite_02.png","image_id":258,"category_name":"Phyllite","category":17,"distinct_rating":2.89,"distinct_type":"Bottom","rt":null,"stimulus":"Stimuli_Rocks480/M_Phyllite_02.png","response":null,"trial_type":"image-keyboard-response","trial_index":52,"plugin_version":"2.1.0","time_elapsed":125158,"subject_id":"92504","group":"Group2","condition":"1_Rep","full_date":"2026-02-02T20:12:01.192Z","date":"2026-02-02","time":"20:12:01"},{"rt":null,"stimulus":"<p style=\"font-size: 50px; margin: 0; text-align: center;\">+</p>","response":null,"trial_type":"html-keyboard-response","trial_index":53,"plugin_version":"2.1.0","time_elapsed":126161,"subject_id":"92504","group":"Group2","condition":"1_Rep","full_date":"2026-02-02T20:12:01.192Z","date":"2026-02-02","time":"20:12:01"},{"task":"memory_phase","broad_category":"I","image_png":"I_Gabbro_02.png","image_id":50,"category_name":"Gabbro","category":4,"distinct_rating":2.73,"distinct_type":"Bottom","rt":null,"stimulus":"Stimuli_Rocks480/I_Gabbro_02.png","response":null,"trial_type":"image-keyboard-response","trial_index":54,"plugin_version":"2.1.0","time_elapsed":128665,"subject_id":"92504","group":"Group2","condition":"1_Rep","full_date":"2026-02-02T20:12:01.192Z","date":"2026-02-02","time":"20:12:01"},{"rt":2047,"stimulus":"<p style=\"max-width: 760px; margin: auto; font-size: 35px; line-height: 1.5;\">\n                Press SPACE to continue study phase\n              </p>","response":" ","trial_type":"html-keyboard-response","trial_index":55,"plugin_version":"2.1.0","time_elapsed":130715,"subject_id":"92504","group":"Group2","condition":"1_Rep","full_date":"2026-02-02T20:12:01.192Z","date":"2026-02-02","time":"20:12:01"},{"rt":null,"stimulus":"<p style=\"font-size: 50px; margin: 0; text-align: center;\">+</p>","response":null,"trial_type":"html-keyboard-response","trial_index":56,"plugin_version":"2.1.0","time_elapsed":131717,"subject_id":"92504","group":"Group2","condition":"1_Rep","full_date":"2026-02-02T20:12:01.192Z","date":"2026-02-02","time":"20:12:01"},{"task":"memory_phase","broad_category":"I","image_png":"I_Obsidian_06.png","image_id":86,"category_name":"Obsidian","category":6,"distinct_rating":8.01,"distinct_type":"Top","rt":null,"stimulus":"Stimuli_Rocks480/I_Obsidian_06.png","response":null,"trial_type":"image-keyboard-response","trial_index":57,"plugin_version":"2.1.0","time_elapsed":134221,"subject_id":"92504","group":"Group2","condition":"1_Rep","full_date":"2026-02-02T20:12:01.192Z","date":"2026-02-02","time":"20:12:01"},{"rt":null,"stimulus":"<p style=\"font-size: 50px; margin: 0; text-align: center;\">+</p>","response":null,"trial_type":"html-keyboard-response","trial_index":58,"plugin_version":"2.1.0","time_elapsed":135223,"subject_id":"92504","group":"Group2","condition":"1_Rep","full_date":"2026-02-02T20:12:01.192Z","date":"2026-02-02","time":"20:12:01"},{"task":"memory_phase","broad_category":"M","image_png":"M_Slate_10.png","image_id":314,"category_name":"Slate","category":20,"distinct_rating":1.94,"distinct_type":"Bottom","rt":null,"stimulus":"Stimuli_Rocks480/M_Slate_10.png","response":null,"trial_type":"image-keyboard-response","trial_index":59,"plugin_version":"2.1.0","time_elapsed":137725,"subject_id":"92504","group":"Group2","condition":"1_Rep","full_date":"2026-02-02T20:12:01.192Z","date":"2026-02-02","time":"20:12:01"},{"rt":null,"stimulus":"<p style=\"font-size: 50px; margin: 0; text-align: center;\">+</p>","response":null,"trial_type":"html-keyboard-response","trial_index":60,"plugin_version":"2.1.0","time_elapsed":138728,"subject_id":"92504","group":"Group2","condition":"1_Rep","full_date":"2026-02-02T20:12:01.192Z","date":"2026-02-02","time":"20:12:01"},{"task":"memory_phase","broad_category":"I","image_png":"I_Pegmatite_03.png","image_id":99,"category_name":"Pegmatite","category":7,"distinct_rating":7.24,"distinct_type":"Top","rt":null,"stimulus":"Stimuli_Rocks480/I_Pegmatite_03.png","response":null,"trial_type":"image-keyboard-response","trial_index":61,"plugin_version":"2.1.0","time_elapsed":141232,"subject_id":"92504","group":"Group2","condition":"1_Rep","full_date":"2026-02-02T20:12:01.192Z","date":"2026-02-02","time":"20:12:01"},{"rt":null,"stimulus":"<p style=\"font-size: 50px; margin: 0; text-align: center;\">+</p>","response":null,"trial_type":"html-keyboard-response","trial_index":62,"plugin_version":"2.1.0","time_elapsed":142235,"subject_id":"92504","group":"Group2","condition":"1_Rep","full_date":"2026-02-02T20:12:01.192Z","date":"2026-02-02","time":"20:12:01"},{"task":"memory_phase","broad_category":"I","image_png":"I_Pumice_01.png","image_id":129,"category_name":"Pumice","category":9,"distinct_rating":3.25,"distinct_type":"Bottom","rt":null,"stimulus":"Stimuli_Rocks480/I_Pumice_01.png","response":null,"trial_type":"image-keyboard-response","trial_index":63,"plugin_version":"2.1.0","time_elapsed":144739,"subject_id":"92504","group":"Group2","condition":"1_Rep","full_date":"2026-02-02T20:12:01.192Z","date":"2026-02-02","time":"20:12:01"},{"rt":null,"stimulus":"<p style=\"font-size: 50px; margin: 0; text-align: center;\">+</p>","response":null,"trial_type":"html-keyboard-response","trial_index":64,"plugin_version":"2.1.0","time_elapsed":145740,"subject_id":"92504","group":"Group2","condition":"1_Rep","full_date":"2026-02-02T20:12:01.192Z","date":"2026-02-02","time":"20:12:01"},{"task":"memory_phase","broad_category":"S","image_png":"S_Shale_03.png","image_id":467,"category_name":"Shale","category":30,"distinct_rating":1.95,"distinct_type":"Bottom","rt":null,"stimulus":"Stimuli_Rocks480/S_Shale_03.png","response":null,"trial_type":"image-keyboard-response","trial_index":65,"plugin_version":"2.1.0","time_elapsed":148244,"subject_id":"92504","group":"Group2","condition":"1_Rep","full_date":"2026-02-02T20:12:01.192Z","date":"2026-02-02","time":"20:12:01"},{"rt":null,"stimulus":"<p style=\"font-size: 50px; margin: 0; text-align: center;\">+</p>","response":null,"trial_type":"html-keyboard-response","trial_index":66,"plugin_version":"2.1.0","time_elapsed":149246,"subject_id":"92504","group":"Group2","condition":"1_Rep","full_date":"2026-02-02T20:12:01.192Z","date":"2026-02-02","time":"20:12:01"},{"task":"memory_phase","broad_category":"I","image_png":"I_Pumice_14.png","image_id":142,"category_name":"Pumice","category":9,"distinct_rating":3.22,"distinct_type":"Bottom","rt":null,"stimulus":"Stimuli_Rocks480/I_Pumice_14.png","response":null,"trial_type":"image-keyboard-response","trial_index":67,"plugin_version":"2.1.0","time_elapsed":151751,"subject_id":"92504","group":"Group2","condition":"1_Rep","full_date":"2026-02-02T20:12:01.192Z","date":"2026-02-02","time":"20:12:01"},{"rt":null,"stimulus":"<p style=\"font-size: 50px; margin: 0; text-align: center;\">+</p>","response":null,"trial_type":"html-keyboard-response","trial_index":68,"plugin_version":"2.1.0","time_elapsed":152754,"subject_id":"92504","group":"Group2","condition":"1_Rep","full_date":"2026-02-02T20:12:01.192Z","date":"2026-02-02","time":"20:12:01"},{"task":"memory_phase","broad_category":"S","image_png":"S_Dolomite_01.png","image_id":385,"category_name":"Dolomite","category":25,"distinct_rating":1.43,"distinct_type":"Bottom","rt":null,"stimulus":"Stimuli_Rocks480/S_Dolomite_01.png","response":null,"trial_type":"image-keyboard-response","trial_index":69,"plugin_version":"2.1.0","time_elapsed":155257,"subject_id":"92504","group":"Group2","condition":"1_Rep","full_date":"2026-02-02T20:12:01.192Z","date":"2026-02-02","time":"20:12:01"},{"rt":null,"stimulus":"<p style=\"font-size: 50px; margin: 0; text-align: center;\">+</p>","response":null,"trial_type":"html-keyboard-response","trial_index":70,"plugin_version":"2.1.0","time_elapsed":156260,"subject_id":"92504","group":"Group2","condition":"1_Rep","full_date":"2026-02-02T20:12:01.192Z","date":"2026-02-02","time":"20:12:01"},{"task":"memory_phase","broad_category":"I","image_png":"I_Basalt_10.png","image_id":26,"category_name":"Basalt","category":2,"distinct_rating":2.76,"distinct_type":"Bottom","rt":null,"stimulus":"Stimuli_Rocks480/I_Basalt_10.png","response":null,"trial_type":"image-keyboard-response","trial_index":71,"plugin_version":"2.1.0","time_elapsed":158765,"subject_id":"92504","group":"Group2","condition":"1_Rep","full_date":"2026-02-02T20:12:01.192Z","date":"2026-02-02","time":"20:12:01"},{"rt":null,"stimulus":"<p style=\"font-size: 50px; margin: 0; text-align: center;\">+</p>","response":null,"trial_type":"html-keyboard-response","trial_index":72,"plugin_version":"2.1.0","time_elapsed":159768,"subject_id":"92504","group":"Group2","condition":"1_Rep","full_date":"2026-02-02T20:12:01.192Z","date":"2026-02-02","time":"20:12:01"},{"task":"memory_phase","broad_category":"S","image_png":"S_Dolomite_16.png","image_id":400,"category_name":"Dolomite","category":25,"distinct_rating":1.71,"distinct_type":"Bottom","rt":null,"stimulus":"Stimuli_Rocks480/S_Dolomite_16.png","response":null,"trial_type":"image-keyboard-response","trial_index":73,"plugin_version":"2.1.0","time_elapsed":162272,"subject_id":"92504","group":"Group2","condition":"1_Rep","full_date":"2026-02-02T20:12:01.192Z","date":"2026-02-02","time":"20:12:01"},{"rt":null,"stimulus":"<p style=\"font-size: 50px; margin: 0; text-align: center;\">+</p>","response":null,"trial_type":"html-keyboard-response","trial_index":74,"plugin_version":"2.1.0","time_elapsed":163274,"subject_id":"92504","group":"Group2","condition":"1_Rep","full_date":"2026-02-02T20:12:01.192Z","date":"2026-02-02","time":"20:12:01"},{"task":"memory_phase","broad_category":"S","image_png":"S_Shale_02.png","image_id":466,"category_name":"Shale","category":30,"distinct_rating":2.9,"distinct_type":"Bottom","rt":null,"stimulus":"Stimuli_Rocks480/S_Shale_02.png","response":null,"trial_type":"image-keyboard-response","trial_index":75,"plugin_version":"2.1.0","time_elapsed":165778,"subject_id":"92504","group":"Group2","condition":"1_Rep","full_date":"2026-02-02T20:12:01.192Z","date":"2026-02-02","time":"20:12:01"},{"rt":null,"stimulus":"<p style=\"font-size: 50px; margin: 0; text-align: center;\">+</p>","response":null,"trial_type":"html-keyboard-response","trial_index":76,"plugin_version":"2.1.0","time_elapsed":166781,"subject_id":"92504","group":"Group2","condition":"1_Rep","full_date":"2026-02-02T20:12:01.192Z","date":"2026-02-02","time":"20:12:01"},{"task":"memory_phase","broad_category":"S","image_png":"S_Rock Salt_13.png","image_id":445,"category_name":"Rock Salt","category":28,"distinct_rating":7.58,"distinct_type":"Top","rt":null,"stimulus":"Stimuli_Rocks480/S_Rock Salt_13.png","response":null,"trial_type":"image-keyboard-response","trial_index":77,"plugin_version":"2.1.0","time_elapsed":169285,"subject_id":"92504","group":"Group2","condition":"1_Rep","full_date":"2026-02-02T20:12:01.192Z","date":"2026-02-02","time":"20:12:01"},{"rt":null,"stimulus":"<p style=\"font-size: 50px; margin: 0; text-align: center;\">+</p>","response":null,"trial_type":"html-keyboard-response","trial_index":78,"plugin_version":"2.1.0","time_elapsed":170287,"subject_id":"92504","group":"Group2","condition":"1_Rep","full_date":"2026-02-02T20:12:01.192Z","date":"2026-02-02","time":"20:12:01"},{"task":"memory_phase","broad_category":"M","image_png":"M_Marble_14.png","image_id":238,"category_name":"Marble","category":15,"distinct_rating":3.31,"distinct_type":"Bottom","rt":null,"stimulus":"Stimuli_Rocks480/M_Marble_14.png","response":null,"trial_type":"image-keyboard-response","trial_index":79,"plugin_version":"2.1.0","time_elapsed":172791,"subject_id":"92504","group":"Group2","condition":"1_Rep","full_date":"2026-02-02T20:12:01.192Z","date":"2026-02-02","time":"20:12:01"},{"rt":null,"stimulus":"<p style=\"font-size: 50px; margin: 0; text-align: center;\">+</p>","response":null,"trial_type":"html-keyboard-response","trial_index":80,"plugin_version":"2.1.0","time_elapsed":173794,"subject_id":"92504","group":"Group2","condition":"1_Rep","full_date":"2026-02-02T20:12:01.192Z","date":"2026-02-02","time":"20:12:01"},{"task":"memory_phase","broad_category":"I","image_png":"I_Peridotite_13.png","image_id":125,"category_name":"Peridotite","category":8,"distinct_rating":7.28,"distinct_type":"Top","rt":null,"stimulus":"Stimuli_Rocks480/I_Peridotite_13.png","response":null,"trial_type":"image-keyboard-response","trial_index":81,"plugin_version":"2.1.0","time_elapsed":176297,"subject_id":"92504","group":"Group2","condition":"1_Rep","full_date":"2026-02-02T20:12:01.192Z","date":"2026-02-02","time":"20:12:01"},{"rt":null,"stimulus":"<p style=\"font-size: 50px; margin: 0; text-align: center;\">+</p>","response":null,"trial_type":"html-keyboard-response","trial_index":82,"plugin_version":"2.1.0","time_elapsed":177300,"subject_id":"92504","group":"Group2","condition":"1_Rep","full_date":"2026-02-02T20:12:01.192Z","date":"2026-02-02","time":"20:12:01"},{"task":"memory_phase","broad_category":"S","image_png":"S_Rock Salt_15.png","image_id":447,"category_name":"Rock Salt","category":28,"distinct_rating":7.79,"distinct_type":"Top","rt":null,"stimulus":"Stimuli_Rocks480/S_Rock Salt_15.png","response":null,"trial_type":"image-keyboard-response","trial_index":83,"plugin_version":"2.1.0","time_elapsed":179804,"subject_id":"92504","group":"Group2","condition":"1_Rep","full_date":"2026-02-02T20:12:01.192Z","date":"2026-02-02","time":"20:12:01"},{"rt":null,"stimulus":"<p style=\"font-size: 50px; margin: 0; text-align: center;\">+</p>","response":null,"trial_type":"html-keyboard-response","trial_index":84,"plugin_version":"2.1.0","time_elapsed":180807,"subject_id":"92504","group":"Group2","condition":"1_Rep","full_date":"2026-02-02T20:12:01.192Z","date":"2026-02-02","time":"20:12:01"},{"task":"memory_phase","broad_category":"I","image_png":"I_Gabbro_12.png","image_id":60,"category_name":"Gabbro","category":4,"distinct_rating":2.6,"distinct_type":"Bottom","rt":null,"stimulus":"Stimuli_Rocks480/I_Gabbro_12.png","response":null,"trial_type":"image-keyboard-response","trial_index":85,"plugin_version":"2.1.0","time_elapsed":183310,"subject_id":"92504","group":"Group2","condition":"1_Rep","full_date":"2026-02-02T20:12:01.192Z","date":"2026-02-02","time":"20:12:01"},{"rt":null,"stimulus":"<p style=\"font-size: 50px; margin: 0; text-align: center;\">+</p>","response":null,"trial_type":"html-keyboard-response","trial_index":86,"plugin_version":"2.1.0","time_elapsed":184313,"subject_id":"92504","group":"Group2","condition":"1_Rep","full_date":"2026-02-02T20:12:01.192Z","date":"2026-02-02","time":"20:12:01"},{"task":"memory_phase","broad_category":"M","image_png":"M_Quartzite_12.png","image_id":284,"category_name":"Quartzite","category":18,"distinct_rating":1.92,"distinct_type":"Bottom","rt":null,"stimulus":"Stimuli_Rocks480/M_Quartzite_12.png","response":null,"trial_type":"image-keyboard-response","trial_index":87,"plugin_version":"2.1.0","time_elapsed":186817,"subject_id":"92504","group":"Group2","condition":"1_Rep","full_date":"2026-02-02T20:12:01.192Z","date":"2026-02-02","time":"20:12:01"},{"rt":null,"stimulus":"<p style=\"font-size: 50px; margin: 0; text-align: center;\">+</p>","response":null,"trial_type":"html-keyboard-response","trial_index":88,"plugin_version":"2.1.0","time_elapsed":187819,"subject_id":"92504","group":"Group2","condition":"1_Rep","full_date":"2026-02-02T20:12:01.192Z","date":"2026-02-02","time":"20:12:01"},{"task":"memory_phase","broad_category":"I","image_png":"I_Rhyolite_05.png","image_id":149,"category_name":"Rhyolite","category":10,"distinct_rating":3.02,"distinct_type":"Bottom","rt":null,"stimulus":"Stimuli_Rocks480/I_Rhyolite_05.png","response":null,"trial_type":"image-keyboard-response","trial_index":89,"plugin_version":"2.1.0","time_elapsed":190323,"subject_id":"92504","group":"Group2","condition":"1_Rep","full_date":"2026-02-02T20:12:01.192Z","date":"2026-02-02","time":"20:12:01"},{"rt":null,"stimulus":"<p style=\"font-size: 50px; margin: 0; text-align: center;\">+</p>","response":null,"trial_type":"html-keyboard-response","trial_index":90,"plugin_version":"2.1.0","time_elapsed":191326,"subject_id":"92504","group":"Group2","condition":"1_Rep","full_date":"2026-02-02T20:12:01.192Z","date":"2026-02-02","time":"20:12:01"},{"task":"memory_phase","broad_category":"I","image_png":"I_Diorite_10.png","image_id":42,"category_name":"Diorite","category":3,"distinct_rating":2.84,"distinct_type":"Bottom","rt":null,"stimulus":"Stimuli_Rocks480/I_Diorite_10.png","response":null,"trial_type":"image-keyboard-response","trial_index":91,"plugin_version":"2.1.0","time_elapsed":193829,"subject_id":"92504","group":"Group2","condition":"1_Rep","full_date":"2026-02-02T20:12:01.192Z","date":"2026-02-02","time":"20:12:01"},{"rt":null,"stimulus":"<p style=\"font-size: 50px; margin: 0; text-align: center;\">+</p>","response":null,"trial_type":"html-keyboard-response","trial_index":92,"plugin_version":"2.1.0","time_elapsed":194832,"subject_id":"92504","group":"Group2","condition":"1_Rep","full_date":"2026-02-02T20:12:01.192Z","date":"2026-02-02","time":"20:12:01"},{"task":"memory_phase","broad_category":"I","image_png":"I_Rhyolite_08.png","image_id":152,"category_name":"Rhyolite","category":10,"distinct_rating":1.38,"distinct_type":"Bottom","rt":null,"stimulus":"Stimuli_Rocks480/I_Rhyolite_08.png","response":null,"trial_type":"image-keyboard-response","trial_index":93,"plugin_version":"2.1.0","time_elapsed":197335,"subject_id":"92504","group":"Group2","condition":"1_Rep","full_date":"2026-02-02T20:12:01.192Z","date":"2026-02-02","time":"20:12:01"},{"rt":null,"stimulus":"<p style=\"font-size: 50px; margin: 0; text-align: center;\">+</p>","response":null,"trial_type":"html-keyboard-response","trial_index":94,"plugin_version":"2.1.0","time_elapsed":198338,"subject_id":"92504","group":"Group2","condition":"1_Rep","full_date":"2026-02-02T20:12:01.192Z","date":"2026-02-02","time":"20:12:01"},{"task":"memory_phase","broad_category":"S","image_png":"S_Sandstone_04.png","image_id":452,"category_name":"Sandstone","category":29,"distinct_rating":1.8,"distinct_type":"Bottom","rt":null,"stimulus":"Stimuli_Rocks480/S_Sandstone_04.png","response":null,"trial_type":"image-keyboard-response","trial_index":95,"plugin_version":"2.1.0","time_elapsed":200842,"subject_id":"92504","group":"Group2","condition":"1_Rep","full_date":"2026-02-02T20:12:01.192Z","date":"2026-02-02","time":"20:12:01"},{"rt":null,"stimulus":"<p style=\"font-size: 50px; margin: 0; text-align: center;\">+</p>","response":null,"trial_type":"html-keyboard-response","trial_index":96,"plugin_version":"2.1.0","time_elapsed":201844,"subject_id":"92504","group":"Group2","condition":"1_Rep","full_date":"2026-02-02T20:12:01.192Z","date":"2026-02-02","time":"20:12:01"},{"task":"memory_phase","broad_category":"M","image_png":"M_Quartzite_15.png","image_id":287,"category_name":"Quartzite","category":18,"distinct_rating":2.19,"distinct_type":"Bottom","rt":null,"stimulus":"Stimuli_Rocks480/M_Quartzite_15.png","response":null,"trial_type":"image-keyboard-response","trial_index":97,"plugin_version":"2.1.0","time_elapsed":204347,"subject_id":"92504","group":"Group2","condition":"1_Rep","full_date":"2026-02-02T20:12:01.192Z","date":"2026-02-02","time":"20:12:01"},{"rt":null,"stimulus":"<p style=\"font-size: 50px; margin: 0; text-align: center;\">+</p>","response":null,"trial_type":"html-keyboard-response","trial_index":98,"plugin_version":"2.1.0","time_elapsed":205349,"subject_id":"92504","group":"Group2","condition":"1_Rep","full_date":"2026-02-02T20:12:01.192Z","date":"2026-02-02","time":"20:12:01"},{"task":"memory_phase","broad_category":"M","image_png":"M_Quartzite_07.png","image_id":279,"category_name":"Quartzite","category":18,"distinct_rating":1.97,"distinct_type":"Bottom","rt":null,"stimulus":"Stimuli_Rocks480/M_Quartzite_07.png","response":null,"trial_type":"image-keyboard-response","trial_index":99,"plugin_version":"2.1.0","time_elapsed":207852,"subject_id":"92504","group":"Group2","condition":"1_Rep","full_date":"2026-02-02T20:12:01.192Z","date":"2026-02-02","time":"20:12:01"},{"rt":null,"stimulus":"<p style=\"font-size: 50px; margin: 0; text-align: center;\">+</p>","response":null,"trial_type":"html-keyboard-response","trial_index":100,"plugin_version":"2.1.0","time_elapsed":208855,"subject_id":"92504","group":"Group2","condition":"1_Rep","full_date":"2026-02-02T20:12:01.192Z","date":"2026-02-02","time":"20:12:01"},{"task":"memory_phase","broad_category":"I","image_png":"I_Andesite_09.png","image_id":9,"category_name":"Andesite","category":1,"distinct_rating":2.49,"distinct_type":"Bottom","rt":null,"stimulus":"Stimuli_Rocks480/I_Andesite_09.png","response":null,"trial_type":"image-keyboard-response","trial_index":101,"plugin_version":"2.1.0","time_elapsed":211359,"subject_id":"92504","group":"Group2","condition":"1_Rep","full_date":"2026-02-02T20:12:01.192Z","date":"2026-02-02","time":"20:12:01"},{"rt":null,"stimulus":"<p style=\"font-size: 50px; margin: 0; text-align: center;\">+</p>","response":null,"trial_type":"html-keyboard-response","trial_index":102,"plugin_version":"2.1.0","time_elapsed":212362,"subject_id":"92504","group":"Group2","condition":"1_Rep","full_date":"2026-02-02T20:12:01.192Z","date":"2026-02-02","time":"20:12:01"},{"task":"memory_phase","broad_category":"I","image_png":"I_Diorite_15.png","image_id":47,"category_name":"Diorite","category":3,"distinct_rating":3.05,"distinct_type":"Bottom","rt":null,"stimulus":"Stimuli_Rocks480/I_Diorite_15.png","response":null,"trial_type":"image-keyboard-response","trial_index":103,"plugin_version":"2.1.0","time_elapsed":214865,"subject_id":"92504","group":"Group2","condition":"1_Rep","full_date":"2026-02-02T20:12:01.192Z","date":"2026-02-02","time":"20:12:01"},{"rt":null,"stimulus":"<p style=\"font-size: 50px; margin: 0; text-align: center;\">+</p>","response":null,"trial_type":"html-keyboard-response","trial_index":104,"plugin_version":"2.1.0","time_elapsed":215868,"subject_id":"92504","group":"Group2","condition":"1_Rep","full_date":"2026-02-02T20:12:01.192Z","date":"2026-02-02","time":"20:12:01"},{"task":"memory_phase","broad_category":"M","image_png":"M_Phyllite_13.png","image_id":269,"category_name":"Phyllite","category":17,"distinct_rating":2.8,"distinct_type":"Bottom","rt":null,"stimulus":"Stimuli_Rocks480/M_Phyllite_13.png","response":null,"trial_type":"image-keyboard-response","trial_index":105,"plugin_version":"2.1.0","time_elapsed":218372,"subject_id":"92504","group":"Group2","condition":"1_Rep","full_date":"2026-02-02T20:12:01.192Z","date":"2026-02-02","time":"20:12:01"},{"rt":1448,"stimulus":"<div style=\"max-width: 760px; margin: auto; font-size: 20px; line-height: 1.5;\">\n      <h1 style=\"text-align:center; font-size: 30px;\">Instructions for the Test Phase</h1>\n      <p>\n        The study phase is now complete.\n      </p>\n      <p>\n        In the test phase, you will again see a series of rock images. \n        Some will be ones you saw before - during the study phase, while others will be new.  \n        <b>Your task</b> is to decide whether you have seen each image before by pressing the corresponding key on your keyboard:<br><br>\n          <b>A</b> - NO (you did not see this image before)<br>\n          <b>L</b> - YES (you saw this image before)<br><br>\n        The test will proceed at your own pace. You will receive feedback after each response.  \n        Please try to respond <b>as accurately as possible</b>.\n      </p>\n      <p>\n        <b>Reminder:</b> If your computer has multiple language settings (e.g., English and another language),\n        please ensure it is set to English during the test phase.\n      </p>\n      <p>\n        You can track your progress using the <b>completion bar</b> at the top of the screen.  \n        Note that it has been refreshed to reflect your progress during this final phase.\n      </p>\n      <p>\n        Press the button below when you are ready to continue.\n      </p>\n    </div>","response":0,"trial_type":"html-button-response","trial_index":106,"plugin_version":"2.1.0","time_elapsed":219822,"subject_id":"92504","group":"Group2","condition":"1_Rep","full_date":"2026-02-02T20:12:01.192Z","date":"2026-02-02","time":"20:12:01"},{"correct_response":"a","task":"test_phase","broad_category":"I","image_png":"I_Pegmatite_10.png","image_id":106,"category_name":"Pegmatite","category":7,"distinct_rating":7.66,"distinct_type":"Top","item_type":"Foil","rt":7885,"stimulus":"Stimuli_Rocks480/I_Pegmatite_10.png","response":"a","trial_type":"image-keyboard-response","trial_index":107,"plugin_version":"2.1.0","time_elapsed":227712,"subject_id":"92504","group":"Group2","condition":"1_Rep","full_date":"2026-02-02T20:12:01.192Z","date":"2026-02-02","time":"20:12:01","cor_ans":true},{"trial_type":"html-keyboard-response","rt":null,"stimulus":"<p style=\"color: green; font-size: 50px; font-weight: bold;\">Correct</p>","response":null,"trial_index":108,"plugin_version":"2.1.0","time_elapsed":228215,"subject_id":"92504","group":"Group2","condition":"1_Rep","full_date":"2026-02-02T20:12:01.192Z","date":"2026-02-02","time":"20:12:01"},{"correct_response":"a","task":"test_phase","broad_category":"M","image_png":"M_Quartzite_05.png","image_id":277,"category_name":"Quartzite","category":18,"distinct_rating":2.23,"distinct_type":"Bottom","item_type":"Foil","rt":2732,"stimulus":"Stimuli_Rocks480/M_Quartzite_05.png","response":"l","trial_type":"image-keyboard-response","trial_index":109,"plugin_version":"2.1.0","time_elapsed":230950,"subject_id":"92504","group":"Group2","condition":"1_Rep","full_date":"2026-02-02T20:12:01.192Z","date":"2026-02-02","time":"20:12:01","cor_ans":false},{"trial_type":"html-keyboard-response","rt":null,"stimulus":"<p style=\"color: red; font-size: 50px; font-weight: bold;\">Incorrect</p>","response":null,"trial_index":110,"plugin_version":"2.1.0","time_elapsed":231451,"subject_id":"92504","group":"Group2","condition":"1_Rep","full_date":"2026-02-02T20:12:01.192Z","date":"2026-02-02","time":"20:12:01"},{"correct_response":"l","task":"test_phase","broad_category":"M","image_png":"M_Slate_10.png","image_id":314,"category_name":"Slate","category":20,"distinct_rating":1.94,"distinct_type":"Bottom","item_type":"Target","rt":2446,"stimulus":"Stimuli_Rocks480/M_Slate_10.png","response":"l","trial_type":"image-keyboard-response","trial_index":111,"plugin_version":"2.1.0","time_elapsed":233900,"subject_id":"92504","group":"Group2","condition":"1_Rep","full_date":"2026-02-02T20:12:01.192Z","date":"2026-02-02","time":"20:12:01","cor_ans":true},{"trial_type":"html-keyboard-response","rt":null,"stimulus":"<p style=\"color: green; font-size: 50px; font-weight: bold;\">Correct</p>","response":null,"trial_index":112,"plugin_version":"2.1.0","time_elapsed":234401,"subject_id":"92504","group":"Group2","condition":"1_Rep","full_date":"2026-02-02T20:12:01.192Z","date":"2026-02-02","time":"20:12:01"},{"correct_response":"l","task":"test_phase","broad_category":"I","image_png":"I_Pumice_13.png","image_id":141,"category_name":"Pumice","category":9,"distinct_rating":3.12,"distinct_type":"Bottom","item_type":"Target","rt":1262,"stimulus":"Stimuli_Rocks480/I_Pumice_13.png","response":"l","trial_type":"image-keyboard-response","trial_index":113,"plugin_version":"2.1.0","time_elapsed":235666,"subject_id":"92504","group":"Group2","condition":"1_Rep","full_date":"2026-02-02T20:12:01.192Z","date":"2026-02-02","time":"20:12:01","cor_ans":true},{"trial_type":"html-keyboard-response","rt":null,"stimulus":"<p style=\"color: green; font-size: 50px; font-weight: bold;\">Correct</p>","response":null,"trial_index":114,"plugin_version":"2.1.0","time_elapsed":236167,"subject_id":"92504","group":"Group2","condition":"1_Rep","full_date":"2026-02-02T20:12:01.192Z","date":"2026-02-02","time":"20:12:01"},{"correct_response":"l","task":"test_phase","broad_category":"I","image_png":"I_Andesite_03.png","image_id":3,"category_name":"Andesite","category":1,"distinct_rating":3.17,"distinct_type":"Bottom","item_type":"Target","rt":1201,"stimulus":"Stimuli_Rocks480/I_Andesite_03.png","response":"l","trial_type":"image-keyboard-response","trial_index":115,"plugin_version":"2.1.0","time_elapsed":237371,"subject_id":"92504","group":"Group2","condition":"1_Rep","full_date":"2026-02-02T20:12:01.192Z","date":"2026-02-02","time":"20:12:01","cor_ans":true},{"trial_type":"html-keyboard-response","rt":null,"stimulus":"<p style=\"color: green; font-size: 50px; font-weight: bold;\">Correct</p>","response":null,"trial_index":116,"plugin_version":"2.1.0","time_elapsed":237873,"subject_id":"92504","group":"Group2","condition":"1_Rep","full_date":"2026-02-02T20:12:01.192Z","date":"2026-02-02","time":"20:12:01"},{"correct_response":"l","task":"test_phase","broad_category":"S","image_png":"S_Dolomite_01.png","image_id":385,"category_name":"Dolomite","category":25,"distinct_rating":1.43,"distinct_type":"Bottom","item_type":"Target","rt":945,"stimulus":"Stimuli_Rocks480/S_Dolomite_01.png","response":"l","trial_type":"image-keyboard-response","trial_index":117,"plugin_version":"2.1.0","time_elapsed":238820,"subject_id":"92504","group":"Group2","condition":"1_Rep","full_date":"2026-02-02T20:12:01.192Z","date":"2026-02-02","time":"20:12:01","cor_ans":true},{"trial_type":"html-keyboard-response","rt":null,"stimulus":"<p style=\"color: green; font-size: 50px; font-weight: bold;\">Correct</p>","response":null,"trial_index":118,"plugin_version":"2.1.0","time_elapsed":239323,"subject_id":"92504","group":"Group2","condition":"1_Rep","full_date":"2026-02-02T20:12:01.192Z","date":"2026-02-02","time":"20:12:01"},{"correct_response":"l","task":"test_phase","broad_category":"I","image_png":"I_Pegmatite_11.png","image_id":107,"category_name":"Pegmatite","category":7,"distinct_rating":7.11,"distinct_type":"Top","item_type":"Target","rt":1012,"stimulus":"Stimuli_Rocks480/I_Pegmatite_11.png","response":"l","trial_type":"image-keyboard-response","trial_index":119,"plugin_version":"2.1.0","time_elapsed":240338,"subject_id":"92504","group":"Group2","condition":"1_Rep","full_date":"2026-02-02T20:12:01.192Z","date":"2026-02-02","time":"20:12:01","cor_ans":true},{"trial_type":"html-keyboard-response","rt":null,"stimulus":"<p style=\"color: green; font-size: 50px; font-weight: bold;\">Correct</p>","response":null,"trial_index":120,"plugin_version":"2.1.0","time_elapsed":240839,"subject_id":"92504","group":"Group2","condition":"1_Rep","full_date":"2026-02-02T20:12:01.192Z","date":"2026-02-02","time":"20:12:01"},{"correct_response":"a","task":"test_phase","broad_category":"M","image_png":"M_Phyllite_07.png","image_id":263,"category_name":"Phyllite","category":17,"distinct_rating":2.59,"distinct_type":"Bottom","item_type":"Foil","rt":2538,"stimulus":"Stimuli_Rocks480/M_Phyllite_07.png","response":"a","trial_type":"image-keyboard-response","trial_index":121,"plugin_version":"2.1.0","time_elapsed":243385,"subject_id":"92504","group":"Group2","condition":"1_Rep","full_date":"2026-02-02T20:12:01.192Z","date":"2026-02-02","time":"20:12:01","cor_ans":true},{"trial_type":"html-keyboard-response","rt":null,"stimulus":"<p style=\"color: green; font-size: 50px; font-weight: bold;\">Correct</p>","response":null,"trial_index":122,"plugin_version":"2.1.0","time_elapsed":243886,"subject_id":"92504","group":"Group2","condition":"1_Rep","full_date":"2026-02-02T20:12:01.192Z","date":"2026-02-02","time":"20:12:01"},{"correct_response":"a","task":"test_phase","broad_category":"M","image_png":"M_Quartzite_13.png","image_id":285,"category_name":"Quartzite","category":18,"distinct_rating":2.27,"distinct_type":"Bottom","item_type":"Foil","rt":1619,"stimulus":"Stimuli_Rocks480/M_Quartzite_13.png","response":"l","trial_type":"image-keyboard-response","trial_index":123,"plugin_version":"2.1.0","time_elapsed":245507,"subject_id":"92504","group":"Group2","condition":"1_Rep","full_date":"2026-02-02T20:12:01.192Z","date":"2026-02-02","time":"20:12:01","cor_ans":false},{"trial_type":"html-keyboard-response","rt":null,"stimulus":"<p style=\"color: red; font-size: 50px; font-weight: bold;\">Incorrect</p>","response":null,"trial_index":124,"plugin_version":"2.1.0","time_elapsed":246009,"subject_id":"92504","group":"Group2","condition":"1_Rep","full_date":"2026-02-02T20:12:01.192Z","date":"2026-02-02","time":"20:12:01"},{"correct_response":"l","task":"test_phase","broad_category":"M","image_png":"M_Slate_14.png","image_id":318,"category_name":"Slate","category":20,"distinct_rating":2.58,"distinct_type":"Bottom","item_type":"Target","rt":1286,"stimulus":"Stimuli_Rocks480/M_Slate_14.png","response":"l","trial_type":"image-keyboard-response","trial_index":125,"plugin_version":"2.1.0","time_elapsed":247297,"subject_id":"92504","group":"Group2","condition":"1_Rep","full_date":"2026-02-02T20:12:01.192Z","date":"2026-02-02","time":"20:12:01","cor_ans":true},{"trial_type":"html-keyboard-response","rt":null,"stimulus":"<p style=\"color: green; font-size: 50px; font-weight: bold;\">Correct</p>","response":null,"trial_index":126,"plugin_version":"2.1.0","time_elapsed":247799,"subject_id":"92504","group":"Group2","condition":"1_Rep","full_date":"2026-02-02T20:12:01.192Z","date":"2026-02-02","time":"20:12:01"},{"correct_response":"l","task":"test_phase","broad_category":"I","image_png":"I_Gabbro_12.png","image_id":60,"category_name":"Gabbro","category":4,"distinct_rating":2.6,"distinct_type":"Bottom","item_type":"Target","rt":827,"stimulus":"Stimuli_Rocks480/I_Gabbro_12.png","response":"l","trial_type":"image-keyboard-response","trial_index":127,"plugin_version":"2.1.0","time_elapsed":248628,"subject_id":"92504","group":"Group2","condition":"1_Rep","full_date":"2026-02-02T20:12:01.192Z","date":"2026-02-02","time":"20:12:01","cor_ans":true},{"trial_type":"html-keyboard-response","rt":null,"stimulus":"<p style=\"color: green; font-size: 50px; font-weight: bold;\">Correct</p>","response":null,"trial_index":128,"plugin_version":"2.1.0","time_elapsed":249130,"subject_id":"92504","group":"Group2","condition":"1_Rep","full_date":"2026-02-02T20:12:01.192Z","date":"2026-02-02","time":"20:12:01"},{"correct_response":"a","task":"test_phase","broad_category":"M","image_png":"M_Slate_11.png","image_id":315,"category_name":"Slate","category":20,"distinct_rating":2.75,"distinct_type":"Bottom","item_type":"Foil","rt":710,"stimulus":"Stimuli_Rocks480/M_Slate_11.png","response":"l","trial_type":"image-keyboard-response","trial_index":129,"plugin_version":"2.1.0","time_elapsed":249842,"subject_id":"92504","group":"Group2","condition":"1_Rep","full_date":"2026-02-02T20:12:01.192Z","date":"2026-02-02","time":"20:12:01","cor_ans":false},{"trial_type":"html-keyboard-response","rt":null,"stimulus":"<p style=\"color: red; font-size: 50px; font-weight: bold;\">Incorrect</p>","response":null,"trial_index":130,"plugin_version":"2.1.0","time_elapsed":250344,"subject_id":"92504","group":"Group2","condition":"1_Rep","full_date":"2026-02-02T20:12:01.192Z","date":"2026-02-02","time":"20:12:01"},{"correct_response":"l","task":"test_phase","broad_category":"S","image_png":"S_Shale_07.png","image_id":471,"category_name":"Shale","category":30,"distinct_rating":2.73,"distinct_type":"Bottom","item_type":"Target","rt":1028,"stimulus":"Stimuli_Rocks480/S_Shale_07.png","response":"l","trial_type":"image-keyboard-response","trial_index":131,"plugin_version":"2.1.0","time_elapsed":251374,"subject_id":"92504","group":"Group2","condition":"1_Rep","full_date":"2026-02-02T20:12:01.192Z","date":"2026-02-02","time":"20:12:01","cor_ans":true},{"trial_type":"html-keyboard-response","rt":null,"stimulus":"<p style=\"color: green; font-size: 50px; font-weight: bold;\">Correct</p>","response":null,"trial_index":132,"plugin_version":"2.1.0","time_elapsed":251875,"subject_id":"92504","group":"Group2","condition":"1_Rep","full_date":"2026-02-02T20:12:01.192Z","date":"2026-02-02","time":"20:12:01"},{"correct_response":"a","task":"test_phase","broad_category":"M","image_png":"M_Slate_03.png","image_id":307,"category_name":"Slate","category":20,"distinct_rating":1.87,"distinct_type":"Bottom","item_type":"Foil","rt":1500,"stimulus":"Stimuli_Rocks480/M_Slate_03.png","response":"a","trial_type":"image-keyboard-response","trial_index":133,"plugin_version":"2.1.0","time_elapsed":253378,"subject_id":"92504","group":"Group2","condition":"1_Rep","full_date":"2026-02-02T20:12:01.192Z","date":"2026-02-02","time":"20:12:01","cor_ans":true},{"trial_type":"html-keyboard-response","rt":null,"stimulus":"<p style=\"color: green; font-size: 50px; font-weight: bold;\">Correct</p>","response":null,"trial_index":134,"plugin_version":"2.1.0","time_elapsed":253881,"subject_id":"92504","group":"Group2","condition":"1_Rep","full_date":"2026-02-02T20:12:01.192Z","date":"2026-02-02","time":"20:12:01"},{"correct_response":"l","task":"test_phase","broad_category":"M","image_png":"M_Marble_03.png","image_id":227,"category_name":"Marble","category":15,"distinct_rating":2.67,"distinct_type":"Bottom","item_type":"Target","rt":708,"stimulus":"Stimuli_Rocks480/M_Marble_03.png","response":"l","trial_type":"image-keyboard-response","trial_index":135,"plugin_version":"2.1.0","time_elapsed":254591,"subject_id":"92504","group":"Group2","condition":"1_Rep","full_date":"2026-02-02T20:12:01.192Z","date":"2026-02-02","time":"20:12:01","cor_ans":true},{"trial_type":"html-keyboard-response","rt":null,"stimulus":"<p style=\"color: green; font-size: 50px; font-weight: bold;\">Correct</p>","response":null,"trial_index":136,"plugin_version":"2.1.0","time_elapsed":255093,"subject_id":"92504","group":"Group2","condition":"1_Rep","full_date":"2026-02-02T20:12:01.192Z","date":"2026-02-02","time":"20:12:01"},{"correct_response":"a","task":"test_phase","broad_category":"I","image_png":"I_Pumice_08.png","image_id":136,"category_name":"Pumice","category":9,"distinct_rating":3.1,"distinct_type":"Bottom","item_type":"Foil","rt":945,"stimulus":"Stimuli_Rocks480/I_Pumice_08.png","response":"l","trial_type":"image-keyboard-response","trial_index":137,"plugin_version":"2.1.0","time_elapsed":256040,"subject_id":"92504","group":"Group2","condition":"1_Rep","full_date":"2026-02-02T20:12:01.192Z","date":"2026-02-02","time":"20:12:01","cor_ans":false},{"trial_type":"html-keyboard-response","rt":null,"stimulus":"<p style=\"color: red; font-size: 50px; font-weight: bold;\">Incorrect</p>","response":null,"trial_index":138,"plugin_version":"2.1.0","time_elapsed":256542,"subject_id":"92504","group":"Group2","condition":"1_Rep","full_date":"2026-02-02T20:12:01.192Z","date":"2026-02-02","time":"20:12:01"},{"correct_response":"a","task":"test_phase","broad_category":"S","image_png":"S_Shale_12.png","image_id":476,"category_name":"Shale","category":30,"distinct_rating":2.48,"distinct_type":"Bottom","item_type":"Foil","rt":700,"stimulus":"Stimuli_Rocks480/S_Shale_12.png","response":"l","trial_type":"image-keyboard-response","trial_index":139,"plugin_version":"2.1.0","time_elapsed":257245,"subject_id":"92504","group":"Group2","condition":"1_Rep","full_date":"2026-02-02T20:12:01.192Z","date":"2026-02-02","time":"20:12:01","cor_ans":false},{"trial_type":"html-keyboard-response","rt":null,"stimulus":"<p style=\"color: red; font-size: 50px; font-weight: bold;\">Incorrect</p>","response":null,"trial_index":140,"plugin_version":"2.1.0","time_elapsed":257746,"subject_id":"92504","group":"Group2","condition":"1_Rep","full_date":"2026-02-02T20:12:01.192Z","date":"2026-02-02","time":"20:12:01"},{"correct_response":"a","task":"test_phase","broad_category":"M","image_png":"M_Quartzite_08.png","image_id":280,"category_name":"Quartzite","category":18,"distinct_rating":2.15,"distinct_type":"Bottom","item_type":"Foil","rt":674,"stimulus":"Stimuli_Rocks480/M_Quartzite_08.png","response":"l","trial_type":"image-keyboard-response","trial_index":141,"plugin_version":"2.1.0","time_elapsed":258423,"subject_id":"92504","group":"Group2","condition":"1_Rep","full_date":"2026-02-02T20:12:01.192Z","date":"2026-02-02","time":"20:12:01","cor_ans":false},{"trial_type":"html-keyboard-response","rt":null,"stimulus":"<p style=\"color: red; font-size: 50px; font-weight: bold;\">Incorrect</p>","response":null,"trial_index":142,"plugin_version":"2.1.0","time_elapsed":258924,"subject_id":"92504","group":"Group2","condition":"1_Rep","full_date":"2026-02-02T20:12:01.192Z","date":"2026-02-02","time":"20:12:01"},{"correct_response":"a","task":"test_phase","broad_category":"M","image_png":"M_Gneiss_05.png","image_id":197,"category_name":"Gneiss","category":13,"distinct_rating":2.97,"distinct_type":"Bottom","item_type":"Foil","rt":793,"stimulus":"Stimuli_Rocks480/M_Gneiss_05.png","response":"l","trial_type":"image-keyboard-response","trial_index":143,"plugin_version":"2.1.0","time_elapsed":259719,"subject_id":"92504","group":"Group2","condition":"1_Rep","full_date":"2026-02-02T20:12:01.192Z","date":"2026-02-02","time":"20:12:01","cor_ans":false},{"trial_type":"html-keyboard-response","rt":null,"stimulus":"<p style=\"color: red; font-size: 50px; font-weight: bold;\">Incorrect</p>","response":null,"trial_index":144,"plugin_version":"2.1.0","time_elapsed":260221,"subject_id":"92504","group":"Group2","condition":"1_Rep","full_date":"2026-02-02T20:12:01.192Z","date":"2026-02-02","time":"20:12:01"},{"correct_response":"a","task":"test_phase","broad_category":"M","image_png":"M_Marble_04.png","image_id":228,"category_name":"Marble","category":15,"distinct_rating":3.15,"distinct_type":"Bottom","item_type":"Foil","rt":1296,"stimulus":"Stimuli_Rocks480/M_Marble_04.png","response":"l","trial_type":"image-keyboard-response","trial_index":145,"plugin_version":"2.1.0","time_elapsed":261519,"subject_id":"92504","group":"Group2","condition":"1_Rep","full_date":"2026-02-02T20:12:01.192Z","date":"2026-02-02","time":"20:12:01","cor_ans":false},{"trial_type":"html-keyboard-response","rt":null,"stimulus":"<p style=\"color: red; font-size: 50px; font-weight: bold;\">Incorrect</p>","response":null,"trial_index":146,"plugin_version":"2.1.0","time_elapsed":262021,"subject_id":"92504","group":"Group2","condition":"1_Rep","full_date":"2026-02-02T20:12:01.192Z","date":"2026-02-02","time":"20:12:01"},{"correct_response":"a","task":"test_phase","broad_category":"M","image_png":"M_Slate_15.png","image_id":319,"category_name":"Slate","category":20,"distinct_rating":2.13,"distinct_type":"Bottom","item_type":"Foil","rt":814,"stimulus":"Stimuli_Rocks480/M_Slate_15.png","response":"l","trial_type":"image-keyboard-response","trial_index":147,"plugin_version":"2.1.0","time_elapsed":262837,"subject_id":"92504","group":"Group2","condition":"1_Rep","full_date":"2026-02-02T20:12:01.192Z","date":"2026-02-02","time":"20:12:01","cor_ans":false},{"trial_type":"html-keyboard-response","rt":null,"stimulus":"<p style=\"color: red; font-size: 50px; font-weight: bold;\">Incorrect</p>","response":null,"trial_index":148,"plugin_version":"2.1.0","time_elapsed":263338,"subject_id":"92504","group":"Group2","condition":"1_Rep","full_date":"2026-02-02T20:12:01.192Z","date":"2026-02-02","time":"20:12:01"},{"correct_response":"a","task":"test_phase","broad_category":"M","image_png":"M_Phyllite_03.png","image_id":259,"category_name":"Phyllite","category":17,"distinct_rating":2.5,"distinct_type":"Bottom","item_type":"Foil","rt":1202,"stimulus":"Stimuli_Rocks480/M_Phyllite_03.png","response":"a","trial_type":"image-keyboard-response","trial_index":149,"plugin_version":"2.1.0","time_elapsed":264543,"subject_id":"92504","group":"Group2","condition":"1_Rep","full_date":"2026-02-02T20:12:01.192Z","date":"2026-02-02","time":"20:12:01","cor_ans":true},{"trial_type":"html-keyboard-response","rt":null,"stimulus":"<p style=\"color: green; font-size: 50px; font-weight: bold;\">Correct</p>","response":null,"trial_index":150,"plugin_version":"2.1.0","time_elapsed":265044,"subject_id":"92504","group":"Group2","condition":"1_Rep","full_date":"2026-02-02T20:12:01.192Z","date":"2026-02-02","time":"20:12:01"},{"correct_response":"l","task":"test_phase","broad_category":"M","image_png":"M_Phyllite_02.png","image_id":258,"category_name":"Phyllite","category":17,"distinct_rating":2.89,"distinct_type":"Bottom","item_type":"Target","rt":1262,"stimulus":"Stimuli_Rocks480/M_Phyllite_02.png","response":"l","trial_type":"image-keyboard-response","trial_index":151,"plugin_version":"2.1.0","time_elapsed":266308,"subject_id":"92504","group":"Group2","condition":"1_Rep","full_date":"2026-02-02T20:12:01.192Z","date":"2026-02-02","time":"20:12:01","cor_ans":true},{"trial_type":"html-keyboard-response","rt":null,"stimulus":"<p style=\"color: green; font-size: 50px; font-weight: bold;\">Correct</p>","response":null,"trial_index":152,"plugin_version":"2.1.0","time_elapsed":266810,"subject_id":"92504","group":"Group2","condition":"1_Rep","full_date":"2026-02-02T20:12:01.192Z","date":"2026-02-02","time":"20:12:01"},{"correct_response":"l","task":"test_phase","broad_category":"S","image_png":"S_Chert_13.png","image_id":365,"category_name":"Chert","category":23,"distinct_rating":6.57,"distinct_type":"Top","item_type":"Target","rt":985,"stimulus":"Stimuli_Rocks480/S_Chert_13.png","response":"l","trial_type":"image-keyboard-response","trial_index":153,"plugin_version":"2.1.0","time_elapsed":267797,"subject_id":"92504","group":"Group2","condition":"1_Rep","full_date":"2026-02-02T20:12:01.192Z","date":"2026-02-02","time":"20:12:01","cor_ans":true},{"trial_type":"html-keyboard-response","rt":null,"stimulus":"<p style=\"color: green; font-size: 50px; font-weight: bold;\">Correct</p>","response":null,"trial_index":154,"plugin_version":"2.1.0","time_elapsed":268298,"subject_id":"92504","group":"Group2","condition":"1_Rep","full_date":"2026-02-02T20:12:01.192Z","date":"2026-02-02","time":"20:12:01"},{"correct_response":"a","task":"test_phase","broad_category":"I","image_png":"I_Rhyolite_14.png","image_id":158,"category_name":"Rhyolite","category":10,"distinct_rating":2.59,"distinct_type":"Bottom","item_type":"Foil","rt":962,"stimulus":"Stimuli_Rocks480/I_Rhyolite_14.png","response":"l","trial_type":"image-keyboard-response","trial_index":155,"plugin_version":"2.1.0","time_elapsed":269262,"subject_id":"92504","group":"Group2","condition":"1_Rep","full_date":"2026-02-02T20:12:01.192Z","date":"2026-02-02","time":"20:12:01","cor_ans":false},{"trial_type":"html-keyboard-response","rt":null,"stimulus":"<p style=\"color: red; font-size: 50px; font-weight: bold;\">Incorrect</p>","response":null,"trial_index":156,"plugin_version":"2.1.0","time_elapsed":269764,"subject_id":"92504","group":"Group2","condition":"1_Rep","full_date":"2026-02-02T20:12:01.192Z","date":"2026-02-02","time":"20:12:01"},{"correct_response":"a","task":"test_phase","broad_category":"S","image_png":"S_Sandstone_16.png","image_id":464,"category_name":"Sandstone","category":29,"distinct_rating":1.93,"distinct_type":"Bottom","item_type":"Foil","rt":950,"stimulus":"Stimuli_Rocks480/S_Sandstone_16.png","response":"a","trial_type":"image-keyboard-response","trial_index":157,"plugin_version":"2.1.0","time_elapsed":270716,"subject_id":"92504","group":"Group2","condition":"1_Rep","full_date":"2026-02-02T20:12:01.192Z","date":"2026-02-02","time":"20:12:01","cor_ans":true},{"trial_type":"html-keyboard-response","rt":null,"stimulus":"<p style=\"color: green; font-size: 50px; font-weight: bold;\">Correct</p>","response":null,"trial_index":158,"plugin_version":"2.1.0","time_elapsed":271217,"subject_id":"92504","group":"Group2","condition":"1_Rep","full_date":"2026-02-02T20:12:01.192Z","date":"2026-02-02","time":"20:12:01"},{"correct_response":"l","task":"test_phase","broad_category":"M","image_png":"M_Phyllite_05.png","image_id":261,"category_name":"Phyllite","category":17,"distinct_rating":2.14,"distinct_type":"Bottom","item_type":"Target","rt":1055,"stimulus":"Stimuli_Rocks480/M_Phyllite_05.png","response":"a","trial_type":"image-keyboard-response","trial_index":159,"plugin_version":"2.1.0","time_elapsed":272275,"subject_id":"92504","group":"Group2","condition":"1_Rep","full_date":"2026-02-02T20:12:01.192Z","date":"2026-02-02","time":"20:12:01","cor_ans":false},{"trial_type":"html-keyboard-response","rt":null,"stimulus":"<p style=\"color: red; font-size: 50px; font-weight: bold;\">Incorrect</p>","response":null,"trial_index":160,"plugin_version":"2.1.0","time_elapsed":272777,"subject_id":"92504","group":"Group2","condition":"1_Rep","full_date":"2026-02-02T20:12:01.192Z","date":"2026-02-02","time":"20:12:01"},{"correct_response":"a","task":"test_phase","broad_category":"I","image_png":"I_Obsidian_05.png","image_id":85,"category_name":"Obsidian","category":6,"distinct_rating":7.32,"distinct_type":"Top","item_type":"Foil","rt":1034,"stimulus":"Stimuli_Rocks480/I_Obsidian_05.png","response":"a","trial_type":"image-keyboard-response","trial_index":161,"plugin_version":"2.1.0","time_elapsed":273814,"subject_id":"92504","group":"Group2","condition":"1_Rep","full_date":"2026-02-02T20:12:01.192Z","date":"2026-02-02","time":"20:12:01","cor_ans":true},{"trial_type":"html-keyboard-response","rt":null,"stimulus":"<p style=\"color: green; font-size: 50px; font-weight: bold;\">Correct</p>","response":null,"trial_index":162,"plugin_version":"2.1.0","time_elapsed":274315,"subject_id":"92504","group":"Group2","condition":"1_Rep","full_date":"2026-02-02T20:12:01.192Z","date":"2026-02-02","time":"20:12:01"},{"correct_response":"l","task":"test_phase","broad_category":"M","image_png":"M_Phyllite_13.png","image_id":269,"category_name":"Phyllite","category":17,"distinct_rating":2.8,"distinct_type":"Bottom","item_type":"Target","rt":980,"stimulus":"Stimuli_Rocks480/M_Phyllite_13.png","response":"l","trial_type":"image-keyboard-response","trial_index":163,"plugin_version":"2.1.0","time_elapsed":275297,"subject_id":"92504","group":"Group2","condition":"1_Rep","full_date":"2026-02-02T20:12:01.192Z","date":"2026-02-02","time":"20:12:01","cor_ans":true},{"trial_type":"html-keyboard-response","rt":null,"stimulus":"<p style=\"color: green; font-size: 50px; font-weight: bold;\">Correct</p>","response":null,"trial_index":164,"plugin_version":"2.1.0","time_elapsed":275798,"subject_id":"92504","group":"Group2","condition":"1_Rep","full_date":"2026-02-02T20:12:01.192Z","date":"2026-02-02","time":"20:12:01"},{"correct_response":"l","task":"test_phase","broad_category":"S","image_png":"S_Dolomite_07.png","image_id":391,"category_name":"Dolomite","category":25,"distinct_rating":1.73,"distinct_type":"Bottom","item_type":"Target","rt":664,"stimulus":"Stimuli_Rocks480/S_Dolomite_07.png","response":"l","trial_type":"image-keyboard-response","trial_index":165,"plugin_version":"2.1.0","time_elapsed":276464,"subject_id":"92504","group":"Group2","condition":"1_Rep","full_date":"2026-02-02T20:12:01.192Z","date":"2026-02-02","time":"20:12:01","cor_ans":true},{"trial_type":"html-keyboard-response","rt":null,"stimulus":"<p style=\"color: green; font-size: 50px; font-weight: bold;\">Correct</p>","response":null,"trial_index":166,"plugin_version":"2.1.0","time_elapsed":276965,"subject_id":"92504","group":"Group2","condition":"1_Rep","full_date":"2026-02-02T20:12:01.192Z","date":"2026-02-02","time":"20:12:01"},{"correct_response":"a","task":"test_phase","broad_category":"M","image_png":"M_Gneiss_06.png","image_id":198,"category_name":"Gneiss","category":13,"distinct_rating":2.65,"distinct_type":"Bottom","item_type":"Foil","rt":794,"stimulus":"Stimuli_Rocks480/M_Gneiss_06.png","response":"l","trial_type":"image-keyboard-response","trial_index":167,"plugin_version":"2.1.0","time_elapsed":277762,"subject_id":"92504","group":"Group2","condition":"1_Rep","full_date":"2026-02-02T20:12:01.192Z","date":"2026-02-02","time":"20:12:01","cor_ans":false},{"trial_type":"html-keyboard-response","rt":null,"stimulus":"<p style=\"color: red; font-size: 50px; font-weight: bold;\">Incorrect</p>","response":null,"trial_index":168,"plugin_version":"2.1.0","time_elapsed":278263,"subject_id":"92504","group":"Group2","condition":"1_Rep","full_date":"2026-02-02T20:12:01.192Z","date":"2026-02-02","time":"20:12:01"},{"correct_response":"l","task":"test_phase","broad_category":"I","image_png":"I_Obsidian_06.png","image_id":86,"category_name":"Obsidian","category":6,"distinct_rating":8.01,"distinct_type":"Top","item_type":"Target","rt":664,"stimulus":"Stimuli_Rocks480/I_Obsidian_06.png","response":"l","trial_type":"image-keyboard-response","trial_index":169,"plugin_version":"2.1.0","time_elapsed":278929,"subject_id":"92504","group":"Group2","condition":"1_Rep","full_date":"2026-02-02T20:12:01.192Z","date":"2026-02-02","time":"20:12:01","cor_ans":true},{"trial_type":"html-keyboard-response","rt":null,"stimulus":"<p style=\"color: green; font-size: 50px; font-weight: bold;\">Correct</p>","response":null,"trial_index":170,"plugin_version":"2.1.0","time_elapsed":279430,"subject_id":"92504","group":"Group2","condition":"1_Rep","full_date":"2026-02-02T20:12:01.192Z","date":"2026-02-02","time":"20:12:01"},{"correct_response":"l","task":"test_phase","broad_category":"M","image_png":"M_Quartzite_07.png","image_id":279,"category_name":"Quartzite","category":18,"distinct_rating":1.97,"distinct_type":"Bottom","item_type":"Target","rt":1126,"stimulus":"Stimuli_Rocks480/M_Quartzite_07.png","response":"l","trial_type":"image-keyboard-response","trial_index":171,"plugin_version":"2.1.0","time_elapsed":280557,"subject_id":"92504","group":"Group2","condition":"1_Rep","full_date":"2026-02-02T20:12:01.192Z","date":"2026-02-02","time":"20:12:01","cor_ans":true},{"trial_type":"html-keyboard-response","rt":null,"stimulus":"<p style=\"color: green; font-size: 50px; font-weight: bold;\">Correct</p>","response":null,"trial_index":172,"plugin_version":"2.1.0","time_elapsed":281059,"subject_id":"92504","group":"Group2","condition":"1_Rep","full_date":"2026-02-02T20:12:01.192Z","date":"2026-02-02","time":"20:12:01"},{"correct_response":"l","task":"test_phase","broad_category":"M","image_png":"M_Quartzite_15.png","image_id":287,"category_name":"Quartzite","category":18,"distinct_rating":2.19,"distinct_type":"Bottom","item_type":"Target","rt":824,"stimulus":"Stimuli_Rocks480/M_Quartzite_15.png","response":"l","trial_type":"image-keyboard-response","trial_index":173,"plugin_version":"2.1.0","time_elapsed":281885,"subject_id":"92504","group":"Group2","condition":"1_Rep","full_date":"2026-02-02T20:12:01.192Z","date":"2026-02-02","time":"20:12:01","cor_ans":true},{"trial_type":"html-keyboard-response","rt":null,"stimulus":"<p style=\"color: green; font-size: 50px; font-weight: bold;\">Correct</p>","response":null,"trial_index":174,"plugin_version":"2.1.0","time_elapsed":282387,"subject_id":"92504","group":"Group2","condition":"1_Rep","full_date":"2026-02-02T20:12:01.192Z","date":"2026-02-02","time":"20:12:01"},{"correct_response":"l","task":"test_phase","broad_category":"M","image_png":"M_Gneiss_15.png","image_id":207,"category_name":"Gneiss","category":13,"distinct_rating":3.11,"distinct_type":"Bottom","item_type":"Target","rt":985,"stimulus":"Stimuli_Rocks480/M_Gneiss_15.png","response":"a","trial_type":"image-keyboard-response","trial_index":175,"plugin_version":"2.1.0","time_elapsed":283374,"subject_id":"92504","group":"Group2","condition":"1_Rep","full_date":"2026-02-02T20:12:01.192Z","date":"2026-02-02","time":"20:12:01","cor_ans":false},{"trial_type":"html-keyboard-response","rt":null,"stimulus":"<p style=\"color: red; font-size: 50px; font-weight: bold;\">Incorrect</p>","response":null,"trial_index":176,"plugin_version":"2.1.0","time_elapsed":283875,"subject_id":"92504","group":"Group2","condition":"1_Rep","full_date":"2026-02-02T20:12:01.192Z","date":"2026-02-02","time":"20:12:01"},{"correct_response":"l","task":"test_phase","broad_category":"M","image_png":"M_Gneiss_10.png","image_id":202,"category_name":"Gneiss","category":13,"distinct_rating":3.09,"distinct_type":"Bottom","item_type":"Target","rt":938,"stimulus":"Stimuli_Rocks480/M_Gneiss_10.png","response":"l","trial_type":"image-keyboard-response","trial_index":177,"plugin_version":"2.1.0","time_elapsed":284816,"subject_id":"92504","group":"Group2","condition":"1_Rep","full_date":"2026-02-02T20:12:01.192Z","date":"2026-02-02","time":"20:12:01","cor_ans":true},{"trial_type":"html-keyboard-response","rt":null,"stimulus":"<p style=\"color: green; font-size: 50px; font-weight: bold;\">Correct</p>","response":null,"trial_index":178,"plugin_version":"2.1.0","time_elapsed":285317,"subject_id":"92504","group":"Group2","condition":"1_Rep","full_date":"2026-02-02T20:12:01.192Z","date":"2026-02-02","time":"20:12:01"},{"correct_response":"a","task":"test_phase","broad_category":"I","image_png":"I_Andesite_10.png","image_id":10,"category_name":"Andesite","category":1,"distinct_rating":3.15,"distinct_type":"Bottom","item_type":"Foil","rt":908,"stimulus":"Stimuli_Rocks480/I_Andesite_10.png","response":"a","trial_type":"image-keyboard-response","trial_index":179,"plugin_version":"2.1.0","time_elapsed":286228,"subject_id":"92504","group":"Group2","condition":"1_Rep","full_date":"2026-02-02T20:12:01.192Z","date":"2026-02-02","time":"20:12:01","cor_ans":true},{"trial_type":"html-keyboard-response","rt":null,"stimulus":"<p style=\"color: green; font-size: 50px; font-weight: bold;\">Correct</p>","response":null,"trial_index":180,"plugin_version":"2.1.0","time_elapsed":286729,"subject_id":"92504","group":"Group2","condition":"1_Rep","full_date":"2026-02-02T20:12:01.192Z","date":"2026-02-02","time":"20:12:01"},{"correct_response":"a","task":"test_phase","broad_category":"I","image_png":"I_Diorite_03.png","image_id":35,"category_name":"Diorite","category":3,"distinct_rating":3.14,"distinct_type":"Bottom","item_type":"Foil","rt":712,"stimulus":"Stimuli_Rocks480/I_Diorite_03.png","response":"l","trial_type":"image-keyboard-response","trial_index":181,"plugin_version":"2.1.0","time_elapsed":287444,"subject_id":"92504","group":"Group2","condition":"1_Rep","full_date":"2026-02-02T20:12:01.192Z","date":"2026-02-02","time":"20:12:01","cor_ans":false},{"trial_type":"html-keyboard-response","rt":null,"stimulus":"<p style=\"color: red; font-size: 50px; font-weight: bold;\">Incorrect</p>","response":null,"trial_index":182,"plugin_version":"2.1.0","time_elapsed":287946,"subject_id":"92504","group":"Group2","condition":"1_Rep","full_date":"2026-02-02T20:12:01.192Z","date":"2026-02-02","time":"20:12:01"},{"correct_response":"a","task":"test_phase","broad_category":"I","image_png":"I_Andesite_08.png","image_id":8,"category_name":"Andesite","category":1,"distinct_rating":1.95,"distinct_type":"Bottom","item_type":"Foil","rt":4137,"stimulus":"Stimuli_Rocks480/I_Andesite_08.png","response":"l","trial_type":"image-keyboard-response","trial_index":183,"plugin_version":"2.1.0","time_elapsed":292084,"subject_id":"92504","group":"Group2","condition":"1_Rep","full_date":"2026-02-02T20:12:01.192Z","date":"2026-02-02","time":"20:12:01","cor_ans":false},{"trial_type":"html-keyboard-response","rt":null,"stimulus":"<p style=\"color: red; font-size: 50px; font-weight: bold;\">Incorrect</p>","response":null,"trial_index":184,"plugin_version":"2.1.0","time_elapsed":292586,"subject_id":"92504","group":"Group2","condition":"1_Rep","full_date":"2026-02-02T20:12:01.192Z","date":"2026-02-02","time":"20:12:01"},{"correct_response":"a","task":"test_phase","broad_category":"I","image_png":"I_Rhyolite_16.png","image_id":160,"category_name":"Rhyolite","category":10,"distinct_rating":2.19,"distinct_type":"Bottom","item_type":"Foil","rt":1146,"stimulus":"Stimuli_Rocks480/I_Rhyolite_16.png","response":"a","trial_type":"image-keyboard-response","trial_index":185,"plugin_version":"2.1.0","time_elapsed":293734,"subject_id":"92504","group":"Group2","condition":"1_Rep","full_date":"2026-02-02T20:12:01.192Z","date":"2026-02-02","time":"20:12:01","cor_ans":true},{"trial_type":"html-keyboard-response","rt":null,"stimulus":"<p style=\"color: green; font-size: 50px; font-weight: bold;\">Correct</p>","response":null,"trial_index":186,"plugin_version":"2.1.0","time_elapsed":294236,"subject_id":"92504","group":"Group2","condition":"1_Rep","full_date":"2026-02-02T20:12:01.192Z","date":"2026-02-02","time":"20:12:01"},{"correct_response":"l","task":"test_phase","broad_category":"S","image_png":"S_Conglomerate_14.png","image_id":382,"category_name":"Conglomerate","category":24,"distinct_rating":6.86,"distinct_type":"Top","item_type":"Target","rt":741,"stimulus":"Stimuli_Rocks480/S_Conglomerate_14.png","response":"l","trial_type":"image-keyboard-response","trial_index":187,"plugin_version":"2.1.0","time_elapsed":294979,"subject_id":"92504","group":"Group2","condition":"1_Rep","full_date":"2026-02-02T20:12:01.192Z","date":"2026-02-02","time":"20:12:01","cor_ans":true},{"trial_type":"html-keyboard-response","rt":null,"stimulus":"<p style=\"color: green; font-size: 50px; font-weight: bold;\">Correct</p>","response":null,"trial_index":188,"plugin_version":"2.1.0","time_elapsed":295481,"subject_id":"92504","group":"Group2","condition":"1_Rep","full_date":"2026-02-02T20:12:01.192Z","date":"2026-02-02","time":"20:12:01"},{"correct_response":"l","task":"test_phase","broad_category":"I","image_png":"I_Basalt_13.png","image_id":29,"category_name":"Basalt","category":2,"distinct_rating":2.68,"distinct_type":"Bottom","item_type":"Target","rt":1460,"stimulus":"Stimuli_Rocks480/I_Basalt_13.png","response":"l","trial_type":"image-keyboard-response","trial_index":189,"plugin_version":"2.1.0","time_elapsed":296942,"subject_id":"92504","group":"Group2","condition":"1_Rep","full_date":"2026-02-02T20:12:01.192Z","date":"2026-02-02","time":"20:12:01","cor_ans":true},{"trial_type":"html-keyboard-response","rt":null,"stimulus":"<p style=\"color: green; font-size: 50px; font-weight: bold;\">Correct</p>","response":null,"trial_index":190,"plugin_version":"2.1.0","time_elapsed":297444,"subject_id":"92504","group":"Group2","condition":"1_Rep","full_date":"2026-02-02T20:12:01.192Z","date":"2026-02-02","time":"20:12:01"},{"correct_response":"l","task":"test_phase","broad_category":"S","image_png":"S_Shale_03.png","image_id":467,"category_name":"Shale","category":30,"distinct_rating":1.95,"distinct_type":"Bottom","item_type":"Target","rt":1000,"stimulus":"Stimuli_Rocks480/S_Shale_03.png","response":"a","trial_type":"image-keyboard-response","trial_index":191,"plugin_version":"2.1.0","time_elapsed":298446,"subject_id":"92504","group":"Group2","condition":"1_Rep","full_date":"2026-02-02T20:12:01.192Z","date":"2026-02-02","time":"20:12:01","cor_ans":false},{"trial_type":"html-keyboard-response","rt":null,"stimulus":"<p style=\"color: red; font-size: 50px; font-weight: bold;\">Incorrect</p>","response":null,"trial_index":192,"plugin_version":"2.1.0","time_elapsed":298948,"subject_id":"92504","group":"Group2","condition":"1_Rep","full_date":"2026-02-02T20:12:01.192Z","date":"2026-02-02","time":"20:12:01"},{"correct_response":"l","task":"test_phase","broad_category":"I","image_png":"I_Andesite_09.png","image_id":9,"category_name":"Andesite","category":1,"distinct_rating":2.49,"distinct_type":"Bottom","item_type":"Target","rt":707,"stimulus":"Stimuli_Rocks480/I_Andesite_09.png","response":"l","trial_type":"image-keyboard-response","trial_index":193,"plugin_version":"2.1.0","time_elapsed":299657,"subject_id":"92504","group":"Group2","condition":"1_Rep","full_date":"2026-02-02T20:12:01.192Z","date":"2026-02-02","time":"20:12:01","cor_ans":true},{"trial_type":"html-keyboard-response","rt":null,"stimulus":"<p style=\"color: green; font-size: 50px; font-weight: bold;\">Correct</p>","response":null,"trial_index":194,"plugin_version":"2.1.0","time_elapsed":300158,"subject_id":"92504","group":"Group2","condition":"1_Rep","full_date":"2026-02-02T20:12:01.192Z","date":"2026-02-02","time":"20:12:01"},{"correct_response":"a","task":"test_phase","broad_category":"S","image_png":"S_Dolomite_13.png","image_id":397,"category_name":"Dolomite","category":25,"distinct_rating":1.77,"distinct_type":"Bottom","item_type":"Foil","rt":916,"stimulus":"Stimuli_Rocks480/S_Dolomite_13.png","response":"a","trial_type":"image-keyboard-response","trial_index":195,"plugin_version":"2.1.0","time_elapsed":301076,"subject_id":"92504","group":"Group2","condition":"1_Rep","full_date":"2026-02-02T20:12:01.192Z","date":"2026-02-02","time":"20:12:01","cor_ans":true},{"trial_type":"html-keyboard-response","rt":null,"stimulus":"<p style=\"color: green; font-size: 50px; font-weight: bold;\">Correct</p>","response":null,"trial_index":196,"plugin_version":"2.1.0","time_elapsed":301578,"subject_id":"92504","group":"Group2","condition":"1_Rep","full_date":"2026-02-02T20:12:01.192Z","date":"2026-02-02","time":"20:12:01"},{"correct_response":"l","task":"test_phase","broad_category":"I","image_png":"I_Rhyolite_05.png","image_id":149,"category_name":"Rhyolite","category":10,"distinct_rating":3.02,"distinct_type":"Bottom","item_type":"Target","rt":945,"stimulus":"Stimuli_Rocks480/I_Rhyolite_05.png","response":"a","trial_type":"image-keyboard-response","trial_index":197,"plugin_version":"2.1.0","time_elapsed":302525,"subject_id":"92504","group":"Group2","condition":"1_Rep","full_date":"2026-02-02T20:12:01.192Z","date":"2026-02-02","time":"20:12:01","cor_ans":false},{"trial_type":"html-keyboard-response","rt":null,"stimulus":"<p style=\"color: red; font-size: 50px; font-weight: bold;\">Incorrect</p>","response":null,"trial_index":198,"plugin_version":"2.1.0","time_elapsed":303026,"subject_id":"92504","group":"Group2","condition":"1_Rep","full_date":"2026-02-02T20:12:01.192Z","date":"2026-02-02","time":"20:12:01"},{"correct_response":"a","task":"test_phase","broad_category":"M","image_png":"M_Phyllite_10.png","image_id":266,"category_name":"Phyllite","category":17,"distinct_rating":2.6,"distinct_type":"Bottom","item_type":"Foil","rt":1732,"stimulus":"Stimuli_Rocks480/M_Phyllite_10.png","response":"a","trial_type":"image-keyboard-response","trial_index":199,"plugin_version":"2.1.0","time_elapsed":304759,"subject_id":"92504","group":"Group2","condition":"1_Rep","full_date":"2026-02-02T20:12:01.192Z","date":"2026-02-02","time":"20:12:01","cor_ans":true},{"trial_type":"html-keyboard-response","rt":null,"stimulus":"<p style=\"color: green; font-size: 50px; font-weight: bold;\">Correct</p>","response":null,"trial_index":200,"plugin_version":"2.1.0","time_elapsed":305261,"subject_id":"92504","group":"Group2","condition":"1_Rep","full_date":"2026-02-02T20:12:01.192Z","date":"2026-02-02","time":"20:12:01"},{"correct_response":"l","task":"test_phase","broad_category":"M","image_png":"M_Slate_04.png","image_id":308,"category_name":"Slate","category":20,"distinct_rating":2.2,"distinct_type":"Bottom","item_type":"Target","rt":740,"stimulus":"Stimuli_Rocks480/M_Slate_04.png","response":"l","trial_type":"image-keyboard-response","trial_index":201,"plugin_version":"2.1.0","time_elapsed":306004,"subject_id":"92504","group":"Group2","condition":"1_Rep","full_date":"2026-02-02T20:12:01.192Z","date":"2026-02-02","time":"20:12:01","cor_ans":true},{"trial_type":"html-keyboard-response","rt":null,"stimulus":"<p style=\"color: green; font-size: 50px; font-weight: bold;\">Correct</p>","response":null,"trial_index":202,"plugin_version":"2.1.0","time_elapsed":306506,"subject_id":"92504","group":"Group2","condition":"1_Rep","full_date":"2026-02-02T20:12:01.192Z","date":"2026-02-02","time":"20:12:01"},{"correct_response":"a","task":"test_phase","broad_category":"M","image_png":"M_Marble_06.png","image_id":230,"category_name":"Marble","category":15,"distinct_rating":3.4,"distinct_type":"Bottom","item_type":"Foil","rt":1939,"stimulus":"Stimuli_Rocks480/M_Marble_06.png","response":"a","trial_type":"image-keyboard-response","trial_index":203,"plugin_version":"2.1.0","time_elapsed":308447,"subject_id":"92504","group":"Group2","condition":"1_Rep","full_date":"2026-02-02T20:12:01.192Z","date":"2026-02-02","time":"20:12:01","cor_ans":true},{"trial_type":"html-keyboard-response","rt":null,"stimulus":"<p style=\"color: green; font-size: 50px; font-weight: bold;\">Correct</p>","response":null,"trial_index":204,"plugin_version":"2.1.0","time_elapsed":308950,"subject_id":"92504","group":"Group2","condition":"1_Rep","full_date":"2026-02-02T20:12:01.192Z","date":"2026-02-02","time":"20:12:01"},{"correct_response":"l","task":"test_phase","broad_category":"I","image_png":"I_Diorite_10.png","image_id":42,"category_name":"Diorite","category":3,"distinct_rating":2.84,"distinct_type":"Bottom","item_type":"Target","rt":2344,"stimulus":"Stimuli_Rocks480/I_Diorite_10.png","response":"l","trial_type":"image-keyboard-response","trial_index":205,"plugin_version":"2.1.0","time_elapsed":311296,"subject_id":"92504","group":"Group2","condition":"1_Rep","full_date":"2026-02-02T20:12:01.192Z","date":"2026-02-02","time":"20:12:01","cor_ans":true},{"trial_type":"html-keyboard-response","rt":null,"stimulus":"<p style=\"color: green; font-size: 50px; font-weight: bold;\">Correct</p>","response":null,"trial_index":206,"plugin_version":"2.1.0","time_elapsed":311797,"subject_id":"92504","group":"Group2","condition":"1_Rep","full_date":"2026-02-02T20:12:01.192Z","date":"2026-02-02","time":"20:12:01"},{"correct_response":"a","task":"test_phase","broad_category":"M","image_png":"M_Marble_16.png","image_id":240,"category_name":"Marble","category":15,"distinct_rating":2.57,"distinct_type":"Bottom","item_type":"Foil","rt":999,"stimulus":"Stimuli_Rocks480/M_Marble_16.png","response":"a","trial_type":"image-keyboard-response","trial_index":207,"plugin_version":"2.1.0","time_elapsed":312799,"subject_id":"92504","group":"Group2","condition":"1_Rep","full_date":"2026-02-02T20:12:01.192Z","date":"2026-02-02","time":"20:12:01","cor_ans":true},{"trial_type":"html-keyboard-response","rt":null,"stimulus":"<p style=\"color: green; font-size: 50px; font-weight: bold;\">Correct</p>","response":null,"trial_index":208,"plugin_version":"2.1.0","time_elapsed":313301,"subject_id":"92504","group":"Group2","condition":"1_Rep","full_date":"2026-02-02T20:12:01.192Z","date":"2026-02-02","time":"20:12:01"},{"correct_response":"a","task":"test_phase","broad_category":"M","image_png":"M_Gneiss_13.png","image_id":205,"category_name":"Gneiss","category":13,"distinct_rating":3.26,"distinct_type":"Bottom","item_type":"Foil","rt":1282,"stimulus":"Stimuli_Rocks480/M_Gneiss_13.png","response":"a","trial_type":"image-keyboard-response","trial_index":209,"plugin_version":"2.1.0","time_elapsed":314586,"subject_id":"92504","group":"Group2","condition":"1_Rep","full_date":"2026-02-02T20:12:01.192Z","date":"2026-02-02","time":"20:12:01","cor_ans":true},{"trial_type":"html-keyboard-response","rt":null,"stimulus":"<p style=\"color: green; font-size: 50px; font-weight: bold;\">Correct</p>","response":null,"trial_index":210,"plugin_version":"2.1.0","time_elapsed":315087,"subject_id":"92504","group":"Group2","condition":"1_Rep","full_date":"2026-02-02T20:12:01.192Z","date":"2026-02-02","time":"20:12:01"},{"correct_response":"l","task":"test_phase","broad_category":"I","image_png":"I_Gabbro_14.png","image_id":62,"category_name":"Gabbro","category":4,"distinct_rating":2.95,"distinct_type":"Bottom","item_type":"Target","rt":776,"stimulus":"Stimuli_Rocks480/I_Gabbro_14.png","response":"l","trial_type":"image-keyboard-response","trial_index":211,"plugin_version":"2.1.0","time_elapsed":315865,"subject_id":"92504","group":"Group2","condition":"1_Rep","full_date":"2026-02-02T20:12:01.192Z","date":"2026-02-02","time":"20:12:01","cor_ans":true},{"trial_type":"html-keyboard-response","rt":null,"stimulus":"<p style=\"color: green; font-size: 50px; font-weight: bold;\">Correct</p>","response":null,"trial_index":212,"plugin_version":"2.1.0","time_elapsed":316366,"subject_id":"92504","group":"Group2","condition":"1_Rep","full_date":"2026-02-02T20:12:01.192Z","date":"2026-02-02","time":"20:12:01"},{"correct_response":"a","task":"test_phase","broad_category":"S","image_png":"S_Dolomite_14.png","image_id":398,"category_name":"Dolomite","category":25,"distinct_rating":1.43,"distinct_type":"Bottom","item_type":"Foil","rt":1472,"stimulus":"Stimuli_Rocks480/S_Dolomite_14.png","response":"l","trial_type":"image-keyboard-response","trial_index":213,"plugin_version":"2.1.0","time_elapsed":317847,"subject_id":"92504","group":"Group2","condition":"1_Rep","full_date":"2026-02-02T20:12:01.192Z","date":"2026-02-02","time":"20:12:01","cor_ans":false},{"trial_type":"html-keyboard-response","rt":null,"stimulus":"<p style=\"color: red; font-size: 50px; font-weight: bold;\">Incorrect</p>","response":null,"trial_index":214,"plugin_version":"2.1.0","time_elapsed":318348,"subject_id":"92504","group":"Group2","condition":"1_Rep","full_date":"2026-02-02T20:12:01.192Z","date":"2026-02-02","time":"20:12:01"},{"correct_response":"a","task":"test_phase","broad_category":"I","image_png":"I_Gabbro_08.png","image_id":56,"category_name":"Gabbro","category":4,"distinct_rating":3.02,"distinct_type":"Bottom","item_type":"Foil","rt":2326,"stimulus":"Stimuli_Rocks480/I_Gabbro_08.png","response":"a","trial_type":"image-keyboard-response","trial_index":215,"plugin_version":"2.1.0","time_elapsed":320678,"subject_id":"92504","group":"Group2","condition":"1_Rep","full_date":"2026-02-02T20:12:01.192Z","date":"2026-02-02","time":"20:12:01","cor_ans":true},{"trial_type":"html-keyboard-response","rt":null,"stimulus":"<p style=\"color: green; font-size: 50px; font-weight: bold;\">Correct</p>","response":null,"trial_index":216,"plugin_version":"2.1.0","time_elapsed":321180,"subject_id":"92504","group":"Group2","condition":"1_Rep","full_date":"2026-02-02T20:12:01.192Z","date":"2026-02-02","time":"20:12:01"},{"correct_response":"a","task":"test_phase","broad_category":"S","image_png":"S_Sandstone_03.png","image_id":451,"category_name":"Sandstone","category":29,"distinct_rating":1.86,"distinct_type":"Bottom","item_type":"Foil","rt":1537,"stimulus":"Stimuli_Rocks480/S_Sandstone_03.png","response":"a","trial_type":"image-keyboard-response","trial_index":217,"plugin_version":"2.1.0","time_elapsed":322720,"subject_id":"92504","group":"Group2","condition":"1_Rep","full_date":"2026-02-02T20:12:01.192Z","date":"2026-02-02","time":"20:12:01","cor_ans":true},{"trial_type":"html-keyboard-response","rt":null,"stimulus":"<p style=\"color: green; font-size: 50px; font-weight: bold;\">Correct</p>","response":null,"trial_index":218,"plugin_version":"2.1.0","time_elapsed":323221,"subject_id":"92504","group":"Group2","condition":"1_Rep","full_date":"2026-02-02T20:12:01.192Z","date":"2026-02-02","time":"20:12:01"},{"correct_response":"l","task":"test_phase","broad_category":"S","image_png":"S_Dolomite_16.png","image_id":400,"category_name":"Dolomite","category":25,"distinct_rating":1.71,"distinct_type":"Bottom","item_type":"Target","rt":1390,"stimulus":"Stimuli_Rocks480/S_Dolomite_16.png","response":"l","trial_type":"image-keyboard-response","trial_index":219,"plugin_version":"2.1.0","time_elapsed":324613,"subject_id":"92504","group":"Group2","condition":"1_Rep","full_date":"2026-02-02T20:12:01.192Z","date":"2026-02-02","time":"20:12:01","cor_ans":true},{"trial_type":"html-keyboard-response","rt":null,"stimulus":"<p style=\"color: green; font-size: 50px; font-weight: bold;\">Correct</p>","response":null,"trial_index":220,"plugin_version":"2.1.0","time_elapsed":325115,"subject_id":"92504","group":"Group2","condition":"1_Rep","full_date":"2026-02-02T20:12:01.192Z","date":"2026-02-02","time":"20:12:01"},{"correct_response":"a","task":"test_phase","broad_category":"S","image_png":"S_Dolomite_12.png","image_id":396,"category_name":"Dolomite","category":25,"distinct_rating":1.85,"distinct_type":"Bottom","item_type":"Foil","rt":1809,"stimulus":"Stimuli_Rocks480/S_Dolomite_12.png","response":"a","trial_type":"image-keyboard-response","trial_index":221,"plugin_version":"2.1.0","time_elapsed":326926,"subject_id":"92504","group":"Group2","condition":"1_Rep","full_date":"2026-02-02T20:12:01.192Z","date":"2026-02-02","time":"20:12:01","cor_ans":true},{"trial_type":"html-keyboard-response","rt":null,"stimulus":"<p style=\"color: green; font-size: 50px; font-weight: bold;\">Correct</p>","response":null,"trial_index":222,"plugin_version":"2.1.0","time_elapsed":327427,"subject_id":"92504","group":"Group2","condition":"1_Rep","full_date":"2026-02-02T20:12:01.192Z","date":"2026-02-02","time":"20:12:01"},{"correct_response":"a","task":"test_phase","broad_category":"I","image_png":"I_Pegmatite_16.png","image_id":112,"category_name":"Pegmatite","category":7,"distinct_rating":7.03,"distinct_type":"Top","item_type":"Foil","rt":1564,"stimulus":"Stimuli_Rocks480/I_Pegmatite_16.png","response":"a","trial_type":"image-keyboard-response","trial_index":223,"plugin_version":"2.1.0","time_elapsed":328994,"subject_id":"92504","group":"Group2","condition":"1_Rep","full_date":"2026-02-02T20:12:01.192Z","date":"2026-02-02","time":"20:12:01","cor_ans":true},{"trial_type":"html-keyboard-response","rt":null,"stimulus":"<p style=\"color: green; font-size: 50px; font-weight: bold;\">Correct</p>","response":null,"trial_index":224,"plugin_version":"2.1.0","time_elapsed":329496,"subject_id":"92504","group":"Group2","condition":"1_Rep","full_date":"2026-02-02T20:12:01.192Z","date":"2026-02-02","time":"20:12:01"},{"correct_response":"l","task":"test_phase","broad_category":"S","image_png"