[{"width":811,"height":769,"webaudio":true,"browser":"safari","browser_version":"26.3.0","mobile":false,"os":"Mac OS","fullscreen":true,"vsync_rate":60.42,"webcam":true,"microphone":true,"trial_type":"browser-check","trial_index":0,"plugin_version":"2.1.0","time_elapsed":1000,"subject_id":"91953","group":"Group2","condition":"3_Rep","full_date":"2026-03-03T20:25:46.510Z","date":"2026-03-03","time":"20:25:46"},{"success":true,"timeout":false,"failed_images":[],"failed_audio":[],"failed_video":[],"trial_type":"preload","trial_index":1,"plugin_version":"2.1.0","time_elapsed":2273,"subject_id":"91953","group":"Group2","condition":"3_Rep","full_date":"2026-03-03T20:25:46.510Z","date":"2026-03-03","time":"20:25:46"},{"rt":11202,"url":"SONA_consent_memorability.html","trial_type":"external-html","trial_index":2,"plugin_version":"2.1.0","time_elapsed":13520,"subject_id":"91953","group":"Group2","condition":"3_Rep","full_date":"2026-03-03T20:25:46.510Z","date":"2026-03-03","time":"20:25:46"},{"success":true,"rt":11345,"trial_type":"fullscreen","trial_index":3,"plugin_version":"2.1.0","time_elapsed":25869,"subject_id":"91953","group":"Group2","condition":"3_Rep","full_date":"2026-03-03T20:25:46.510Z","date":"2026-03-03","time":"20:25:46"},{"rt":8196,"stimulus":"<div style=\"max-width: 760px; margin: auto; font-size: 20px; line-height: 1.5;\">\n      <h1 style=\"text-align:center; font-size: 30px;\">Instructions</h1>\n      <p>\n        Welcome to the study on <b>visual memory</b>. This experiment consists of <b>two phases</b>: \n        a <b>study phase</b> and a <b>test phase</b>.\n      </p>\n      <p>\n        In the study phase, you will see a series of rock images along with their category labels.\n        The images will appear one at a time.\n        <b>Your task</b> is to learn the categories to which the rock images belong \n        and to remember each image as accurately as possible.\n      </p> \n      <p>\n        Note that we will repeat the study phase <b>3 times</b>, \n             so you will have multiple opportunities to see and remember each image.\n      </p>\n      <p>\n        After the study phase, <b>your memory will be tested</b>. \n        Additional instructions for the test phase will be provided at that time.\n      </p>\n      <p>\n        If your computer has multiple <b>language settings</b> (e.g., English and another language),\n        please make sure it is set to English before starting.\n      </p>\n      <p>\n        You can track your progress using the <b>completion bar</b> at the top of the screen. \n        Please note that the bar will refresh when the test phase begins \n        to give you an accurate sense of your progress in both phases.\n      </p> \n      <p>\n        Press the button below when you are ready to begin.\n      </p>\n    </div>","response":0,"trial_type":"html-button-response","trial_index":4,"plugin_version":"2.1.0","time_elapsed":34067,"subject_id":"91953","group":"Group2","condition":"3_Rep","full_date":"2026-03-03T20:25:46.510Z","date":"2026-03-03","time":"20:25:46"},{"rt":null,"stimulus":"<p style=\"font-size: 50px; margin: 0; text-align: center;\">+</p>","response":null,"trial_type":"html-keyboard-response","trial_index":5,"plugin_version":"2.1.0","time_elapsed":35071,"subject_id":"91953","group":"Group2","condition":"3_Rep","full_date":"2026-03-03T20:25:46.510Z","date":"2026-03-03","time":"20:25:46"},{"task":"memory_phase","broad_category":"M","image_png":"M_Gneiss_10.png","image_id":202,"category_name":"Gneiss","category":13,"distinct_rating":3.09,"distinct_type":"Bottom","rt":null,"stimulus":"Stimuli_Rocks480/M_Gneiss_10.png","response":null,"trial_type":"image-keyboard-response","trial_index":6,"plugin_version":"2.1.0","time_elapsed":37587,"subject_id":"91953","group":"Group2","condition":"3_Rep","full_date":"2026-03-03T20:25:46.510Z","date":"2026-03-03","time":"20:25:46"},{"rt":null,"stimulus":"<p style=\"font-size: 50px; margin: 0; text-align: center;\">+</p>","response":null,"trial_type":"html-keyboard-response","trial_index":7,"plugin_version":"2.1.0","time_elapsed":38590,"subject_id":"91953","group":"Group2","condition":"3_Rep","full_date":"2026-03-03T20:25:46.510Z","date":"2026-03-03","time":"20:25:46"},{"task":"memory_phase","broad_category":"S","image_png":"S_Rock Salt_13.png","image_id":445,"category_name":"Rock Salt","category":28,"distinct_rating":7.58,"distinct_type":"Top","rt":null,"stimulus":"Stimuli_Rocks480/S_Rock Salt_13.png","response":null,"trial_type":"image-keyboard-response","trial_index":8,"plugin_version":"2.1.0","time_elapsed":41106,"subject_id":"91953","group":"Group2","condition":"3_Rep","full_date":"2026-03-03T20:25:46.510Z","date":"2026-03-03","time":"20:25:46"},{"rt":null,"stimulus":"<p style=\"font-size: 50px; margin: 0; text-align: center;\">+</p>","response":null,"trial_type":"html-keyboard-response","trial_index":9,"plugin_version":"2.1.0","time_elapsed":42108,"subject_id":"91953","group":"Group2","condition":"3_Rep","full_date":"2026-03-03T20:25:46.510Z","date":"2026-03-03","time":"20:25:46"},{"task":"memory_phase","broad_category":"S","image_png":"S_Dolomite_01.png","image_id":385,"category_name":"Dolomite","category":25,"distinct_rating":1.43,"distinct_type":"Bottom","rt":null,"stimulus":"Stimuli_Rocks480/S_Dolomite_01.png","response":null,"trial_type":"image-keyboard-response","trial_index":10,"plugin_version":"2.1.0","time_elapsed":44626,"subject_id":"91953","group":"Group2","condition":"3_Rep","full_date":"2026-03-03T20:25:46.510Z","date":"2026-03-03","time":"20:25:46"},{"rt":null,"stimulus":"<p style=\"font-size: 50px; margin: 0; text-align: center;\">+</p>","response":null,"trial_type":"html-keyboard-response","trial_index":11,"plugin_version":"2.1.0","time_elapsed":45628,"subject_id":"91953","group":"Group2","condition":"3_Rep","full_date":"2026-03-03T20:25:46.510Z","date":"2026-03-03","time":"20:25:46"},{"task":"memory_phase","broad_category":"I","image_png":"I_Pegmatite_11.png","image_id":107,"category_name":"Pegmatite","category":7,"distinct_rating":7.11,"distinct_type":"Top","rt":null,"stimulus":"Stimuli_Rocks480/I_Pegmatite_11.png","response":null,"trial_type":"image-keyboard-response","trial_index":12,"plugin_version":"2.1.0","time_elapsed":48146,"subject_id":"91953","group":"Group2","condition":"3_Rep","full_date":"2026-03-03T20:25:46.510Z","date":"2026-03-03","time":"20:25:46"},{"rt":null,"stimulus":"<p style=\"font-size: 50px; margin: 0; text-align: center;\">+</p>","response":null,"trial_type":"html-keyboard-response","trial_index":13,"plugin_version":"2.1.0","time_elapsed":49148,"subject_id":"91953","group":"Group2","condition":"3_Rep","full_date":"2026-03-03T20:25:46.510Z","date":"2026-03-03","time":"20:25:46"},{"task":"memory_phase","broad_category":"I","image_png":"I_Andesite_09.png","image_id":9,"category_name":"Andesite","category":1,"distinct_rating":2.49,"distinct_type":"Bottom","rt":null,"stimulus":"Stimuli_Rocks480/I_Andesite_09.png","response":null,"trial_type":"image-keyboard-response","trial_index":14,"plugin_version":"2.1.0","time_elapsed":51668,"subject_id":"91953","group":"Group2","condition":"3_Rep","full_date":"2026-03-03T20:25:46.510Z","date":"2026-03-03","time":"20:25:46"},{"rt":null,"stimulus":"<p style=\"font-size: 50px; margin: 0; text-align: center;\">+</p>","response":null,"trial_type":"html-keyboard-response","trial_index":15,"plugin_version":"2.1.0","time_elapsed":52669,"subject_id":"91953","group":"Group2","condition":"3_Rep","full_date":"2026-03-03T20:25:46.510Z","date":"2026-03-03","time":"20:25:46"},{"task":"memory_phase","broad_category":"M","image_png":"M_Phyllite_13.png","image_id":269,"category_name":"Phyllite","category":17,"distinct_rating":2.8,"distinct_type":"Bottom","rt":null,"stimulus":"Stimuli_Rocks480/M_Phyllite_13.png","response":null,"trial_type":"image-keyboard-response","trial_index":16,"plugin_version":"2.1.0","time_elapsed":55183,"subject_id":"91953","group":"Group2","condition":"3_Rep","full_date":"2026-03-03T20:25:46.510Z","date":"2026-03-03","time":"20:25:46"},{"rt":null,"stimulus":"<p style=\"font-size: 50px; margin: 0; text-align: center;\">+</p>","response":null,"trial_type":"html-keyboard-response","trial_index":17,"plugin_version":"2.1.0","time_elapsed":56186,"subject_id":"91953","group":"Group2","condition":"3_Rep","full_date":"2026-03-03T20:25:46.510Z","date":"2026-03-03","time":"20:25:46"},{"task":"memory_phase","broad_category":"M","image_png":"M_Gneiss_15.png","image_id":207,"category_name":"Gneiss","category":13,"distinct_rating":3.11,"distinct_type":"Bottom","rt":null,"stimulus":"Stimuli_Rocks480/M_Gneiss_15.png","response":null,"trial_type":"image-keyboard-response","trial_index":18,"plugin_version":"2.1.0","time_elapsed":58696,"subject_id":"91953","group":"Group2","condition":"3_Rep","full_date":"2026-03-03T20:25:46.510Z","date":"2026-03-03","time":"20:25:46"},{"rt":null,"stimulus":"<p style=\"font-size: 50px; margin: 0; text-align: center;\">+</p>","response":null,"trial_type":"html-keyboard-response","trial_index":19,"plugin_version":"2.1.0","time_elapsed":59698,"subject_id":"91953","group":"Group2","condition":"3_Rep","full_date":"2026-03-03T20:25:46.510Z","date":"2026-03-03","time":"20:25:46"},{"task":"memory_phase","broad_category":"M","image_png":"M_Marble_03.png","image_id":227,"category_name":"Marble","category":15,"distinct_rating":2.67,"distinct_type":"Bottom","rt":null,"stimulus":"Stimuli_Rocks480/M_Marble_03.png","response":null,"trial_type":"image-keyboard-response","trial_index":20,"plugin_version":"2.1.0","time_elapsed":62214,"subject_id":"91953","group":"Group2","condition":"3_Rep","full_date":"2026-03-03T20:25:46.510Z","date":"2026-03-03","time":"20:25:46"},{"rt":null,"stimulus":"<p style=\"font-size: 50px; margin: 0; text-align: center;\">+</p>","response":null,"trial_type":"html-keyboard-response","trial_index":21,"plugin_version":"2.1.0","time_elapsed":63216,"subject_id":"91953","group":"Group2","condition":"3_Rep","full_date":"2026-03-03T20:25:46.510Z","date":"2026-03-03","time":"20:25:46"},{"task":"memory_phase","broad_category":"I","image_png":"I_Basalt_08.png","image_id":24,"category_name":"Basalt","category":2,"distinct_rating":2.31,"distinct_type":"Bottom","rt":null,"stimulus":"Stimuli_Rocks480/I_Basalt_08.png","response":null,"trial_type":"image-keyboard-response","trial_index":22,"plugin_version":"2.1.0","time_elapsed":65738,"subject_id":"91953","group":"Group2","condition":"3_Rep","full_date":"2026-03-03T20:25:46.510Z","date":"2026-03-03","time":"20:25:46"},{"rt":null,"stimulus":"<p style=\"font-size: 50px; margin: 0; text-align: center;\">+</p>","response":null,"trial_type":"html-keyboard-response","trial_index":23,"plugin_version":"2.1.0","time_elapsed":66740,"subject_id":"91953","group":"Group2","condition":"3_Rep","full_date":"2026-03-03T20:25:46.510Z","date":"2026-03-03","time":"20:25:46"},{"task":"memory_phase","broad_category":"S","image_png":"S_Shale_03.png","image_id":467,"category_name":"Shale","category":30,"distinct_rating":1.95,"distinct_type":"Bottom","rt":null,"stimulus":"Stimuli_Rocks480/S_Shale_03.png","response":null,"trial_type":"image-keyboard-response","trial_index":24,"plugin_version":"2.1.0","time_elapsed":69257,"subject_id":"91953","group":"Group2","condition":"3_Rep","full_date":"2026-03-03T20:25:46.510Z","date":"2026-03-03","time":"20:25:46"},{"rt":null,"stimulus":"<p style=\"font-size: 50px; margin: 0; text-align: center;\">+</p>","response":null,"trial_type":"html-keyboard-response","trial_index":25,"plugin_version":"2.1.0","time_elapsed":70259,"subject_id":"91953","group":"Group2","condition":"3_Rep","full_date":"2026-03-03T20:25:46.510Z","date":"2026-03-03","time":"20:25:46"},{"task":"memory_phase","broad_category":"I","image_png":"I_Basalt_10.png","image_id":26,"category_name":"Basalt","category":2,"distinct_rating":2.76,"distinct_type":"Bottom","rt":null,"stimulus":"Stimuli_Rocks480/I_Basalt_10.png","response":null,"trial_type":"image-keyboard-response","trial_index":26,"plugin_version":"2.1.0","time_elapsed":72775,"subject_id":"91953","group":"Group2","condition":"3_Rep","full_date":"2026-03-03T20:25:46.510Z","date":"2026-03-03","time":"20:25:46"},{"rt":null,"stimulus":"<p style=\"font-size: 50px; margin: 0; text-align: center;\">+</p>","response":null,"trial_type":"html-keyboard-response","trial_index":27,"plugin_version":"2.1.0","time_elapsed":73778,"subject_id":"91953","group":"Group2","condition":"3_Rep","full_date":"2026-03-03T20:25:46.510Z","date":"2026-03-03","time":"20:25:46"},{"task":"memory_phase","broad_category":"I","image_png":"I_Peridotite_13.png","image_id":125,"category_name":"Peridotite","category":8,"distinct_rating":7.28,"distinct_type":"Top","rt":null,"stimulus":"Stimuli_Rocks480/I_Peridotite_13.png","response":null,"trial_type":"image-keyboard-response","trial_index":28,"plugin_version":"2.1.0","time_elapsed":76295,"subject_id":"91953","group":"Group2","condition":"3_Rep","full_date":"2026-03-03T20:25:46.510Z","date":"2026-03-03","time":"20:25:46"},{"rt":null,"stimulus":"<p style=\"font-size: 50px; margin: 0; text-align: center;\">+</p>","response":null,"trial_type":"html-keyboard-response","trial_index":29,"plugin_version":"2.1.0","time_elapsed":77297,"subject_id":"91953","group":"Group2","condition":"3_Rep","full_date":"2026-03-03T20:25:46.510Z","date":"2026-03-03","time":"20:25:46"},{"task":"memory_phase","broad_category":"S","image_png":"S_Sandstone_08.png","image_id":456,"category_name":"Sandstone","category":29,"distinct_rating":1.5,"distinct_type":"Bottom","rt":null,"stimulus":"Stimuli_Rocks480/S_Sandstone_08.png","response":null,"trial_type":"image-keyboard-response","trial_index":30,"plugin_version":"2.1.0","time_elapsed":79812,"subject_id":"91953","group":"Group2","condition":"3_Rep","full_date":"2026-03-03T20:25:46.510Z","date":"2026-03-03","time":"20:25:46"},{"rt":null,"stimulus":"<p style=\"font-size: 50px; margin: 0; text-align: center;\">+</p>","response":null,"trial_type":"html-keyboard-response","trial_index":31,"plugin_version":"2.1.0","time_elapsed":80815,"subject_id":"91953","group":"Group2","condition":"3_Rep","full_date":"2026-03-03T20:25:46.510Z","date":"2026-03-03","time":"20:25:46"},{"task":"memory_phase","broad_category":"M","image_png":"M_Phyllite_05.png","image_id":261,"category_name":"Phyllite","category":17,"distinct_rating":2.14,"distinct_type":"Bottom","rt":null,"stimulus":"Stimuli_Rocks480/M_Phyllite_05.png","response":null,"trial_type":"image-keyboard-response","trial_index":32,"plugin_version":"2.1.0","time_elapsed":83330,"subject_id":"91953","group":"Group2","condition":"3_Rep","full_date":"2026-03-03T20:25:46.510Z","date":"2026-03-03","time":"20:25:46"},{"rt":null,"stimulus":"<p style=\"font-size: 50px; margin: 0; text-align: center;\">+</p>","response":null,"trial_type":"html-keyboard-response","trial_index":33,"plugin_version":"2.1.0","time_elapsed":84332,"subject_id":"91953","group":"Group2","condition":"3_Rep","full_date":"2026-03-03T20:25:46.510Z","date":"2026-03-03","time":"20:25:46"},{"task":"memory_phase","broad_category":"M","image_png":"M_Phyllite_02.png","image_id":258,"category_name":"Phyllite","category":17,"distinct_rating":2.89,"distinct_type":"Bottom","rt":null,"stimulus":"Stimuli_Rocks480/M_Phyllite_02.png","response":null,"trial_type":"image-keyboard-response","trial_index":34,"plugin_version":"2.1.0","time_elapsed":86848,"subject_id":"91953","group":"Group2","condition":"3_Rep","full_date":"2026-03-03T20:25:46.510Z","date":"2026-03-03","time":"20:25:46"},{"rt":null,"stimulus":"<p style=\"font-size: 50px; margin: 0; text-align: center;\">+</p>","response":null,"trial_type":"html-keyboard-response","trial_index":35,"plugin_version":"2.1.0","time_elapsed":87850,"subject_id":"91953","group":"Group2","condition":"3_Rep","full_date":"2026-03-03T20:25:46.510Z","date":"2026-03-03","time":"20:25:46"},{"task":"memory_phase","broad_category":"S","image_png":"S_Shale_02.png","image_id":466,"category_name":"Shale","category":30,"distinct_rating":2.9,"distinct_type":"Bottom","rt":null,"stimulus":"Stimuli_Rocks480/S_Shale_02.png","response":null,"trial_type":"image-keyboard-response","trial_index":36,"plugin_version":"2.1.0","time_elapsed":90363,"subject_id":"91953","group":"Group2","condition":"3_Rep","full_date":"2026-03-03T20:25:46.510Z","date":"2026-03-03","time":"20:25:46"},{"rt":null,"stimulus":"<p style=\"font-size: 50px; margin: 0; text-align: center;\">+</p>","response":null,"trial_type":"html-keyboard-response","trial_index":37,"plugin_version":"2.1.0","time_elapsed":91364,"subject_id":"91953","group":"Group2","condition":"3_Rep","full_date":"2026-03-03T20:25:46.510Z","date":"2026-03-03","time":"20:25:46"},{"task":"memory_phase","broad_category":"I","image_png":"I_Obsidian_06.png","image_id":86,"category_name":"Obsidian","category":6,"distinct_rating":8.01,"distinct_type":"Top","rt":null,"stimulus":"Stimuli_Rocks480/I_Obsidian_06.png","response":null,"trial_type":"image-keyboard-response","trial_index":38,"plugin_version":"2.1.0","time_elapsed":93880,"subject_id":"91953","group":"Group2","condition":"3_Rep","full_date":"2026-03-03T20:25:46.510Z","date":"2026-03-03","time":"20:25:46"},{"rt":null,"stimulus":"<p style=\"font-size: 50px; margin: 0; text-align: center;\">+</p>","response":null,"trial_type":"html-keyboard-response","trial_index":39,"plugin_version":"2.1.0","time_elapsed":94883,"subject_id":"91953","group":"Group2","condition":"3_Rep","full_date":"2026-03-03T20:25:46.510Z","date":"2026-03-03","time":"20:25:46"},{"task":"memory_phase","broad_category":"M","image_png":"M_Quartzite_07.png","image_id":279,"category_name":"Quartzite","category":18,"distinct_rating":1.97,"distinct_type":"Bottom","rt":null,"stimulus":"Stimuli_Rocks480/M_Quartzite_07.png","response":null,"trial_type":"image-keyboard-response","trial_index":40,"plugin_version":"2.1.0","time_elapsed":97398,"subject_id":"91953","group":"Group2","condition":"3_Rep","full_date":"2026-03-03T20:25:46.510Z","date":"2026-03-03","time":"20:25:46"},{"rt":null,"stimulus":"<p style=\"font-size: 50px; margin: 0; text-align: center;\">+</p>","response":null,"trial_type":"html-keyboard-response","trial_index":41,"plugin_version":"2.1.0","time_elapsed":98400,"subject_id":"91953","group":"Group2","condition":"3_Rep","full_date":"2026-03-03T20:25:46.510Z","date":"2026-03-03","time":"20:25:46"},{"task":"memory_phase","broad_category":"I","image_png":"I_Rhyolite_08.png","image_id":152,"category_name":"Rhyolite","category":10,"distinct_rating":1.38,"distinct_type":"Bottom","rt":null,"stimulus":"Stimuli_Rocks480/I_Rhyolite_08.png","response":null,"trial_type":"image-keyboard-response","trial_index":42,"plugin_version":"2.1.0","time_elapsed":100915,"subject_id":"91953","group":"Group2","condition":"3_Rep","full_date":"2026-03-03T20:25:46.510Z","date":"2026-03-03","time":"20:25:46"},{"rt":null,"stimulus":"<p style=\"font-size: 50px; margin: 0; text-align: center;\">+</p>","response":null,"trial_type":"html-keyboard-response","trial_index":43,"plugin_version":"2.1.0","time_elapsed":101917,"subject_id":"91953","group":"Group2","condition":"3_Rep","full_date":"2026-03-03T20:25:46.510Z","date":"2026-03-03","time":"20:25:46"},{"task":"memory_phase","broad_category":"I","image_png":"I_Diorite_15.png","image_id":47,"category_name":"Diorite","category":3,"distinct_rating":3.05,"distinct_type":"Bottom","rt":null,"stimulus":"Stimuli_Rocks480/I_Diorite_15.png","response":null,"trial_type":"image-keyboard-response","trial_index":44,"plugin_version":"2.1.0","time_elapsed":104433,"subject_id":"91953","group":"Group2","condition":"3_Rep","full_date":"2026-03-03T20:25:46.510Z","date":"2026-03-03","time":"20:25:46"},{"rt":null,"stimulus":"<p style=\"font-size: 50px; margin: 0; text-align: center;\">+</p>","response":null,"trial_type":"html-keyboard-response","trial_index":45,"plugin_version":"2.1.0","time_elapsed":105435,"subject_id":"91953","group":"Group2","condition":"3_Rep","full_date":"2026-03-03T20:25:46.510Z","date":"2026-03-03","time":"20:25:46"},{"task":"memory_phase","broad_category":"I","image_png":"I_Andesite_04.png","image_id":4,"category_name":"Andesite","category":1,"distinct_rating":3.18,"distinct_type":"Bottom","rt":null,"stimulus":"Stimuli_Rocks480/I_Andesite_04.png","response":null,"trial_type":"image-keyboard-response","trial_index":46,"plugin_version":"2.1.0","time_elapsed":107950,"subject_id":"91953","group":"Group2","condition":"3_Rep","full_date":"2026-03-03T20:25:46.510Z","date":"2026-03-03","time":"20:25:46"},{"rt":null,"stimulus":"<p style=\"font-size: 50px; margin: 0; text-align: center;\">+</p>","response":null,"trial_type":"html-keyboard-response","trial_index":47,"plugin_version":"2.1.0","time_elapsed":108952,"subject_id":"91953","group":"Group2","condition":"3_Rep","full_date":"2026-03-03T20:25:46.510Z","date":"2026-03-03","time":"20:25:46"},{"task":"memory_phase","broad_category":"I","image_png":"I_Pumice_13.png","image_id":141,"category_name":"Pumice","category":9,"distinct_rating":3.12,"distinct_type":"Bottom","rt":null,"stimulus":"Stimuli_Rocks480/I_Pumice_13.png","response":null,"trial_type":"image-keyboard-response","trial_index":48,"plugin_version":"2.1.0","time_elapsed":111470,"subject_id":"91953","group":"Group2","condition":"3_Rep","full_date":"2026-03-03T20:25:46.510Z","date":"2026-03-03","time":"20:25:46"},{"rt":null,"stimulus":"<p style=\"font-size: 50px; margin: 0; text-align: center;\">+</p>","response":null,"trial_type":"html-keyboard-response","trial_index":49,"plugin_version":"2.1.0","time_elapsed":112472,"subject_id":"91953","group":"Group2","condition":"3_Rep","full_date":"2026-03-03T20:25:46.510Z","date":"2026-03-03","time":"20:25:46"},{"task":"memory_phase","broad_category":"S","image_png":"S_Sandstone_04.png","image_id":452,"category_name":"Sandstone","category":29,"distinct_rating":1.8,"distinct_type":"Bottom","rt":null,"stimulus":"Stimuli_Rocks480/S_Sandstone_04.png","response":null,"trial_type":"image-keyboard-response","trial_index":50,"plugin_version":"2.1.0","time_elapsed":114987,"subject_id":"91953","group":"Group2","condition":"3_Rep","full_date":"2026-03-03T20:25:46.510Z","date":"2026-03-03","time":"20:25:46"},{"rt":null,"stimulus":"<p style=\"font-size: 50px; margin: 0; text-align: center;\">+</p>","response":null,"trial_type":"html-keyboard-response","trial_index":51,"plugin_version":"2.1.0","time_elapsed":115989,"subject_id":"91953","group":"Group2","condition":"3_Rep","full_date":"2026-03-03T20:25:46.510Z","date":"2026-03-03","time":"20:25:46"},{"task":"memory_phase","broad_category":"S","image_png":"S_Rock Salt_15.png","image_id":447,"category_name":"Rock Salt","category":28,"distinct_rating":7.79,"distinct_type":"Top","rt":null,"stimulus":"Stimuli_Rocks480/S_Rock Salt_15.png","response":null,"trial_type":"image-keyboard-response","trial_index":52,"plugin_version":"2.1.0","time_elapsed":118505,"subject_id":"91953","group":"Group2","condition":"3_Rep","full_date":"2026-03-03T20:25:46.510Z","date":"2026-03-03","time":"20:25:46"},{"rt":null,"stimulus":"<p style=\"font-size: 50px; margin: 0; text-align: center;\">+</p>","response":null,"trial_type":"html-keyboard-response","trial_index":53,"plugin_version":"2.1.0","time_elapsed":119507,"subject_id":"91953","group":"Group2","condition":"3_Rep","full_date":"2026-03-03T20:25:46.510Z","date":"2026-03-03","time":"20:25:46"},{"task":"memory_phase","broad_category":"I","image_png":"I_Gabbro_12.png","image_id":60,"category_name":"Gabbro","category":4,"distinct_rating":2.6,"distinct_type":"Bottom","rt":null,"stimulus":"Stimuli_Rocks480/I_Gabbro_12.png","response":null,"trial_type":"image-keyboard-response","trial_index":54,"plugin_version":"2.1.0","time_elapsed":122025,"subject_id":"91953","group":"Group2","condition":"3_Rep","full_date":"2026-03-03T20:25:46.510Z","date":"2026-03-03","time":"20:25:46"},{"rt":1836,"stimulus":"<p style=\"max-width: 760px; margin: auto; font-size: 35px; line-height: 1.5;\">\n                Press SPACE to continue study phase\n              </p>","response":" ","trial_type":"html-keyboard-response","trial_index":55,"plugin_version":"2.1.0","time_elapsed":123863,"subject_id":"91953","group":"Group2","condition":"3_Rep","full_date":"2026-03-03T20:25:46.510Z","date":"2026-03-03","time":"20:25:46"},{"rt":null,"stimulus":"<p style=\"font-size: 50px; margin: 0; text-align: center;\">+</p>","response":null,"trial_type":"html-keyboard-response","trial_index":56,"plugin_version":"2.1.0","time_elapsed":124866,"subject_id":"91953","group":"Group2","condition":"3_Rep","full_date":"2026-03-03T20:25:46.510Z","date":"2026-03-03","time":"20:25:46"},{"task":"memory_phase","broad_category":"I","image_png":"I_Rhyolite_05.png","image_id":149,"category_name":"Rhyolite","category":10,"distinct_rating":3.02,"distinct_type":"Bottom","rt":null,"stimulus":"Stimuli_Rocks480/I_Rhyolite_05.png","response":null,"trial_type":"image-keyboard-response","trial_index":57,"plugin_version":"2.1.0","time_elapsed":127383,"subject_id":"91953","group":"Group2","condition":"3_Rep","full_date":"2026-03-03T20:25:46.510Z","date":"2026-03-03","time":"20:25:46"},{"rt":null,"stimulus":"<p style=\"font-size: 50px; margin: 0; text-align: center;\">+</p>","response":null,"trial_type":"html-keyboard-response","trial_index":58,"plugin_version":"2.1.0","time_elapsed":128385,"subject_id":"91953","group":"Group2","condition":"3_Rep","full_date":"2026-03-03T20:25:46.510Z","date":"2026-03-03","time":"20:25:46"},{"task":"memory_phase","broad_category":"I","image_png":"I_Pumice_14.png","image_id":142,"category_name":"Pumice","category":9,"distinct_rating":3.22,"distinct_type":"Bottom","rt":null,"stimulus":"Stimuli_Rocks480/I_Pumice_14.png","response":null,"trial_type":"image-keyboard-response","trial_index":59,"plugin_version":"2.1.0","time_elapsed":130900,"subject_id":"91953","group":"Group2","condition":"3_Rep","full_date":"2026-03-03T20:25:46.510Z","date":"2026-03-03","time":"20:25:46"},{"rt":null,"stimulus":"<p style=\"font-size: 50px; margin: 0; text-align: center;\">+</p>","response":null,"trial_type":"html-keyboard-response","trial_index":60,"plugin_version":"2.1.0","time_elapsed":131902,"subject_id":"91953","group":"Group2","condition":"3_Rep","full_date":"2026-03-03T20:25:46.510Z","date":"2026-03-03","time":"20:25:46"},{"task":"memory_phase","broad_category":"I","image_png":"I_Rhyolite_10.png","image_id":154,"category_name":"Rhyolite","category":10,"distinct_rating":2.88,"distinct_type":"Bottom","rt":null,"stimulus":"Stimuli_Rocks480/I_Rhyolite_10.png","response":null,"trial_type":"image-keyboard-response","trial_index":61,"plugin_version":"2.1.0","time_elapsed":134422,"subject_id":"91953","group":"Group2","condition":"3_Rep","full_date":"2026-03-03T20:25:46.510Z","date":"2026-03-03","time":"20:25:46"},{"rt":null,"stimulus":"<p style=\"font-size: 50px; margin: 0; text-align: center;\">+</p>","response":null,"trial_type":"html-keyboard-response","trial_index":62,"plugin_version":"2.1.0","time_elapsed":135424,"subject_id":"91953","group":"Group2","condition":"3_Rep","full_date":"2026-03-03T20:25:46.510Z","date":"2026-03-03","time":"20:25:46"},{"task":"memory_phase","broad_category":"M","image_png":"M_Marble_14.png","image_id":238,"category_name":"Marble","category":15,"distinct_rating":3.31,"distinct_type":"Bottom","rt":null,"stimulus":"Stimuli_Rocks480/M_Marble_14.png","response":null,"trial_type":"image-keyboard-response","trial_index":63,"plugin_version":"2.1.0","time_elapsed":137939,"subject_id":"91953","group":"Group2","condition":"3_Rep","full_date":"2026-03-03T20:25:46.510Z","date":"2026-03-03","time":"20:25:46"},{"rt":null,"stimulus":"<p style=\"font-size: 50px; margin: 0; text-align: center;\">+</p>","response":null,"trial_type":"html-keyboard-response","trial_index":64,"plugin_version":"2.1.0","time_elapsed":138941,"subject_id":"91953","group":"Group2","condition":"3_Rep","full_date":"2026-03-03T20:25:46.510Z","date":"2026-03-03","time":"20:25:46"},{"task":"memory_phase","broad_category":"I","image_png":"I_Andesite_03.png","image_id":3,"category_name":"Andesite","category":1,"distinct_rating":3.17,"distinct_type":"Bottom","rt":null,"stimulus":"Stimuli_Rocks480/I_Andesite_03.png","response":null,"trial_type":"image-keyboard-response","trial_index":65,"plugin_version":"2.1.0","time_elapsed":141452,"subject_id":"91953","group":"Group2","condition":"3_Rep","full_date":"2026-03-03T20:25:46.510Z","date":"2026-03-03","time":"20:25:46"},{"rt":null,"stimulus":"<p style=\"font-size: 50px; margin: 0; text-align: center;\">+</p>","response":null,"trial_type":"html-keyboard-response","trial_index":66,"plugin_version":"2.1.0","time_elapsed":142454,"subject_id":"91953","group":"Group2","condition":"3_Rep","full_date":"2026-03-03T20:25:46.510Z","date":"2026-03-03","time":"20:25:46"},{"task":"memory_phase","broad_category":"M","image_png":"M_Slate_10.png","image_id":314,"category_name":"Slate","category":20,"distinct_rating":1.94,"distinct_type":"Bottom","rt":null,"stimulus":"Stimuli_Rocks480/M_Slate_10.png","response":null,"trial_type":"image-keyboard-response","trial_index":67,"plugin_version":"2.1.0","time_elapsed":144966,"subject_id":"91953","group":"Group2","condition":"3_Rep","full_date":"2026-03-03T20:25:46.510Z","date":"2026-03-03","time":"20:25:46"},{"rt":null,"stimulus":"<p style=\"font-size: 50px; margin: 0; text-align: center;\">+</p>","response":null,"trial_type":"html-keyboard-response","trial_index":68,"plugin_version":"2.1.0","time_elapsed":145969,"subject_id":"91953","group":"Group2","condition":"3_Rep","full_date":"2026-03-03T20:25:46.510Z","date":"2026-03-03","time":"20:25:46"},{"task":"memory_phase","broad_category":"M","image_png":"M_Marble_02.png","image_id":226,"category_name":"Marble","category":15,"distinct_rating":3.2,"distinct_type":"Bottom","rt":null,"stimulus":"Stimuli_Rocks480/M_Marble_02.png","response":null,"trial_type":"image-keyboard-response","trial_index":69,"plugin_version":"2.1.0","time_elapsed":148481,"subject_id":"91953","group":"Group2","condition":"3_Rep","full_date":"2026-03-03T20:25:46.510Z","date":"2026-03-03","time":"20:25:46"},{"rt":null,"stimulus":"<p style=\"font-size: 50px; margin: 0; text-align: center;\">+</p>","response":null,"trial_type":"html-keyboard-response","trial_index":70,"plugin_version":"2.1.0","time_elapsed":149483,"subject_id":"91953","group":"Group2","condition":"3_Rep","full_date":"2026-03-03T20:25:46.510Z","date":"2026-03-03","time":"20:25:46"},{"task":"memory_phase","broad_category":"S","image_png":"S_Dolomite_07.png","image_id":391,"category_name":"Dolomite","category":25,"distinct_rating":1.73,"distinct_type":"Bottom","rt":null,"stimulus":"Stimuli_Rocks480/S_Dolomite_07.png","response":null,"trial_type":"image-keyboard-response","trial_index":71,"plugin_version":"2.1.0","time_elapsed":151998,"subject_id":"91953","group":"Group2","condition":"3_Rep","full_date":"2026-03-03T20:25:46.510Z","date":"2026-03-03","time":"20:25:46"},{"rt":null,"stimulus":"<p style=\"font-size: 50px; margin: 0; text-align: center;\">+</p>","response":null,"trial_type":"html-keyboard-response","trial_index":72,"plugin_version":"2.1.0","time_elapsed":153000,"subject_id":"91953","group":"Group2","condition":"3_Rep","full_date":"2026-03-03T20:25:46.510Z","date":"2026-03-03","time":"20:25:46"},{"task":"memory_phase","broad_category":"M","image_png":"M_Quartzite_12.png","image_id":284,"category_name":"Quartzite","category":18,"distinct_rating":1.92,"distinct_type":"Bottom","rt":null,"stimulus":"Stimuli_Rocks480/M_Quartzite_12.png","response":null,"trial_type":"image-keyboard-response","trial_index":73,"plugin_version":"2.1.0","time_elapsed":155513,"subject_id":"91953","group":"Group2","condition":"3_Rep","full_date":"2026-03-03T20:25:46.510Z","date":"2026-03-03","time":"20:25:46"},{"rt":null,"stimulus":"<p style=\"font-size: 50px; margin: 0; text-align: center;\">+</p>","response":null,"trial_type":"html-keyboard-response","trial_index":74,"plugin_version":"2.1.0","time_elapsed":156515,"subject_id":"91953","group":"Group2","condition":"3_Rep","full_date":"2026-03-03T20:25:46.510Z","date":"2026-03-03","time":"20:25:46"},{"task":"memory_phase","broad_category":"M","image_png":"M_Slate_14.png","image_id":318,"category_name":"Slate","category":20,"distinct_rating":2.58,"distinct_type":"Bottom","rt":null,"stimulus":"Stimuli_Rocks480/M_Slate_14.png","response":null,"trial_type":"image-keyboard-response","trial_index":75,"plugin_version":"2.1.0","time_elapsed":159028,"subject_id":"91953","group":"Group2","condition":"3_Rep","full_date":"2026-03-03T20:25:46.510Z","date":"2026-03-03","time":"20:25:46"},{"rt":null,"stimulus":"<p style=\"font-size: 50px; margin: 0; text-align: center;\">+</p>","response":null,"trial_type":"html-keyboard-response","trial_index":76,"plugin_version":"2.1.0","time_elapsed":160030,"subject_id":"91953","group":"Group2","condition":"3_Rep","full_date":"2026-03-03T20:25:46.510Z","date":"2026-03-03","time":"20:25:46"},{"task":"memory_phase","broad_category":"I","image_png":"I_Pegmatite_03.png","image_id":99,"category_name":"Pegmatite","category":7,"distinct_rating":7.24,"distinct_type":"Top","rt":null,"stimulus":"Stimuli_Rocks480/I_Pegmatite_03.png","response":null,"trial_type":"image-keyboard-response","trial_index":77,"plugin_version":"2.1.0","time_elapsed":162544,"subject_id":"91953","group":"Group2","condition":"3_Rep","full_date":"2026-03-03T20:25:46.510Z","date":"2026-03-03","time":"20:25:46"},{"rt":null,"stimulus":"<p style=\"font-size: 50px; margin: 0; text-align: center;\">+</p>","response":null,"trial_type":"html-keyboard-response","trial_index":78,"plugin_version":"2.1.0","time_elapsed":163546,"subject_id":"91953","group":"Group2","condition":"3_Rep","full_date":"2026-03-03T20:25:46.510Z","date":"2026-03-03","time":"20:25:46"},{"task":"memory_phase","broad_category":"S","image_png":"S_Conglomerate_14.png","image_id":382,"category_name":"Conglomerate","category":24,"distinct_rating":6.86,"distinct_type":"Top","rt":null,"stimulus":"Stimuli_Rocks480/S_Conglomerate_14.png","response":null,"trial_type":"image-keyboard-response","trial_index":79,"plugin_version":"2.1.0","time_elapsed":166061,"subject_id":"91953","group":"Group2","condition":"3_Rep","full_date":"2026-03-03T20:25:46.510Z","date":"2026-03-03","time":"20:25:46"},{"rt":null,"stimulus":"<p style=\"font-size: 50px; margin: 0; text-align: center;\">+</p>","response":null,"trial_type":"html-keyboard-response","trial_index":80,"plugin_version":"2.1.0","time_elapsed":167064,"subject_id":"91953","group":"Group2","condition":"3_Rep","full_date":"2026-03-03T20:25:46.510Z","date":"2026-03-03","time":"20:25:46"},{"task":"memory_phase","broad_category":"I","image_png":"I_Diorite_10.png","image_id":42,"category_name":"Diorite","category":3,"distinct_rating":2.84,"distinct_type":"Bottom","rt":null,"stimulus":"Stimuli_Rocks480/I_Diorite_10.png","response":null,"trial_type":"image-keyboard-response","trial_index":81,"plugin_version":"2.1.0","time_elapsed":169577,"subject_id":"91953","group":"Group2","condition":"3_Rep","full_date":"2026-03-03T20:25:46.510Z","date":"2026-03-03","time":"20:25:46"},{"rt":null,"stimulus":"<p style=\"font-size: 50px; margin: 0; text-align: center;\">+</p>","response":null,"trial_type":"html-keyboard-response","trial_index":82,"plugin_version":"2.1.0","time_elapsed":170580,"subject_id":"91953","group":"Group2","condition":"3_Rep","full_date":"2026-03-03T20:25:46.510Z","date":"2026-03-03","time":"20:25:46"},{"task":"memory_phase","broad_category":"S","image_png":"S_Shale_07.png","image_id":471,"category_name":"Shale","category":30,"distinct_rating":2.73,"distinct_type":"Bottom","rt":null,"stimulus":"Stimuli_Rocks480/S_Shale_07.png","response":null,"trial_type":"image-keyboard-response","trial_index":83,"plugin_version":"2.1.0","time_elapsed":173096,"subject_id":"91953","group":"Group2","condition":"3_Rep","full_date":"2026-03-03T20:25:46.510Z","date":"2026-03-03","time":"20:25:46"},{"rt":null,"stimulus":"<p style=\"font-size: 50px; margin: 0; text-align: center;\">+</p>","response":null,"trial_type":"html-keyboard-response","trial_index":84,"plugin_version":"2.1.0","time_elapsed":174099,"subject_id":"91953","group":"Group2","condition":"3_Rep","full_date":"2026-03-03T20:25:46.510Z","date":"2026-03-03","time":"20:25:46"},{"task":"memory_phase","broad_category":"M","image_png":"M_Gneiss_14.png","image_id":206,"category_name":"Gneiss","category":13,"distinct_rating":3.41,"distinct_type":"Bottom","rt":null,"stimulus":"Stimuli_Rocks480/M_Gneiss_14.png","response":null,"trial_type":"image-keyboard-response","trial_index":85,"plugin_version":"2.1.0","time_elapsed":176613,"subject_id":"91953","group":"Group2","condition":"3_Rep","full_date":"2026-03-03T20:25:46.510Z","date":"2026-03-03","time":"20:25:46"},{"rt":null,"stimulus":"<p style=\"font-size: 50px; margin: 0; text-align: center;\">+</p>","response":null,"trial_type":"html-keyboard-response","trial_index":86,"plugin_version":"2.1.0","time_elapsed":177616,"subject_id":"91953","group":"Group2","condition":"3_Rep","full_date":"2026-03-03T20:25:46.510Z","date":"2026-03-03","time":"20:25:46"},{"task":"memory_phase","broad_category":"S","image_png":"S_Sandstone_11.png","image_id":459,"category_name":"Sandstone","category":29,"distinct_rating":1.82,"distinct_type":"Bottom","rt":null,"stimulus":"Stimuli_Rocks480/S_Sandstone_11.png","response":null,"trial_type":"image-keyboard-response","trial_index":87,"plugin_version":"2.1.0","time_elapsed":180133,"subject_id":"91953","group":"Group2","condition":"3_Rep","full_date":"2026-03-03T20:25:46.510Z","date":"2026-03-03","time":"20:25:46"},{"rt":null,"stimulus":"<p style=\"font-size: 50px; margin: 0; text-align: center;\">+</p>","response":null,"trial_type":"html-keyboard-response","trial_index":88,"plugin_version":"2.1.0","time_elapsed":181135,"subject_id":"91953","group":"Group2","condition":"3_Rep","full_date":"2026-03-03T20:25:46.510Z","date":"2026-03-03","time":"20:25:46"},{"task":"memory_phase","broad_category":"S","image_png":"S_Chert_13.png","image_id":365,"category_name":"Chert","category":23,"distinct_rating":6.57,"distinct_type":"Top","rt":null,"stimulus":"Stimuli_Rocks480/S_Chert_13.png","response":null,"trial_type":"image-keyboard-response","trial_index":89,"plugin_version":"2.1.0","time_elapsed":183645,"subject_id":"91953","group":"Group2","condition":"3_Rep","full_date":"2026-03-03T20:25:46.510Z","date":"2026-03-03","time":"20:25:46"},{"rt":null,"stimulus":"<p style=\"font-size: 50px; margin: 0; text-align: center;\">+</p>","response":null,"trial_type":"html-keyboard-response","trial_index":90,"plugin_version":"2.1.0","time_elapsed":184648,"subject_id":"91953","group":"Group2","condition":"3_Rep","full_date":"2026-03-03T20:25:46.510Z","date":"2026-03-03","time":"20:25:46"},{"task":"memory_phase","broad_category":"M","image_png":"M_Slate_04.png","image_id":308,"category_name":"Slate","category":20,"distinct_rating":2.2,"distinct_type":"Bottom","rt":null,"stimulus":"Stimuli_Rocks480/M_Slate_04.png","response":null,"trial_type":"image-keyboard-response","trial_index":91,"plugin_version":"2.1.0","time_elapsed":187159,"subject_id":"91953","group":"Group2","condition":"3_Rep","full_date":"2026-03-03T20:25:46.510Z","date":"2026-03-03","time":"20:25:46"},{"rt":null,"stimulus":"<p style=\"font-size: 50px; margin: 0; text-align: center;\">+</p>","response":null,"trial_type":"html-keyboard-response","trial_index":92,"plugin_version":"2.1.0","time_elapsed":188161,"subject_id":"91953","group":"Group2","condition":"3_Rep","full_date":"2026-03-03T20:25:46.510Z","date":"2026-03-03","time":"20:25:46"},{"task":"memory_phase","broad_category":"I","image_png":"I_Gabbro_14.png","image_id":62,"category_name":"Gabbro","category":4,"distinct_rating":2.95,"distinct_type":"Bottom","rt":null,"stimulus":"Stimuli_Rocks480/I_Gabbro_14.png","response":null,"trial_type":"image-keyboard-response","trial_index":93,"plugin_version":"2.1.0","time_elapsed":190679,"subject_id":"91953","group":"Group2","condition":"3_Rep","full_date":"2026-03-03T20:25:46.510Z","date":"2026-03-03","time":"20:25:46"},{"rt":null,"stimulus":"<p style=\"font-size: 50px; margin: 0; text-align: center;\">+</p>","response":null,"trial_type":"html-keyboard-response","trial_index":94,"plugin_version":"2.1.0","time_elapsed":191681,"subject_id":"91953","group":"Group2","condition":"3_Rep","full_date":"2026-03-03T20:25:46.510Z","date":"2026-03-03","time":"20:25:46"},{"task":"memory_phase","broad_category":"M","image_png":"M_Quartzite_15.png","image_id":287,"category_name":"Quartzite","category":18,"distinct_rating":2.19,"distinct_type":"Bottom","rt":null,"stimulus":"Stimuli_Rocks480/M_Quartzite_15.png","response":null,"trial_type":"image-keyboard-response","trial_index":95,"plugin_version":"2.1.0","time_elapsed":194199,"subject_id":"91953","group":"Group2","condition":"3_Rep","full_date":"2026-03-03T20:25:46.510Z","date":"2026-03-03","time":"20:25:46"},{"rt":null,"stimulus":"<p style=\"font-size: 50px; margin: 0; text-align: center;\">+</p>","response":null,"trial_type":"html-keyboard-response","trial_index":96,"plugin_version":"2.1.0","time_elapsed":195201,"subject_id":"91953","group":"Group2","condition":"3_Rep","full_date":"2026-03-03T20:25:46.510Z","date":"2026-03-03","time":"20:25:46"},{"task":"memory_phase","broad_category":"I","image_png":"I_Diorite_01.png","image_id":33,"category_name":"Diorite","category":3,"distinct_rating":2.97,"distinct_type":"Bottom","rt":null,"stimulus":"Stimuli_Rocks480/I_Diorite_01.png","response":null,"trial_type":"image-keyboard-response","trial_index":97,"plugin_version":"2.1.0","time_elapsed":197719,"subject_id":"91953","group":"Group2","condition":"3_Rep","full_date":"2026-03-03T20:25:46.510Z","date":"2026-03-03","time":"20:25:46"},{"rt":null,"stimulus":"<p style=\"font-size: 50px; margin: 0; text-align: center;\">+</p>","response":null,"trial_type":"html-keyboard-response","trial_index":98,"plugin_version":"2.1.0","time_elapsed":198721,"subject_id":"91953","group":"Group2","condition":"3_Rep","full_date":"2026-03-03T20:25:46.510Z","date":"2026-03-03","time":"20:25:46"},{"task":"memory_phase","broad_category":"I","image_png":"I_Basalt_13.png","image_id":29,"category_name":"Basalt","category":2,"distinct_rating":2.68,"distinct_type":"Bottom","rt":null,"stimulus":"Stimuli_Rocks480/I_Basalt_13.png","response":null,"trial_type":"image-keyboard-response","trial_index":99,"plugin_version":"2.1.0","time_elapsed":201234,"subject_id":"91953","group":"Group2","condition":"3_Rep","full_date":"2026-03-03T20:25:46.510Z","date":"2026-03-03","time":"20:25:46"},{"rt":null,"stimulus":"<p style=\"font-size: 50px; margin: 0; text-align: center;\">+</p>","response":null,"trial_type":"html-keyboard-response","trial_index":100,"plugin_version":"2.1.0","time_elapsed":202236,"subject_id":"91953","group":"Group2","condition":"3_Rep","full_date":"2026-03-03T20:25:46.510Z","date":"2026-03-03","time":"20:25:46"},{"task":"memory_phase","broad_category":"I","image_png":"I_Pumice_01.png","image_id":129,"category_name":"Pumice","category":9,"distinct_rating":3.25,"distinct_type":"Bottom","rt":null,"stimulus":"Stimuli_Rocks480/I_Pumice_01.png","response":null,"trial_type":"image-keyboard-response","trial_index":101,"plugin_version":"2.1.0","time_elapsed":204750,"subject_id":"91953","group":"Group2","condition":"3_Rep","full_date":"2026-03-03T20:25:46.510Z","date":"2026-03-03","time":"20:25:46"},{"rt":null,"stimulus":"<p style=\"font-size: 50px; margin: 0; text-align: center;\">+</p>","response":null,"trial_type":"html-keyboard-response","trial_index":102,"plugin_version":"2.1.0","time_elapsed":205752,"subject_id":"91953","group":"Group2","condition":"3_Rep","full_date":"2026-03-03T20:25:46.510Z","date":"2026-03-03","time":"20:25:46"},{"task":"memory_phase","broad_category":"I","image_png":"I_Gabbro_02.png","image_id":50,"category_name":"Gabbro","category":4,"distinct_rating":2.73,"distinct_type":"Bottom","rt":null,"stimulus":"Stimuli_Rocks480/I_Gabbro_02.png","response":null,"trial_type":"image-keyboard-response","trial_index":103,"plugin_version":"2.1.0","time_elapsed":208267,"subject_id":"91953","group":"Group2","condition":"3_Rep","full_date":"2026-03-03T20:25:46.510Z","date":"2026-03-03","time":"20:25:46"},{"rt":null,"stimulus":"<p style=\"font-size: 50px; margin: 0; text-align: center;\">+</p>","response":null,"trial_type":"html-keyboard-response","trial_index":104,"plugin_version":"2.1.0","time_elapsed":209269,"subject_id":"91953","group":"Group2","condition":"3_Rep","full_date":"2026-03-03T20:25:46.510Z","date":"2026-03-03","time":"20:25:46"},{"task":"memory_phase","broad_category":"S","image_png":"S_Dolomite_16.png","image_id":400,"category_name":"Dolomite","category":25,"distinct_rating":1.71,"distinct_type":"Bottom","rt":null,"stimulus":"Stimuli_Rocks480/S_Dolomite_16.png","response":null,"trial_type":"image-keyboard-response","trial_index":105,"plugin_version":"2.1.0","time_elapsed":211784,"subject_id":"91953","group":"Group2","condition":"3_Rep","full_date":"2026-03-03T20:25:46.510Z","date":"2026-03-03","time":"20:25:46"},{"rt":5842,"stimulus":"<p style=\"max-width: 760px; margin: auto; font-size: 35px; line-height: 1.5;\">\n                You have completed 1 study phase. \n                Now, we'll show you all the images again 2 more times.\n                <br><br>Press SPACE to continue\n              </p>","response":" ","trial_type":"html-keyboard-response","trial_index":106,"plugin_version":"2.1.0","time_elapsed":217627,"subject_id":"91953","group":"Group2","condition":"3_Rep","full_date":"2026-03-03T20:25:46.510Z","date":"2026-03-03","time":"20:25:46"},{"rt":null,"stimulus":"<p style=\"font-size: 50px; margin: 0; text-align: center;\">+</p>","response":null,"trial_type":"html-keyboard-response","trial_index":107,"plugin_version":"2.1.0","time_elapsed":218630,"subject_id":"91953","group":"Group2","condition":"3_Rep","full_date":"2026-03-03T20:25:46.510Z","date":"2026-03-03","time":"20:25:46"},{"task":"memory_phase","broad_category":"I","image_png":"I_Diorite_01.png","image_id":33,"category_name":"Diorite","category":3,"distinct_rating":2.97,"distinct_type":"Bottom","rt":null,"stimulus":"Stimuli_Rocks480/I_Diorite_01.png","response":null,"trial_type":"image-keyboard-response","trial_index":108,"plugin_version":"2.1.0","time_elapsed":221133,"subject_id":"91953","group":"Group2","condition":"3_Rep","full_date":"2026-03-03T20:25:46.510Z","date":"2026-03-03","time":"20:25:46"},{"rt":null,"stimulus":"<p style=\"font-size: 50px; margin: 0; text-align: center;\">+</p>","response":null,"trial_type":"html-keyboard-response","trial_index":109,"plugin_version":"2.1.0","time_elapsed":222135,"subject_id":"91953","group":"Group2","condition":"3_Rep","full_date":"2026-03-03T20:25:46.510Z","date":"2026-03-03","time":"20:25:46"},{"task":"memory_phase","broad_category":"I","image_png":"I_Basalt_13.png","image_id":29,"category_name":"Basalt","category":2,"distinct_rating":2.68,"distinct_type":"Bottom","rt":null,"stimulus":"Stimuli_Rocks480/I_Basalt_13.png","response":null,"trial_type":"image-keyboard-response","trial_index":110,"plugin_version":"2.1.0","time_elapsed":224638,"subject_id":"91953","group":"Group2","condition":"3_Rep","full_date":"2026-03-03T20:25:46.510Z","date":"2026-03-03","time":"20:25:46"},{"rt":null,"stimulus":"<p style=\"font-size: 50px; margin: 0; text-align: center;\">+</p>","response":null,"trial_type":"html-keyboard-response","trial_index":111,"plugin_version":"2.1.0","time_elapsed":225640,"subject_id":"91953","group":"Group2","condition":"3_Rep","full_date":"2026-03-03T20:25:46.510Z","date":"2026-03-03","time":"20:25:46"},{"task":"memory_phase","broad_category":"S","image_png":"S_Sandstone_08.png","image_id":456,"category_name":"Sandstone","category":29,"distinct_rating":1.5,"distinct_type":"Bottom","rt":null,"stimulus":"Stimuli_Rocks480/S_Sandstone_08.png","response":null,"trial_type":"image-keyboard-response","trial_index":112,"plugin_version":"2.1.0","time_elapsed":228155,"subject_id":"91953","group":"Group2","condition":"3_Rep","full_date":"2026-03-03T20:25:46.510Z","date":"2026-03-03","time":"20:25:46"},{"rt":null,"stimulus":"<p style=\"font-size: 50px; margin: 0; text-align: center;\">+</p>","response":null,"trial_type":"html-keyboard-response","trial_index":113,"plugin_version":"2.1.0","time_elapsed":229157,"subject_id":"91953","group":"Group2","condition":"3_Rep","full_date":"2026-03-03T20:25:46.510Z","date":"2026-03-03","time":"20:25:46"},{"task":"memory_phase","broad_category":"M","image_png":"M_Quartzite_12.png","image_id":284,"category_name":"Quartzite","category":18,"distinct_rating":1.92,"distinct_type":"Bottom","rt":null,"stimulus":"Stimuli_Rocks480/M_Quartzite_12.png","response":null,"trial_type":"image-keyboard-response","trial_index":114,"plugin_version":"2.1.0","time_elapsed":231669,"subject_id":"91953","group":"Group2","condition":"3_Rep","full_date":"2026-03-03T20:25:46.510Z","date":"2026-03-03","time":"20:25:46"},{"rt":null,"stimulus":"<p style=\"font-size: 50px; margin: 0; text-align: center;\">+</p>","response":null,"trial_type":"html-keyboard-response","trial_index":115,"plugin_version":"2.1.0","time_elapsed":232671,"subject_id":"91953","group":"Group2","condition":"3_Rep","full_date":"2026-03-03T20:25:46.510Z","date":"2026-03-03","time":"20:25:46"},{"task":"memory_phase","broad_category":"I","image_png":"I_Pumice_13.png","image_id":141,"category_name":"Pumice","category":9,"distinct_rating":3.12,"distinct_type":"Bottom","rt":null,"stimulus":"Stimuli_Rocks480/I_Pumice_13.png","response":null,"trial_type":"image-keyboard-response","trial_index":116,"plugin_version":"2.1.0","time_elapsed":235188,"subject_id":"91953","group":"Group2","condition":"3_Rep","full_date":"2026-03-03T20:25:46.510Z","date":"2026-03-03","time":"20:25:46"},{"rt":null,"stimulus":"<p style=\"font-size: 50px; margin: 0; text-align: center;\">+</p>","response":null,"trial_type":"html-keyboard-response","trial_index":117,"plugin_version":"2.1.0","time_elapsed":236191,"subject_id":"91953","group":"Group2","condition":"3_Rep","full_date":"2026-03-03T20:25:46.510Z","date":"2026-03-03","time":"20:25:46"},{"task":"memory_phase","broad_category":"I","image_png":"I_Obsidian_06.png","image_id":86,"category_name":"Obsidian","category":6,"distinct_rating":8.01,"distinct_type":"Top","rt":null,"stimulus":"Stimuli_Rocks480/I_Obsidian_06.png","response":null,"trial_type":"image-keyboard-response","trial_index":118,"plugin_version":"2.1.0","time_elapsed":238708,"subject_id":"91953","group":"Group2","condition":"3_Rep","full_date":"2026-03-03T20:25:46.510Z","date":"2026-03-03","time":"20:25:46"},{"rt":null,"stimulus":"<p style=\"font-size: 50px; margin: 0; text-align: center;\">+</p>","response":null,"trial_type":"html-keyboard-response","trial_index":119,"plugin_version":"2.1.0","time_elapsed":239710,"subject_id":"91953","group":"Group2","condition":"3_Rep","full_date":"2026-03-03T20:25:46.510Z","date":"2026-03-03","time":"20:25:46"},{"task":"memory_phase","broad_category":"S","image_png":"S_Conglomerate_14.png","image_id":382,"category_name":"Conglomerate","category":24,"distinct_rating":6.86,"distinct_type":"Top","rt":null,"stimulus":"Stimuli_Rocks480/S_Conglomerate_14.png","response":null,"trial_type":"image-keyboard-response","trial_index":120,"plugin_version":"2.1.0","time_elapsed":242225,"subject_id":"91953","group":"Group2","condition":"3_Rep","full_date":"2026-03-03T20:25:46.510Z","date":"2026-03-03","time":"20:25:46"},{"rt":null,"stimulus":"<p style=\"font-size: 50px; margin: 0; text-align: center;\">+</p>","response":null,"trial_type":"html-keyboard-response","trial_index":121,"plugin_version":"2.1.0","time_elapsed":243227,"subject_id":"91953","group":"Group2","condition":"3_Rep","full_date":"2026-03-03T20:25:46.510Z","date":"2026-03-03","time":"20:25:46"},{"task":"memory_phase","broad_category":"M","image_png":"M_Quartzite_15.png","image_id":287,"category_name":"Quartzite","category":18,"distinct_rating":2.19,"distinct_type":"Bottom","rt":null,"stimulus":"Stimuli_Rocks480/M_Quartzite_15.png","response":null,"trial_type":"image-keyboard-response","trial_index":122,"plugin_version":"2.1.0","time_elapsed":245730,"subject_id":"91953","group":"Group2","condition":"3_Rep","full_date":"2026-03-03T20:25:46.510Z","date":"2026-03-03","time":"20:25:46"},{"rt":null,"stimulus":"<p style=\"font-size: 50px; margin: 0; text-align: center;\">+</p>","response":null,"trial_type":"html-keyboard-response","trial_index":123,"plugin_version":"2.1.0","time_elapsed":246732,"subject_id":"91953","group":"Group2","condition":"3_Rep","full_date":"2026-03-03T20:25:46.510Z","date":"2026-03-03","time":"20:25:46"},{"task":"memory_phase","broad_category":"I","image_png":"I_Rhyolite_08.png","image_id":152,"category_name":"Rhyolite","category":10,"distinct_rating":1.38,"distinct_type":"Bottom","rt":null,"stimulus":"Stimuli_Rocks480/I_Rhyolite_08.png","response":null,"trial_type":"image-keyboard-response","trial_index":124,"plugin_version":"2.1.0","time_elapsed":249244,"subject_id":"91953","group":"Group2","condition":"3_Rep","full_date":"2026-03-03T20:25:46.510Z","date":"2026-03-03","time":"20:25:46"},{"rt":null,"stimulus":"<p style=\"font-size: 50px; margin: 0; text-align: center;\">+</p>","response":null,"trial_type":"html-keyboard-response","trial_index":125,"plugin_version":"2.1.0","time_elapsed":250246,"subject_id":"91953","group":"Group2","condition":"3_Rep","full_date":"2026-03-03T20:25:46.510Z","date":"2026-03-03","time":"20:25:46"},{"task":"memory_phase","broad_category":"I","image_png":"I_Andesite_03.png","image_id":3,"category_name":"Andesite","category":1,"distinct_rating":3.17,"distinct_type":"Bottom","rt":null,"stimulus":"Stimuli_Rocks480/I_Andesite_03.png","response":null,"trial_type":"image-keyboard-response","trial_index":126,"plugin_version":"2.1.0","time_elapsed":252757,"subject_id":"91953","group":"Group2","condition":"3_Rep","full_date":"2026-03-03T20:25:46.510Z","date":"2026-03-03","time":"20:25:46"},{"rt":null,"stimulus":"<p style=\"font-size: 50px; margin: 0; text-align: center;\">+</p>","response":null,"trial_type":"html-keyboard-response","trial_index":127,"plugin_version":"2.1.0","time_elapsed":253759,"subject_id":"91953","group":"Group2","condition":"3_Rep","full_date":"2026-03-03T20:25:46.510Z","date":"2026-03-03","time":"20:25:46"},{"task":"memory_phase","broad_category":"I","image_png":"I_Diorite_10.png","image_id":42,"category_name":"Diorite","category":3,"distinct_rating":2.84,"distinct_type":"Bottom","rt":null,"stimulus":"Stimuli_Rocks480/I_Diorite_10.png","response":null,"trial_type":"image-keyboard-response","trial_index":128,"plugin_version":"2.1.0","time_elapsed":256273,"subject_id":"91953","group":"Group2","condition":"3_Rep","full_date":"2026-03-03T20:25:46.510Z","date":"2026-03-03","time":"20:25:46"},{"rt":null,"stimulus":"<p style=\"font-size: 50px; margin: 0; text-align: center;\">+</p>","response":null,"trial_type":"html-keyboard-response","trial_index":129,"plugin_version":"2.1.0","time_elapsed":257275,"subject_id":"91953","group":"Group2","condition":"3_Rep","full_date":"2026-03-03T20:25:46.510Z","date":"2026-03-03","time":"20:25:46"},{"task":"memory_phase","broad_category":"S","image_png":"S_Dolomite_01.png","image_id":385,"category_name":"Dolomite","category":25,"distinct_rating":1.43,"distinct_type":"Bottom","rt":null,"stimulus":"Stimuli_Rocks480/S_Dolomite_01.png","response":null,"trial_type":"image-keyboard-response","trial_index":130,"plugin_version":"2.1.0","time_elapsed":259794,"subject_id":"91953","group":"Group2","condition":"3_Rep","full_date":"2026-03-03T20:25:46.510Z","date":"2026-03-03","time":"20:25:46"},{"rt":null,"stimulus":"<p style=\"font-size: 50px; margin: 0; text-align: center;\">+</p>","response":null,"trial_type":"html-keyboard-response","trial_index":131,"plugin_version":"2.1.0","time_elapsed":260797,"subject_id":"91953","group":"Group2","condition":"3_Rep","full_date":"2026-03-03T20:25:46.510Z","date":"2026-03-03","time":"20:25:46"},{"task":"memory_phase","broad_category":"M","image_png":"M_Marble_14.png","image_id":238,"category_name":"Marble","category":15,"distinct_rating":3.31,"distinct_type":"Bottom","rt":null,"stimulus":"Stimuli_Rocks480/M_Marble_14.png","response":null,"trial_type":"image-keyboard-response","trial_index":132,"plugin_version":"2.1.0","time_elapsed":263311,"subject_id":"91953","group":"Group2","condition":"3_Rep","full_date":"2026-03-03T20:25:46.510Z","date":"2026-03-03","time":"20:25:46"},{"rt":null,"stimulus":"<p style=\"font-size: 50px; margin: 0; text-align: center;\">+</p>","response":null,"trial_type":"html-keyboard-response","trial_index":133,"plugin_version":"2.1.0","time_elapsed":264313,"subject_id":"91953","group":"Group2","condition":"3_Rep","full_date":"2026-03-03T20:25:46.510Z","date":"2026-03-03","time":"20:25:46"},{"task":"memory_phase","broad_category":"I","image_png":"I_Diorite_15.png","image_id":47,"category_name":"Diorite","category":3,"distinct_rating":3.05,"distinct_type":"Bottom","rt":null,"stimulus":"Stimuli_Rocks480/I_Diorite_15.png","response":null,"trial_type":"image-keyboard-response","trial_index":134,"plugin_version":"2.1.0","time_elapsed":266826,"subject_id":"91953","group":"Group2","condition":"3_Rep","full_date":"2026-03-03T20:25:46.510Z","date":"2026-03-03","time":"20:25:46"},{"rt":null,"stimulus":"<p style=\"font-size: 50px; margin: 0; text-align: center;\">+</p>","response":null,"trial_type":"html-keyboard-response","trial_index":135,"plugin_version":"2.1.0","time_elapsed":267828,"subject_id":"91953","group":"Group2","condition":"3_Rep","full_date":"2026-03-03T20:25:46.510Z","date":"2026-03-03","time":"20:25:46"},{"task":"memory_phase","broad_category":"M","image_png":"M_Gneiss_15.png","image_id":207,"category_name":"Gneiss","category":13,"distinct_rating":3.11,"distinct_type":"Bottom","rt":null,"stimulus":"Stimuli_Rocks480/M_Gneiss_15.png","response":null,"trial_type":"image-keyboard-response","trial_index":136,"plugin_version":"2.1.0","time_elapsed":270344,"subject_id":"91953","group":"Group2","condition":"3_Rep","full_date":"2026-03-03T20:25:46.510Z","date":"2026-03-03","time":"20:25:46"},{"rt":null,"stimulus":"<p style=\"font-size: 50px; margin: 0; text-align: center;\">+</p>","response":null,"trial_type":"html-keyboard-response","trial_index":137,"plugin_version":"2.1.0","time_elapsed":271346,"subject_id":"91953","group":"Group2","condition":"3_Rep","full_date":"2026-03-03T20:25:46.510Z","date":"2026-03-03","time":"20:25:46"},{"task":"memory_phase","broad_category":"I","image_png":"I_Pegmatite_11.png","image_id":107,"category_name":"Pegmatite","category":7,"distinct_rating":7.11,"distinct_type":"Top","rt":null,"stimulus":"Stimuli_Rocks480/I_Pegmatite_11.png","response":null,"trial_type":"image-keyboard-response","trial_index":138,"plugin_version":"2.1.0","time_elapsed":273864,"subject_id":"91953","group":"Group2","condition":"3_Rep","full_date":"2026-03-03T20:25:46.510Z","date":"2026-03-03","time":"20:25:46"},{"rt":null,"stimulus":"<p style=\"font-size: 50px; margin: 0; text-align: center;\">+</p>","response":null,"trial_type":"html-keyboard-response","trial_index":139,"plugin_version":"2.1.0","time_elapsed":274867,"subject_id":"91953","group":"Group2","condition":"3_Rep","full_date":"2026-03-03T20:25:46.510Z","date":"2026-03-03","time":"20:25:46"},{"task":"memory_phase","broad_category":"I","image_png":"I_Rhyolite_05.png","image_id":149,"category_name":"Rhyolite","category":10,"distinct_rating":3.02,"distinct_type":"Bottom","rt":null,"stimulus":"Stimuli_Rocks480/I_Rhyolite_05.png","response":null,"trial_type":"image-keyboard-response","trial_index":140,"plugin_version":"2.1.0","time_elapsed":277385,"subject_id":"91953","group":"Group2","condition":"3_Rep","full_date":"2026-03-03T20:25:46.510Z","date":"2026-03-03","time":"20:25:46"},{"rt":null,"stimulus":"<p style=\"font-size: 50px; margin: 0; text-align: center;\">+</p>","response":null,"trial_type":"html-keyboard-response","trial_index":141,"plugin_version":"2.1.0","time_elapsed":278387,"subject_id":"91953","group":"Group2","condition":"3_Rep","full_date":"2026-03-03T20:25:46.510Z","date":"2026-03-03","time":"20:25:46"},{"task":"memory_phase","broad_category":"S","image_png":"S_Sandstone_04.png","image_id":452,"category_name":"Sandstone","category":29,"distinct_rating":1.8,"distinct_type":"Bottom","rt":null,"stimulus":"Stimuli_Rocks480/S_Sandstone_04.png","response":null,"trial_type":"image-keyboard-response","trial_index":142,"plugin_version":"2.1.0","time_elapsed":280904,"subject_id":"91953","group":"Group2","condition":"3_Rep","full_date":"2026-03-03T20:25:46.510Z","date":"2026-03-03","time":"20:25:46"},{"rt":null,"stimulus":"<p style=\"font-size: 50px; margin: 0; text-align: center;\">+</p>","response":null,"trial_type":"html-keyboard-response","trial_index":143,"plugin_version":"2.1.0","time_elapsed":281906,"subject_id":"91953","group":"Group2","condition":"3_Rep","full_date":"2026-03-03T20:25:46.510Z","date":"2026-03-03","time":"20:25:46"},{"task":"memory_phase","broad_category":"M","image_png":"M_Gneiss_10.png","image_id":202,"category_name":"Gneiss","category":13,"distinct_rating":3.09,"distinct_type":"Bottom","rt":null,"stimulus":"Stimuli_Rocks480/M_Gneiss_10.png","response":null,"trial_type":"image-keyboard-response","trial_index":144,"plugin_version":"2.1.0","time_elapsed":284422,"subject_id":"91953","group":"Group2","condition":"3_Rep","full_date":"2026-03-03T20:25:46.510Z","date":"2026-03-03","time":"20:25:46"},{"rt":null,"stimulus":"<p style=\"font-size: 50px; margin: 0; text-align: center;\">+</p>","response":null,"trial_type":"html-keyboard-response","trial_index":145,"plugin_version":"2.1.0","time_elapsed":285424,"subject_id":"91953","group":"Group2","condition":"3_Rep","full_date":"2026-03-03T20:25:46.510Z","date":"2026-03-03","time":"20:25:46"},{"task":"memory_phase","broad_category":"S","image_png":"S_Shale_03.png","image_id":467,"category_name":"Shale","category":30,"distinct_rating":1.95,"distinct_type":"Bottom","rt":null,"stimulus":"Stimuli_Rocks480/S_Shale_03.png","response":null,"trial_type":"image-keyboard-response","trial_index":146,"plugin_version":"2.1.0","time_elapsed":287943,"subject_id":"91953","group":"Group2","condition":"3_Rep","full_date":"2026-03-03T20:25:46.510Z","date":"2026-03-03","time":"20:25:46"},{"rt":null,"stimulus":"<p style=\"font-size: 50px; margin: 0; text-align: center;\">+</p>","response":null,"trial_type":"html-keyboard-response","trial_index":147,"plugin_version":"2.1.0","time_elapsed":288945,"subject_id":"91953","group":"Group2","condition":"3_Rep","full_date":"2026-03-03T20:25:46.510Z","date":"2026-03-03","time":"20:25:46"},{"task":"memory_phase","broad_category":"S","image_png":"S_Chert_13.png","image_id":365,"category_name":"Chert","category":23,"distinct_rating":6.57,"distinct_type":"Top","rt":null,"stimulus":"Stimuli_Rocks480/S_Chert_13.png","response":null,"trial_type":"image-keyboard-response","trial_index":148,"plugin_version":"2.1.0","time_elapsed":291448,"subject_id":"91953","group":"Group2","condition":"3_Rep","full_date":"2026-03-03T20:25:46.510Z","date":"2026-03-03","time":"20:25:46"},{"rt":null,"stimulus":"<p style=\"font-size: 50px; margin: 0; text-align: center;\">+</p>","response":null,"trial_type":"html-keyboard-response","trial_index":149,"plugin_version":"2.1.0","time_elapsed":292450,"subject_id":"91953","group":"Group2","condition":"3_Rep","full_date":"2026-03-03T20:25:46.510Z","date":"2026-03-03","time":"20:25:46"},{"task":"memory_phase","broad_category":"M","image_png":"M_Slate_14.png","image_id":318,"category_name":"Slate","category":20,"distinct_rating":2.58,"distinct_type":"Bottom","rt":null,"stimulus":"Stimuli_Rocks480/M_Slate_14.png","response":null,"trial_type":"image-keyboard-response","trial_index":150,"plugin_version":"2.1.0","time_elapsed":294963,"subject_id":"91953","group":"Group2","condition":"3_Rep","full_date":"2026-03-03T20:25:46.510Z","date":"2026-03-03","time":"20:25:46"},{"rt":null,"stimulus":"<p style=\"font-size: 50px; margin: 0; text-align: center;\">+</p>","response":null,"trial_type":"html-keyboard-response","trial_index":151,"plugin_version":"2.1.0","time_elapsed":295965,"subject_id":"91953","group":"Group2","condition":"3_Rep","full_date":"2026-03-03T20:25:46.510Z","date":"2026-03-03","time":"20:25:46"},{"task":"memory_phase","broad_category":"I","image_png":"I_Pegmatite_03.png","image_id":99,"category_name":"Pegmatite","category":7,"distinct_rating":7.24,"distinct_type":"Top","rt":null,"stimulus":"Stimuli_Rocks480/I_Pegmatite_03.png","response":null,"trial_type":"image-keyboard-response","trial_index":152,"plugin_version":"2.1.0","time_elapsed":298479,"subject_id":"91953","group":"Group2","condition":"3_Rep","full_date":"2026-03-03T20:25:46.510Z","date":"2026-03-03","time":"20:25:46"},{"rt":null,"stimulus":"<p style=\"font-size: 50px; margin: 0; text-align: center;\">+</p>","response":null,"trial_type":"html-keyboard-response","trial_index":153,"plugin_version":"2.1.0","time_elapsed":299481,"subject_id":"91953","group":"Group2","condition":"3_Rep","full_date":"2026-03-03T20:25:46.510Z","date":"2026-03-03","time":"20:25:46"},{"task":"memory_phase","broad_category":"I","image_png":"I_Andesite_09.png","image_id":9,"category_name":"Andesite","category":1,"distinct_rating":2.49,"distinct_type":"Bottom","rt":null,"stimulus":"Stimuli_Rocks480/I_Andesite_09.png","response":null,"trial_type":"image-keyboard-response","trial_index":154,"plugin_version":"2.1.0","time_elapsed":301996,"subject_id":"91953","group":"Group2","condition":"3_Rep","full_date":"2026-03-03T20:25:46.510Z","date":"2026-03-03","time":"20:25:46"},{"rt":null,"stimulus":"<p style=\"font-size: 50px; margin: 0; text-align: center;\">+</p>","response":null,"trial_type":"html-keyboard-response","trial_index":155,"plugin_version":"2.1.0","time_elapsed":302998,"subject_id":"91953","group":"Group2","condition":"3_Rep","full_date":"2026-03-03T20:25:46.510Z","date":"2026-03-03","time":"20:25:46"},{"task":"memory_phase","broad_category":"I","image_png":"I_Gabbro_02.png","image_id":50,"category_name":"Gabbro","category":4,"distinct_rating":2.73,"distinct_type":"Bottom","rt":null,"stimulus":"Stimuli_Rocks480/I_Gabbro_02.png","response":null,"trial_type":"image-keyboard-response","trial_index":156,"plugin_version":"2.1.0","time_elapsed":305514,"subject_id":"91953","group":"Group2","condition":"3_Rep","full_date":"2026-03-03T20:25:46.510Z","date":"2026-03-03","time":"20:25:46"},{"rt":1737,"stimulus":"<p style=\"max-width: 760px; margin: auto; font-size: 35px; line-height: 1.5;\">\n                Press SPACE to continue study phase\n              </p>","response":" ","trial_type":"html-keyboard-response","trial_index":157,"plugin_version":"2.1.0","time_elapsed":307252,"subject_id":"91953","group":"Group2","condition":"3_Rep","full_date":"2026-03-03T20:25:46.510Z","date":"2026-03-03","time":"20:25:46"},{"rt":null,"stimulus":"<p style=\"font-size: 50px; margin: 0; text-align: center;\">+</p>","response":null,"trial_type":"html-keyboard-response","trial_index":158,"plugin_version":"2.1.0","time_elapsed":308255,"subject_id":"91953","group":"Group2","condition":"3_Rep","full_date":"2026-03-03T20:25:46.510Z","date":"2026-03-03","time":"20:25:46"},{"task":"memory_phase","broad_category":"M","image_png":"M_Marble_03.png","image_id":227,"category_name":"Marble","category":15,"distinct_rating":2.67,"distinct_type":"Bottom","rt":null,"stimulus":"Stimuli_Rocks480/M_Marble_03.png","response":null,"trial_type":"image-keyboard-response","trial_index":159,"plugin_version":"2.1.0","time_elapsed":310769,"subject_id":"91953","group":"Group2","condition":"3_Rep","full_date":"2026-03-03T20:25:46.510Z","date":"2026-03-03","time":"20:25:46"},{"rt":null,"stimulus":"<p style=\"font-size: 50px; margin: 0; text-align: center;\">+</p>","response":null,"trial_type":"html-keyboard-response","trial_index":160,"plugin_version":"2.1.0","time_elapsed":311771,"subject_id":"91953","group":"Group2","condition":"3_Rep","full_date":"2026-03-03T20:25:46.510Z","date":"2026-03-03","time":"20:25:46"},{"task":"memory_phase","broad_category":"I","image_png":"I_Basalt_08.png","image_id":24,"category_name":"Basalt","category":2,"distinct_rating":2.31,"distinct_type":"Bottom","rt":null,"stimulus":"Stimuli_Rocks480/I_Basalt_08.png","response":null,"trial_type":"image-keyboard-response","trial_index":161,"plugin_version":"2.1.0","time_elapsed":314291,"subject_id":"91953","group":"Group2","condition":"3_Rep","full_date":"2026-03-03T20:25:46.510Z","date":"2026-03-03","time":"20:25:46"},{"rt":null,"stimulus":"<p style=\"font-size: 50px; margin: 0; text-align: center;\">+</p>","response":null,"trial_type":"html-keyboard-response","trial_index":162,"plugin_version":"2.1.0","time_elapsed":315293,"subject_id":"91953","group":"Group2","condition":"3_Rep","full_date":"2026-03-03T20:25:46.510Z","date":"2026-03-03","time":"20:25:46"},{"task":"memory_phase","broad_category":"S","image_png":"S_Shale_07.png","image_id":471,"category_name":"Shale","category":30,"distinct_rating":2.73,"distinct_type":"Bottom","rt":null,"stimulus":"Stimuli_Rocks480/S_Shale_07.png","response":null,"trial_type":"image-keyboard-response","trial_index":163,"plugin_version":"2.1.0","time_elapsed":317807,"subject_id":"91953","group":"Group2","condition":"3_Rep","full_date":"2026-03-03T20:25:46.510Z","date":"2026-03-03","time":"20:25:46"},{"rt":null,"stimulus":"<p style=\"font-size: 50px; margin: 0; text-align: center;\">+</p>","response":null,"trial_type":"html-keyboard-response","trial_index":164,"plugin_version":"2.1.0","time_elapsed":318809,"subject_id":"91953","group":"Group2","condition":"3_Rep","full_date":"2026-03-03T20:25:46.510Z","date":"2026-03-03","time":"20:25:46"},{"task":"memory_phase","broad_category":"S","image_png":"S_Shale_02.png","image_id":466,"category_name":"Shale","category":30,"distinct_rating":2.9,"distinct_type":"Bottom","rt":null,"stimulus":"Stimuli_Rocks480/S_Shale_02.png","response":null,"trial_type":"image-keyboard-response","trial_index":165,"plugin_version":"2.1.0","time_elapsed":321322,"subject_id":"91953","group":"Group2","condition":"3_Rep","full_date":"2026-03-03T20:25:46.510Z","date":"2026-03-03","time":"20:25:46"},{"rt":null,"stimulus":"<p style=\"font-size: 50px; margin: 0; text-align: center;\">+</p>","response":null,"trial_type":"html-keyboard-response","trial_index":166,"plugin_version":"2.1.0","time_elapsed":322324,"subject_id":"91953","group":"Group2","condition":"3_Rep","full_date":"2026-03-03T20:25:46.510Z","date":"2026-03-03","time":"20:25:46"},{"task":"memory_phase","broad_category":"I","image_png":"I_Gabbro_14.png","image_id":62,"category_name":"Gabbro","category":4,"distinct_rating":2.95,"distinct_type":"Bottom","rt":null,"stimulus":"Stimuli_Rocks480/I_Gabbro_14.png","response":null,"trial_type":"image-keyboard-response","trial_index":167,"plugin_version":"2.1.0","time_elapsed":324842,"subject_id":"91953","group":"Group2","condition":"3_Rep","full_date":"2026-03-03T20:25:46.510Z","date":"2026-03-03","time":"20:25:46"},{"rt":null,"stimulus":"<p style=\"font-size: 50px; margin: 0; text-align: center;\">+</p>","response":null,"trial_type":"html-keyboard-response","trial_index":168,"plugin_version":"2.1.0","time_elapsed":325844,"subject_id":"91953","group":"Group2","condition":"3_Rep","full_date":"2026-03-03T20:25:46.510Z","date":"2026-03-03","time":"20:25:46"},{"task":"memory_phase","broad_category":"M","image_png":"M_Phyllite_05.png","image_id":261,"category_name":"Phyllite","category":17,"distinct_rating":2.14,"distinct_type":"Bottom","rt":null,"stimulus":"Stimuli_Rocks480/M_Phyllite_05.png","response":null,"trial_type":"image-keyboard-response","trial_index":169,"plugin_version":"2.1.0","time_elapsed":328359,"subject_id":"91953","group":"Group2","condition":"3_Rep","full_date":"2026-03-03T20:25:46.510Z","date":"2026-03-03","time":"20:25:46"},{"rt":null,"stimulus":"<p style=\"font-size: 50px; margin: 0; text-align: center;\">+</p>","response":null,"trial_type":"html-keyboard-response","trial_index":170,"plugin_version":"2.1.0","time_elapsed":329361,"subject_id":"91953","group":"Group2","condition":"3_Rep","full_date":"2026-03-03T20:25:46.510Z","date":"2026-03-03","time":"20:25:46"},{"task":"memory_phase","broad_category":"I","image_png":"I_Gabbro_12.png","image_id":60,"category_name":"Gabbro","category":4,"distinct_rating":2.6,"distinct_type":"Bottom","rt":null,"stimulus":"Stimuli_Rocks480/I_Gabbro_12.png","response":null,"trial_type":"image-keyboard-response","trial_index":171,"plugin_version":"2.1.0","time_elapsed":331878,"subject_id":"91953","group":"Group2","condition":"3_Rep","full_date":"2026-03-03T20:25:46.510Z","date":"2026-03-03","time":"20:25:46"},{"rt":null,"stimulus":"<p style=\"font-size: 50px; margin: 0; text-align: center;\">+</p>","response":null,"trial_type":"html-keyboard-response","trial_index":172,"plugin_version":"2.1.0","time_elapsed":332880,"subject_id":"91953","group":"Group2","condition":"3_Rep","full_date":"2026-03-03T20:25:46.510Z","date":"2026-03-03","time":"20:25:46"},{"task":"memory_phase","broad_category":"S","image_png":"S_Sandstone_11.png","image_id":459,"category_name":"Sandstone","category":29,"distinct_rating":1.82,"distinct_type":"Bottom","rt":null,"stimulus":"Stimuli_Rocks480/S_Sandstone_11.png","response":null,"trial_type":"image-keyboard-response","trial_index":173,"plugin_version":"2.1.0","time_elapsed":335398,"subject_id":"91953","group":"Group2","condition":"3_Rep","full_date":"2026-03-03T20:25:46.510Z","date":"2026-03-03","time":"20:25:46"},{"rt":null,"stimulus":"<p style=\"font-size: 50px; margin: 0; text-align: center;\">+</p>","response":null,"trial_type":"html-keyboard-response","trial_index":174,"plugin_version":"2.1.0","time_elapsed":336400,"subject_id":"91953","group":"Group2","condition":"3_Rep","full_date":"2026-03-03T20:25:46.510Z","date":"2026-03-03","time":"20:25:46"},{"task":"memory_phase","broad_category":"I","image_png":"I_Peridotite_13.png","image_id":125,"category_name":"Peridotite","category":8,"distinct_rating":7.28,"distinct_type":"Top","rt":null,"stimulus":"Stimuli_Rocks480/I_Peridotite_13.png","response":null,"trial_type":"image-keyboard-response","trial_index":175,"plugin_version":"2.1.0","time_elapsed":338918,"subject_id":"91953","group":"Group2","condition":"3_Rep","full_date":"2026-03-03T20:25:46.510Z","date":"2026-03-03","time":"20:25:46"},{"rt":null,"stimulus":"<p style=\"font-size: 50px; margin: 0; text-align: center;\">+</p>","response":null,"trial_type":"html-keyboard-response","trial_index":176,"plugin_version":"2.1.0","time_elapsed":339920,"subject_id":"91953","group":"Group2","condition":"3_Rep","full_date":"2026-03-03T20:25:46.510Z","date":"2026-03-03","time":"20:25:46"},{"task":"memory_phase","broad_category":"M","image_png":"M_Slate_10.png","image_id":314,"category_name":"Slate","category":20,"distinct_rating":1.94,"distinct_type":"Bottom","rt":null,"stimulus":"Stimuli_Rocks480/M_Slate_10.png","response":null,"trial_type":"image-keyboard-response","trial_index":177,"plugin_version":"2.1.0","time_elapsed":342431,"subject_id":"91953","group":"Group2","condition":"3_Rep","full_date":"2026-03-03T20:25:46.510Z","date":"2026-03-03","time":"20:25:46"},{"rt":null,"stimulus":"<p style=\"font-size: 50px; margin: 0; text-align: center;\">+</p>","response":null,"trial_type":"html-keyboard-response","trial_index":178,"plugin_version":"2.1.0","time_elapsed":343433,"subject_id":"91953","group":"Group2","condition":"3_Rep","full_date":"2026-03-03T20:25:46.510Z","date":"2026-03-03","time":"20:25:46"},{"task":"memory_phase","broad_category":"S","image_png":"S_Rock Salt_13.png","image_id":445,"category_name":"Rock Salt","category":28,"distinct_rating":7.58,"distinct_type":"Top","rt":null,"stimulus":"Stimuli_Rocks480/S_Rock Salt_13.png","response":null,"trial_type":"image-keyboard-response","trial_index":179,"plugin_version":"2.1.0","time_elapsed":345950,"subject_id":"91953","group":"Group2","condition":"3_Rep","full_date":"2026-03-03T20:25:46.510Z","date":"2026-03-03","time":"20:25:46"},{"rt":null,"stimulus":"<p style=\"font-size: 50px; margin: 0; text-align: center;\">+</p>","response":null,"trial_type":"html-keyboard-response","trial_index":180,"plugin_version":"2.1.0","time_elapsed":346952,"subject_id":"91953","group":"Group2","condition":"3_Rep","full_date":"2026-03-03T20:25:46.510Z","date":"2026-03-03","time":"20:25:46"},{"task":"memory_phase","broad_category":"I","image_png":"I_Pumice_01.png","image_id":129,"category_name":"Pumice","category":9,"distinct_rating":3.25,"distinct_type":"Bottom","rt":null,"stimulus":"Stimuli_Rocks480/I_Pumice_01.png","response":null,"trial_type":"image-keyboard-response","trial_index":181,"plugin_version":"2.1.0","time_elapsed":349467,"subject_id":"91953","group":"Group2","condition":"3_Rep","full_date":"2026-03-03T20:25:46.510Z","date":"2026-03-03","time":"20:25:46"},{"rt":null,"stimulus":"<p style=\"font-size: 50px; margin: 0; text-align: center;\">+</p>","response":null,"trial_type":"html-keyboard-response","trial_index":182,"plugin_version":"2.1.0","time_elapsed":350469,"subject_id":"91953","group":"Group2","condition":"3_Rep","full_date":"2026-03-03T20:25:46.510Z","date":"2026-03-03","time":"20:25:46"},{"task":"memory_phase","broad_category":"S","image_png":"S_Rock Salt_15.png","image_id":447,"category_name":"Rock Salt","category":28,"distinct_rating":7.79,"distinct_type":"Top","rt":null,"stimulus":"Stimuli_Rocks480/S_Rock Salt_15.png","response":null,"trial_type":"image-keyboard-response","trial_index":183,"plugin_version":"2.1.0","time_elapsed":352984,"subject_id":"91953","group":"Group2","condition":"3_Rep","full_date":"2026-03-03T20:25:46.510Z","date":"2026-03-03","time":"20:25:46"},{"rt":null,"stimulus":"<p style=\"font-size: 50px; margin: 0; text-align: center;\">+</p>","response":null,"trial_type":"html-keyboard-response","trial_index":184,"plugin_version":"2.1.0","time_elapsed":353987,"subject_id":"91953","group":"Group2","condition":"3_Rep","full_date":"2026-03-03T20:25:46.510Z","date":"2026-03-03","time":"20:25:46"},{"task":"memory_phase","broad_category":"I","image_png":"I_Pumice_14.png","image_id":142,"category_name":"Pumice","category":9,"distinct_rating":3.22,"distinct_type":"Bottom","rt":null,"stimulus":"Stimuli_Rocks480/I_Pumice_14.png","response":null,"trial_type":"image-keyboard-response","trial_index":185,"plugin_version":"2.1.0","time_elapsed":356502,"subject_id":"91953","group":"Group2","condition":"3_Rep","full_date":"2026-03-03T20:25:46.510Z","date":"2026-03-03","time":"20:25:46"},{"rt":null,"stimulus":"<p style=\"font-size: 50px; margin: 0; text-align: center;\">+</p>","response":null,"trial_type":"html-keyboard-response","trial_index":186,"plugin_version":"2.1.0","time_elapsed":357505,"subject_id":"91953","group":"Group2","condition":"3_Rep","full_date":"2026-03-03T20:25:46.510Z","date":"2026-03-03","time":"20:25:46"},{"task":"memory_phase","broad_category":"M","image_png":"M_Phyllite_13.png","image_id":269,"category_name":"Phyllite","category":17,"distinct_rating":2.8,"distinct_type":"Bottom","rt":null,"stimulus":"Stimuli_Rocks480/M_Phyllite_13.png","response":null,"trial_type":"image-keyboard-response","trial_index":187,"plugin_version":"2.1.0","time_elapsed":360018,"subject_id":"91953","group":"Group2","condition":"3_Rep","full_date":"2026-03-03T20:25:46.510Z","date":"2026-03-03","time":"20:25:46"},{"rt":null,"stimulus":"<p style=\"font-size: 50px; margin: 0; text-align: center;\">+</p>","response":null,"trial_type":"html-keyboard-response","trial_index":188,"plugin_version":"2.1.0","time_elapsed":361020,"subject_id":"91953","group":"Group2","condition":"3_Rep","full_date":"2026-03-03T20:25:46.510Z","date":"2026-03-03","time":"20:25:46"},{"task":"memory_phase","broad_category":"I","image_png":"I_Andesite_04.png","image_id":4,"category_name":"Andesite","category":1,"distinct_rating":3.18,"distinct_type":"Bottom","rt":null,"stimulus":"Stimuli_Rocks480/I_Andesite_04.png","response":null,"trial_type":"image-keyboard-response","trial_index":189,"plugin_version":"2.1.0","time_elapsed":363536,"subject_id":"91953","group":"Group2","condition":"3_Rep","full_date":"2026-03-03T20:25:46.510Z","date":"2026-03-03","time":"20:25:46"},{"rt":null,"stimulus":"<p style=\"font-size: 50px; margin: 0; text-align: center;\">+</p>","response":null,"trial_type":"html-keyboard-response","trial_index":190,"plugin_version":"2.1.0","time_elapsed":364538,"subject_id":"91953","group":"Group2","condition":"3_Rep","full_date":"2026-03-03T20:25:46.510Z","date":"2026-03-03","time":"20:25:46"},{"task":"memory_phase","broad_category":"M","image_png":"M_Quartzite_07.png","image_id":279,"category_name":"Quartzite","category":18,"distinct_rating":1.97,"distinct_type":"Bottom","rt":null,"stimulus":"Stimuli_Rocks480/M_Quartzite_07.png","response":null,"trial_type":"image-keyboard-response","trial_index":191,"plugin_version":"2.1.0","time_elapsed":367054,"subject_id":"91953","group":"Group2","condition":"3_Rep","full_date":"2026-03-03T20:25:46.510Z","date":"2026-03-03","time":"20:25:46"},{"rt":null,"stimulus":"<p style=\"font-size: 50px; margin: 0; text-align: center;\">+</p>","response":null,"trial_type":"html-keyboard-response","trial_index":192,"plugin_version":"2.1.0","time_elapsed":368056,"subject_id":"91953","group":"Group2","condition":"3_Rep","full_date":"2026-03-03T20:25:46.510Z","date":"2026-03-03","time":"20:25:46"},{"task":"memory_phase","broad_category":"M","image_png":"M_Marble_02.png","image_id":226,"category_name":"Marble","category":15,"distinct_rating":3.2,"distinct_type":"Bottom","rt":null,"stimulus":"Stimuli_Rocks480/M_Marble_02.png","response":null,"trial_type":"image-keyboard-response","trial_index":193,"plugin_version":"2.1.0","time_elapsed":370569,"subject_id":"91953","group":"Group2","condition":"3_Rep","full_date":"2026-03-03T20:25:46.510Z","date":"2026-03-03","time":"20:25:46"},{"rt":null,"stimulus":"<p style=\"font-size: 50px; margin: 0; text-align: center;\">+</p>","response":null,"trial_type":"html-keyboard-response","trial_index":194,"plugin_version":"2.1.0","time_elapsed":371571,"subject_id":"91953","group":"Group2","condition":"3_Rep","full_date":"2026-03-03T20:25:46.510Z","date":"2026-03-03","time":"20:25:46"},{"task":"memory_phase","broad_category":"M","image_png":"M_Gneiss_14.png","image_id":206,"category_name":"Gneiss","category":13,"distinct_rating":3.41,"distinct_type":"Bottom","rt":null,"stimulus":"Stimuli_Rocks480/M_Gneiss_14.png","response":null,"trial_type":"image-keyboard-response","trial_index":195,"plugin_version":"2.1.0","time_elapsed":374087,"subject_id":"91953","group":"Group2","condition":"3_Rep","full_date":"2026-03-03T20:25:46.510Z","date":"2026-03-03","time":"20:25:46"},{"rt":null,"stimulus":"<p style=\"font-size: 50px; margin: 0; text-align: center;\">+</p>","response":null,"trial_type":"html-keyboard-response","trial_index":196,"plugin_version":"2.1.0","time_elapsed":375089,"subject_id":"91953","group":"Group2","condition":"3_Rep","full_date":"2026-03-03T20:25:46.510Z","date":"2026-03-03","time":"20:25:46"},{"task":"memory_phase","broad_category":"M","image_png":"M_Slate_04.png","image_id":308,"category_name":"Slate","category":20,"distinct_rating":2.2,"distinct_type":"Bottom","rt":null,"stimulus":"Stimuli_Rocks480/M_Slate_04.png","response":null,"trial_type":"image-keyboard-response","trial_index":197,"plugin_version":"2.1.0","time_elapsed":377600,"subject_id":"91953","group":"Group2","condition":"3_Rep","full_date":"2026-03-03T20:25:46.510Z","date":"2026-03-03","time":"20:25:46"},{"rt":null,"stimulus":"<p style=\"font-size: 50px; margin: 0; text-align: center;\">+</p>","response":null,"trial_type":"html-keyboard-response","trial_index":198,"plugin_version":"2.1.0","time_elapsed":378602,"subject_id":"91953","group":"Group2","condition":"3_Rep","full_date":"2026-03-03T20:25:46.510Z","date":"2026-03-03","time":"20:25:46"},{"task":"memory_phase","broad_category":"M","image_png":"M_Phyllite_02.png","image_id":258,"category_name":"Phyllite","category":17,"distinct_rating":2.89,"distinct_type":"Bottom","rt":null,"stimulus":"Stimuli_Rocks480/M_Phyllite_02.png","response":null,"trial_type":"image-keyboard-response","trial_index":199,"plugin_version":"2.1.0","time_elapsed":381119,"subject_id":"91953","group":"Group2","condition":"3_Rep","full_date":"2026-03-03T20:25:46.510Z","date":"2026-03-03","time":"20:25:46"},{"rt":null,"stimulus":"<p style=\"font-size: 50px; margin: 0; text-align: center;\">+</p>","response":null,"trial_type":"html-keyboard-response","trial_index":200,"plugin_version":"2.1.0","time_elapsed":382121,"subject_id":"91953","group":"Group2","condition":"3_Rep","full_date":"2026-03-03T20:25:46.510Z","date":"2026-03-03","time":"20:25:46"},{"task":"memory_phase","broad_category":"I","image_png":"I_Rhyolite_10.png","image_id":154,"category_name":"Rhyolite","category":10,"distinct_rating":2.88,"distinct_type":"Bottom","rt":null,"stimulus":"Stimuli_Rocks480/I_Rhyolite_10.png","response":null,"trial_type":"image-keyboard-response","trial_index":201,"plugin_version":"2.1.0","time_elapsed":384639,"subject_id":"91953","group":"Group2","condition":"3_Rep","full_date":"2026-03-03T20:25:46.510Z","date":"2026-03-03","time":"20:25:46"},{"rt":null,"stimulus":"<p style=\"font-size: 50px; margin: 0; text-align: center;\">+</p>","response":null,"trial_type":"html-keyboard-response","trial_index":202,"plugin_version":"2.1.0","time_elapsed":385641,"subject_id":"91953","group":"Group2","condition":"3_Rep","full_date":"2026-03-03T20:25:46.510Z","date":"2026-03-03","time":"20:25:46"},{"task":"memory_phase","broad_category":"S","image_png":"S_Dolomite_16.png","image_id":400,"category_name":"Dolomite","category":25,"distinct_rating":1.71,"distinct_type":"Bottom","rt":null,"stimulus":"Stimuli_Rocks480/S_Dolomite_16.png","response":null,"trial_type":"image-keyboard-response","trial_index":203,"plugin_version":"2.1.0","time_elapsed":388155,"subject_id":"91953","group":"Group2","condition":"3_Rep","full_date":"2026-03-03T20:25:46.510Z","date":"2026-03-03","time":"20:25:46"},{"rt":null,"stimulus":"<p style=\"font-size: 50px; margin: 0; text-align: center;\">+</p>","response":null,"trial_type":"html-keyboard-response","trial_index":204,"plugin_version":"2.1.0","time_elapsed":389157,"subject_id":"91953","group":"Group2","condition":"3_Rep","full_date":"2026-03-03T20:25:46.510Z","date":"2026-03-03","time":"20:25:46"},{"task":"memory_phase","broad_category":"I","image_png":"I_Basalt_10.png","image_id":26,"category_name":"Basalt","category":2,"distinct_rating":2.76,"distinct_type":"Bottom","rt":null,"stimulus":"Stimuli_Rocks480/I_Basalt_10.png","response":null,"trial_type":"image-keyboard-response","trial_index":205,"plugin_version":"2.1.0","time_elapsed":391672,"subject_id":"91953","group":"Group2","condition":"3_Rep","full_date":"2026-03-03T20:25:46.510Z","date":"2026-03-03","time":"20:25:46"},{"rt":null,"stimulus":"<p style=\"font-size: 50px; margin: 0; text-align: center;\">+</p>","response":null,"trial_type":"html-keyboard-response","trial_index":206,"plugin_version":"2.1.0","time_elapsed":392674,"subject_id":"91953","group":"Group2","condition":"3_Rep","full_date":"2026-03-03T20:25:46.510Z","date":"2026-03-03","time":"20:25:46"},{"task":"memory_phase","broad_category":"S","image_png":"S_Dolomite_07.png","image_id":391,"category_name":"Dolomite","category":25,"distinct_rating":1.73,"distinct_type":"Bottom","rt":null,"stimulus":"Stimuli_Rocks480/S_Dolomite_07.png","response":null,"trial_type":"image-keyboard-response","trial_index":207,"plugin_version":"2.1.0","time_elapsed":395191,"subject_id":"91953","group":"Group2","condition":"3_Rep","full_date":"2026-03-03T20:25:46.510Z","date":"2026-03-03","time":"20:25:46"},{"rt":3395,"stimulus":"<p style=\"max-width: 760px; margin: auto; font-size: 35px; line-height: 1.5;\">\n                You have completed 2 study phases. \n                Now, we'll show you all the images again 1 more time.\n                <br><br>Press SPACE to continue\n              </p>","response":" ","trial_type":"html-keyboard-response","trial_index":208,"plugin_version":"2.1.0","time_elapsed":398588,"subject_id":"91953","group":"Group2","condition":"3_Rep","full_date":"2026-03-03T20:25:46.510Z","date":"2026-03-03","time":"20:25:46"},{"rt":null,"stimulus":"<p style=\"font-size: 50px; margin: 0; text-align: center;\">+</p>","response":null,"trial_type":"html-keyboard-response","trial_index":209,"plugin_version":"2.1.0","time_elapsed":399590,"subject_id":"91953","group":"Group2","condition":"3_Rep","full_date":"2026-03-03T20:25:46.510Z","date":"2026-03-03","time":"20:25:46"},{"task":"memory_phase","broad_category":"M","image_png":"M_Slate_10.png","image_id":314,"category_name":"Slate","category":20,"distinct_rating":1.94,"distinct_type":"Bottom","rt":null,"stimulus":"Stimuli_Rocks480/M_Slate_10.png","response":null,"trial_type":"image-keyboard-response","trial_index":210,"plugin_version":"2.1.0","time_elapsed":402093,"subject_id":"91953","group":"Group2","condition":"3_Rep","full_date":"2026-03-03T20:25:46.510Z","date":"2026-03-03","time":"20:25:46"},{"rt":null,"stimulus":"<p style=\"font-size: 50px; margin: 0; text-align: center;\">+</p>","response":null,"trial_type":"html-keyboard-response","trial_index":211,"plugin_version":"2.1.0","time_elapsed":403095,"subject_id":"91953","group":"Group2","condition":"3_Rep","full_date":"2026-03-03T20:25:46.510Z","date":"2026-03-03","time":"20:25:46"},{"task":"memory_phase","broad_category":"M","image_png":"M_Gneiss_14.png","image_id":206,"category_name":"Gneiss","category":13,"distinct_rating":3.41,"distinct_type":"Bottom","rt":null,"stimulus":"Stimuli_Rocks480/M_Gneiss_14.png","response":null,"trial_type":"image-keyboard-response","trial_index":212,"plugin_version":"2.1.0","time_elapsed":405598,"subject_id":"91953","group":"Group2","condition":"3_Rep","full_date":"2026-03-03T20:25:46.510Z","date":"2026-03-03","time":"20:25:46"},{"rt":null,"stimulus":"<p style=\"font-size: 50px; margin: 0; text-align: center;\">+</p>","response":null,"trial_type":"html-keyboard-response","trial_index":213,"plugin_version":"2.1.0","time_elapsed":406599,"subject_id":"91953","group":"Group2","condition":"3_Rep","full_date":"2026-03-03T20:25:46.510Z","date":"2026-03-03","time":"20:25:46"},{"task":"memory_phase","broad_category":"S","image_png":"S_Shale_07.png","image_id":471,"category_name":"Shale","category":30,"distinct_rating":2.73,"distinct_type":"Bottom","rt":null,"stimulus":"Stimuli_Rocks480/S_Shale_07.png","response":null,"trial_type":"image-keyboard-response","trial_index":214,"plugin_version":"2.1.0","time_elapsed":409114,"subject_id":"91953","group":"Group2","condition":"3_Rep","full_date":"2026-03-03T20:25:46.510Z","date":"2026-03-03","time":"20:25:46"},{"rt":null,"stimulus":"<p style=\"font-size: 50px; margin: 0; text-align: center;\">+</p>","response":null,"trial_type":"html-keyboard-response","trial_index":215,"plugin_version":"2.1.0","time_elapsed":410116,"subject_id":"91953","group":"Group2","condition":"3_Rep","full_date":"2026-03-03T20:25:46.510Z","date":"2026-03-03","time":"20:25:46"},{"task":"memory_phase","broad_category":"M","image_png":"M_Slate_14.png","image_id":318,"category_name":"Slate","category":20,"distinct_rating":2.58,"distinct_type":"Bottom","rt":null,"stimulus":"Stimuli_Rocks480/M_Slate_14.png","response":null,"trial_type":"image-keyboard-response","trial_index":216,"plugin_version":"2.1.0","time_elapsed":412628,"subject_id":"91953","group":"Group2","condition":"3_Rep","full_date":"2026-03-03T20:25:46.510Z","date":"2026-03-03","time":"20:25:46"},{"rt":null,"stimulus":"<p style=\"font-size: 50px; margin: 0; text-align: center;\">+</p>","response":null,"trial_type":"html-keyboard-response","trial_index":217,"plugin_version":"2.1.0","time_elapsed":413630,"subject_id":"91953","group":"Group2","condition":"3_Rep","full_date":"2026-03-03T20:25:46.510Z","date":"2026-03-03","time":"20:25:46"},{"task":"memory_phase","broad_category":"S","image_png":"S_Dolomite_07.png","image_id":391,"category_name":"Dolomite","category":25,"distinct_rating":1.73,"distinct_type":"Bottom","rt":null,"stimulus":"Stimuli_Rocks480/S_Dolomite_07.png","response":null,"trial_type":"image-keyboard-response","trial_index":218,"plugin_version":"2.1.0","time_elapsed":416133,"subject_id":"91953","group":"Group2","condition":"3_Rep","full_date":"2026-03-03T20:25:46.510Z","date":"2026-03-03","time":"20:25:46"},{"rt":null,"stimulus":"<p style=\"font-size: 50px; margin: 0; text-align: center;\">+</p>","response":null,"trial_type":"html-keyboard-response","trial_index":219,"plugin_version":"2.1.0","time_elapsed":417135,"subject_id":"91953","group":"Group2","condition":"3_Rep","full_date":"2026-03-03T20:25:46.510Z","date":"2026-03-03","time":"20:25:46"},{"task":"memory_phase","broad_category":"I","image_png":"I_Pumice_13.png","image_id":141,"category_name":"Pumice","category":9,"distinct_rating":3.12,"distinct_type":"Bottom","rt":null,"stimulus":"Stimuli_Rocks480/I_Pumice_13.png","response":null,"trial_type":"image-keyboard-response","trial_index":220,"plugin_version":"2.1.0","time_elapsed":419652,"subject_id":"91953","group":"Group2","condition":"3_Rep","full_date":"2026-03-03T20:25:46.510Z","date":"2026-03-03","time":"20:25:46"},{"rt":null,"stimulus":"<p style=\"font-size: 50px; margin: 0; text-align: center;\">+</p>","response":null,"trial_type":"html-keyboard-response","trial_index":221,"plugin_version":"2.1.0","time_elapsed":420654,"subject_id":"91953","group":"Group2","condition":"3_Rep","full_date":"2026-03-03T20:25:46.510Z","date":"2026-03-03","time":"20:25:46"},{"task":"memory_phase","broad_category":"M","image_png":"M_Gneiss_15.png","image_id":207,"category_name":"Gneiss","category":13,"distinct_rating":3.11,"distinct_type":"Bottom","rt":null,"stimulus":"Stimuli_Rocks480/M_Gneiss_15.png","response":null,"trial_type":"image-keyboard-response","trial_index":222,"plugin_version":"2.1.0","time_elapsed":423167,"subject_id":"91953","group":"Group2","condition":"3_Rep","full_date":"2026-03-03T20:25:46.510Z","date":"2026-03-03","time":"20:25:46"},{"rt":null,"stimulus":"<p style=\"font-size: 50px; margin: 0; text-align: center;\">+</p>","response":null,"trial_type":"html-keyboard-response","trial_index":223,"plugin_version":"2.1.0","time_elapsed":424169,"subject_id":"91953","group":"Group2","condition":"3_Rep","full_date":"2026-03-03T20:25:46.510Z","date":"2026-03-03","time":"20:25:46"},{"task":"memory_phase","broad_category":"I","image_png":"I_Peridotite_13.png","image_id":125,"category_name":"Peridotite","category":8,"distinct_rating":7.28,"distinct_type":"Top","rt":null,"stimulus":"Stimuli_Rocks480/I_Peridotite_13.png","response":null,"trial_type":"image-keyboard-response","trial_index":224,"plugin_version":"2.1.0","time_elapsed":426672,"subject_id":"91953","group":"Group2","condition":"3_Rep","full_date":"2026-03-03T20:25:46.510Z","date":"2026-03-03","time":"20:25:46"},{"rt":null,"stimulus":"<p style=\"font-size: 50px; margin: 0; text-align: center;\">+</p>","response":null,"trial_type":"html-keyboard-response","trial_index":225,"plugin_version":"2.1.0","time_elapsed":427674,"subject_id":"91953","group":"Group2","condition":"3_Rep","full_date":"2026-03-03T20:25:46.510Z","date":"2026-03-03","time":"20:25:46"},{"task":"memory_phase","broad_category":"M","image_png":"M_Marble_02.png","image_id":226,"category_name":"Marble","category":15,"distinct_rating":3.2,"distinct_type":"Bottom","rt":null,"stimulus":"Stimuli_Rocks480/M_Marble_02.png","response":null,"trial_type":"image-keyboard-response","trial_index":226,"plugin_version":"2.1.0","time_elapsed":430177,"subject_id":"91953","group":"Group2","condition":"3_Rep","full_date":"2026-03-03T20:25:46.510Z","date":"2026-03-03","time":"20:25:46"},{"rt":null,"stimulus":"<p style=\"font-size: 50px; margin: 0; text-align: center;\">+</p>","response":null,"trial_type":"html-keyboard-response","trial_index":227,"plugin_version":"2.1.0","time_elapsed":431179,"subject_id":"91953","group":"Group2","condition":"3_Rep","full_date":"2026-03-03T20:25:46.510Z","date":"2026-03-03","time":"20:25:46"},{"task":"memory_phase","broad_category":"I","image_png":"I_Rhyolite_08.png","image_id":152,"category_name":"Rhyolite","category":10,"distinct_rating":1.38,"distinct_type":"Bottom","rt":null,"stimulus":"Stimuli_Rocks480/I_Rhyolite_08.png","response":null,"trial_type":"image-keyboard-response","trial_index":228,"plugin_version":"2.1.0","time_elapsed":433692,"subject_id":"91953","group":"Group2","condition":"3_Rep","full_date":"2026-03-03T20:25:46.510Z","date":"2026-03-03","time":"20:25:46"},{"rt":null,"stimulus":"<p style=\"font-size: 50px; margin: 0; text-align: center;\">+</p>","response":null,"trial_type":"html-keyboard-response","trial_index":229,"plugin_version":"2.1.0","time_elapsed":434694,"subject_id":"91953","group":"Group2","condition":"3_Rep","full_date":"2026-03-03T20:25:46.510Z","date":"2026-03-03","time":"20:25:46"},{"task":"memory_phase","broad_category":"S","image_png":"S_Dolomite_16.png","image_id":400,"category_name":"Dolomite","category":25,"distinct_rating":1.71,"distinct_type":"Bottom","rt":null,"stimulus":"Stimuli_Rocks480/S_Dolomite_16.png","response":null,"trial_type":"image-keyboard-response","trial_index":230,"plugin_version":"2.1.0","time_elapsed":437197,"subject_id":"91953","group":"Group2","condition":"3_Rep","full_date":"2026-03-03T20:25:46.510Z","date":"2026-03-03","time":"20:25:46"},{"rt":null,"stimulus":"<p style=\"font-size: 50px; margin: 0; text-align: center;\">+</p>","response":null,"trial_type":"html-keyboard-response","trial_index":231,"plugin_version":"2.1.0","time_elapsed":438199,"subject_id":"91953","group":"Group2","condition":"3_Rep","full_date":"2026-03-03T20:25:46.510Z","date":"2026-03-03","time":"20:25:46"},{"task":"memory_phase","broad_category":"S","image_png":"S_Rock Salt_15.png","image_id":447,"category_name":"Rock Salt","category":28,"distinct_rating":7.79,"distinct_type":"Top","rt":null,"stimulus":"Stimuli_Rocks480/S_Rock Salt_15.png","response":null,"trial_type":"image-keyboard-response","trial_index":232,"plugin_version":"2.1.0","time_elapsed":440702,"subject_id":"91953","group":"Group2","condition":"3_Rep","full_date":"2026-03-03T20:25:46.510Z","date":"2026-03-03","time":"20:25:46"},{"rt":null,"stimulus":"<p style=\"font-size: 50px; margin: 0; text-align: center;\">+</p>","response":null,"trial_type":"html-keyboard-response","trial_index":233,"plugin_version":"2.1.0","time_elapsed":441704,"subject_id":"91953","group":"Group2","condition":"3_Rep","full_date":"2026-03-03T20:25:46.510Z","date":"2026-03-03","time":"20:25:46"},{"task":"memory_phase","broad_category":"I","image_png":"I_Basalt_13.png","image_id":29,"category_name":"Basalt","category":2,"distinct_rating":2.68,"distinct_type":"Bottom","rt":null,"stimulus":"Stimuli_Rocks480/I_Basalt_13.png","response":null,"trial_type":"image-keyboard-response","trial_index":234,"plugin_version":"2.1.0","time_elapsed":444220,"subject_id":"91953","group":"Group2","condition":"3_Rep","full_date":"2026-03-03T20:25:46.510Z","date":"2026-03-03","time":"20:25:46"},{"rt":null,"stimulus":"<p style=\"font-size: 50px; margin: 0; text-align: center;\">+</p>","response":null,"trial_type":"html-keyboard-response","trial_index":235,"plugin_version":"2.1.0","time_elapsed":445223,"subject_id":"91953","group":"Group2","condition":"3_Rep","full_date":"2026-03-03T20:25:46.510Z","date":"2026-03-03","time":"20:25:46"},{"task":"memory_phase","broad_category":"M","image_png":"M_Phyllite_13.png","image_id":269,"category_name":"Phyllite","category":17,"distinct_rating":2.8,"distinct_type":"Bottom","rt":null,"stimulus":"Stimuli_Rocks480/M_Phyllite_13.png","respo