[{"width":1512,"height":857,"webaudio":true,"browser":"chrome","browser_version":"144.0.0","mobile":false,"os":"Mac OS","fullscreen":true,"vsync_rate":121.14,"webcam":true,"microphone":true,"trial_type":"browser-check","trial_index":0,"plugin_version":"2.1.0","time_elapsed":506,"subject_id":"92036","group":"Group2","condition":"1_Rep","full_date":"2026-01-29T00:07:10.224Z","date":"2026-01-29","time":"00:07:10"},{"success":true,"timeout":false,"failed_images":[],"failed_audio":[],"failed_video":[],"trial_type":"preload","trial_index":1,"plugin_version":"2.1.0","time_elapsed":2174,"subject_id":"92036","group":"Group2","condition":"1_Rep","full_date":"2026-01-29T00:07:10.224Z","date":"2026-01-29","time":"00:07:10"},{"rt":538036,"url":"SONA_consent_memorability.html","trial_type":"external-html","trial_index":2,"plugin_version":"2.1.0","time_elapsed":540263,"subject_id":"92036","group":"Group2","condition":"1_Rep","full_date":"2026-01-29T00:07:10.224Z","date":"2026-01-29","time":"00:07:10"},{"success":true,"rt":1318,"trial_type":"fullscreen","trial_index":3,"plugin_version":"2.1.0","time_elapsed":542584,"subject_id":"92036","group":"Group2","condition":"1_Rep","full_date":"2026-01-29T00:07:10.224Z","date":"2026-01-29","time":"00:07:10"},{"rt":63065,"stimulus":"<div style=\"max-width: 760px; margin: auto; font-size: 20px; line-height: 1.5;\">\n      <h1 style=\"text-align:center; font-size: 30px;\">Instructions</h1>\n      <p>\n        Welcome to the study on <b>visual memory</b>. This experiment consists of <b>two phases</b>: \n        a <b>study phase</b> and a <b>test phase</b>.\n      </p>\n      <p>\n        In the study phase, you will see a series of rock images along with their category labels.\n        The images will appear one at a time.\n        <b>Your task</b> is to learn the categories to which the rock images belong \n        and to remember each image as accurately as possible.\n      </p> \n      <p>\n        Note that you will see each image only <b>once</b> during the study phase. \n          So, please pay close attention and try to remember each image carefully.\n      </p>\n      <p>\n        After the study phase, <b>your memory will be tested</b>. \n        Additional instructions for the test phase will be provided at that time.\n      </p>\n      <p>\n        If your computer has multiple <b>language settings</b> (e.g., English and another language),\n        please make sure it is set to English before starting.\n      </p>\n      <p>\n        You can track your progress using the <b>completion bar</b> at the top of the screen. \n        Please note that the bar will refresh when the test phase begins \n        to give you an accurate sense of your progress in both phases.\n      </p> \n      <p>\n        Press the button below when you are ready to begin.\n      </p>\n    </div>","response":0,"trial_type":"html-button-response","trial_index":4,"plugin_version":"2.1.0","time_elapsed":605651,"subject_id":"92036","group":"Group2","condition":"1_Rep","full_date":"2026-01-29T00:07:10.224Z","date":"2026-01-29","time":"00:07:10"},{"rt":null,"stimulus":"<p style=\"font-size: 50px; margin: 0; text-align: center;\">+</p>","response":null,"trial_type":"html-keyboard-response","trial_index":5,"plugin_version":"2.1.0","time_elapsed":606655,"subject_id":"92036","group":"Group2","condition":"1_Rep","full_date":"2026-01-29T00:07:10.224Z","date":"2026-01-29","time":"00:07:10"},{"task":"memory_phase","broad_category":"S","image_png":"S_Dolomite_07.png","image_id":391,"category_name":"Dolomite","category":25,"distinct_rating":1.73,"distinct_type":"Bottom","rt":null,"stimulus":"Stimuli_Rocks480/S_Dolomite_07.png","response":null,"trial_type":"image-keyboard-response","trial_index":6,"plugin_version":"2.1.0","time_elapsed":609159,"subject_id":"92036","group":"Group2","condition":"1_Rep","full_date":"2026-01-29T00:07:10.224Z","date":"2026-01-29","time":"00:07:10"},{"rt":null,"stimulus":"<p style=\"font-size: 50px; margin: 0; text-align: center;\">+</p>","response":null,"trial_type":"html-keyboard-response","trial_index":7,"plugin_version":"2.1.0","time_elapsed":610160,"subject_id":"92036","group":"Group2","condition":"1_Rep","full_date":"2026-01-29T00:07:10.224Z","date":"2026-01-29","time":"00:07:10"},{"task":"memory_phase","broad_category":"I","image_png":"I_Basalt_08.png","image_id":24,"category_name":"Basalt","category":2,"distinct_rating":2.31,"distinct_type":"Bottom","rt":null,"stimulus":"Stimuli_Rocks480/I_Basalt_08.png","response":null,"trial_type":"image-keyboard-response","trial_index":8,"plugin_version":"2.1.0","time_elapsed":612664,"subject_id":"92036","group":"Group2","condition":"1_Rep","full_date":"2026-01-29T00:07:10.224Z","date":"2026-01-29","time":"00:07:10"},{"rt":null,"stimulus":"<p style=\"font-size: 50px; margin: 0; text-align: center;\">+</p>","response":null,"trial_type":"html-keyboard-response","trial_index":9,"plugin_version":"2.1.0","time_elapsed":613667,"subject_id":"92036","group":"Group2","condition":"1_Rep","full_date":"2026-01-29T00:07:10.224Z","date":"2026-01-29","time":"00:07:10"},{"task":"memory_phase","broad_category":"I","image_png":"I_Rhyolite_08.png","image_id":152,"category_name":"Rhyolite","category":10,"distinct_rating":1.38,"distinct_type":"Bottom","rt":null,"stimulus":"Stimuli_Rocks480/I_Rhyolite_08.png","response":null,"trial_type":"image-keyboard-response","trial_index":10,"plugin_version":"2.1.0","time_elapsed":616171,"subject_id":"92036","group":"Group2","condition":"1_Rep","full_date":"2026-01-29T00:07:10.224Z","date":"2026-01-29","time":"00:07:10"},{"rt":null,"stimulus":"<p style=\"font-size: 50px; margin: 0; text-align: center;\">+</p>","response":null,"trial_type":"html-keyboard-response","trial_index":11,"plugin_version":"2.1.0","time_elapsed":617173,"subject_id":"92036","group":"Group2","condition":"1_Rep","full_date":"2026-01-29T00:07:10.224Z","date":"2026-01-29","time":"00:07:10"},{"task":"memory_phase","broad_category":"M","image_png":"M_Gneiss_15.png","image_id":207,"category_name":"Gneiss","category":13,"distinct_rating":3.11,"distinct_type":"Bottom","rt":null,"stimulus":"Stimuli_Rocks480/M_Gneiss_15.png","response":null,"trial_type":"image-keyboard-response","trial_index":12,"plugin_version":"2.1.0","time_elapsed":619677,"subject_id":"92036","group":"Group2","condition":"1_Rep","full_date":"2026-01-29T00:07:10.224Z","date":"2026-01-29","time":"00:07:10"},{"rt":null,"stimulus":"<p style=\"font-size: 50px; margin: 0; text-align: center;\">+</p>","response":null,"trial_type":"html-keyboard-response","trial_index":13,"plugin_version":"2.1.0","time_elapsed":620680,"subject_id":"92036","group":"Group2","condition":"1_Rep","full_date":"2026-01-29T00:07:10.224Z","date":"2026-01-29","time":"00:07:10"},{"task":"memory_phase","broad_category":"M","image_png":"M_Marble_03.png","image_id":227,"category_name":"Marble","category":15,"distinct_rating":2.67,"distinct_type":"Bottom","rt":null,"stimulus":"Stimuli_Rocks480/M_Marble_03.png","response":null,"trial_type":"image-keyboard-response","trial_index":14,"plugin_version":"2.1.0","time_elapsed":623184,"subject_id":"92036","group":"Group2","condition":"1_Rep","full_date":"2026-01-29T00:07:10.224Z","date":"2026-01-29","time":"00:07:10"},{"rt":null,"stimulus":"<p style=\"font-size: 50px; margin: 0; text-align: center;\">+</p>","response":null,"trial_type":"html-keyboard-response","trial_index":15,"plugin_version":"2.1.0","time_elapsed":624187,"subject_id":"92036","group":"Group2","condition":"1_Rep","full_date":"2026-01-29T00:07:10.224Z","date":"2026-01-29","time":"00:07:10"},{"task":"memory_phase","broad_category":"I","image_png":"I_Pumice_01.png","image_id":129,"category_name":"Pumice","category":9,"distinct_rating":3.25,"distinct_type":"Bottom","rt":null,"stimulus":"Stimuli_Rocks480/I_Pumice_01.png","response":null,"trial_type":"image-keyboard-response","trial_index":16,"plugin_version":"2.1.0","time_elapsed":626691,"subject_id":"92036","group":"Group2","condition":"1_Rep","full_date":"2026-01-29T00:07:10.224Z","date":"2026-01-29","time":"00:07:10"},{"rt":null,"stimulus":"<p style=\"font-size: 50px; margin: 0; text-align: center;\">+</p>","response":null,"trial_type":"html-keyboard-response","trial_index":17,"plugin_version":"2.1.0","time_elapsed":627693,"subject_id":"92036","group":"Group2","condition":"1_Rep","full_date":"2026-01-29T00:07:10.224Z","date":"2026-01-29","time":"00:07:10"},{"task":"memory_phase","broad_category":"I","image_png":"I_Basalt_10.png","image_id":26,"category_name":"Basalt","category":2,"distinct_rating":2.76,"distinct_type":"Bottom","rt":null,"stimulus":"Stimuli_Rocks480/I_Basalt_10.png","response":null,"trial_type":"image-keyboard-response","trial_index":18,"plugin_version":"2.1.0","time_elapsed":630197,"subject_id":"92036","group":"Group2","condition":"1_Rep","full_date":"2026-01-29T00:07:10.224Z","date":"2026-01-29","time":"00:07:10"},{"rt":null,"stimulus":"<p style=\"font-size: 50px; margin: 0; text-align: center;\">+</p>","response":null,"trial_type":"html-keyboard-response","trial_index":19,"plugin_version":"2.1.0","time_elapsed":631200,"subject_id":"92036","group":"Group2","condition":"1_Rep","full_date":"2026-01-29T00:07:10.224Z","date":"2026-01-29","time":"00:07:10"},{"task":"memory_phase","broad_category":"I","image_png":"I_Andesite_04.png","image_id":4,"category_name":"Andesite","category":1,"distinct_rating":3.18,"distinct_type":"Bottom","rt":null,"stimulus":"Stimuli_Rocks480/I_Andesite_04.png","response":null,"trial_type":"image-keyboard-response","trial_index":20,"plugin_version":"2.1.0","time_elapsed":633704,"subject_id":"92036","group":"Group2","condition":"1_Rep","full_date":"2026-01-29T00:07:10.224Z","date":"2026-01-29","time":"00:07:10"},{"rt":null,"stimulus":"<p style=\"font-size: 50px; margin: 0; text-align: center;\">+</p>","response":null,"trial_type":"html-keyboard-response","trial_index":21,"plugin_version":"2.1.0","time_elapsed":634706,"subject_id":"92036","group":"Group2","condition":"1_Rep","full_date":"2026-01-29T00:07:10.224Z","date":"2026-01-29","time":"00:07:10"},{"task":"memory_phase","broad_category":"I","image_png":"I_Pumice_13.png","image_id":141,"category_name":"Pumice","category":9,"distinct_rating":3.12,"distinct_type":"Bottom","rt":null,"stimulus":"Stimuli_Rocks480/I_Pumice_13.png","response":null,"trial_type":"image-keyboard-response","trial_index":22,"plugin_version":"2.1.0","time_elapsed":637210,"subject_id":"92036","group":"Group2","condition":"1_Rep","full_date":"2026-01-29T00:07:10.224Z","date":"2026-01-29","time":"00:07:10"},{"rt":null,"stimulus":"<p style=\"font-size: 50px; margin: 0; text-align: center;\">+</p>","response":null,"trial_type":"html-keyboard-response","trial_index":23,"plugin_version":"2.1.0","time_elapsed":638212,"subject_id":"92036","group":"Group2","condition":"1_Rep","full_date":"2026-01-29T00:07:10.224Z","date":"2026-01-29","time":"00:07:10"},{"task":"memory_phase","broad_category":"M","image_png":"M_Quartzite_15.png","image_id":287,"category_name":"Quartzite","category":18,"distinct_rating":2.19,"distinct_type":"Bottom","rt":null,"stimulus":"Stimuli_Rocks480/M_Quartzite_15.png","response":null,"trial_type":"image-keyboard-response","trial_index":24,"plugin_version":"2.1.0","time_elapsed":640716,"subject_id":"92036","group":"Group2","condition":"1_Rep","full_date":"2026-01-29T00:07:10.224Z","date":"2026-01-29","time":"00:07:10"},{"rt":null,"stimulus":"<p style=\"font-size: 50px; margin: 0; text-align: center;\">+</p>","response":null,"trial_type":"html-keyboard-response","trial_index":25,"plugin_version":"2.1.0","time_elapsed":641719,"subject_id":"92036","group":"Group2","condition":"1_Rep","full_date":"2026-01-29T00:07:10.224Z","date":"2026-01-29","time":"00:07:10"},{"task":"memory_phase","broad_category":"M","image_png":"M_Phyllite_02.png","image_id":258,"category_name":"Phyllite","category":17,"distinct_rating":2.89,"distinct_type":"Bottom","rt":null,"stimulus":"Stimuli_Rocks480/M_Phyllite_02.png","response":null,"trial_type":"image-keyboard-response","trial_index":26,"plugin_version":"2.1.0","time_elapsed":644222,"subject_id":"92036","group":"Group2","condition":"1_Rep","full_date":"2026-01-29T00:07:10.224Z","date":"2026-01-29","time":"00:07:10"},{"rt":null,"stimulus":"<p style=\"font-size: 50px; margin: 0; text-align: center;\">+</p>","response":null,"trial_type":"html-keyboard-response","trial_index":27,"plugin_version":"2.1.0","time_elapsed":645224,"subject_id":"92036","group":"Group2","condition":"1_Rep","full_date":"2026-01-29T00:07:10.224Z","date":"2026-01-29","time":"00:07:10"},{"task":"memory_phase","broad_category":"M","image_png":"M_Gneiss_10.png","image_id":202,"category_name":"Gneiss","category":13,"distinct_rating":3.09,"distinct_type":"Bottom","rt":null,"stimulus":"Stimuli_Rocks480/M_Gneiss_10.png","response":null,"trial_type":"image-keyboard-response","trial_index":28,"plugin_version":"2.1.0","time_elapsed":647727,"subject_id":"92036","group":"Group2","condition":"1_Rep","full_date":"2026-01-29T00:07:10.224Z","date":"2026-01-29","time":"00:07:10"},{"rt":null,"stimulus":"<p style=\"font-size: 50px; margin: 0; text-align: center;\">+</p>","response":null,"trial_type":"html-keyboard-response","trial_index":29,"plugin_version":"2.1.0","time_elapsed":648730,"subject_id":"92036","group":"Group2","condition":"1_Rep","full_date":"2026-01-29T00:07:10.224Z","date":"2026-01-29","time":"00:07:10"},{"task":"memory_phase","broad_category":"M","image_png":"M_Slate_10.png","image_id":314,"category_name":"Slate","category":20,"distinct_rating":1.94,"distinct_type":"Bottom","rt":null,"stimulus":"Stimuli_Rocks480/M_Slate_10.png","response":null,"trial_type":"image-keyboard-response","trial_index":30,"plugin_version":"2.1.0","time_elapsed":651233,"subject_id":"92036","group":"Group2","condition":"1_Rep","full_date":"2026-01-29T00:07:10.224Z","date":"2026-01-29","time":"00:07:10"},{"rt":null,"stimulus":"<p style=\"font-size: 50px; margin: 0; text-align: center;\">+</p>","response":null,"trial_type":"html-keyboard-response","trial_index":31,"plugin_version":"2.1.0","time_elapsed":652236,"subject_id":"92036","group":"Group2","condition":"1_Rep","full_date":"2026-01-29T00:07:10.224Z","date":"2026-01-29","time":"00:07:10"},{"task":"memory_phase","broad_category":"I","image_png":"I_Diorite_15.png","image_id":47,"category_name":"Diorite","category":3,"distinct_rating":3.05,"distinct_type":"Bottom","rt":null,"stimulus":"Stimuli_Rocks480/I_Diorite_15.png","response":null,"trial_type":"image-keyboard-response","trial_index":32,"plugin_version":"2.1.0","time_elapsed":654739,"subject_id":"92036","group":"Group2","condition":"1_Rep","full_date":"2026-01-29T00:07:10.224Z","date":"2026-01-29","time":"00:07:10"},{"rt":null,"stimulus":"<p style=\"font-size: 50px; margin: 0; text-align: center;\">+</p>","response":null,"trial_type":"html-keyboard-response","trial_index":33,"plugin_version":"2.1.0","time_elapsed":655742,"subject_id":"92036","group":"Group2","condition":"1_Rep","full_date":"2026-01-29T00:07:10.224Z","date":"2026-01-29","time":"00:07:10"},{"task":"memory_phase","broad_category":"S","image_png":"S_Dolomite_01.png","image_id":385,"category_name":"Dolomite","category":25,"distinct_rating":1.43,"distinct_type":"Bottom","rt":null,"stimulus":"Stimuli_Rocks480/S_Dolomite_01.png","response":null,"trial_type":"image-keyboard-response","trial_index":34,"plugin_version":"2.1.0","time_elapsed":658246,"subject_id":"92036","group":"Group2","condition":"1_Rep","full_date":"2026-01-29T00:07:10.224Z","date":"2026-01-29","time":"00:07:10"},{"rt":null,"stimulus":"<p style=\"font-size: 50px; margin: 0; text-align: center;\">+</p>","response":null,"trial_type":"html-keyboard-response","trial_index":35,"plugin_version":"2.1.0","time_elapsed":659248,"subject_id":"92036","group":"Group2","condition":"1_Rep","full_date":"2026-01-29T00:07:10.224Z","date":"2026-01-29","time":"00:07:10"},{"task":"memory_phase","broad_category":"M","image_png":"M_Marble_14.png","image_id":238,"category_name":"Marble","category":15,"distinct_rating":3.31,"distinct_type":"Bottom","rt":null,"stimulus":"Stimuli_Rocks480/M_Marble_14.png","response":null,"trial_type":"image-keyboard-response","trial_index":36,"plugin_version":"2.1.0","time_elapsed":661751,"subject_id":"92036","group":"Group2","condition":"1_Rep","full_date":"2026-01-29T00:07:10.224Z","date":"2026-01-29","time":"00:07:10"},{"rt":null,"stimulus":"<p style=\"font-size: 50px; margin: 0; text-align: center;\">+</p>","response":null,"trial_type":"html-keyboard-response","trial_index":37,"plugin_version":"2.1.0","time_elapsed":662754,"subject_id":"92036","group":"Group2","condition":"1_Rep","full_date":"2026-01-29T00:07:10.224Z","date":"2026-01-29","time":"00:07:10"},{"task":"memory_phase","broad_category":"M","image_png":"M_Slate_04.png","image_id":308,"category_name":"Slate","category":20,"distinct_rating":2.2,"distinct_type":"Bottom","rt":null,"stimulus":"Stimuli_Rocks480/M_Slate_04.png","response":null,"trial_type":"image-keyboard-response","trial_index":38,"plugin_version":"2.1.0","time_elapsed":665259,"subject_id":"92036","group":"Group2","condition":"1_Rep","full_date":"2026-01-29T00:07:10.224Z","date":"2026-01-29","time":"00:07:10"},{"rt":null,"stimulus":"<p style=\"font-size: 50px; margin: 0; text-align: center;\">+</p>","response":null,"trial_type":"html-keyboard-response","trial_index":39,"plugin_version":"2.1.0","time_elapsed":666261,"subject_id":"92036","group":"Group2","condition":"1_Rep","full_date":"2026-01-29T00:07:10.224Z","date":"2026-01-29","time":"00:07:10"},{"task":"memory_phase","broad_category":"S","image_png":"S_Shale_07.png","image_id":471,"category_name":"Shale","category":30,"distinct_rating":2.73,"distinct_type":"Bottom","rt":null,"stimulus":"Stimuli_Rocks480/S_Shale_07.png","response":null,"trial_type":"image-keyboard-response","trial_index":40,"plugin_version":"2.1.0","time_elapsed":668765,"subject_id":"92036","group":"Group2","condition":"1_Rep","full_date":"2026-01-29T00:07:10.224Z","date":"2026-01-29","time":"00:07:10"},{"rt":null,"stimulus":"<p style=\"font-size: 50px; margin: 0; text-align: center;\">+</p>","response":null,"trial_type":"html-keyboard-response","trial_index":41,"plugin_version":"2.1.0","time_elapsed":669767,"subject_id":"92036","group":"Group2","condition":"1_Rep","full_date":"2026-01-29T00:07:10.224Z","date":"2026-01-29","time":"00:07:10"},{"task":"memory_phase","broad_category":"S","image_png":"S_Shale_02.png","image_id":466,"category_name":"Shale","category":30,"distinct_rating":2.9,"distinct_type":"Bottom","rt":null,"stimulus":"Stimuli_Rocks480/S_Shale_02.png","response":null,"trial_type":"image-keyboard-response","trial_index":42,"plugin_version":"2.1.0","time_elapsed":672270,"subject_id":"92036","group":"Group2","condition":"1_Rep","full_date":"2026-01-29T00:07:10.224Z","date":"2026-01-29","time":"00:07:10"},{"rt":null,"stimulus":"<p style=\"font-size: 50px; margin: 0; text-align: center;\">+</p>","response":null,"trial_type":"html-keyboard-response","trial_index":43,"plugin_version":"2.1.0","time_elapsed":673273,"subject_id":"92036","group":"Group2","condition":"1_Rep","full_date":"2026-01-29T00:07:10.224Z","date":"2026-01-29","time":"00:07:10"},{"task":"memory_phase","broad_category":"S","image_png":"S_Rock Salt_15.png","image_id":447,"category_name":"Rock Salt","category":28,"distinct_rating":7.79,"distinct_type":"Top","rt":null,"stimulus":"Stimuli_Rocks480/S_Rock Salt_15.png","response":null,"trial_type":"image-keyboard-response","trial_index":44,"plugin_version":"2.1.0","time_elapsed":675776,"subject_id":"92036","group":"Group2","condition":"1_Rep","full_date":"2026-01-29T00:07:10.224Z","date":"2026-01-29","time":"00:07:10"},{"rt":null,"stimulus":"<p style=\"font-size: 50px; margin: 0; text-align: center;\">+</p>","response":null,"trial_type":"html-keyboard-response","trial_index":45,"plugin_version":"2.1.0","time_elapsed":676779,"subject_id":"92036","group":"Group2","condition":"1_Rep","full_date":"2026-01-29T00:07:10.224Z","date":"2026-01-29","time":"00:07:10"},{"task":"memory_phase","broad_category":"S","image_png":"S_Sandstone_04.png","image_id":452,"category_name":"Sandstone","category":29,"distinct_rating":1.8,"distinct_type":"Bottom","rt":null,"stimulus":"Stimuli_Rocks480/S_Sandstone_04.png","response":null,"trial_type":"image-keyboard-response","trial_index":46,"plugin_version":"2.1.0","time_elapsed":679282,"subject_id":"92036","group":"Group2","condition":"1_Rep","full_date":"2026-01-29T00:07:10.224Z","date":"2026-01-29","time":"00:07:10"},{"rt":null,"stimulus":"<p style=\"font-size: 50px; margin: 0; text-align: center;\">+</p>","response":null,"trial_type":"html-keyboard-response","trial_index":47,"plugin_version":"2.1.0","time_elapsed":680284,"subject_id":"92036","group":"Group2","condition":"1_Rep","full_date":"2026-01-29T00:07:10.224Z","date":"2026-01-29","time":"00:07:10"},{"task":"memory_phase","broad_category":"M","image_png":"M_Marble_02.png","image_id":226,"category_name":"Marble","category":15,"distinct_rating":3.2,"distinct_type":"Bottom","rt":null,"stimulus":"Stimuli_Rocks480/M_Marble_02.png","response":null,"trial_type":"image-keyboard-response","trial_index":48,"plugin_version":"2.1.0","time_elapsed":682788,"subject_id":"92036","group":"Group2","condition":"1_Rep","full_date":"2026-01-29T00:07:10.224Z","date":"2026-01-29","time":"00:07:10"},{"rt":null,"stimulus":"<p style=\"font-size: 50px; margin: 0; text-align: center;\">+</p>","response":null,"trial_type":"html-keyboard-response","trial_index":49,"plugin_version":"2.1.0","time_elapsed":683791,"subject_id":"92036","group":"Group2","condition":"1_Rep","full_date":"2026-01-29T00:07:10.224Z","date":"2026-01-29","time":"00:07:10"},{"task":"memory_phase","broad_category":"S","image_png":"S_Sandstone_08.png","image_id":456,"category_name":"Sandstone","category":29,"distinct_rating":1.5,"distinct_type":"Bottom","rt":null,"stimulus":"Stimuli_Rocks480/S_Sandstone_08.png","response":null,"trial_type":"image-keyboard-response","trial_index":50,"plugin_version":"2.1.0","time_elapsed":686294,"subject_id":"92036","group":"Group2","condition":"1_Rep","full_date":"2026-01-29T00:07:10.224Z","date":"2026-01-29","time":"00:07:10"},{"rt":null,"stimulus":"<p style=\"font-size: 50px; margin: 0; text-align: center;\">+</p>","response":null,"trial_type":"html-keyboard-response","trial_index":51,"plugin_version":"2.1.0","time_elapsed":687296,"subject_id":"92036","group":"Group2","condition":"1_Rep","full_date":"2026-01-29T00:07:10.224Z","date":"2026-01-29","time":"00:07:10"},{"task":"memory_phase","broad_category":"M","image_png":"M_Phyllite_05.png","image_id":261,"category_name":"Phyllite","category":17,"distinct_rating":2.14,"distinct_type":"Bottom","rt":null,"stimulus":"Stimuli_Rocks480/M_Phyllite_05.png","response":null,"trial_type":"image-keyboard-response","trial_index":52,"plugin_version":"2.1.0","time_elapsed":689800,"subject_id":"92036","group":"Group2","condition":"1_Rep","full_date":"2026-01-29T00:07:10.224Z","date":"2026-01-29","time":"00:07:10"},{"rt":null,"stimulus":"<p style=\"font-size: 50px; margin: 0; text-align: center;\">+</p>","response":null,"trial_type":"html-keyboard-response","trial_index":53,"plugin_version":"2.1.0","time_elapsed":690802,"subject_id":"92036","group":"Group2","condition":"1_Rep","full_date":"2026-01-29T00:07:10.224Z","date":"2026-01-29","time":"00:07:10"},{"task":"memory_phase","broad_category":"I","image_png":"I_Pumice_14.png","image_id":142,"category_name":"Pumice","category":9,"distinct_rating":3.22,"distinct_type":"Bottom","rt":null,"stimulus":"Stimuli_Rocks480/I_Pumice_14.png","response":null,"trial_type":"image-keyboard-response","trial_index":54,"plugin_version":"2.1.0","time_elapsed":693305,"subject_id":"92036","group":"Group2","condition":"1_Rep","full_date":"2026-01-29T00:07:10.224Z","date":"2026-01-29","time":"00:07:10"},{"rt":2185,"stimulus":"<p style=\"max-width: 760px; margin: auto; font-size: 35px; line-height: 1.5;\">\n                Press SPACE to continue study phase\n              </p>","response":" ","trial_type":"html-keyboard-response","trial_index":55,"plugin_version":"2.1.0","time_elapsed":695492,"subject_id":"92036","group":"Group2","condition":"1_Rep","full_date":"2026-01-29T00:07:10.224Z","date":"2026-01-29","time":"00:07:10"},{"rt":null,"stimulus":"<p style=\"font-size: 50px; margin: 0; text-align: center;\">+</p>","response":null,"trial_type":"html-keyboard-response","trial_index":56,"plugin_version":"2.1.0","time_elapsed":696494,"subject_id":"92036","group":"Group2","condition":"1_Rep","full_date":"2026-01-29T00:07:10.224Z","date":"2026-01-29","time":"00:07:10"},{"task":"memory_phase","broad_category":"S","image_png":"S_Shale_03.png","image_id":467,"category_name":"Shale","category":30,"distinct_rating":1.95,"distinct_type":"Bottom","rt":null,"stimulus":"Stimuli_Rocks480/S_Shale_03.png","response":null,"trial_type":"image-keyboard-response","trial_index":57,"plugin_version":"2.1.0","time_elapsed":698998,"subject_id":"92036","group":"Group2","condition":"1_Rep","full_date":"2026-01-29T00:07:10.224Z","date":"2026-01-29","time":"00:07:10"},{"rt":null,"stimulus":"<p style=\"font-size: 50px; margin: 0; text-align: center;\">+</p>","response":null,"trial_type":"html-keyboard-response","trial_index":58,"plugin_version":"2.1.0","time_elapsed":700001,"subject_id":"92036","group":"Group2","condition":"1_Rep","full_date":"2026-01-29T00:07:10.224Z","date":"2026-01-29","time":"00:07:10"},{"task":"memory_phase","broad_category":"I","image_png":"I_Pegmatite_03.png","image_id":99,"category_name":"Pegmatite","category":7,"distinct_rating":7.24,"distinct_type":"Top","rt":null,"stimulus":"Stimuli_Rocks480/I_Pegmatite_03.png","response":null,"trial_type":"image-keyboard-response","trial_index":59,"plugin_version":"2.1.0","time_elapsed":702504,"subject_id":"92036","group":"Group2","condition":"1_Rep","full_date":"2026-01-29T00:07:10.224Z","date":"2026-01-29","time":"00:07:10"},{"rt":null,"stimulus":"<p style=\"font-size: 50px; margin: 0; text-align: center;\">+</p>","response":null,"trial_type":"html-keyboard-response","trial_index":60,"plugin_version":"2.1.0","time_elapsed":703505,"subject_id":"92036","group":"Group2","condition":"1_Rep","full_date":"2026-01-29T00:07:10.224Z","date":"2026-01-29","time":"00:07:10"},{"task":"memory_phase","broad_category":"S","image_png":"S_Chert_13.png","image_id":365,"category_name":"Chert","category":23,"distinct_rating":6.57,"distinct_type":"Top","rt":null,"stimulus":"Stimuli_Rocks480/S_Chert_13.png","response":null,"trial_type":"image-keyboard-response","trial_index":61,"plugin_version":"2.1.0","time_elapsed":706009,"subject_id":"92036","group":"Group2","condition":"1_Rep","full_date":"2026-01-29T00:07:10.224Z","date":"2026-01-29","time":"00:07:10"},{"rt":null,"stimulus":"<p style=\"font-size: 50px; margin: 0; text-align: center;\">+</p>","response":null,"trial_type":"html-keyboard-response","trial_index":62,"plugin_version":"2.1.0","time_elapsed":707012,"subject_id":"92036","group":"Group2","condition":"1_Rep","full_date":"2026-01-29T00:07:10.224Z","date":"2026-01-29","time":"00:07:10"},{"task":"memory_phase","broad_category":"S","image_png":"S_Dolomite_16.png","image_id":400,"category_name":"Dolomite","category":25,"distinct_rating":1.71,"distinct_type":"Bottom","rt":null,"stimulus":"Stimuli_Rocks480/S_Dolomite_16.png","response":null,"trial_type":"image-keyboard-response","trial_index":63,"plugin_version":"2.1.0","time_elapsed":709516,"subject_id":"92036","group":"Group2","condition":"1_Rep","full_date":"2026-01-29T00:07:10.224Z","date":"2026-01-29","time":"00:07:10"},{"rt":null,"stimulus":"<p style=\"font-size: 50px; margin: 0; text-align: center;\">+</p>","response":null,"trial_type":"html-keyboard-response","trial_index":64,"plugin_version":"2.1.0","time_elapsed":710519,"subject_id":"92036","group":"Group2","condition":"1_Rep","full_date":"2026-01-29T00:07:10.224Z","date":"2026-01-29","time":"00:07:10"},{"task":"memory_phase","broad_category":"M","image_png":"M_Gneiss_14.png","image_id":206,"category_name":"Gneiss","category":13,"distinct_rating":3.41,"distinct_type":"Bottom","rt":null,"stimulus":"Stimuli_Rocks480/M_Gneiss_14.png","response":null,"trial_type":"image-keyboard-response","trial_index":65,"plugin_version":"2.1.0","time_elapsed":713023,"subject_id":"92036","group":"Group2","condition":"1_Rep","full_date":"2026-01-29T00:07:10.224Z","date":"2026-01-29","time":"00:07:10"},{"rt":null,"stimulus":"<p style=\"font-size: 50px; margin: 0; text-align: center;\">+</p>","response":null,"trial_type":"html-keyboard-response","trial_index":66,"plugin_version":"2.1.0","time_elapsed":714025,"subject_id":"92036","group":"Group2","condition":"1_Rep","full_date":"2026-01-29T00:07:10.224Z","date":"2026-01-29","time":"00:07:10"},{"task":"memory_phase","broad_category":"S","image_png":"S_Conglomerate_14.png","image_id":382,"category_name":"Conglomerate","category":24,"distinct_rating":6.86,"distinct_type":"Top","rt":null,"stimulus":"Stimuli_Rocks480/S_Conglomerate_14.png","response":null,"trial_type":"image-keyboard-response","trial_index":67,"plugin_version":"2.1.0","time_elapsed":716529,"subject_id":"92036","group":"Group2","condition":"1_Rep","full_date":"2026-01-29T00:07:10.224Z","date":"2026-01-29","time":"00:07:10"},{"rt":null,"stimulus":"<p style=\"font-size: 50px; margin: 0; text-align: center;\">+</p>","response":null,"trial_type":"html-keyboard-response","trial_index":68,"plugin_version":"2.1.0","time_elapsed":717531,"subject_id":"92036","group":"Group2","condition":"1_Rep","full_date":"2026-01-29T00:07:10.224Z","date":"2026-01-29","time":"00:07:10"},{"task":"memory_phase","broad_category":"I","image_png":"I_Rhyolite_10.png","image_id":154,"category_name":"Rhyolite","category":10,"distinct_rating":2.88,"distinct_type":"Bottom","rt":null,"stimulus":"Stimuli_Rocks480/I_Rhyolite_10.png","response":null,"trial_type":"image-keyboard-response","trial_index":69,"plugin_version":"2.1.0","time_elapsed":720034,"subject_id":"92036","group":"Group2","condition":"1_Rep","full_date":"2026-01-29T00:07:10.224Z","date":"2026-01-29","time":"00:07:10"},{"rt":null,"stimulus":"<p style=\"font-size: 50px; margin: 0; text-align: center;\">+</p>","response":null,"trial_type":"html-keyboard-response","trial_index":70,"plugin_version":"2.1.0","time_elapsed":721036,"subject_id":"92036","group":"Group2","condition":"1_Rep","full_date":"2026-01-29T00:07:10.224Z","date":"2026-01-29","time":"00:07:10"},{"task":"memory_phase","broad_category":"M","image_png":"M_Slate_14.png","image_id":318,"category_name":"Slate","category":20,"distinct_rating":2.58,"distinct_type":"Bottom","rt":null,"stimulus":"Stimuli_Rocks480/M_Slate_14.png","response":null,"trial_type":"image-keyboard-response","trial_index":71,"plugin_version":"2.1.0","time_elapsed":723540,"subject_id":"92036","group":"Group2","condition":"1_Rep","full_date":"2026-01-29T00:07:10.224Z","date":"2026-01-29","time":"00:07:10"},{"rt":null,"stimulus":"<p style=\"font-size: 50px; margin: 0; text-align: center;\">+</p>","response":null,"trial_type":"html-keyboard-response","trial_index":72,"plugin_version":"2.1.0","time_elapsed":724543,"subject_id":"92036","group":"Group2","condition":"1_Rep","full_date":"2026-01-29T00:07:10.224Z","date":"2026-01-29","time":"00:07:10"},{"task":"memory_phase","broad_category":"I","image_png":"I_Gabbro_14.png","image_id":62,"category_name":"Gabbro","category":4,"distinct_rating":2.95,"distinct_type":"Bottom","rt":null,"stimulus":"Stimuli_Rocks480/I_Gabbro_14.png","response":null,"trial_type":"image-keyboard-response","trial_index":73,"plugin_version":"2.1.0","time_elapsed":727045,"subject_id":"92036","group":"Group2","condition":"1_Rep","full_date":"2026-01-29T00:07:10.224Z","date":"2026-01-29","time":"00:07:10"},{"rt":null,"stimulus":"<p style=\"font-size: 50px; margin: 0; text-align: center;\">+</p>","response":null,"trial_type":"html-keyboard-response","trial_index":74,"plugin_version":"2.1.0","time_elapsed":728048,"subject_id":"92036","group":"Group2","condition":"1_Rep","full_date":"2026-01-29T00:07:10.224Z","date":"2026-01-29","time":"00:07:10"},{"task":"memory_phase","broad_category":"I","image_png":"I_Basalt_13.png","image_id":29,"category_name":"Basalt","category":2,"distinct_rating":2.68,"distinct_type":"Bottom","rt":null,"stimulus":"Stimuli_Rocks480/I_Basalt_13.png","response":null,"trial_type":"image-keyboard-response","trial_index":75,"plugin_version":"2.1.0","time_elapsed":730552,"subject_id":"92036","group":"Group2","condition":"1_Rep","full_date":"2026-01-29T00:07:10.224Z","date":"2026-01-29","time":"00:07:10"},{"rt":null,"stimulus":"<p style=\"font-size: 50px; margin: 0; text-align: center;\">+</p>","response":null,"trial_type":"html-keyboard-response","trial_index":76,"plugin_version":"2.1.0","time_elapsed":731554,"subject_id":"92036","group":"Group2","condition":"1_Rep","full_date":"2026-01-29T00:07:10.224Z","date":"2026-01-29","time":"00:07:10"},{"task":"memory_phase","broad_category":"S","image_png":"S_Sandstone_11.png","image_id":459,"category_name":"Sandstone","category":29,"distinct_rating":1.82,"distinct_type":"Bottom","rt":null,"stimulus":"Stimuli_Rocks480/S_Sandstone_11.png","response":null,"trial_type":"image-keyboard-response","trial_index":77,"plugin_version":"2.1.0","time_elapsed":734058,"subject_id":"92036","group":"Group2","condition":"1_Rep","full_date":"2026-01-29T00:07:10.224Z","date":"2026-01-29","time":"00:07:10"},{"rt":null,"stimulus":"<p style=\"font-size: 50px; margin: 0; text-align: center;\">+</p>","response":null,"trial_type":"html-keyboard-response","trial_index":78,"plugin_version":"2.1.0","time_elapsed":735060,"subject_id":"92036","group":"Group2","condition":"1_Rep","full_date":"2026-01-29T00:07:10.224Z","date":"2026-01-29","time":"00:07:10"},{"task":"memory_phase","broad_category":"I","image_png":"I_Andesite_03.png","image_id":3,"category_name":"Andesite","category":1,"distinct_rating":3.17,"distinct_type":"Bottom","rt":null,"stimulus":"Stimuli_Rocks480/I_Andesite_03.png","response":null,"trial_type":"image-keyboard-response","trial_index":79,"plugin_version":"2.1.0","time_elapsed":737564,"subject_id":"92036","group":"Group2","condition":"1_Rep","full_date":"2026-01-29T00:07:10.224Z","date":"2026-01-29","time":"00:07:10"},{"rt":null,"stimulus":"<p style=\"font-size: 50px; margin: 0; text-align: center;\">+</p>","response":null,"trial_type":"html-keyboard-response","trial_index":80,"plugin_version":"2.1.0","time_elapsed":738567,"subject_id":"92036","group":"Group2","condition":"1_Rep","full_date":"2026-01-29T00:07:10.224Z","date":"2026-01-29","time":"00:07:10"},{"task":"memory_phase","broad_category":"I","image_png":"I_Diorite_01.png","image_id":33,"category_name":"Diorite","category":3,"distinct_rating":2.97,"distinct_type":"Bottom","rt":null,"stimulus":"Stimuli_Rocks480/I_Diorite_01.png","response":null,"trial_type":"image-keyboard-response","trial_index":81,"plugin_version":"2.1.0","time_elapsed":741069,"subject_id":"92036","group":"Group2","condition":"1_Rep","full_date":"2026-01-29T00:07:10.224Z","date":"2026-01-29","time":"00:07:10"},{"rt":null,"stimulus":"<p style=\"font-size: 50px; margin: 0; text-align: center;\">+</p>","response":null,"trial_type":"html-keyboard-response","trial_index":82,"plugin_version":"2.1.0","time_elapsed":742072,"subject_id":"92036","group":"Group2","condition":"1_Rep","full_date":"2026-01-29T00:07:10.224Z","date":"2026-01-29","time":"00:07:10"},{"task":"memory_phase","broad_category":"I","image_png":"I_Pegmatite_11.png","image_id":107,"category_name":"Pegmatite","category":7,"distinct_rating":7.11,"distinct_type":"Top","rt":null,"stimulus":"Stimuli_Rocks480/I_Pegmatite_11.png","response":null,"trial_type":"image-keyboard-response","trial_index":83,"plugin_version":"2.1.0","time_elapsed":744576,"subject_id":"92036","group":"Group2","condition":"1_Rep","full_date":"2026-01-29T00:07:10.224Z","date":"2026-01-29","time":"00:07:10"},{"rt":null,"stimulus":"<p style=\"font-size: 50px; margin: 0; text-align: center;\">+</p>","response":null,"trial_type":"html-keyboard-response","trial_index":84,"plugin_version":"2.1.0","time_elapsed":745578,"subject_id":"92036","group":"Group2","condition":"1_Rep","full_date":"2026-01-29T00:07:10.224Z","date":"2026-01-29","time":"00:07:10"},{"task":"memory_phase","broad_category":"I","image_png":"I_Obsidian_06.png","image_id":86,"category_name":"Obsidian","category":6,"distinct_rating":8.01,"distinct_type":"Top","rt":null,"stimulus":"Stimuli_Rocks480/I_Obsidian_06.png","response":null,"trial_type":"image-keyboard-response","trial_index":85,"plugin_version":"2.1.0","time_elapsed":748082,"subject_id":"92036","group":"Group2","condition":"1_Rep","full_date":"2026-01-29T00:07:10.224Z","date":"2026-01-29","time":"00:07:10"},{"rt":null,"stimulus":"<p style=\"font-size: 50px; margin: 0; text-align: center;\">+</p>","response":null,"trial_type":"html-keyboard-response","trial_index":86,"plugin_version":"2.1.0","time_elapsed":749085,"subject_id":"92036","group":"Group2","condition":"1_Rep","full_date":"2026-01-29T00:07:10.224Z","date":"2026-01-29","time":"00:07:10"},{"task":"memory_phase","broad_category":"M","image_png":"M_Phyllite_13.png","image_id":269,"category_name":"Phyllite","category":17,"distinct_rating":2.8,"distinct_type":"Bottom","rt":null,"stimulus":"Stimuli_Rocks480/M_Phyllite_13.png","response":null,"trial_type":"image-keyboard-response","trial_index":87,"plugin_version":"2.1.0","time_elapsed":751589,"subject_id":"92036","group":"Group2","condition":"1_Rep","full_date":"2026-01-29T00:07:10.224Z","date":"2026-01-29","time":"00:07:10"},{"rt":null,"stimulus":"<p style=\"font-size: 50px; margin: 0; text-align: center;\">+</p>","response":null,"trial_type":"html-keyboard-response","trial_index":88,"plugin_version":"2.1.0","time_elapsed":752591,"subject_id":"92036","group":"Group2","condition":"1_Rep","full_date":"2026-01-29T00:07:10.224Z","date":"2026-01-29","time":"00:07:10"},{"task":"memory_phase","broad_category":"I","image_png":"I_Gabbro_12.png","image_id":60,"category_name":"Gabbro","category":4,"distinct_rating":2.6,"distinct_type":"Bottom","rt":null,"stimulus":"Stimuli_Rocks480/I_Gabbro_12.png","response":null,"trial_type":"image-keyboard-response","trial_index":89,"plugin_version":"2.1.0","time_elapsed":755095,"subject_id":"92036","group":"Group2","condition":"1_Rep","full_date":"2026-01-29T00:07:10.224Z","date":"2026-01-29","time":"00:07:10"},{"rt":null,"stimulus":"<p style=\"font-size: 50px; margin: 0; text-align: center;\">+</p>","response":null,"trial_type":"html-keyboard-response","trial_index":90,"plugin_version":"2.1.0","time_elapsed":756097,"subject_id":"92036","group":"Group2","condition":"1_Rep","full_date":"2026-01-29T00:07:10.224Z","date":"2026-01-29","time":"00:07:10"},{"task":"memory_phase","broad_category":"I","image_png":"I_Gabbro_02.png","image_id":50,"category_name":"Gabbro","category":4,"distinct_rating":2.73,"distinct_type":"Bottom","rt":null,"stimulus":"Stimuli_Rocks480/I_Gabbro_02.png","response":null,"trial_type":"image-keyboard-response","trial_index":91,"plugin_version":"2.1.0","time_elapsed":758601,"subject_id":"92036","group":"Group2","condition":"1_Rep","full_date":"2026-01-29T00:07:10.224Z","date":"2026-01-29","time":"00:07:10"},{"rt":null,"stimulus":"<p style=\"font-size: 50px; margin: 0; text-align: center;\">+</p>","response":null,"trial_type":"html-keyboard-response","trial_index":92,"plugin_version":"2.1.0","time_elapsed":759604,"subject_id":"92036","group":"Group2","condition":"1_Rep","full_date":"2026-01-29T00:07:10.224Z","date":"2026-01-29","time":"00:07:10"},{"task":"memory_phase","broad_category":"I","image_png":"I_Rhyolite_05.png","image_id":149,"category_name":"Rhyolite","category":10,"distinct_rating":3.02,"distinct_type":"Bottom","rt":null,"stimulus":"Stimuli_Rocks480/I_Rhyolite_05.png","response":null,"trial_type":"image-keyboard-response","trial_index":93,"plugin_version":"2.1.0","time_elapsed":762108,"subject_id":"92036","group":"Group2","condition":"1_Rep","full_date":"2026-01-29T00:07:10.224Z","date":"2026-01-29","time":"00:07:10"},{"rt":null,"stimulus":"<p style=\"font-size: 50px; margin: 0; text-align: center;\">+</p>","response":null,"trial_type":"html-keyboard-response","trial_index":94,"plugin_version":"2.1.0","time_elapsed":763110,"subject_id":"92036","group":"Group2","condition":"1_Rep","full_date":"2026-01-29T00:07:10.224Z","date":"2026-01-29","time":"00:07:10"},{"task":"memory_phase","broad_category":"M","image_png":"M_Quartzite_07.png","image_id":279,"category_name":"Quartzite","category":18,"distinct_rating":1.97,"distinct_type":"Bottom","rt":null,"stimulus":"Stimuli_Rocks480/M_Quartzite_07.png","response":null,"trial_type":"image-keyboard-response","trial_index":95,"plugin_version":"2.1.0","time_elapsed":765614,"subject_id":"92036","group":"Group2","condition":"1_Rep","full_date":"2026-01-29T00:07:10.224Z","date":"2026-01-29","time":"00:07:10"},{"rt":null,"stimulus":"<p style=\"font-size: 50px; margin: 0; text-align: center;\">+</p>","response":null,"trial_type":"html-keyboard-response","trial_index":96,"plugin_version":"2.1.0","time_elapsed":766616,"subject_id":"92036","group":"Group2","condition":"1_Rep","full_date":"2026-01-29T00:07:10.224Z","date":"2026-01-29","time":"00:07:10"},{"task":"memory_phase","broad_category":"I","image_png":"I_Peridotite_13.png","image_id":125,"category_name":"Peridotite","category":8,"distinct_rating":7.28,"distinct_type":"Top","rt":null,"stimulus":"Stimuli_Rocks480/I_Peridotite_13.png","response":null,"trial_type":"image-keyboard-response","trial_index":97,"plugin_version":"2.1.0","time_elapsed":769119,"subject_id":"92036","group":"Group2","condition":"1_Rep","full_date":"2026-01-29T00:07:10.224Z","date":"2026-01-29","time":"00:07:10"},{"rt":null,"stimulus":"<p style=\"font-size: 50px; margin: 0; text-align: center;\">+</p>","response":null,"trial_type":"html-keyboard-response","trial_index":98,"plugin_version":"2.1.0","time_elapsed":770121,"subject_id":"92036","group":"Group2","condition":"1_Rep","full_date":"2026-01-29T00:07:10.224Z","date":"2026-01-29","time":"00:07:10"},{"task":"memory_phase","broad_category":"M","image_png":"M_Quartzite_12.png","image_id":284,"category_name":"Quartzite","category":18,"distinct_rating":1.92,"distinct_type":"Bottom","rt":null,"stimulus":"Stimuli_Rocks480/M_Quartzite_12.png","response":null,"trial_type":"image-keyboard-response","trial_index":99,"plugin_version":"2.1.0","time_elapsed":772625,"subject_id":"92036","group":"Group2","condition":"1_Rep","full_date":"2026-01-29T00:07:10.224Z","date":"2026-01-29","time":"00:07:10"},{"rt":null,"stimulus":"<p style=\"font-size: 50px; margin: 0; text-align: center;\">+</p>","response":null,"trial_type":"html-keyboard-response","trial_index":100,"plugin_version":"2.1.0","time_elapsed":773627,"subject_id":"92036","group":"Group2","condition":"1_Rep","full_date":"2026-01-29T00:07:10.224Z","date":"2026-01-29","time":"00:07:10"},{"task":"memory_phase","broad_category":"I","image_png":"I_Andesite_09.png","image_id":9,"category_name":"Andesite","category":1,"distinct_rating":2.49,"distinct_type":"Bottom","rt":null,"stimulus":"Stimuli_Rocks480/I_Andesite_09.png","response":null,"trial_type":"image-keyboard-response","trial_index":101,"plugin_version":"2.1.0","time_elapsed":776131,"subject_id":"92036","group":"Group2","condition":"1_Rep","full_date":"2026-01-29T00:07:10.224Z","date":"2026-01-29","time":"00:07:10"},{"rt":null,"stimulus":"<p style=\"font-size: 50px; margin: 0; text-align: center;\">+</p>","response":null,"trial_type":"html-keyboard-response","trial_index":102,"plugin_version":"2.1.0","time_elapsed":777134,"subject_id":"92036","group":"Group2","condition":"1_Rep","full_date":"2026-01-29T00:07:10.224Z","date":"2026-01-29","time":"00:07:10"},{"task":"memory_phase","broad_category":"I","image_png":"I_Diorite_10.png","image_id":42,"category_name":"Diorite","category":3,"distinct_rating":2.84,"distinct_type":"Bottom","rt":null,"stimulus":"Stimuli_Rocks480/I_Diorite_10.png","response":null,"trial_type":"image-keyboard-response","trial_index":103,"plugin_version":"2.1.0","time_elapsed":779637,"subject_id":"92036","group":"Group2","condition":"1_Rep","full_date":"2026-01-29T00:07:10.224Z","date":"2026-01-29","time":"00:07:10"},{"rt":null,"stimulus":"<p style=\"font-size: 50px; margin: 0; text-align: center;\">+</p>","response":null,"trial_type":"html-keyboard-response","trial_index":104,"plugin_version":"2.1.0","time_elapsed":780641,"subject_id":"92036","group":"Group2","condition":"1_Rep","full_date":"2026-01-29T00:07:10.224Z","date":"2026-01-29","time":"00:07:10"},{"task":"memory_phase","broad_category":"S","image_png":"S_Rock Salt_13.png","image_id":445,"category_name":"Rock Salt","category":28,"distinct_rating":7.58,"distinct_type":"Top","rt":null,"stimulus":"Stimuli_Rocks480/S_Rock Salt_13.png","response":null,"trial_type":"image-keyboard-response","trial_index":105,"plugin_version":"2.1.0","time_elapsed":783145,"subject_id":"92036","group":"Group2","condition":"1_Rep","full_date":"2026-01-29T00:07:10.224Z","date":"2026-01-29","time":"00:07:10"},{"rt":43352,"stimulus":"<div style=\"max-width: 760px; margin: auto; font-size: 20px; line-height: 1.5;\">\n      <h1 style=\"text-align:center; font-size: 30px;\">Instructions for the Test Phase</h1>\n      <p>\n        The study phase is now complete.\n      </p>\n      <p>\n        In the test phase, you will again see a series of rock images. \n        Some will be ones you saw before - during the study phase, while others will be new.  \n        <b>Your task</b> is to decide whether you have seen each image before by pressing the corresponding key on your keyboard:<br><br>\n          <b>A</b> - NO (you did not see this image before)<br>\n          <b>L</b> - YES (you saw this image before)<br><br>\n        The test will proceed at your own pace. You will receive feedback after each response.  \n        Please try to respond <b>as accurately as possible</b>.\n      </p>\n      <p>\n        <b>Reminder:</b> If your computer has multiple language settings (e.g., English and another language),\n        please ensure it is set to English during the test phase.\n      </p>\n      <p>\n        You can track your progress using the <b>completion bar</b> at the top of the screen.  \n        Note that it has been refreshed to reflect your progress during this final phase.\n      </p>\n      <p>\n        Press the button below when you are ready to continue.\n      </p>\n    </div>","response":0,"trial_type":"html-button-response","trial_index":106,"plugin_version":"2.1.0","time_elapsed":826500,"subject_id":"92036","group":"Group2","condition":"1_Rep","full_date":"2026-01-29T00:07:10.224Z","date":"2026-01-29","time":"00:07:10"},{"correct_response":"l","task":"test_phase","broad_category":"S","image_png":"S_Sandstone_08.png","image_id":456,"category_name":"Sandstone","category":29,"distinct_rating":1.5,"distinct_type":"Bottom","item_type":"Target","rt":3763,"stimulus":"Stimuli_Rocks480/S_Sandstone_08.png","response":"a","trial_type":"image-keyboard-response","trial_index":107,"plugin_version":"2.1.0","time_elapsed":830265,"subject_id":"92036","group":"Group2","condition":"1_Rep","full_date":"2026-01-29T00:07:10.224Z","date":"2026-01-29","time":"00:07:10","cor_ans":false},{"trial_type":"html-keyboard-response","rt":null,"stimulus":"<p style=\"color: red; font-size: 50px; font-weight: bold;\">Incorrect</p>","response":null,"trial_index":108,"plugin_version":"2.1.0","time_elapsed":830767,"subject_id":"92036","group":"Group2","condition":"1_Rep","full_date":"2026-01-29T00:07:10.224Z","date":"2026-01-29","time":"00:07:10"},{"correct_response":"a","task":"test_phase","broad_category":"S","image_png":"S_Dolomite_14.png","image_id":398,"category_name":"Dolomite","category":25,"distinct_rating":1.43,"distinct_type":"Bottom","item_type":"Foil","rt":3557,"stimulus":"Stimuli_Rocks480/S_Dolomite_14.png","response":"l","trial_type":"image-keyboard-response","trial_index":109,"plugin_version":"2.1.0","time_elapsed":834327,"subject_id":"92036","group":"Group2","condition":"1_Rep","full_date":"2026-01-29T00:07:10.224Z","date":"2026-01-29","time":"00:07:10","cor_ans":false},{"trial_type":"html-keyboard-response","rt":null,"stimulus":"<p style=\"color: red; font-size: 50px; font-weight: bold;\">Incorrect</p>","response":null,"trial_index":110,"plugin_version":"2.1.0","time_elapsed":834829,"subject_id":"92036","group":"Group2","condition":"1_Rep","full_date":"2026-01-29T00:07:10.224Z","date":"2026-01-29","time":"00:07:10"},{"correct_response":"l","task":"test_phase","broad_category":"M","image_png":"M_Quartzite_12.png","image_id":284,"category_name":"Quartzite","category":18,"distinct_rating":1.92,"distinct_type":"Bottom","item_type":"Target","rt":2053,"stimulus":"Stimuli_Rocks480/M_Quartzite_12.png","response":"a","trial_type":"image-keyboard-response","trial_index":111,"plugin_version":"2.1.0","time_elapsed":836884,"subject_id":"92036","group":"Group2","condition":"1_Rep","full_date":"2026-01-29T00:07:10.224Z","date":"2026-01-29","time":"00:07:10","cor_ans":false},{"trial_type":"html-keyboard-response","rt":null,"stimulus":"<p style=\"color: red; font-size: 50px; font-weight: bold;\">Incorrect</p>","response":null,"trial_index":112,"plugin_version":"2.1.0","time_elapsed":837386,"subject_id":"92036","group":"Group2","condition":"1_Rep","full_date":"2026-01-29T00:07:10.224Z","date":"2026-01-29","time":"00:07:10"},{"correct_response":"l","task":"test_phase","broad_category":"I","image_png":"I_Gabbro_12.png","image_id":60,"category_name":"Gabbro","category":4,"distinct_rating":2.6,"distinct_type":"Bottom","item_type":"Target","rt":1527,"stimulus":"Stimuli_Rocks480/I_Gabbro_12.png","response":"l","trial_type":"image-keyboard-response","trial_index":113,"plugin_version":"2.1.0","time_elapsed":838915,"subject_id":"92036","group":"Group2","condition":"1_Rep","full_date":"2026-01-29T00:07:10.224Z","date":"2026-01-29","time":"00:07:10","cor_ans":true},{"trial_type":"html-keyboard-response","rt":null,"stimulus":"<p style=\"color: green; font-size: 50px; font-weight: bold;\">Correct</p>","response":null,"trial_index":114,"plugin_version":"2.1.0","time_elapsed":839416,"subject_id":"92036","group":"Group2","condition":"1_Rep","full_date":"2026-01-29T00:07:10.224Z","date":"2026-01-29","time":"00:07:10"},{"correct_response":"l","task":"test_phase","broad_category":"I","image_png":"I_Rhyolite_10.png","image_id":154,"category_name":"Rhyolite","category":10,"distinct_rating":2.88,"distinct_type":"Bottom","item_type":"Target","rt":2016,"stimulus":"Stimuli_Rocks480/I_Rhyolite_10.png","response":"l","trial_type":"image-keyboard-response","trial_index":115,"plugin_version":"2.1.0","time_elapsed":841433,"subject_id":"92036","group":"Group2","condition":"1_Rep","full_date":"2026-01-29T00:07:10.224Z","date":"2026-01-29","time":"00:07:10","cor_ans":true},{"trial_type":"html-keyboard-response","rt":null,"stimulus":"<p style=\"color: green; font-size: 50px; font-weight: bold;\">Correct</p>","response":null,"trial_index":116,"plugin_version":"2.1.0","time_elapsed":841935,"subject_id":"92036","group":"Group2","condition":"1_Rep","full_date":"2026-01-29T00:07:10.224Z","date":"2026-01-29","time":"00:07:10"},{"correct_response":"l","task":"test_phase","broad_category":"M","image_png":"M_Gneiss_15.png","image_id":207,"category_name":"Gneiss","category":13,"distinct_rating":3.11,"distinct_type":"Bottom","item_type":"Target","rt":1031,"stimulus":"Stimuli_Rocks480/M_Gneiss_15.png","response":"l","trial_type":"image-keyboard-response","trial_index":117,"plugin_version":"2.1.0","time_elapsed":842967,"subject_id":"92036","group":"Group2","condition":"1_Rep","full_date":"2026-01-29T00:07:10.224Z","date":"2026-01-29","time":"00:07:10","cor_ans":true},{"trial_type":"html-keyboard-response","rt":null,"stimulus":"<p style=\"color: green; font-size: 50px; font-weight: bold;\">Correct</p>","response":null,"trial_index":118,"plugin_version":"2.1.0","time_elapsed":843469,"subject_id":"92036","group":"Group2","condition":"1_Rep","full_date":"2026-01-29T00:07:10.224Z","date":"2026-01-29","time":"00:07:10"},{"correct_response":"l","task":"test_phase","broad_category":"S","image_png":"S_Dolomite_01.png","image_id":385,"category_name":"Dolomite","category":25,"distinct_rating":1.43,"distinct_type":"Bottom","item_type":"Target","rt":1576,"stimulus":"Stimuli_Rocks480/S_Dolomite_01.png","response":"l","trial_type":"image-keyboard-response","trial_index":119,"plugin_version":"2.1.0","time_elapsed":845047,"subject_id":"92036","group":"Group2","condition":"1_Rep","full_date":"2026-01-29T00:07:10.224Z","date":"2026-01-29","time":"00:07:10","cor_ans":true},{"trial_type":"html-keyboard-response","rt":null,"stimulus":"<p style=\"color: green; font-size: 50px; font-weight: bold;\">Correct</p>","response":null,"trial_index":120,"plugin_version":"2.1.0","time_elapsed":845549,"subject_id":"92036","group":"Group2","condition":"1_Rep","full_date":"2026-01-29T00:07:10.224Z","date":"2026-01-29","time":"00:07:10"},{"correct_response":"l","task":"test_phase","broad_category":"M","image_png":"M_Quartzite_15.png","image_id":287,"category_name":"Quartzite","category":18,"distinct_rating":2.19,"distinct_type":"Bottom","item_type":"Target","rt":1048,"stimulus":"Stimuli_Rocks480/M_Quartzite_15.png","response":"a","trial_type":"image-keyboard-response","trial_index":121,"plugin_version":"2.1.0","time_elapsed":846600,"subject_id":"92036","group":"Group2","condition":"1_Rep","full_date":"2026-01-29T00:07:10.224Z","date":"2026-01-29","time":"00:07:10","cor_ans":false},{"trial_type":"html-keyboard-response","rt":null,"stimulus":"<p style=\"color: red; font-size: 50px; font-weight: bold;\">Incorrect</p>","response":null,"trial_index":122,"plugin_version":"2.1.0","time_elapsed":847101,"subject_id":"92036","group":"Group2","condition":"1_Rep","full_date":"2026-01-29T00:07:10.224Z","date":"2026-01-29","time":"00:07:10"},{"correct_response":"l","task":"test_phase","broad_category":"I","image_png":"I_Diorite_10.png","image_id":42,"category_name":"Diorite","category":3,"distinct_rating":2.84,"distinct_type":"Bottom","item_type":"Target","rt":1226,"stimulus":"Stimuli_Rocks480/I_Diorite_10.png","response":"l","trial_type":"image-keyboard-response","trial_index":123,"plugin_version":"2.1.0","time_elapsed":848329,"subject_id":"92036","group":"Group2","condition":"1_Rep","full_date":"2026-01-29T00:07:10.224Z","date":"2026-01-29","time":"00:07:10","cor_ans":true},{"trial_type":"html-keyboard-response","rt":null,"stimulus":"<p style=\"color: green; font-size: 50px; font-weight: bold;\">Correct</p>","response":null,"trial_index":124,"plugin_version":"2.1.0","time_elapsed":848830,"subject_id":"92036","group":"Group2","condition":"1_Rep","full_date":"2026-01-29T00:07:10.224Z","date":"2026-01-29","time":"00:07:10"},{"correct_response":"a","task":"test_phase","broad_category":"I","image_png":"I_Pegmatite_10.png","image_id":106,"category_name":"Pegmatite","category":7,"distinct_rating":7.66,"distinct_type":"Top","item_type":"Foil","rt":1170,"stimulus":"Stimuli_Rocks480/I_Pegmatite_10.png","response":"a","trial_type":"image-keyboard-response","trial_index":125,"plugin_version":"2.1.0","time_elapsed":850002,"subject_id":"92036","group":"Group2","condition":"1_Rep","full_date":"2026-01-29T00:07:10.224Z","date":"2026-01-29","time":"00:07:10","cor_ans":true},{"trial_type":"html-keyboard-response","rt":null,"stimulus":"<p style=\"color: green; font-size: 50px; font-weight: bold;\">Correct</p>","response":null,"trial_index":126,"plugin_version":"2.1.0","time_elapsed":850504,"subject_id":"92036","group":"Group2","condition":"1_Rep","full_date":"2026-01-29T00:07:10.224Z","date":"2026-01-29","time":"00:07:10"},{"correct_response":"a","task":"test_phase","broad_category":"S","image_png":"S_Shale_01.png","image_id":465,"category_name":"Shale","category":30,"distinct_rating":2.7,"distinct_type":"Bottom","item_type":"Foil","rt":958,"stimulus":"Stimuli_Rocks480/S_Shale_01.png","response":"a","trial_type":"image-keyboard-response","trial_index":127,"plugin_version":"2.1.0","time_elapsed":851465,"subject_id":"92036","group":"Group2","condition":"1_Rep","full_date":"2026-01-29T00:07:10.224Z","date":"2026-01-29","time":"00:07:10","cor_ans":true},{"trial_type":"html-keyboard-response","rt":null,"stimulus":"<p style=\"color: green; font-size: 50px; font-weight: bold;\">Correct</p>","response":null,"trial_index":128,"plugin_version":"2.1.0","time_elapsed":851967,"subject_id":"92036","group":"Group2","condition":"1_Rep","full_date":"2026-01-29T00:07:10.224Z","date":"2026-01-29","time":"00:07:10"},{"correct_response":"a","task":"test_phase","broad_category":"M","image_png":"M_Quartzite_05.png","image_id":277,"category_name":"Quartzite","category":18,"distinct_rating":2.23,"distinct_type":"Bottom","item_type":"Foil","rt":828,"stimulus":"Stimuli_Rocks480/M_Quartzite_05.png","response":"a","trial_type":"image-keyboard-response","trial_index":129,"plugin_version":"2.1.0","time_elapsed":852797,"subject_id":"92036","group":"Group2","condition":"1_Rep","full_date":"2026-01-29T00:07:10.224Z","date":"2026-01-29","time":"00:07:10","cor_ans":true},{"trial_type":"html-keyboard-response","rt":null,"stimulus":"<p style=\"color: green; font-size: 50px; font-weight: bold;\">Correct</p>","response":null,"trial_index":130,"plugin_version":"2.1.0","time_elapsed":853299,"subject_id":"92036","group":"Group2","condition":"1_Rep","full_date":"2026-01-29T00:07:10.224Z","date":"2026-01-29","time":"00:07:10"},{"correct_response":"a","task":"test_phase","broad_category":"S","image_png":"S_Rock Salt_01.png","image_id":433,"category_name":"Rock Salt","category":28,"distinct_rating":7.18,"distinct_type":"Top","item_type":"Foil","rt":841,"stimulus":"Stimuli_Rocks480/S_Rock Salt_01.png","response":"a","trial_type":"image-keyboard-response","trial_index":131,"plugin_version":"2.1.0","time_elapsed":854141,"subject_id":"92036","group":"Group2","condition":"1_Rep","full_date":"2026-01-29T00:07:10.224Z","date":"2026-01-29","time":"00:07:10","cor_ans":true},{"trial_type":"html-keyboard-response","rt":null,"stimulus":"<p style=\"color: green; font-size: 50px; font-weight: bold;\">Correct</p>","response":null,"trial_index":132,"plugin_version":"2.1.0","time_elapsed":854643,"subject_id":"92036","group":"Group2","condition":"1_Rep","full_date":"2026-01-29T00:07:10.224Z","date":"2026-01-29","time":"00:07:10"},{"correct_response":"a","task":"test_phase","broad_category":"S","image_png":"S_Shale_08.png","image_id":472,"category_name":"Shale","category":30,"distinct_rating":2.55,"distinct_type":"Bottom","item_type":"Foil","rt":771,"stimulus":"Stimuli_Rocks480/S_Shale_08.png","response":"l","trial_type":"image-keyboard-response","trial_index":133,"plugin_version":"2.1.0","time_elapsed":855417,"subject_id":"92036","group":"Group2","condition":"1_Rep","full_date":"2026-01-29T00:07:10.224Z","date":"2026-01-29","time":"00:07:10","cor_ans":false},{"trial_type":"html-keyboard-response","rt":null,"stimulus":"<p style=\"color: red; font-size: 50px; font-weight: bold;\">Incorrect</p>","response":null,"trial_index":134,"plugin_version":"2.1.0","time_elapsed":855919,"subject_id":"92036","group":"Group2","condition":"1_Rep","full_date":"2026-01-29T00:07:10.224Z","date":"2026-01-29","time":"00:07:10"},{"correct_response":"a","task":"test_phase","broad_category":"S","image_png":"S_Breccia_11.png","image_id":347,"category_name":"Breccia","category":22,"distinct_rating":6.7,"distinct_type":"Top","item_type":"Foil","rt":816,"stimulus":"Stimuli_Rocks480/S_Breccia_11.png","response":"a","trial_type":"image-keyboard-response","trial_index":135,"plugin_version":"2.1.0","time_elapsed":856736,"subject_id":"92036","group":"Group2","condition":"1_Rep","full_date":"2026-01-29T00:07:10.224Z","date":"2026-01-29","time":"00:07:10","cor_ans":true},{"trial_type":"html-keyboard-response","rt":null,"stimulus":"<p style=\"color: green; font-size: 50px; font-weight: bold;\">Correct</p>","response":null,"trial_index":136,"plugin_version":"2.1.0","time_elapsed":857238,"subject_id":"92036","group":"Group2","condition":"1_Rep","full_date":"2026-01-29T00:07:10.224Z","date":"2026-01-29","time":"00:07:10"},{"correct_response":"a","task":"test_phase","broad_category":"I","image_png":"I_Obsidian_05.png","image_id":85,"category_name":"Obsidian","category":6,"distinct_rating":7.32,"distinct_type":"Top","item_type":"Foil","rt":918,"stimulus":"Stimuli_Rocks480/I_Obsidian_05.png","response":"a","trial_type":"image-keyboard-response","trial_index":137,"plugin_version":"2.1.0","time_elapsed":858158,"subject_id":"92036","group":"Group2","condition":"1_Rep","full_date":"2026-01-29T00:07:10.224Z","date":"2026-01-29","time":"00:07:10","cor_ans":true},{"trial_type":"html-keyboard-response","rt":null,"stimulus":"<p style=\"color: green; font-size: 50px; font-weight: bold;\">Correct</p>","response":null,"trial_index":138,"plugin_version":"2.1.0","time_elapsed":858660,"subject_id":"92036","group":"Group2","condition":"1_Rep","full_date":"2026-01-29T00:07:10.224Z","date":"2026-01-29","time":"00:07:10"},{"correct_response":"l","task":"test_phase","broad_category":"M","image_png":"M_Slate_14.png","image_id":318,"category_name":"Slate","category":20,"distinct_rating":2.58,"distinct_type":"Bottom","item_type":"Target","rt":810,"stimulus":"Stimuli_Rocks480/M_Slate_14.png","response":"a","trial_type":"image-keyboard-response","trial_index":139,"plugin_version":"2.1.0","time_elapsed":859472,"subject_id":"92036","group":"Group2","condition":"1_Rep","full_date":"2026-01-29T00:07:10.224Z","date":"2026-01-29","time":"00:07:10","cor_ans":false},{"trial_type":"html-keyboard-response","rt":null,"stimulus":"<p style=\"color: red; font-size: 50px; font-weight: bold;\">Incorrect</p>","response":null,"trial_index":140,"plugin_version":"2.1.0","time_elapsed":859973,"subject_id":"92036","group":"Group2","condition":"1_Rep","full_date":"2026-01-29T00:07:10.224Z","date":"2026-01-29","time":"00:07:10"},{"correct_response":"a","task":"test_phase","broad_category":"S","image_png":"S_Dolomite_12.png","image_id":396,"category_name":"Dolomite","category":25,"distinct_rating":1.85,"distinct_type":"Bottom","item_type":"Foil","rt":1400,"stimulus":"Stimuli_Rocks480/S_Dolomite_12.png","response":"l","trial_type":"image-keyboard-response","trial_index":141,"plugin_version":"2.1.0","time_elapsed":861375,"subject_id":"92036","group":"Group2","condition":"1_Rep","full_date":"2026-01-29T00:07:10.224Z","date":"2026-01-29","time":"00:07:10","cor_ans":false},{"trial_type":"html-keyboard-response","rt":null,"stimulus":"<p style=\"color: red; font-size: 50px; font-weight: bold;\">Incorrect</p>","response":null,"trial_index":142,"plugin_version":"2.1.0","time_elapsed":861876,"subject_id":"92036","group":"Group2","condition":"1_Rep","full_date":"2026-01-29T00:07:10.224Z","date":"2026-01-29","time":"00:07:10"},{"correct_response":"a","task":"test_phase","broad_category":"I","image_png":"I_Rhyolite_11.png","image_id":155,"category_name":"Rhyolite","category":10,"distinct_rating":1.73,"distinct_type":"Bottom","item_type":"Foil","rt":1053,"stimulus":"Stimuli_Rocks480/I_Rhyolite_11.png","response":"a","trial_type":"image-keyboard-response","trial_index":143,"plugin_version":"2.1.0","time_elapsed":862931,"subject_id":"92036","group":"Group2","condition":"1_Rep","full_date":"2026-01-29T00:07:10.224Z","date":"2026-01-29","time":"00:07:10","cor_ans":true},{"trial_type":"html-keyboard-response","rt":null,"stimulus":"<p style=\"color: green; font-size: 50px; font-weight: bold;\">Correct</p>","response":null,"trial_index":144,"plugin_version":"2.1.0","time_elapsed":863433,"subject_id":"92036","group":"Group2","condition":"1_Rep","full_date":"2026-01-29T00:07:10.224Z","date":"2026-01-29","time":"00:07:10"},{"correct_response":"l","task":"test_phase","broad_category":"M","image_png":"M_Gneiss_14.png","image_id":206,"category_name":"Gneiss","category":13,"distinct_rating":3.41,"distinct_type":"Bottom","item_type":"Target","rt":764,"stimulus":"Stimuli_Rocks480/M_Gneiss_14.png","response":"l","trial_type":"image-keyboard-response","trial_index":145,"plugin_version":"2.1.0","time_elapsed":864199,"subject_id":"92036","group":"Group2","condition":"1_Rep","full_date":"2026-01-29T00:07:10.224Z","date":"2026-01-29","time":"00:07:10","cor_ans":true},{"trial_type":"html-keyboard-response","rt":null,"stimulus":"<p style=\"color: green; font-size: 50px; font-weight: bold;\">Correct</p>","response":null,"trial_index":146,"plugin_version":"2.1.0","time_elapsed":864700,"subject_id":"92036","group":"Group2","condition":"1_Rep","full_date":"2026-01-29T00:07:10.224Z","date":"2026-01-29","time":"00:07:10"},{"correct_response":"a","task":"test_phase","broad_category":"M","image_png":"M_Marble_04.png","image_id":228,"category_name":"Marble","category":15,"distinct_rating":3.15,"distinct_type":"Bottom","item_type":"Foil","rt":803,"stimulus":"Stimuli_Rocks480/M_Marble_04.png","response":"a","trial_type":"image-keyboard-response","trial_index":147,"plugin_version":"2.1.0","time_elapsed":865505,"subject_id":"92036","group":"Group2","condition":"1_Rep","full_date":"2026-01-29T00:07:10.224Z","date":"2026-01-29","time":"00:07:10","cor_ans":true},{"trial_type":"html-keyboard-response","rt":null,"stimulus":"<p style=\"color: green; font-size: 50px; font-weight: bold;\">Correct</p>","response":null,"trial_index":148,"plugin_version":"2.1.0","time_elapsed":866007,"subject_id":"92036","group":"Group2","condition":"1_Rep","full_date":"2026-01-29T00:07:10.224Z","date":"2026-01-29","time":"00:07:10"},{"correct_response":"l","task":"test_phase","broad_category":"I","image_png":"I_Peridotite_13.png","image_id":125,"category_name":"Peridotite","category":8,"distinct_rating":7.28,"distinct_type":"Top","item_type":"Target","rt":854,"stimulus":"Stimuli_Rocks480/I_Peridotite_13.png","response":"l","trial_type":"image-keyboard-response","trial_index":149,"plugin_version":"2.1.0","time_elapsed":866863,"subject_id":"92036","group":"Group2","condition":"1_Rep","full_date":"2026-01-29T00:07:10.224Z","date":"2026-01-29","time":"00:07:10","cor_ans":true},{"trial_type":"html-keyboard-response","rt":null,"stimulus":"<p style=\"color: green; font-size: 50px; font-weight: bold;\">Correct</p>","response":null,"trial_index":150,"plugin_version":"2.1.0","time_elapsed":867365,"subject_id":"92036","group":"Group2","condition":"1_Rep","full_date":"2026-01-29T00:07:10.224Z","date":"2026-01-29","time":"00:07:10"},{"correct_response":"l","task":"test_phase","broad_category":"M","image_png":"M_Marble_03.png","image_id":227,"category_name":"Marble","category":15,"distinct_rating":2.67,"distinct_type":"Bottom","item_type":"Target","rt":1180,"stimulus":"Stimuli_Rocks480/M_Marble_03.png","response":"l","trial_type":"image-keyboard-response","trial_index":151,"plugin_version":"2.1.0","time_elapsed":868547,"subject_id":"92036","group":"Group2","condition":"1_Rep","full_date":"2026-01-29T00:07:10.224Z","date":"2026-01-29","time":"00:07:10","cor_ans":true},{"trial_type":"html-keyboard-response","rt":null,"stimulus":"<p style=\"color: green; font-size: 50px; font-weight: bold;\">Correct</p>","response":null,"trial_index":152,"plugin_version":"2.1.0","time_elapsed":869049,"subject_id":"92036","group":"Group2","condition":"1_Rep","full_date":"2026-01-29T00:07:10.224Z","date":"2026-01-29","time":"00:07:10"},{"correct_response":"l","task":"test_phase","broad_category":"I","image_png":"I_Basalt_10.png","image_id":26,"category_name":"Basalt","category":2,"distinct_rating":2.76,"distinct_type":"Bottom","item_type":"Target","rt":939,"stimulus":"Stimuli_Rocks480/I_Basalt_10.png","response":"l","trial_type":"image-keyboard-response","trial_index":153,"plugin_version":"2.1.0","time_elapsed":869989,"subject_id":"92036","group":"Group2","condition":"1_Rep","full_date":"2026-01-29T00:07:10.224Z","date":"2026-01-29","time":"00:07:10","cor_ans":true},{"trial_type":"html-keyboard-response","rt":null,"stimulus":"<p style=\"color: green; font-size: 50px; font-weight: bold;\">Correct</p>","response":null,"trial_index":154,"plugin_version":"2.1.0","time_elapsed":870490,"subject_id":"92036","group":"Group2","condition":"1_Rep","full_date":"2026-01-29T00:07:10.224Z","date":"2026-01-29","time":"00:07:10"},{"correct_response":"l","task":"test_phase","broad_category":"M","image_png":"M_Phyllite_05.png","image_id":261,"category_name":"Phyllite","category":17,"distinct_rating":2.14,"distinct_type":"Bottom","item_type":"Target","rt":695,"stimulus":"Stimuli_Rocks480/M_Phyllite_05.png","response":"l","trial_type":"image-keyboard-response","trial_index":155,"plugin_version":"2.1.0","time_elapsed":871187,"subject_id":"92036","group":"Group2","condition":"1_Rep","full_date":"2026-01-29T00:07:10.224Z","date":"2026-01-29","time":"00:07:10","cor_ans":true},{"trial_type":"html-keyboard-response","rt":null,"stimulus":"<p style=\"color: green; font-size: 50px; font-weight: bold;\">Correct</p>","response":null,"trial_index":156,"plugin_version":"2.1.0","time_elapsed":871689,"subject_id":"92036","group":"Group2","condition":"1_Rep","full_date":"2026-01-29T00:07:10.224Z","date":"2026-01-29","time":"00:07:10"},{"correct_response":"l","task":"test_phase","broad_category":"S","image_png":"S_Sandstone_04.png","image_id":452,"category_name":"Sandstone","category":29,"distinct_rating":1.8,"distinct_type":"Bottom","item_type":"Target","rt":823,"stimulus":"Stimuli_Rocks480/S_Sandstone_04.png","response":"l","trial_type":"image-keyboard-response","trial_index":157,"plugin_version":"2.1.0","time_elapsed":872514,"subject_id":"92036","group":"Group2","condition":"1_Rep","full_date":"2026-01-29T00:07:10.224Z","date":"2026-01-29","time":"00:07:10","cor_ans":true},{"trial_type":"html-keyboard-response","rt":null,"stimulus":"<p style=\"color: green; font-size: 50px; font-weight: bold;\">Correct</p>","response":null,"trial_index":158,"plugin_version":"2.1.0","time_elapsed":873015,"subject_id":"92036","group":"Group2","condition":"1_Rep","full_date":"2026-01-29T00:07:10.224Z","date":"2026-01-29","time":"00:07:10"},{"correct_response":"l","task":"test_phase","broad_category":"S","image_png":"S_Chert_13.png","image_id":365,"category_name":"Chert","category":23,"distinct_rating":6.57,"distinct_type":"Top","item_type":"Target","rt":554,"stimulus":"Stimuli_Rocks480/S_Chert_13.png","response":"l","trial_type":"image-keyboard-response","trial_index":159,"plugin_version":"2.1.0","time_elapsed":873571,"subject_id":"92036","group":"Group2","condition":"1_Rep","full_date":"2026-01-29T00:07:10.224Z","date":"2026-01-29","time":"00:07:10","cor_ans":true},{"trial_type":"html-keyboard-response","rt":null,"stimulus":"<p style=\"color: green; font-size: 50px; font-weight: bold;\">Correct</p>","response":null,"trial_index":160,"plugin_version":"2.1.0","time_elapsed":874073,"subject_id":"92036","group":"Group2","condition":"1_Rep","full_date":"2026-01-29T00:07:10.224Z","date":"2026-01-29","time":"00:07:10"},{"correct_response":"a","task":"test_phase","broad_category":"I","image_png":"I_Rhyolite_16.png","image_id":160,"category_name":"Rhyolite","category":10,"distinct_rating":2.19,"distinct_type":"Bottom","item_type":"Foil","rt":591,"stimulus":"Stimuli_Rocks480/I_Rhyolite_16.png","response":"l","trial_type":"image-keyboard-response","trial_index":161,"plugin_version":"2.1.0","time_elapsed":874666,"subject_id":"92036","group":"Group2","condition":"1_Rep","full_date":"2026-01-29T00:07:10.224Z","date":"2026-01-29","time":"00:07:10","cor_ans":false},{"trial_type":"html-keyboard-response","rt":null,"stimulus":"<p style=\"color: red; font-size: 50px; font-weight: bold;\">Incorrect</p>","response":null,"trial_index":162,"plugin_version":"2.1.0","time_elapsed":875168,"subject_id":"92036","group":"Group2","condition":"1_Rep","full_date":"2026-01-29T00:07:10.224Z","date":"2026-01-29","time":"00:07:10"},{"correct_response":"a","task":"test_phase","broad_category":"M","image_png":"M_Phyllite_07.png","image_id":263,"category_name":"Phyllite","category":17,"distinct_rating":2.59,"distinct_type":"Bottom","item_type":"Foil","rt":943,"stimulus":"Stimuli_Rocks480/M_Phyllite_07.png","response":"l","trial_type":"image-keyboard-response","trial_index":163,"plugin_version":"2.1.0","time_elapsed":876112,"subject_id":"92036","group":"Group2","condition":"1_Rep","full_date":"2026-01-29T00:07:10.224Z","date":"2026-01-29","time":"00:07:10","cor_ans":false},{"trial_type":"html-keyboard-response","rt":null,"stimulus":"<p style=\"color: red; font-size: 50px; font-weight: bold;\">Incorrect</p>","response":null,"trial_index":164,"plugin_version":"2.1.0","time_elapsed":876614,"subject_id":"92036","group":"Group2","condition":"1_Rep","full_date":"2026-01-29T00:07:10.224Z","date":"2026-01-29","time":"00:07:10"},{"correct_response":"a","task":"test_phase","broad_category":"M","image_png":"M_Gneiss_06.png","image_id":198,"category_name":"Gneiss","category":13,"distinct_rating":2.65,"distinct_type":"Bottom","item_type":"Foil","rt":1332,"stimulus":"Stimuli_Rocks480/M_Gneiss_06.png","response":"l","trial_type":"image-keyboard-response","trial_index":165,"plugin_version":"2.1.0","time_elapsed":877948,"subject_id":"92036","group":"Group2","condition":"1_Rep","full_date":"2026-01-29T00:07:10.224Z","date":"2026-01-29","time":"00:07:10","cor_ans":false},{"trial_type":"html-keyboard-response","rt":null,"stimulus":"<p style=\"color: red; font-size: 50px; font-weight: bold;\">Incorrect</p>","response":null,"trial_index":166,"plugin_version":"2.1.0","time_elapsed":878450,"subject_id":"92036","group":"Group2","condition":"1_Rep","full_date":"2026-01-29T00:07:10.224Z","date":"2026-01-29","time":"00:07:10"},{"correct_response":"a","task":"test_phase","broad_category":"I","image_png":"I_Basalt_02.png","image_id":18,"category_name":"Basalt","category":2,"distinct_rating":1.84,"distinct_type":"Bottom","item_type":"Foil","rt":670,"stimulus":"Stimuli_Rocks480/I_Basalt_02.png","response":"a","trial_type":"image-keyboard-response","trial_index":167,"plugin_version":"2.1.0","time_elapsed":879122,"subject_id":"92036","group":"Group2","condition":"1_Rep","full_date":"2026-01-29T00:07:10.224Z","date":"2026-01-29","time":"00:07:10","cor_ans":true},{"trial_type":"html-keyboard-response","rt":null,"stimulus":"<p style=\"color: green; font-size: 50px; font-weight: bold;\">Correct</p>","response":null,"trial_index":168,"plugin_version":"2.1.0","time_elapsed":879623,"subject_id":"92036","group":"Group2","condition":"1_Rep","full_date":"2026-01-29T00:07:10.224Z","date":"2026-01-29","time":"00:07:10"},{"correct_response":"a","task":"test_phase","broad_category":"M","image_png":"M_Gneiss_13.png","image_id":205,"category_name":"Gneiss","category":13,"distinct_rating":3.26,"distinct_type":"Bottom","item_type":"Foil","rt":918,"stimulus":"Stimuli_Rocks480/M_Gneiss_13.png","response":"a","trial_type":"image-keyboard-response","trial_index":169,"plugin_version":"2.1.0","time_elapsed":880543,"subject_id":"92036","group":"Group2","condition":"1_Rep","full_date":"2026-01-29T00:07:10.224Z","date":"2026-01-29","time":"00:07:10","cor_ans":true},{"trial_type":"html-keyboard-response","rt":null,"stimulus":"<p style=\"color: green; font-size: 50px; font-weight: bold;\">Correct</p>","response":null,"trial_index":170,"plugin_version":"2.1.0","time_elapsed":881045,"subject_id":"92036","group":"Group2","condition":"1_Rep","full_date":"2026-01-29T00:07:10.224Z","date":"2026-01-29","time":"00:07:10"},{"correct_response":"l","task":"test_phase","broad_category":"M","image_png":"M_Gneiss_10.png","image_id":202,"category_name":"Gneiss","category":13,"distinct_rating":3.09,"distinct_type":"Bottom","item_type":"Target","rt":614,"stimulus":"Stimuli_Rocks480/M_Gneiss_10.png","response":"a","trial_type":"image-keyboard-response","trial_index":171,"plugin_version":"2.1.0","time_elapsed":881661,"subject_id":"92036","group":"Group2","condition":"1_Rep","full_date":"2026-01-29T00:07:10.224Z","date":"2026-01-29","time":"00:07:10","cor_ans":false},{"trial_type":"html-keyboard-response","rt":null,"stimulus":"<p style=\"color: red; font-size: 50px; font-weight: bold;\">Incorrect</p>","response":null,"trial_index":172,"plugin_version":"2.1.0","time_elapsed":882163,"subject_id":"92036","group":"Group2","condition":"1_Rep","full_date":"2026-01-29T00:07:10.224Z","date":"2026-01-29","time":"00:07:10"},{"correct_response":"l","task":"test_phase","broad_category":"M","image_png":"M_Phyllite_13.png","image_id":269,"category_name":"Phyllite","category":17,"distinct_rating":2.8,"distinct_type":"Bottom","item_type":"Target","rt":712,"stimulus":"Stimuli_Rocks480/M_Phyllite_13.png","response":"l","trial_type":"image-keyboard-response","trial_index":173,"plugin_version":"2.1.0","time_elapsed":882877,"subject_id":"92036","group":"Group2","condition":"1_Rep","full_date":"2026-01-29T00:07:10.224Z","date":"2026-01-29","time":"00:07:10","cor_ans":true},{"trial_type":"html-keyboard-response","rt":null,"stimulus":"<p style=\"color: green; font-size: 50px; font-weight: bold;\">Correct</p>","response":null,"trial_index":174,"plugin_version":"2.1.0","time_elapsed":883378,"subject_id":"92036","group":"Group2","condition":"1_Rep","full_date":"2026-01-29T00:07:10.224Z","date":"2026-01-29","time":"00:07:10"},{"correct_response":"a","task":"test_phase","broad_category":"M","image_png":"M_Phyllite_03.png","image_id":259,"category_name":"Phyllite","category":17,"distinct_rating":2.5,"distinct_type":"Bottom","item_type":"Foil","rt":1097,"stimulus":"Stimuli_Rocks480/M_Phyllite_03.png","response":"l","trial_type":"image-keyboard-response","trial_index":175,"plugin_version":"2.1.0","time_elapsed":884477,"subject_id":"92036","group":"Group2","condition":"1_Rep","full_date":"2026-01-29T00:07:10.224Z","date":"2026-01-29","time":"00:07:10","cor_ans":false},{"trial_type":"html-keyboard-response","rt":null,"stimulus":"<p style=\"color: red; font-size: 50px; font-weight: bold;\">Incorrect</p>","response":null,"trial_index":176,"plugin_version":"2.1.0","time_elapsed":884979,"subject_id":"92036","group":"Group2","condition":"1_Rep","full_date":"2026-01-29T00:07:10.224Z","date":"2026-01-29","time":"00:07:10"},{"correct_response":"a","task":"test_phase","broad_category":"S","image_png":"S_Conglomerate_05.png","image_id":373,"category_name":"Conglomerate","category":24,"distinct_rating":7.32,"distinct_type":"Top","item_type":"Foil","rt":1171,"stimulus":"Stimuli_Rocks480/S_Conglomerate_05.png","response":"a","trial_type":"image-keyboard-response","trial_index":177,"plugin_version":"2.1.0","time_elapsed":886152,"subject_id":"92036","group":"Group2","condition":"1_Rep","full_date":"2026-01-29T00:07:10.224Z","date":"2026-01-29","time":"00:07:10","cor_ans":true},{"trial_type":"html-keyboard-response","rt":null,"stimulus":"<p style=\"color: green; font-size: 50px; font-weight: bold;\">Correct</p>","response":null,"trial_index":178,"plugin_version":"2.1.0","time_elapsed":886654,"subject_id":"92036","group":"Group2","condition":"1_Rep","full_date":"2026-01-29T00:07:10.224Z","date":"2026-01-29","time":"00:07:10"},{"correct_response":"a","task":"test_phase","broad_category":"I","image_png":"I_Basalt_01.png","image_id":17,"category_name":"Basalt","category":2,"distinct_rating":1.92,"distinct_type":"Bottom","item_type":"Foil","rt":1350,"stimulus":"Stimuli_Rocks480/I_Basalt_01.png","response":"l","trial_type":"image-keyboard-response","trial_index":179,"plugin_version":"2.1.0","time_elapsed":888006,"subject_id":"92036","group":"Group2","condition":"1_Rep","full_date":"2026-01-29T00:07:10.224Z","date":"2026-01-29","time":"00:07:10","cor_ans":false},{"trial_type":"html-keyboard-response","rt":null,"stimulus":"<p style=\"color: red; font-size: 50px; font-weight: bold;\">Incorrect</p>","response":null,"trial_index":180,"plugin_version":"2.1.0","time_elapsed":888508,"subject_id":"92036","group":"Group2","condition":"1_Rep","full_date":"2026-01-29T00:07:10.224Z","date":"2026-01-29","time":"00:07:10"},{"correct_response":"l","task":"test_phase","broad_category":"I","image_png":"I_Diorite_15.png","image_id":47,"category_name":"Diorite","category":3,"distinct_rating":3.05,"distinct_type":"Bottom","item_type":"Target","rt":979,"stimulus":"Stimuli_Rocks480/I_Diorite_15.png","response":"l","trial_type":"image-keyboard-response","trial_index":181,"plugin_version":"2.1.0","time_elapsed":889489,"subject_id":"92036","group":"Group2","condition":"1_Rep","full_date":"2026-01-29T00:07:10.224Z","date":"2026-01-29","time":"00:07:10","cor_ans":true},{"trial_type":"html-keyboard-response","rt":null,"stimulus":"<p style=\"color: green; font-size: 50px; font-weight: bold;\">Correct</p>","response":null,"trial_index":182,"plugin_version":"2.1.0","time_elapsed":889990,"subject_id":"92036","group":"Group2","condition":"1_Rep","full_date":"2026-01-29T00:07:10.224Z","date":"2026-01-29","time":"00:07:10"},{"correct_response":"l","task":"test_phase","broad_category":"I","image_png":"I_Basalt_13.png","image_id":29,"category_name":"Basalt","category":2,"distinct_rating":2.68,"distinct_type":"Bottom","item_type":"Target","rt":928,"stimulus":"Stimuli_Rocks480/I_Basalt_13.png","response":"a","trial_type":"image-keyboard-response","trial_index":183,"plugin_version":"2.1.0","time_elapsed":890920,"subject_id":"92036","group":"Group2","condition":"1_Rep","full_date":"2026-01-29T00:07:10.224Z","date":"2026-01-29","time":"00:07:10","cor_ans":false},{"trial_type":"html-keyboard-response","rt":null,"stimulus":"<p style=\"color: red; font-size: 50px; font-weight: bold;\">Incorrect</p>","response":null,"trial_index":184,"plugin_version":"2.1.0","time_elapsed":891421,"subject_id":"92036","group":"Group2","condition":"1_Rep","full_date":"2026-01-29T00:07:10.224Z","date":"2026-01-29","time":"00:07:10"},{"correct_response":"a","task":"test_phase","broad_category":"S","image_png":"S_Dolomite_13.png","image_id":397,"category_name":"Dolomite","category":25,"distinct_rating":1.77,"distinct_type":"Bottom","item_type":"Foil","rt":682,"stimulus":"Stimuli_Rocks480/S_Dolomite_13.png","response":"l","trial_type":"image-keyboard-response","trial_index":185,"plugin_version":"2.1.0","time_elapsed":892105,"subject_id":"92036","group":"Group2","condition":"1_Rep","full_date":"2026-01-29T00:07:10.224Z","date":"2026-01-29","time":"00:07:10","cor_ans":false},{"trial_type":"html-keyboard-response","rt":null,"stimulus":"<p style=\"color: red; font-size: 50px; font-weight: bold;\">Incorrect</p>","response":null,"trial_index":186,"plugin_version":"2.1.0","time_elapsed":892606,"subject_id":"92036","group":"Group2","condition":"1_Rep","full_date":"2026-01-29T00:07:10.224Z","date":"2026-01-29","time":"00:07:10"},{"correct_response":"a","task":"test_phase","broad_category":"S","image_png":"S_Sandstone_15.png","image_id":463,"category_name":"Sandstone","category":29,"distinct_rating":2,"distinct_type":"Bottom","item_type":"Foil","rt":1372,"stimulus":"Stimuli_Rocks480/S_Sandstone_15.png","response":"a","trial_type":"image-keyboard-response","trial_index":187,"plugin_version":"2.1.0","time_elapsed":893981,"subject_id":"92036","group":"Group2","condition":"1_Rep","full_date":"2026-01-29T00:07:10.224Z","date":"2026-01-29","time":"00:07:10","cor_ans":true},{"trial_type":"html-keyboard-response","rt":null,"stimulus":"<p style=\"color: green; font-size: 50px; font-weight: bold;\">Correct</p>","response":null,"trial_index":188,"plugin_version":"2.1.0","time_elapsed":894482,"subject_id":"92036","group":"Group2","condition":"1_Rep","full_date":"2026-01-29T00:07:10.224Z","date":"2026-01-29","time":"00:07:10"},{"correct_response":"l","task":"test_phase","broad_category":"S","image_png":"S_Rock Salt_15.png","image_id":447,"category_name":"Rock Salt","category":28,"distinct_rating":7.79,"distinct_type":"Top","item_type":"Target","rt":761,"stimulus":"Stimuli_Rocks480/S_Rock Salt_15.png","response":"l","trial_type":"image-keyboard-response","trial_index":189,"plugin_version":"2.1.0","time_elapsed":895245,"subject_id":"92036","group":"Group2","condition":"1_Rep","full_date":"2026-01-29T00:07:10.224Z","date":"2026-01-29","time":"00:07:10","cor_ans":true},{"trial_type":"html-keyboard-response","rt":null,"stimulus":"<p style=\"color: green; font-size: 50px; font-weight: bold;\">Correct</p>","response":null,"trial_index":190,"plugin_version":"2.1.0","time_elapsed":895747,"subject_id":"92036","group":"Group2","condition":"1_Rep","full_date":"2026-01-29T00:07:10.224Z","date":"2026-01-29","time":"00:07:10"},{"correct_response":"l","task":"test_phase","broad_category":"I","image_png":"I_Andesite_04.png","image_id":4,"category_name":"Andesite","category":1,"distinct_rating":3.18,"distinct_type":"Bottom","item_type":"Target","rt":3401,"stimulus":"Stimuli_Rocks480/I_Andesite_04.png","response":"l","trial_type":"image-keyboard-response","trial_index":191,"plugin_version":"2.1.0","time_elapsed":899150,"subject_id":"92036","group":"Group2","condition":"1_Rep","full_date":"2026-01-29T00:07:10.224Z","date":"2026-01-29","time":"00:07:10","cor_ans":true},{"trial_type":"html-keyboard-response","rt":null,"stimulus":"<p style=\"color: green; font-size: 50px; font-weight: bold;\">Correct</p>","response":null,"trial_index":192,"plugin_version":"2.1.0","time_elapsed":899652,"subject_id":"92036","group":"Group2","condition":"1_Rep","full_date":"2026-01-29T00:07:10.224Z","date":"2026-01-29","time":"00:07:10"},{"correct_response":"l","task":"test_phase","broad_category":"I","image_png":"I_Pegmatite_03.png","image_id":99,"category_name":"Pegmatite","category":7,"distinct_rating":7.24,"distinct_type":"Top","item_type":"Target","rt":785,"stimulus":"Stimuli_Rocks480/I_Pegmatite_03.png","response":"l","trial_type":"image-keyboard-response","trial_index":193,"plugin_version":"2.1.0","time_elapsed":900438,"subject_id":"92036","group":"Group2","condition":"1_Rep","full_date":"2026-01-29T00:07:10.224Z","date":"2026-01-29","time":"00:07:10","cor_ans":true},{"trial_type":"html-keyboard-response","rt":null,"stimulus":"<p style=\"color: green; font-size: 50px; font-weight: bold;\">Correct</p>","response":null,"trial_index":194,"plugin_version":"2.1.0","time_elapsed":900940,"subject_id":"92036","group":"Group2","condition":"1_Rep","full_date":"2026-01-29T00:07:10.224Z","date":"2026-01-29","time":"00:07:10"},{"correct_response":"a","task":"test_phase","broad_category":"M","image_png":"M_Slate_03.png","image_id":307,"category_name":"Slate","category":20,"distinct_rating":1.87,"distinct_type":"Bottom","item_type":"Foil","rt":799,"stimulus":"Stimuli_Rocks480/M_Slate_03.png","response":"l","trial_type":"image-keyboard-response","trial_index":195,"plugin_version":"2.1.0","time_elapsed":901741,"subject_id":"92036","group":"Group2","condition":"1_Rep","full_date":"2026-01-29T00:07:10.224Z","date":"2026-01-29","time":"00:07:10","cor_ans":false},{"trial_type":"html-keyboard-response","rt":null,"stimulus":"<p style=\"color: red; font-size: 50px; font-weight: bold;\">Incorrect</p>","response":null,"trial_index":196,"plugin_version":"2.1.0","time_elapsed":902242,"subject_id":"92036","group":"Group2","condition":"1_Rep","full_date":"2026-01-29T00:07:10.224Z","date":"2026-01-29","time":"00:07:10"},{"correct_response":"a","task":"test_phase","broad_category":"M","image_png":"M_Marble_16.png","image_id":240,"category_name":"Marble","category":15,"distinct_rating":2.57,"distinct_type":"Bottom","item_type":"Foil","rt":1180,"stimulus":"Stimuli_Rocks480/M_Marble_16.png","response":"a","trial_type":"image-keyboard-response","trial_index":197,"plugin_version":"2.1.0","time_elapsed":903423,"subject_id":"92036","group":"Group2","condition":"1_Rep","full_date":"2026-01-29T00:07:10.224Z","date":"2026-01-29","time":"00:07:10","cor_ans":true},{"trial_type":"html-keyboard-response","rt":null,"stimulus":"<p style=\"color: green; font-size: 50px; font-weight: bold;\">Correct</p>","response":null,"trial_index":198,"plugin_version":"2.1.0","time_elapsed":903924,"subject_id":"92036","group":"Group2","condition":"1_Rep","full_date":"2026-01-29T00:07:10.224Z","date":"2026-01-29","time":"00:07:10"},{"correct_response":"a","task":"test_phase","broad_category":"M","image_png":"M_Gneiss_05.png","image_id":197,"category_name":"Gneiss","category":13,"distinct_rating":2.97,"distinct_type":"Bottom","item_type":"Foil","rt":810,"stimulus":"Stimuli_Rocks480/M_Gneiss_05.png","response":"l","trial_type":"image-keyboard-response","trial_index":199,"plugin_version":"2.1.0","time_elapsed":904736,"subject_id":"92036","group":"Group2","condition":"1_Rep","full_date":"2026-01-29T00:07:10.224Z","date":"2026-01-29","time":"00:07:10","cor_ans":false},{"trial_type":"html-keyboard-response","rt":null,"stimulus":"<p style=\"color: red; font-size: 50px; font-weight: bold;\">Incorrect</p>","response":null,"trial_index":200,"plugin_version":"2.1.0","time_elapsed":905237,"subject_id":"92036","group":"Group2","condition":"1_Rep","full_date":"2026-01-29T00:07:10.224Z","date":"2026-01-29","time":"00:07:10"},{"correct_response":"a","task":"test_phase","broad_category":"I","image_png":"I_Basalt_09.png","image_id":25,"category_name":"Basalt","category":2,"distinct_rating":1.89,"distinct_type":"Bottom","item_type":"Foil","rt":1346,"stimulus":"Stimuli_Rocks480/I_Basalt_09.png","response":"a","trial_type":"image-keyboard-response","trial_index":201,"plugin_version":"2.1.0","time_elapsed":906585,"subject_id":"92036","group":"Group2","condition":"1_Rep","full_date":"2026-01-29T00:07:10.224Z","date":"2026-01-29","time":"00:07:10","cor_ans":true},{"trial_type":"html-keyboard-response","rt":null,"stimulus":"<p style=\"color: green; font-size: 50px; font-weight: bold;\">Correct</p>","response":null,"trial_index":202,"plugin_version":"2.1.0","time_elapsed":907088,"subject_id":"92036","group":"Group2","condition":"1_Rep","full_date":"2026-01-29T00:07:10.224Z","date":"2026-01-29","time":"00:07:10"},{"correct_response":"a","task":"test_phase","broad_category":"I","image_png":"I_Andesite_10.png","image_id":10,"category_name":"Andesite","category":1,"distinct_rating":3.15,"distinct_type":"Bottom","item_type":"Foil","rt":1032,"stimulus":"Stimuli_Rocks480/I_Andesite_10.png","response":"a","trial_type":"image-keyboard-response","trial_index":203,"plugin_version":"2.1.0","time_elapsed":908122,"subject_id":"92036","group":"Group2","condition":"1_Rep","full_date":"2026-01-29T00:07:10.224Z","date":"2026-01-29","time":"00:07:10","cor_ans":true},{"trial_type":"html-keyboard-response","rt":null,"stimulus":"<p style=\"color: green; font-size: 50px; font-weight: bold;\">Correct</p>","response":null,"trial_index":204,"plugin_version":"2.1.0","time_elapsed":908624,"subject_id":"92036","group":"Group2","condition":"1_Rep","full_date":"2026-01-29T00:07:10.224Z","date":"2026-01-29","time":"00:07:10"},{"correct_response":"l","task":"test_phase","broad_category":"I","image_png":"I_Basalt_08.png","image_id":24,"category_name":"Basalt","category":2,"distinct_rating":2.31,"distinct_type":"Bottom","item_type":"Target","rt":745,"stimulus":"Stimuli_Rocks480/I_Basalt_08.png","response":"l","trial_type":"image-keyboard-response","trial_index":205,"plugin_version":"2.1.0","time_elapsed":909371,"subject_id":"92036","group":"Group2","condition":"1_Rep","full_date":"2026-01-29T00:07:10.224Z","date":"2026-01-29","time":"00:07:10","cor_ans":true},{"trial_type":"html-keyboard-response","rt":null,"stimulus":"<p style=\"color: green; font-size: 50px; font-weight: bold;\">Correct</p>","response":null,"trial_index":206,"plugin_version":"2.1.0","time_elapsed":909873,"subject_id":"92036","group":"Group2","condition":"1_Rep","full_date":"2026-01-29T00:07:10.224Z","date":"2026-01-29","time":"00:07:10"},{"correct_response":"a","task":"test_phase","broad_category":"I","image_png":"I_Diorite_05.png","image_id":37,"category_name":"Diorite","category":3,"distinct_rating":3.08,"distinct_type":"Bottom","item_type":"Foil","rt":1167,"stimulus":"Stimuli_Rocks480/I_Diorite_05.png","response":"a","trial_type":"image-keyboard-response","trial_index":207,"plugin_version":"2.1.0","time_elapsed":911042,"subject_id":"92036","group":"Group2","condition":"1_Rep","full_date":"2026-01-29T00:07:10.224Z","date":"2026-01-29","time":"00:07:10","cor_ans":true},{"trial_type":"html-keyboard-response","rt":null,"stimulus":"<p style=\"color: green; font-size: 50px; font-weight: bold;\">Correct</p>","response":null,"trial_index":208,"plugin_version":"2.1.0","time_elapsed":911545,"subject_id":"92036","group":"Group2","condition":"1_Rep","full_date":"2026-01-29T00:07:10.224Z","date":"2026-01-29","time":"00:07:10"},{"correct_response":"l","task":"test_phase","broad_category":"I","image_png":"I_Rhyolite_05.png","image_id":149,"category_name":"Rhyolite","category":10,"distinct_rating":3.02,"distinct_type":"Bottom","item_type":"Target","rt":675,"stimulus":"Stimuli_Rocks480/I_Rhyolite_05.png","response":"l","trial_type":"image-keyboard-response","trial_index":209,"plugin_version":"2.1.0","time_elapsed":912222,"subject_id":"92036","group":"Group2","condition":"1_Rep","full_date":"2026-01-29T00:07:10.224Z","date":"2026-01-29","time":"00:07:10","cor_ans":true},{"trial_type":"html-keyboard-response","rt":null,"stimulus":"<p style=\"color: green; font-size: 50px; font-weight: bold;\">Correct</p>","response":null,"trial_index":210,"plugin_version":"2.1.0","time_elapsed":912724,"subject_id":"92036","group":"Group2","condition":"1_Rep","full_date":"2026-01-29T00:07:10.224Z","date":"2026-01-29","time":"00:07:10"},{"correct_response":"l","task":"test_phase","broad_category":"S","image_png":"S_Rock Salt_13.png","image_id":445,"category_name":"Rock Salt","category":28,"distinct_rating":7.58,"distinct_type":"Top","item_type":"Target","rt":898,"stimulus":"Stimuli_Rocks480/S_Rock Salt_13.png","response":"l","trial_type":"image-keyboard-response","trial_index":211,"plugin_version":"2.1.0","time_elapsed":913623,"subject_id":"92036","group":"Group2","condition":"1_Rep","full_date":"2026-01-29T00:07:10.224Z","date":"2026-01-29","time":"00:07:10","cor_ans":true},{"trial_type":"html-keyboard-response","rt":null,"stimulus":"<p style=\"color: green; font-size: 50px; font-weight: bold;\">Correct</p>","response":null,"trial_index":212,"plugin_version":"2.1.0","time_elapsed":914124,"subject_id":"92036","group":"Group2","condition":"1_Rep","full_date":"2026-01-29T00:07:10.224Z","date":"2026-01-29","time":"00:07:10"},{"correct_response":"l","task":"test_phase","broad_category":"I","image_png":"I_Gabbro_14.png","image_id":62,"category_name":"Gabbro","category":4,"distinct_rating":2.95,"distinct_type":"Bottom","item_type":"Target","rt":706,"stimulus":"Stimuli_Rocks480/I_Gabbro_14.png","response":"a","trial_type":"image-keyboard-response","trial_index":213,"plugin_version":"2.1.0","time_elapsed":914832,"subject_id":"92036","group":"Group2","condition":"1_Rep","full_date":"2026-01-29T00:07:10.224Z","date":"2026-01-29","time":"00:07:10","cor_ans":false},{"trial_type":"html-keyboard-response","rt":null,"stimulus":"<p style=\"color: red; font-size: 50px; font-weight: bold;\">Incorrect</p>","response":null,"trial_index":214,"plugin_version":"2.1.0","time_elapsed":915333,"subject_id":"92036","group":"Group2","condition":"1_Rep","full_date":"2026-01-29T00:07:10.224Z","date":"2026-01-29","time":"00:07:10"},{"correct_response":"a","task":"test_phase","broad_category":"I","image_png":"I_Gabbro_16.png","image_id":64,"category_name":"Gabbro","category":4,"distinct_rating":2.52,"distinct_type":"Bottom","item_type":"Foil","rt":685,"stimulus":"Stimuli_Rocks480/I_Gabbro_16.png","response":"l","trial_type":"image-keyboard-response","trial_index":215,"plugin_version":"2.1.0","time_elapsed":916020,"subject_id":"92036","group":"Group2","condition":"1_Rep","full_date":"2026-01-29T00:07:10.224Z","date":"2026-01-29","time":"00:07:10","cor_ans":false},{"trial_type":"html-keyboard-response","rt":null,"stimulus":"<p style=\"color: red; font-size: 50px; font-weight: bold;\">Incorrect</p>","response":null,"trial_index":216,"plugin_version":"2.1.0","time_elapsed":916521,"subject_id":"92036","group":"Group2","condition":"1_Rep","full_date":"2026-01-29T00:07:10.224Z","date":"2026-01-29","time":"00:07:10"},{"correct_response":"a","task":"test_phase","broad_category":"I","image_png":"I_Diorite_04.png","image_id":36,"category_name":"Diorite","category":3,"distinct_rating":2.98,"distinct_type":"Bottom","item_type":"Foil","rt":597,"stimulus":"Stimuli_Rocks480/I_Diorite_04.png","response":"a","trial_type":"image-keyboard-response","trial_index":217,"plugin_version":"2.1.0","time_elapsed":917120,"subject_id":"92036","group":"Group2","condition":"1_Rep","full_date":"2026-01-29T00:07:10.224Z","date":"2026-01-29","time":"00:07:10","cor_ans":true},{"trial_type":"html-keyboard-response","rt":null,"stimulus":"<p style=\"color: green; font-size: 50px; font-weight: bold;\">Correct</p>","response":null,"trial_index":218,"plugin_version":"2.1.0","time_elapsed":917622,"subject_id":"92036","group":"Group2","condition":"1_Rep","full_date":"2026-01-29T00:07:10.224Z","date":"2026-01-29","time":"00:07:10"},{"correct_response":"l","task":"test_phase","broad_category":"I","image_png":"I_Rhyolite_08.png","image_id":152,"category_name":"Rhyolite","category":10,"distinct_rating":1.38,"distinct_type":"Bottom","item_type":"Target","rt":1432,"stimulus":"Stimuli_Rocks480/I_Rhyolite_08.png","response":"l","trial_type":"image-keyboard-response","trial_index":219,"plugin_version":"2.1.0","time_elapsed":919056,"subject_id":"92036","group":"Group2","condition":"1_Rep","full_date":"2026-01-29T00:07:10.224Z","date":"2026-01-29","time":"00:07:10","cor_ans":true},{"trial_type":"html-keyboard-response","rt":null,"stimulus":"<p style=\"color: green; font-size: 50px; font-weight: bold;\">Correct</p>","response":null,"trial_index":220,"plugin_version":"2.1.0","time_elapsed":919557,"subject_id":"92036","group":"Group2","condition":"1_Rep","full_date":"2026-01-29T00:07:10.224Z","date":"2026-01-29","time":"00:07:10"},{"correct_response":"a","task":"test_phase","broad_category":"S","image_png":"S_Chert_10.png","image_id":362,"category_name":"Chert","category":23,"distinct_rating":7.17,"distinct_type":"Top","item_type":"Foil","rt":1038,"stimulus":"Stimuli_Rocks480/S_Chert_10.png","response":"a","trial_type":"image-keyboard-response","trial_index":221,"plugin_version":"2.1.0","time_elapsed":920597,"subject_id":"92036","group":"Group2","condition":"1_Rep","full_date":"2026-01-29T00:07:10.224Z","date":"2026-01-29","time":"00:07:10","cor_ans":true},{"trial_type":"html-keyboard-response","rt":null,"stimulus":"<p style=\"color: green; font-size: 50px; font-weight: bold;\">Correct</p>","response":null,"trial_index":222,"plugin_version":"2.1.0","time_elapsed":921099,"subject_id":"92036","group":"Group2","condition":"1_Rep","full_date":"2026-01-29T00:07:10.224Z","date":"2026-01-29","time":"00:07:10"},{"correct_response":"a","task":"test_phase","broad_category":"M","image_png":"M_Marble_06.png","image_id":230,"category_name":"Marble","category":15,"distinct_rating":3.4,"distinct_type":"Bottom","item_type":"Foil","rt":2623,"stimulus":"Stimuli_Rocks480/M_Marble_06.png","response":"a","trial_type":"image-keyboard-response","trial_index":223,"plugin_version":"2.1.0","time_elapsed":923723,"subject_id":"92036","group":"Group2","condition":"1_Rep","full_date":"2026-01-29T00:07:10.224Z","date":"2026-01-29","time":"00:07:10","cor_ans":true},{"trial_type":"html-keyboard-response","rt":null,"stimulus":"<p style=\"color: green; font-size: 50px; font-weight: bold;\">Correct</p>","response":null,"trial_index":224,"plugin_version":"2.1.0","time_elapsed":924226,"subject_id":"92036","group":"Group2","condition":"1_Rep","full_date":"2026-01-29T00:07:10.224Z","date":"2026-01-29","time":"00:07:10"},{"correct_response":"a","task":"test_phase","broa