[{"width":1710,"height":913,"webaudio":true,"browser":"chrome","browser_version":"145.0.0","mobile":false,"os":"Mac OS","fullscreen":true,"vsync_rate":60.48,"webcam":true,"microphone":true,"trial_type":"browser-check","trial_index":0,"plugin_version":"2.1.0","time_elapsed":1008,"subject_id":"91139","group":"Group2","condition":"1_Rep","full_date":"2026-02-26T19:06:53.765Z","date":"2026-02-26","time":"19:06:53"},{"success":true,"timeout":false,"failed_images":[],"failed_audio":[],"failed_video":[],"trial_type":"preload","trial_index":1,"plugin_version":"2.1.0","time_elapsed":5192,"subject_id":"91139","group":"Group2","condition":"1_Rep","full_date":"2026-02-26T19:06:53.765Z","date":"2026-02-26","time":"19:06:53"},{"rt":38400,"url":"SONA_consent_memorability.html","trial_type":"external-html","trial_index":2,"plugin_version":"2.1.0","time_elapsed":43682,"subject_id":"91139","group":"Group2","condition":"1_Rep","full_date":"2026-02-26T19:06:53.765Z","date":"2026-02-26","time":"19:06:53"},{"success":true,"rt":3514,"trial_type":"fullscreen","trial_index":3,"plugin_version":"2.1.0","time_elapsed":48200,"subject_id":"91139","group":"Group2","condition":"1_Rep","full_date":"2026-02-26T19:06:53.765Z","date":"2026-02-26","time":"19:06:53"},{"rt":24945,"stimulus":"<div style=\"max-width: 760px; margin: auto; font-size: 20px; line-height: 1.5;\">\n      <h1 style=\"text-align:center; font-size: 30px;\">Instructions</h1>\n      <p>\n        Welcome to the study on <b>visual memory</b>. This experiment consists of <b>two phases</b>: \n        a <b>study phase</b> and a <b>test phase</b>.\n      </p>\n      <p>\n        In the study phase, you will see a series of rock images along with their category labels.\n        The images will appear one at a time.\n        <b>Your task</b> is to learn the categories to which the rock images belong \n        and to remember each image as accurately as possible.\n      </p> \n      <p>\n        Note that you will see each image only <b>once</b> during the study phase. \n          So, please pay close attention and try to remember each image carefully.\n      </p>\n      <p>\n        After the study phase, <b>your memory will be tested</b>. \n        Additional instructions for the test phase will be provided at that time.\n      </p>\n      <p>\n        If your computer has multiple <b>language settings</b> (e.g., English and another language),\n        please make sure it is set to English before starting.\n      </p>\n      <p>\n        You can track your progress using the <b>completion bar</b> at the top of the screen. \n        Please note that the bar will refresh when the test phase begins \n        to give you an accurate sense of your progress in both phases.\n      </p> \n      <p>\n        Press the button below when you are ready to begin.\n      </p>\n    </div>","response":0,"trial_type":"html-button-response","trial_index":4,"plugin_version":"2.1.0","time_elapsed":73148,"subject_id":"91139","group":"Group2","condition":"1_Rep","full_date":"2026-02-26T19:06:53.765Z","date":"2026-02-26","time":"19:06:53"},{"rt":null,"stimulus":"<p style=\"font-size: 50px; margin: 0; text-align: center;\">+</p>","response":null,"trial_type":"html-keyboard-response","trial_index":5,"plugin_version":"2.1.0","time_elapsed":74151,"subject_id":"91139","group":"Group2","condition":"1_Rep","full_date":"2026-02-26T19:06:53.765Z","date":"2026-02-26","time":"19:06:53"},{"task":"memory_phase","broad_category":"I","image_png":"I_Basalt_10.png","image_id":26,"category_name":"Basalt","category":2,"distinct_rating":2.76,"distinct_type":"Bottom","rt":null,"stimulus":"Stimuli_Rocks480/I_Basalt_10.png","response":null,"trial_type":"image-keyboard-response","trial_index":6,"plugin_version":"2.1.0","time_elapsed":76657,"subject_id":"91139","group":"Group2","condition":"1_Rep","full_date":"2026-02-26T19:06:53.765Z","date":"2026-02-26","time":"19:06:53"},{"rt":null,"stimulus":"<p style=\"font-size: 50px; margin: 0; text-align: center;\">+</p>","response":null,"trial_type":"html-keyboard-response","trial_index":7,"plugin_version":"2.1.0","time_elapsed":77659,"subject_id":"91139","group":"Group2","condition":"1_Rep","full_date":"2026-02-26T19:06:53.765Z","date":"2026-02-26","time":"19:06:53"},{"task":"memory_phase","broad_category":"I","image_png":"I_Diorite_10.png","image_id":42,"category_name":"Diorite","category":3,"distinct_rating":2.84,"distinct_type":"Bottom","rt":null,"stimulus":"Stimuli_Rocks480/I_Diorite_10.png","response":null,"trial_type":"image-keyboard-response","trial_index":8,"plugin_version":"2.1.0","time_elapsed":80163,"subject_id":"91139","group":"Group2","condition":"1_Rep","full_date":"2026-02-26T19:06:53.765Z","date":"2026-02-26","time":"19:06:53"},{"rt":null,"stimulus":"<p style=\"font-size: 50px; margin: 0; text-align: center;\">+</p>","response":null,"trial_type":"html-keyboard-response","trial_index":9,"plugin_version":"2.1.0","time_elapsed":81165,"subject_id":"91139","group":"Group2","condition":"1_Rep","full_date":"2026-02-26T19:06:53.765Z","date":"2026-02-26","time":"19:06:53"},{"task":"memory_phase","broad_category":"I","image_png":"I_Pumice_01.png","image_id":129,"category_name":"Pumice","category":9,"distinct_rating":3.25,"distinct_type":"Bottom","rt":null,"stimulus":"Stimuli_Rocks480/I_Pumice_01.png","response":null,"trial_type":"image-keyboard-response","trial_index":10,"plugin_version":"2.1.0","time_elapsed":83668,"subject_id":"91139","group":"Group2","condition":"1_Rep","full_date":"2026-02-26T19:06:53.765Z","date":"2026-02-26","time":"19:06:53"},{"rt":null,"stimulus":"<p style=\"font-size: 50px; margin: 0; text-align: center;\">+</p>","response":null,"trial_type":"html-keyboard-response","trial_index":11,"plugin_version":"2.1.0","time_elapsed":84670,"subject_id":"91139","group":"Group2","condition":"1_Rep","full_date":"2026-02-26T19:06:53.765Z","date":"2026-02-26","time":"19:06:53"},{"task":"memory_phase","broad_category":"M","image_png":"M_Gneiss_15.png","image_id":207,"category_name":"Gneiss","category":13,"distinct_rating":3.11,"distinct_type":"Bottom","rt":null,"stimulus":"Stimuli_Rocks480/M_Gneiss_15.png","response":null,"trial_type":"image-keyboard-response","trial_index":12,"plugin_version":"2.1.0","time_elapsed":87174,"subject_id":"91139","group":"Group2","condition":"1_Rep","full_date":"2026-02-26T19:06:53.765Z","date":"2026-02-26","time":"19:06:53"},{"rt":null,"stimulus":"<p style=\"font-size: 50px; margin: 0; text-align: center;\">+</p>","response":null,"trial_type":"html-keyboard-response","trial_index":13,"plugin_version":"2.1.0","time_elapsed":88176,"subject_id":"91139","group":"Group2","condition":"1_Rep","full_date":"2026-02-26T19:06:53.765Z","date":"2026-02-26","time":"19:06:53"},{"task":"memory_phase","broad_category":"S","image_png":"S_Dolomite_01.png","image_id":385,"category_name":"Dolomite","category":25,"distinct_rating":1.43,"distinct_type":"Bottom","rt":null,"stimulus":"Stimuli_Rocks480/S_Dolomite_01.png","response":null,"trial_type":"image-keyboard-response","trial_index":14,"plugin_version":"2.1.0","time_elapsed":90680,"subject_id":"91139","group":"Group2","condition":"1_Rep","full_date":"2026-02-26T19:06:53.765Z","date":"2026-02-26","time":"19:06:53"},{"rt":null,"stimulus":"<p style=\"font-size: 50px; margin: 0; text-align: center;\">+</p>","response":null,"trial_type":"html-keyboard-response","trial_index":15,"plugin_version":"2.1.0","time_elapsed":91682,"subject_id":"91139","group":"Group2","condition":"1_Rep","full_date":"2026-02-26T19:06:53.765Z","date":"2026-02-26","time":"19:06:53"},{"task":"memory_phase","broad_category":"M","image_png":"M_Slate_10.png","image_id":314,"category_name":"Slate","category":20,"distinct_rating":1.94,"distinct_type":"Bottom","rt":null,"stimulus":"Stimuli_Rocks480/M_Slate_10.png","response":null,"trial_type":"image-keyboard-response","trial_index":16,"plugin_version":"2.1.0","time_elapsed":94185,"subject_id":"91139","group":"Group2","condition":"1_Rep","full_date":"2026-02-26T19:06:53.765Z","date":"2026-02-26","time":"19:06:53"},{"rt":null,"stimulus":"<p style=\"font-size: 50px; margin: 0; text-align: center;\">+</p>","response":null,"trial_type":"html-keyboard-response","trial_index":17,"plugin_version":"2.1.0","time_elapsed":95188,"subject_id":"91139","group":"Group2","condition":"1_Rep","full_date":"2026-02-26T19:06:53.765Z","date":"2026-02-26","time":"19:06:53"},{"task":"memory_phase","broad_category":"I","image_png":"I_Rhyolite_05.png","image_id":149,"category_name":"Rhyolite","category":10,"distinct_rating":3.02,"distinct_type":"Bottom","rt":null,"stimulus":"Stimuli_Rocks480/I_Rhyolite_05.png","response":null,"trial_type":"image-keyboard-response","trial_index":18,"plugin_version":"2.1.0","time_elapsed":97691,"subject_id":"91139","group":"Group2","condition":"1_Rep","full_date":"2026-02-26T19:06:53.765Z","date":"2026-02-26","time":"19:06:53"},{"rt":null,"stimulus":"<p style=\"font-size: 50px; margin: 0; text-align: center;\">+</p>","response":null,"trial_type":"html-keyboard-response","trial_index":19,"plugin_version":"2.1.0","time_elapsed":98693,"subject_id":"91139","group":"Group2","condition":"1_Rep","full_date":"2026-02-26T19:06:53.765Z","date":"2026-02-26","time":"19:06:53"},{"task":"memory_phase","broad_category":"S","image_png":"S_Conglomerate_14.png","image_id":382,"category_name":"Conglomerate","category":24,"distinct_rating":6.86,"distinct_type":"Top","rt":null,"stimulus":"Stimuli_Rocks480/S_Conglomerate_14.png","response":null,"trial_type":"image-keyboard-response","trial_index":20,"plugin_version":"2.1.0","time_elapsed":101197,"subject_id":"91139","group":"Group2","condition":"1_Rep","full_date":"2026-02-26T19:06:53.765Z","date":"2026-02-26","time":"19:06:53"},{"rt":null,"stimulus":"<p style=\"font-size: 50px; margin: 0; text-align: center;\">+</p>","response":null,"trial_type":"html-keyboard-response","trial_index":21,"plugin_version":"2.1.0","time_elapsed":102199,"subject_id":"91139","group":"Group2","condition":"1_Rep","full_date":"2026-02-26T19:06:53.765Z","date":"2026-02-26","time":"19:06:53"},{"task":"memory_phase","broad_category":"I","image_png":"I_Pegmatite_11.png","image_id":107,"category_name":"Pegmatite","category":7,"distinct_rating":7.11,"distinct_type":"Top","rt":null,"stimulus":"Stimuli_Rocks480/I_Pegmatite_11.png","response":null,"trial_type":"image-keyboard-response","trial_index":22,"plugin_version":"2.1.0","time_elapsed":104703,"subject_id":"91139","group":"Group2","condition":"1_Rep","full_date":"2026-02-26T19:06:53.765Z","date":"2026-02-26","time":"19:06:53"},{"rt":null,"stimulus":"<p style=\"font-size: 50px; margin: 0; text-align: center;\">+</p>","response":null,"trial_type":"html-keyboard-response","trial_index":23,"plugin_version":"2.1.0","time_elapsed":105706,"subject_id":"91139","group":"Group2","condition":"1_Rep","full_date":"2026-02-26T19:06:53.765Z","date":"2026-02-26","time":"19:06:53"},{"task":"memory_phase","broad_category":"I","image_png":"I_Basalt_08.png","image_id":24,"category_name":"Basalt","category":2,"distinct_rating":2.31,"distinct_type":"Bottom","rt":null,"stimulus":"Stimuli_Rocks480/I_Basalt_08.png","response":null,"trial_type":"image-keyboard-response","trial_index":24,"plugin_version":"2.1.0","time_elapsed":108209,"subject_id":"91139","group":"Group2","condition":"1_Rep","full_date":"2026-02-26T19:06:53.765Z","date":"2026-02-26","time":"19:06:53"},{"rt":null,"stimulus":"<p style=\"font-size: 50px; margin: 0; text-align: center;\">+</p>","response":null,"trial_type":"html-keyboard-response","trial_index":25,"plugin_version":"2.1.0","time_elapsed":109212,"subject_id":"91139","group":"Group2","condition":"1_Rep","full_date":"2026-02-26T19:06:53.765Z","date":"2026-02-26","time":"19:06:53"},{"task":"memory_phase","broad_category":"S","image_png":"S_Rock Salt_15.png","image_id":447,"category_name":"Rock Salt","category":28,"distinct_rating":7.79,"distinct_type":"Top","rt":null,"stimulus":"Stimuli_Rocks480/S_Rock Salt_15.png","response":null,"trial_type":"image-keyboard-response","trial_index":26,"plugin_version":"2.1.0","time_elapsed":111715,"subject_id":"91139","group":"Group2","condition":"1_Rep","full_date":"2026-02-26T19:06:53.765Z","date":"2026-02-26","time":"19:06:53"},{"rt":null,"stimulus":"<p style=\"font-size: 50px; margin: 0; text-align: center;\">+</p>","response":null,"trial_type":"html-keyboard-response","trial_index":27,"plugin_version":"2.1.0","time_elapsed":112717,"subject_id":"91139","group":"Group2","condition":"1_Rep","full_date":"2026-02-26T19:06:53.765Z","date":"2026-02-26","time":"19:06:53"},{"task":"memory_phase","broad_category":"I","image_png":"I_Rhyolite_10.png","image_id":154,"category_name":"Rhyolite","category":10,"distinct_rating":2.88,"distinct_type":"Bottom","rt":null,"stimulus":"Stimuli_Rocks480/I_Rhyolite_10.png","response":null,"trial_type":"image-keyboard-response","trial_index":28,"plugin_version":"2.1.0","time_elapsed":115220,"subject_id":"91139","group":"Group2","condition":"1_Rep","full_date":"2026-02-26T19:06:53.765Z","date":"2026-02-26","time":"19:06:53"},{"rt":null,"stimulus":"<p style=\"font-size: 50px; margin: 0; text-align: center;\">+</p>","response":null,"trial_type":"html-keyboard-response","trial_index":29,"plugin_version":"2.1.0","time_elapsed":116223,"subject_id":"91139","group":"Group2","condition":"1_Rep","full_date":"2026-02-26T19:06:53.765Z","date":"2026-02-26","time":"19:06:53"},{"task":"memory_phase","broad_category":"S","image_png":"S_Shale_02.png","image_id":466,"category_name":"Shale","category":30,"distinct_rating":2.9,"distinct_type":"Bottom","rt":null,"stimulus":"Stimuli_Rocks480/S_Shale_02.png","response":null,"trial_type":"image-keyboard-response","trial_index":30,"plugin_version":"2.1.0","time_elapsed":118726,"subject_id":"91139","group":"Group2","condition":"1_Rep","full_date":"2026-02-26T19:06:53.765Z","date":"2026-02-26","time":"19:06:53"},{"rt":null,"stimulus":"<p style=\"font-size: 50px; margin: 0; text-align: center;\">+</p>","response":null,"trial_type":"html-keyboard-response","trial_index":31,"plugin_version":"2.1.0","time_elapsed":119728,"subject_id":"91139","group":"Group2","condition":"1_Rep","full_date":"2026-02-26T19:06:53.765Z","date":"2026-02-26","time":"19:06:53"},{"task":"memory_phase","broad_category":"M","image_png":"M_Marble_02.png","image_id":226,"category_name":"Marble","category":15,"distinct_rating":3.2,"distinct_type":"Bottom","rt":null,"stimulus":"Stimuli_Rocks480/M_Marble_02.png","response":null,"trial_type":"image-keyboard-response","trial_index":32,"plugin_version":"2.1.0","time_elapsed":122231,"subject_id":"91139","group":"Group2","condition":"1_Rep","full_date":"2026-02-26T19:06:53.765Z","date":"2026-02-26","time":"19:06:53"},{"rt":null,"stimulus":"<p style=\"font-size: 50px; margin: 0; text-align: center;\">+</p>","response":null,"trial_type":"html-keyboard-response","trial_index":33,"plugin_version":"2.1.0","time_elapsed":123233,"subject_id":"91139","group":"Group2","condition":"1_Rep","full_date":"2026-02-26T19:06:53.765Z","date":"2026-02-26","time":"19:06:53"},{"task":"memory_phase","broad_category":"I","image_png":"I_Pumice_14.png","image_id":142,"category_name":"Pumice","category":9,"distinct_rating":3.22,"distinct_type":"Bottom","rt":null,"stimulus":"Stimuli_Rocks480/I_Pumice_14.png","response":null,"trial_type":"image-keyboard-response","trial_index":34,"plugin_version":"2.1.0","time_elapsed":125737,"subject_id":"91139","group":"Group2","condition":"1_Rep","full_date":"2026-02-26T19:06:53.765Z","date":"2026-02-26","time":"19:06:53"},{"rt":null,"stimulus":"<p style=\"font-size: 50px; margin: 0; text-align: center;\">+</p>","response":null,"trial_type":"html-keyboard-response","trial_index":35,"plugin_version":"2.1.0","time_elapsed":126739,"subject_id":"91139","group":"Group2","condition":"1_Rep","full_date":"2026-02-26T19:06:53.765Z","date":"2026-02-26","time":"19:06:53"},{"task":"memory_phase","broad_category":"I","image_png":"I_Andesite_09.png","image_id":9,"category_name":"Andesite","category":1,"distinct_rating":2.49,"distinct_type":"Bottom","rt":null,"stimulus":"Stimuli_Rocks480/I_Andesite_09.png","response":null,"trial_type":"image-keyboard-response","trial_index":36,"plugin_version":"2.1.0","time_elapsed":129242,"subject_id":"91139","group":"Group2","condition":"1_Rep","full_date":"2026-02-26T19:06:53.765Z","date":"2026-02-26","time":"19:06:53"},{"rt":null,"stimulus":"<p style=\"font-size: 50px; margin: 0; text-align: center;\">+</p>","response":null,"trial_type":"html-keyboard-response","trial_index":37,"plugin_version":"2.1.0","time_elapsed":130244,"subject_id":"91139","group":"Group2","condition":"1_Rep","full_date":"2026-02-26T19:06:53.765Z","date":"2026-02-26","time":"19:06:53"},{"task":"memory_phase","broad_category":"S","image_png":"S_Sandstone_04.png","image_id":452,"category_name":"Sandstone","category":29,"distinct_rating":1.8,"distinct_type":"Bottom","rt":null,"stimulus":"Stimuli_Rocks480/S_Sandstone_04.png","response":null,"trial_type":"image-keyboard-response","trial_index":38,"plugin_version":"2.1.0","time_elapsed":132748,"subject_id":"91139","group":"Group2","condition":"1_Rep","full_date":"2026-02-26T19:06:53.765Z","date":"2026-02-26","time":"19:06:53"},{"rt":null,"stimulus":"<p style=\"font-size: 50px; margin: 0; text-align: center;\">+</p>","response":null,"trial_type":"html-keyboard-response","trial_index":39,"plugin_version":"2.1.0","time_elapsed":133750,"subject_id":"91139","group":"Group2","condition":"1_Rep","full_date":"2026-02-26T19:06:53.765Z","date":"2026-02-26","time":"19:06:53"},{"task":"memory_phase","broad_category":"M","image_png":"M_Phyllite_13.png","image_id":269,"category_name":"Phyllite","category":17,"distinct_rating":2.8,"distinct_type":"Bottom","rt":null,"stimulus":"Stimuli_Rocks480/M_Phyllite_13.png","response":null,"trial_type":"image-keyboard-response","trial_index":40,"plugin_version":"2.1.0","time_elapsed":136254,"subject_id":"91139","group":"Group2","condition":"1_Rep","full_date":"2026-02-26T19:06:53.765Z","date":"2026-02-26","time":"19:06:53"},{"rt":null,"stimulus":"<p style=\"font-size: 50px; margin: 0; text-align: center;\">+</p>","response":null,"trial_type":"html-keyboard-response","trial_index":41,"plugin_version":"2.1.0","time_elapsed":137256,"subject_id":"91139","group":"Group2","condition":"1_Rep","full_date":"2026-02-26T19:06:53.765Z","date":"2026-02-26","time":"19:06:53"},{"task":"memory_phase","broad_category":"M","image_png":"M_Slate_14.png","image_id":318,"category_name":"Slate","category":20,"distinct_rating":2.58,"distinct_type":"Bottom","rt":null,"stimulus":"Stimuli_Rocks480/M_Slate_14.png","response":null,"trial_type":"image-keyboard-response","trial_index":42,"plugin_version":"2.1.0","time_elapsed":139760,"subject_id":"91139","group":"Group2","condition":"1_Rep","full_date":"2026-02-26T19:06:53.765Z","date":"2026-02-26","time":"19:06:53"},{"rt":null,"stimulus":"<p style=\"font-size: 50px; margin: 0; text-align: center;\">+</p>","response":null,"trial_type":"html-keyboard-response","trial_index":43,"plugin_version":"2.1.0","time_elapsed":140762,"subject_id":"91139","group":"Group2","condition":"1_Rep","full_date":"2026-02-26T19:06:53.765Z","date":"2026-02-26","time":"19:06:53"},{"task":"memory_phase","broad_category":"I","image_png":"I_Gabbro_12.png","image_id":60,"category_name":"Gabbro","category":4,"distinct_rating":2.6,"distinct_type":"Bottom","rt":null,"stimulus":"Stimuli_Rocks480/I_Gabbro_12.png","response":null,"trial_type":"image-keyboard-response","trial_index":44,"plugin_version":"2.1.0","time_elapsed":143265,"subject_id":"91139","group":"Group2","condition":"1_Rep","full_date":"2026-02-26T19:06:53.765Z","date":"2026-02-26","time":"19:06:53"},{"rt":null,"stimulus":"<p style=\"font-size: 50px; margin: 0; text-align: center;\">+</p>","response":null,"trial_type":"html-keyboard-response","trial_index":45,"plugin_version":"2.1.0","time_elapsed":144267,"subject_id":"91139","group":"Group2","condition":"1_Rep","full_date":"2026-02-26T19:06:53.765Z","date":"2026-02-26","time":"19:06:53"},{"task":"memory_phase","broad_category":"S","image_png":"S_Shale_07.png","image_id":471,"category_name":"Shale","category":30,"distinct_rating":2.73,"distinct_type":"Bottom","rt":null,"stimulus":"Stimuli_Rocks480/S_Shale_07.png","response":null,"trial_type":"image-keyboard-response","trial_index":46,"plugin_version":"2.1.0","time_elapsed":146770,"subject_id":"91139","group":"Group2","condition":"1_Rep","full_date":"2026-02-26T19:06:53.765Z","date":"2026-02-26","time":"19:06:53"},{"rt":null,"stimulus":"<p style=\"font-size: 50px; margin: 0; text-align: center;\">+</p>","response":null,"trial_type":"html-keyboard-response","trial_index":47,"plugin_version":"2.1.0","time_elapsed":147773,"subject_id":"91139","group":"Group2","condition":"1_Rep","full_date":"2026-02-26T19:06:53.765Z","date":"2026-02-26","time":"19:06:53"},{"task":"memory_phase","broad_category":"M","image_png":"M_Phyllite_02.png","image_id":258,"category_name":"Phyllite","category":17,"distinct_rating":2.89,"distinct_type":"Bottom","rt":null,"stimulus":"Stimuli_Rocks480/M_Phyllite_02.png","response":null,"trial_type":"image-keyboard-response","trial_index":48,"plugin_version":"2.1.0","time_elapsed":150276,"subject_id":"91139","group":"Group2","condition":"1_Rep","full_date":"2026-02-26T19:06:53.765Z","date":"2026-02-26","time":"19:06:53"},{"rt":null,"stimulus":"<p style=\"font-size: 50px; margin: 0; text-align: center;\">+</p>","response":null,"trial_type":"html-keyboard-response","trial_index":49,"plugin_version":"2.1.0","time_elapsed":151278,"subject_id":"91139","group":"Group2","condition":"1_Rep","full_date":"2026-02-26T19:06:53.765Z","date":"2026-02-26","time":"19:06:53"},{"task":"memory_phase","broad_category":"I","image_png":"I_Basalt_13.png","image_id":29,"category_name":"Basalt","category":2,"distinct_rating":2.68,"distinct_type":"Bottom","rt":null,"stimulus":"Stimuli_Rocks480/I_Basalt_13.png","response":null,"trial_type":"image-keyboard-response","trial_index":50,"plugin_version":"2.1.0","time_elapsed":153782,"subject_id":"91139","group":"Group2","condition":"1_Rep","full_date":"2026-02-26T19:06:53.765Z","date":"2026-02-26","time":"19:06:53"},{"rt":null,"stimulus":"<p style=\"font-size: 50px; margin: 0; text-align: center;\">+</p>","response":null,"trial_type":"html-keyboard-response","trial_index":51,"plugin_version":"2.1.0","time_elapsed":154784,"subject_id":"91139","group":"Group2","condition":"1_Rep","full_date":"2026-02-26T19:06:53.765Z","date":"2026-02-26","time":"19:06:53"},{"task":"memory_phase","broad_category":"M","image_png":"M_Quartzite_07.png","image_id":279,"category_name":"Quartzite","category":18,"distinct_rating":1.97,"distinct_type":"Bottom","rt":null,"stimulus":"Stimuli_Rocks480/M_Quartzite_07.png","response":null,"trial_type":"image-keyboard-response","trial_index":52,"plugin_version":"2.1.0","time_elapsed":157287,"subject_id":"91139","group":"Group2","condition":"1_Rep","full_date":"2026-02-26T19:06:53.765Z","date":"2026-02-26","time":"19:06:53"},{"rt":null,"stimulus":"<p style=\"font-size: 50px; margin: 0; text-align: center;\">+</p>","response":null,"trial_type":"html-keyboard-response","trial_index":53,"plugin_version":"2.1.0","time_elapsed":158288,"subject_id":"91139","group":"Group2","condition":"1_Rep","full_date":"2026-02-26T19:06:53.765Z","date":"2026-02-26","time":"19:06:53"},{"task":"memory_phase","broad_category":"M","image_png":"M_Marble_03.png","image_id":227,"category_name":"Marble","category":15,"distinct_rating":2.67,"distinct_type":"Bottom","rt":null,"stimulus":"Stimuli_Rocks480/M_Marble_03.png","response":null,"trial_type":"image-keyboard-response","trial_index":54,"plugin_version":"2.1.0","time_elapsed":160791,"subject_id":"91139","group":"Group2","condition":"1_Rep","full_date":"2026-02-26T19:06:53.765Z","date":"2026-02-26","time":"19:06:53"},{"rt":2695,"stimulus":"<p style=\"max-width: 760px; margin: auto; font-size: 35px; line-height: 1.5;\">\n                Press SPACE to continue study phase\n              </p>","response":" ","trial_type":"html-keyboard-response","trial_index":55,"plugin_version":"2.1.0","time_elapsed":163487,"subject_id":"91139","group":"Group2","condition":"1_Rep","full_date":"2026-02-26T19:06:53.765Z","date":"2026-02-26","time":"19:06:53"},{"rt":null,"stimulus":"<p style=\"font-size: 50px; margin: 0; text-align: center;\">+</p>","response":null,"trial_type":"html-keyboard-response","trial_index":56,"plugin_version":"2.1.0","time_elapsed":164490,"subject_id":"91139","group":"Group2","condition":"1_Rep","full_date":"2026-02-26T19:06:53.765Z","date":"2026-02-26","time":"19:06:53"},{"task":"memory_phase","broad_category":"S","image_png":"S_Dolomite_07.png","image_id":391,"category_name":"Dolomite","category":25,"distinct_rating":1.73,"distinct_type":"Bottom","rt":null,"stimulus":"Stimuli_Rocks480/S_Dolomite_07.png","response":null,"trial_type":"image-keyboard-response","trial_index":57,"plugin_version":"2.1.0","time_elapsed":166994,"subject_id":"91139","group":"Group2","condition":"1_Rep","full_date":"2026-02-26T19:06:53.765Z","date":"2026-02-26","time":"19:06:53"},{"rt":null,"stimulus":"<p style=\"font-size: 50px; margin: 0; text-align: center;\">+</p>","response":null,"trial_type":"html-keyboard-response","trial_index":58,"plugin_version":"2.1.0","time_elapsed":167996,"subject_id":"91139","group":"Group2","condition":"1_Rep","full_date":"2026-02-26T19:06:53.765Z","date":"2026-02-26","time":"19:06:53"},{"task":"memory_phase","broad_category":"I","image_png":"I_Andesite_03.png","image_id":3,"category_name":"Andesite","category":1,"distinct_rating":3.17,"distinct_type":"Bottom","rt":null,"stimulus":"Stimuli_Rocks480/I_Andesite_03.png","response":null,"trial_type":"image-keyboard-response","trial_index":59,"plugin_version":"2.1.0","time_elapsed":170499,"subject_id":"91139","group":"Group2","condition":"1_Rep","full_date":"2026-02-26T19:06:53.765Z","date":"2026-02-26","time":"19:06:53"},{"rt":null,"stimulus":"<p style=\"font-size: 50px; margin: 0; text-align: center;\">+</p>","response":null,"trial_type":"html-keyboard-response","trial_index":60,"plugin_version":"2.1.0","time_elapsed":171501,"subject_id":"91139","group":"Group2","condition":"1_Rep","full_date":"2026-02-26T19:06:53.765Z","date":"2026-02-26","time":"19:06:53"},{"task":"memory_phase","broad_category":"S","image_png":"S_Rock Salt_13.png","image_id":445,"category_name":"Rock Salt","category":28,"distinct_rating":7.58,"distinct_type":"Top","rt":null,"stimulus":"Stimuli_Rocks480/S_Rock Salt_13.png","response":null,"trial_type":"image-keyboard-response","trial_index":61,"plugin_version":"2.1.0","time_elapsed":174004,"subject_id":"91139","group":"Group2","condition":"1_Rep","full_date":"2026-02-26T19:06:53.765Z","date":"2026-02-26","time":"19:06:53"},{"rt":null,"stimulus":"<p style=\"font-size: 50px; margin: 0; text-align: center;\">+</p>","response":null,"trial_type":"html-keyboard-response","trial_index":62,"plugin_version":"2.1.0","time_elapsed":175006,"subject_id":"91139","group":"Group2","condition":"1_Rep","full_date":"2026-02-26T19:06:53.765Z","date":"2026-02-26","time":"19:06:53"},{"task":"memory_phase","broad_category":"I","image_png":"I_Diorite_15.png","image_id":47,"category_name":"Diorite","category":3,"distinct_rating":3.05,"distinct_type":"Bottom","rt":null,"stimulus":"Stimuli_Rocks480/I_Diorite_15.png","response":null,"trial_type":"image-keyboard-response","trial_index":63,"plugin_version":"2.1.0","time_elapsed":177509,"subject_id":"91139","group":"Group2","condition":"1_Rep","full_date":"2026-02-26T19:06:53.765Z","date":"2026-02-26","time":"19:06:53"},{"rt":null,"stimulus":"<p style=\"font-size: 50px; margin: 0; text-align: center;\">+</p>","response":null,"trial_type":"html-keyboard-response","trial_index":64,"plugin_version":"2.1.0","time_elapsed":178510,"subject_id":"91139","group":"Group2","condition":"1_Rep","full_date":"2026-02-26T19:06:53.765Z","date":"2026-02-26","time":"19:06:53"},{"task":"memory_phase","broad_category":"M","image_png":"M_Quartzite_15.png","image_id":287,"category_name":"Quartzite","category":18,"distinct_rating":2.19,"distinct_type":"Bottom","rt":null,"stimulus":"Stimuli_Rocks480/M_Quartzite_15.png","response":null,"trial_type":"image-keyboard-response","trial_index":65,"plugin_version":"2.1.0","time_elapsed":181013,"subject_id":"91139","group":"Group2","condition":"1_Rep","full_date":"2026-02-26T19:06:53.765Z","date":"2026-02-26","time":"19:06:53"},{"rt":null,"stimulus":"<p style=\"font-size: 50px; margin: 0; text-align: center;\">+</p>","response":null,"trial_type":"html-keyboard-response","trial_index":66,"plugin_version":"2.1.0","time_elapsed":182015,"subject_id":"91139","group":"Group2","condition":"1_Rep","full_date":"2026-02-26T19:06:53.765Z","date":"2026-02-26","time":"19:06:53"},{"task":"memory_phase","broad_category":"M","image_png":"M_Gneiss_10.png","image_id":202,"category_name":"Gneiss","category":13,"distinct_rating":3.09,"distinct_type":"Bottom","rt":null,"stimulus":"Stimuli_Rocks480/M_Gneiss_10.png","response":null,"trial_type":"image-keyboard-response","trial_index":67,"plugin_version":"2.1.0","time_elapsed":184518,"subject_id":"91139","group":"Group2","condition":"1_Rep","full_date":"2026-02-26T19:06:53.765Z","date":"2026-02-26","time":"19:06:53"},{"rt":null,"stimulus":"<p style=\"font-size: 50px; margin: 0; text-align: center;\">+</p>","response":null,"trial_type":"html-keyboard-response","trial_index":68,"plugin_version":"2.1.0","time_elapsed":185521,"subject_id":"91139","group":"Group2","condition":"1_Rep","full_date":"2026-02-26T19:06:53.765Z","date":"2026-02-26","time":"19:06:53"},{"task":"memory_phase","broad_category":"M","image_png":"M_Marble_14.png","image_id":238,"category_name":"Marble","category":15,"distinct_rating":3.31,"distinct_type":"Bottom","rt":null,"stimulus":"Stimuli_Rocks480/M_Marble_14.png","response":null,"trial_type":"image-keyboard-response","trial_index":69,"plugin_version":"2.1.0","time_elapsed":188024,"subject_id":"91139","group":"Group2","condition":"1_Rep","full_date":"2026-02-26T19:06:53.765Z","date":"2026-02-26","time":"19:06:53"},{"rt":null,"stimulus":"<p style=\"font-size: 50px; margin: 0; text-align: center;\">+</p>","response":null,"trial_type":"html-keyboard-response","trial_index":70,"plugin_version":"2.1.0","time_elapsed":189026,"subject_id":"91139","group":"Group2","condition":"1_Rep","full_date":"2026-02-26T19:06:53.765Z","date":"2026-02-26","time":"19:06:53"},{"task":"memory_phase","broad_category":"S","image_png":"S_Chert_13.png","image_id":365,"category_name":"Chert","category":23,"distinct_rating":6.57,"distinct_type":"Top","rt":null,"stimulus":"Stimuli_Rocks480/S_Chert_13.png","response":null,"trial_type":"image-keyboard-response","trial_index":71,"plugin_version":"2.1.0","time_elapsed":191529,"subject_id":"91139","group":"Group2","condition":"1_Rep","full_date":"2026-02-26T19:06:53.765Z","date":"2026-02-26","time":"19:06:53"},{"rt":null,"stimulus":"<p style=\"font-size: 50px; margin: 0; text-align: center;\">+</p>","response":null,"trial_type":"html-keyboard-response","trial_index":72,"plugin_version":"2.1.0","time_elapsed":192531,"subject_id":"91139","group":"Group2","condition":"1_Rep","full_date":"2026-02-26T19:06:53.765Z","date":"2026-02-26","time":"19:06:53"},{"task":"memory_phase","broad_category":"I","image_png":"I_Pegmatite_03.png","image_id":99,"category_name":"Pegmatite","category":7,"distinct_rating":7.24,"distinct_type":"Top","rt":null,"stimulus":"Stimuli_Rocks480/I_Pegmatite_03.png","response":null,"trial_type":"image-keyboard-response","trial_index":73,"plugin_version":"2.1.0","time_elapsed":195035,"subject_id":"91139","group":"Group2","condition":"1_Rep","full_date":"2026-02-26T19:06:53.765Z","date":"2026-02-26","time":"19:06:53"},{"rt":null,"stimulus":"<p style=\"font-size: 50px; margin: 0; text-align: center;\">+</p>","response":null,"trial_type":"html-keyboard-response","trial_index":74,"plugin_version":"2.1.0","time_elapsed":196036,"subject_id":"91139","group":"Group2","condition":"1_Rep","full_date":"2026-02-26T19:06:53.765Z","date":"2026-02-26","time":"19:06:53"},{"task":"memory_phase","broad_category":"M","image_png":"M_Phyllite_05.png","image_id":261,"category_name":"Phyllite","category":17,"distinct_rating":2.14,"distinct_type":"Bottom","rt":null,"stimulus":"Stimuli_Rocks480/M_Phyllite_05.png","response":null,"trial_type":"image-keyboard-response","trial_index":75,"plugin_version":"2.1.0","time_elapsed":198539,"subject_id":"91139","group":"Group2","condition":"1_Rep","full_date":"2026-02-26T19:06:53.765Z","date":"2026-02-26","time":"19:06:53"},{"rt":null,"stimulus":"<p style=\"font-size: 50px; margin: 0; text-align: center;\">+</p>","response":null,"trial_type":"html-keyboard-response","trial_index":76,"plugin_version":"2.1.0","time_elapsed":199541,"subject_id":"91139","group":"Group2","condition":"1_Rep","full_date":"2026-02-26T19:06:53.765Z","date":"2026-02-26","time":"19:06:53"},{"task":"memory_phase","broad_category":"M","image_png":"M_Slate_04.png","image_id":308,"category_name":"Slate","category":20,"distinct_rating":2.2,"distinct_type":"Bottom","rt":null,"stimulus":"Stimuli_Rocks480/M_Slate_04.png","response":null,"trial_type":"image-keyboard-response","trial_index":77,"plugin_version":"2.1.0","time_elapsed":202044,"subject_id":"91139","group":"Group2","condition":"1_Rep","full_date":"2026-02-26T19:06:53.765Z","date":"2026-02-26","time":"19:06:53"},{"rt":null,"stimulus":"<p style=\"font-size: 50px; margin: 0; text-align: center;\">+</p>","response":null,"trial_type":"html-keyboard-response","trial_index":78,"plugin_version":"2.1.0","time_elapsed":203047,"subject_id":"91139","group":"Group2","condition":"1_Rep","full_date":"2026-02-26T19:06:53.765Z","date":"2026-02-26","time":"19:06:53"},{"task":"memory_phase","broad_category":"S","image_png":"S_Sandstone_11.png","image_id":459,"category_name":"Sandstone","category":29,"distinct_rating":1.82,"distinct_type":"Bottom","rt":null,"stimulus":"Stimuli_Rocks480/S_Sandstone_11.png","response":null,"trial_type":"image-keyboard-response","trial_index":79,"plugin_version":"2.1.0","time_elapsed":205549,"subject_id":"91139","group":"Group2","condition":"1_Rep","full_date":"2026-02-26T19:06:53.765Z","date":"2026-02-26","time":"19:06:53"},{"rt":null,"stimulus":"<p style=\"font-size: 50px; margin: 0; text-align: center;\">+</p>","response":null,"trial_type":"html-keyboard-response","trial_index":80,"plugin_version":"2.1.0","time_elapsed":206552,"subject_id":"91139","group":"Group2","condition":"1_Rep","full_date":"2026-02-26T19:06:53.765Z","date":"2026-02-26","time":"19:06:53"},{"task":"memory_phase","broad_category":"S","image_png":"S_Dolomite_16.png","image_id":400,"category_name":"Dolomite","category":25,"distinct_rating":1.71,"distinct_type":"Bottom","rt":null,"stimulus":"Stimuli_Rocks480/S_Dolomite_16.png","response":null,"trial_type":"image-keyboard-response","trial_index":81,"plugin_version":"2.1.0","time_elapsed":209055,"subject_id":"91139","group":"Group2","condition":"1_Rep","full_date":"2026-02-26T19:06:53.765Z","date":"2026-02-26","time":"19:06:53"},{"rt":null,"stimulus":"<p style=\"font-size: 50px; margin: 0; text-align: center;\">+</p>","response":null,"trial_type":"html-keyboard-response","trial_index":82,"plugin_version":"2.1.0","time_elapsed":210057,"subject_id":"91139","group":"Group2","condition":"1_Rep","full_date":"2026-02-26T19:06:53.765Z","date":"2026-02-26","time":"19:06:53"},{"task":"memory_phase","broad_category":"I","image_png":"I_Andesite_04.png","image_id":4,"category_name":"Andesite","category":1,"distinct_rating":3.18,"distinct_type":"Bottom","rt":null,"stimulus":"Stimuli_Rocks480/I_Andesite_04.png","response":null,"trial_type":"image-keyboard-response","trial_index":83,"plugin_version":"2.1.0","time_elapsed":212561,"subject_id":"91139","group":"Group2","condition":"1_Rep","full_date":"2026-02-26T19:06:53.765Z","date":"2026-02-26","time":"19:06:53"},{"rt":null,"stimulus":"<p style=\"font-size: 50px; margin: 0; text-align: center;\">+</p>","response":null,"trial_type":"html-keyboard-response","trial_index":84,"plugin_version":"2.1.0","time_elapsed":213563,"subject_id":"91139","group":"Group2","condition":"1_Rep","full_date":"2026-02-26T19:06:53.765Z","date":"2026-02-26","time":"19:06:53"},{"task":"memory_phase","broad_category":"I","image_png":"I_Gabbro_14.png","image_id":62,"category_name":"Gabbro","category":4,"distinct_rating":2.95,"distinct_type":"Bottom","rt":null,"stimulus":"Stimuli_Rocks480/I_Gabbro_14.png","response":null,"trial_type":"image-keyboard-response","trial_index":85,"plugin_version":"2.1.0","time_elapsed":216066,"subject_id":"91139","group":"Group2","condition":"1_Rep","full_date":"2026-02-26T19:06:53.765Z","date":"2026-02-26","time":"19:06:53"},{"rt":null,"stimulus":"<p style=\"font-size: 50px; margin: 0; text-align: center;\">+</p>","response":null,"trial_type":"html-keyboard-response","trial_index":86,"plugin_version":"2.1.0","time_elapsed":217069,"subject_id":"91139","group":"Group2","condition":"1_Rep","full_date":"2026-02-26T19:06:53.765Z","date":"2026-02-26","time":"19:06:53"},{"task":"memory_phase","broad_category":"I","image_png":"I_Peridotite_13.png","image_id":125,"category_name":"Peridotite","category":8,"distinct_rating":7.28,"distinct_type":"Top","rt":null,"stimulus":"Stimuli_Rocks480/I_Peridotite_13.png","response":null,"trial_type":"image-keyboard-response","trial_index":87,"plugin_version":"2.1.0","time_elapsed":219572,"subject_id":"91139","group":"Group2","condition":"1_Rep","full_date":"2026-02-26T19:06:53.765Z","date":"2026-02-26","time":"19:06:53"},{"rt":null,"stimulus":"<p style=\"font-size: 50px; margin: 0; text-align: center;\">+</p>","response":null,"trial_type":"html-keyboard-response","trial_index":88,"plugin_version":"2.1.0","time_elapsed":220575,"subject_id":"91139","group":"Group2","condition":"1_Rep","full_date":"2026-02-26T19:06:53.765Z","date":"2026-02-26","time":"19:06:53"},{"task":"memory_phase","broad_category":"M","image_png":"M_Quartzite_12.png","image_id":284,"category_name":"Quartzite","category":18,"distinct_rating":1.92,"distinct_type":"Bottom","rt":null,"stimulus":"Stimuli_Rocks480/M_Quartzite_12.png","response":null,"trial_type":"image-keyboard-response","trial_index":89,"plugin_version":"2.1.0","time_elapsed":223078,"subject_id":"91139","group":"Group2","condition":"1_Rep","full_date":"2026-02-26T19:06:53.765Z","date":"2026-02-26","time":"19:06:53"},{"rt":null,"stimulus":"<p style=\"font-size: 50px; margin: 0; text-align: center;\">+</p>","response":null,"trial_type":"html-keyboard-response","trial_index":90,"plugin_version":"2.1.0","time_elapsed":224080,"subject_id":"91139","group":"Group2","condition":"1_Rep","full_date":"2026-02-26T19:06:53.765Z","date":"2026-02-26","time":"19:06:53"},{"task":"memory_phase","broad_category":"I","image_png":"I_Gabbro_02.png","image_id":50,"category_name":"Gabbro","category":4,"distinct_rating":2.73,"distinct_type":"Bottom","rt":null,"stimulus":"Stimuli_Rocks480/I_Gabbro_02.png","response":null,"trial_type":"image-keyboard-response","trial_index":91,"plugin_version":"2.1.0","time_elapsed":226584,"subject_id":"91139","group":"Group2","condition":"1_Rep","full_date":"2026-02-26T19:06:53.765Z","date":"2026-02-26","time":"19:06:53"},{"rt":null,"stimulus":"<p style=\"font-size: 50px; margin: 0; text-align: center;\">+</p>","response":null,"trial_type":"html-keyboard-response","trial_index":92,"plugin_version":"2.1.0","time_elapsed":227586,"subject_id":"91139","group":"Group2","condition":"1_Rep","full_date":"2026-02-26T19:06:53.765Z","date":"2026-02-26","time":"19:06:53"},{"task":"memory_phase","broad_category":"M","image_png":"M_Gneiss_14.png","image_id":206,"category_name":"Gneiss","category":13,"distinct_rating":3.41,"distinct_type":"Bottom","rt":null,"stimulus":"Stimuli_Rocks480/M_Gneiss_14.png","response":null,"trial_type":"image-keyboard-response","trial_index":93,"plugin_version":"2.1.0","time_elapsed":230090,"subject_id":"91139","group":"Group2","condition":"1_Rep","full_date":"2026-02-26T19:06:53.765Z","date":"2026-02-26","time":"19:06:53"},{"rt":null,"stimulus":"<p style=\"font-size: 50px; margin: 0; text-align: center;\">+</p>","response":null,"trial_type":"html-keyboard-response","trial_index":94,"plugin_version":"2.1.0","time_elapsed":231092,"subject_id":"91139","group":"Group2","condition":"1_Rep","full_date":"2026-02-26T19:06:53.765Z","date":"2026-02-26","time":"19:06:53"},{"task":"memory_phase","broad_category":"S","image_png":"S_Sandstone_08.png","image_id":456,"category_name":"Sandstone","category":29,"distinct_rating":1.5,"distinct_type":"Bottom","rt":null,"stimulus":"Stimuli_Rocks480/S_Sandstone_08.png","response":null,"trial_type":"image-keyboard-response","trial_index":95,"plugin_version":"2.1.0","time_elapsed":233594,"subject_id":"91139","group":"Group2","condition":"1_Rep","full_date":"2026-02-26T19:06:53.765Z","date":"2026-02-26","time":"19:06:53"},{"rt":null,"stimulus":"<p style=\"font-size: 50px; margin: 0; text-align: center;\">+</p>","response":null,"trial_type":"html-keyboard-response","trial_index":96,"plugin_version":"2.1.0","time_elapsed":234597,"subject_id":"91139","group":"Group2","condition":"1_Rep","full_date":"2026-02-26T19:06:53.765Z","date":"2026-02-26","time":"19:06:53"},{"task":"memory_phase","broad_category":"I","image_png":"I_Rhyolite_08.png","image_id":152,"category_name":"Rhyolite","category":10,"distinct_rating":1.38,"distinct_type":"Bottom","rt":null,"stimulus":"Stimuli_Rocks480/I_Rhyolite_08.png","response":null,"trial_type":"image-keyboard-response","trial_index":97,"plugin_version":"2.1.0","time_elapsed":237100,"subject_id":"91139","group":"Group2","condition":"1_Rep","full_date":"2026-02-26T19:06:53.765Z","date":"2026-02-26","time":"19:06:53"},{"rt":null,"stimulus":"<p style=\"font-size: 50px; margin: 0; text-align: center;\">+</p>","response":null,"trial_type":"html-keyboard-response","trial_index":98,"plugin_version":"2.1.0","time_elapsed":238103,"subject_id":"91139","group":"Group2","condition":"1_Rep","full_date":"2026-02-26T19:06:53.765Z","date":"2026-02-26","time":"19:06:53"},{"task":"memory_phase","broad_category":"I","image_png":"I_Obsidian_06.png","image_id":86,"category_name":"Obsidian","category":6,"distinct_rating":8.01,"distinct_type":"Top","rt":null,"stimulus":"Stimuli_Rocks480/I_Obsidian_06.png","response":null,"trial_type":"image-keyboard-response","trial_index":99,"plugin_version":"2.1.0","time_elapsed":240606,"subject_id":"91139","group":"Group2","condition":"1_Rep","full_date":"2026-02-26T19:06:53.765Z","date":"2026-02-26","time":"19:06:53"},{"rt":null,"stimulus":"<p style=\"font-size: 50px; margin: 0; text-align: center;\">+</p>","response":null,"trial_type":"html-keyboard-response","trial_index":100,"plugin_version":"2.1.0","time_elapsed":241609,"subject_id":"91139","group":"Group2","condition":"1_Rep","full_date":"2026-02-26T19:06:53.765Z","date":"2026-02-26","time":"19:06:53"},{"task":"memory_phase","broad_category":"I","image_png":"I_Diorite_01.png","image_id":33,"category_name":"Diorite","category":3,"distinct_rating":2.97,"distinct_type":"Bottom","rt":null,"stimulus":"Stimuli_Rocks480/I_Diorite_01.png","response":null,"trial_type":"image-keyboard-response","trial_index":101,"plugin_version":"2.1.0","time_elapsed":244112,"subject_id":"91139","group":"Group2","condition":"1_Rep","full_date":"2026-02-26T19:06:53.765Z","date":"2026-02-26","time":"19:06:53"},{"rt":null,"stimulus":"<p style=\"font-size: 50px; margin: 0; text-align: center;\">+</p>","response":null,"trial_type":"html-keyboard-response","trial_index":102,"plugin_version":"2.1.0","time_elapsed":245114,"subject_id":"91139","group":"Group2","condition":"1_Rep","full_date":"2026-02-26T19:06:53.765Z","date":"2026-02-26","time":"19:06:53"},{"task":"memory_phase","broad_category":"I","image_png":"I_Pumice_13.png","image_id":141,"category_name":"Pumice","category":9,"distinct_rating":3.12,"distinct_type":"Bottom","rt":null,"stimulus":"Stimuli_Rocks480/I_Pumice_13.png","response":null,"trial_type":"image-keyboard-response","trial_index":103,"plugin_version":"2.1.0","time_elapsed":247617,"subject_id":"91139","group":"Group2","condition":"1_Rep","full_date":"2026-02-26T19:06:53.765Z","date":"2026-02-26","time":"19:06:53"},{"rt":null,"stimulus":"<p style=\"font-size: 50px; margin: 0; text-align: center;\">+</p>","response":null,"trial_type":"html-keyboard-response","trial_index":104,"plugin_version":"2.1.0","time_elapsed":248619,"subject_id":"91139","group":"Group2","condition":"1_Rep","full_date":"2026-02-26T19:06:53.765Z","date":"2026-02-26","time":"19:06:53"},{"task":"memory_phase","broad_category":"S","image_png":"S_Shale_03.png","image_id":467,"category_name":"Shale","category":30,"distinct_rating":1.95,"distinct_type":"Bottom","rt":null,"stimulus":"Stimuli_Rocks480/S_Shale_03.png","response":null,"trial_type":"image-keyboard-response","trial_index":105,"plugin_version":"2.1.0","time_elapsed":251122,"subject_id":"91139","group":"Group2","condition":"1_Rep","full_date":"2026-02-26T19:06:53.765Z","date":"2026-02-26","time":"19:06:53"},{"rt":19706,"stimulus":"<div style=\"max-width: 760px; margin: auto; font-size: 20px; line-height: 1.5;\">\n      <h1 style=\"text-align:center; font-size: 30px;\">Instructions for the Test Phase</h1>\n      <p>\n        The study phase is now complete.\n      </p>\n      <p>\n        In the test phase, you will again see a series of rock images. \n        Some will be ones you saw before - during the study phase, while others will be new.  \n        <b>Your task</b> is to decide whether you have seen each image before by pressing the corresponding key on your keyboard:<br><br>\n          <b>A</b> - NO (you did not see this image before)<br>\n          <b>L</b> - YES (you saw this image before)<br><br>\n        The test will proceed at your own pace. You will receive feedback after each response.  \n        Please try to respond <b>as accurately as possible</b>.\n      </p>\n      <p>\n        <b>Reminder:</b> If your computer has multiple language settings (e.g., English and another language),\n        please ensure it is set to English during the test phase.\n      </p>\n      <p>\n        You can track your progress using the <b>completion bar</b> at the top of the screen.  \n        Note that it has been refreshed to reflect your progress during this final phase.\n      </p>\n      <p>\n        Press the button below when you are ready to continue.\n      </p>\n    </div>","response":0,"trial_type":"html-button-response","trial_index":106,"plugin_version":"2.1.0","time_elapsed":270830,"subject_id":"91139","group":"Group2","condition":"1_Rep","full_date":"2026-02-26T19:06:53.765Z","date":"2026-02-26","time":"19:06:53"},{"correct_response":"l","task":"test_phase","broad_category":"I","image_png":"I_Obsidian_06.png","image_id":86,"category_name":"Obsidian","category":6,"distinct_rating":8.01,"distinct_type":"Top","item_type":"Target","rt":2065,"stimulus":"Stimuli_Rocks480/I_Obsidian_06.png","response":"l","trial_type":"image-keyboard-response","trial_index":107,"plugin_version":"2.1.0","time_elapsed":272898,"subject_id":"91139","group":"Group2","condition":"1_Rep","full_date":"2026-02-26T19:06:53.765Z","date":"2026-02-26","time":"19:06:53","cor_ans":true},{"trial_type":"html-keyboard-response","rt":null,"stimulus":"<p style=\"color: green; font-size: 50px; font-weight: bold;\">Correct</p>","response":null,"trial_index":108,"plugin_version":"2.1.0","time_elapsed":273400,"subject_id":"91139","group":"Group2","condition":"1_Rep","full_date":"2026-02-26T19:06:53.765Z","date":"2026-02-26","time":"19:06:53"},{"correct_response":"l","task":"test_phase","broad_category":"I","image_png":"I_Basalt_10.png","image_id":26,"category_name":"Basalt","category":2,"distinct_rating":2.76,"distinct_type":"Bottom","item_type":"Target","rt":1600,"stimulus":"Stimuli_Rocks480/I_Basalt_10.png","response":"l","trial_type":"image-keyboard-response","trial_index":109,"plugin_version":"2.1.0","time_elapsed":275002,"subject_id":"91139","group":"Group2","condition":"1_Rep","full_date":"2026-02-26T19:06:53.765Z","date":"2026-02-26","time":"19:06:53","cor_ans":true},{"trial_type":"html-keyboard-response","rt":null,"stimulus":"<p style=\"color: green; font-size: 50px; font-weight: bold;\">Correct</p>","response":null,"trial_index":110,"plugin_version":"2.1.0","time_elapsed":275503,"subject_id":"91139","group":"Group2","condition":"1_Rep","full_date":"2026-02-26T19:06:53.765Z","date":"2026-02-26","time":"19:06:53"},{"correct_response":"l","task":"test_phase","broad_category":"M","image_png":"M_Gneiss_15.png","image_id":207,"category_name":"Gneiss","category":13,"distinct_rating":3.11,"distinct_type":"Bottom","item_type":"Target","rt":1676,"stimulus":"Stimuli_Rocks480/M_Gneiss_15.png","response":"l","trial_type":"image-keyboard-response","trial_index":111,"plugin_version":"2.1.0","time_elapsed":277180,"subject_id":"91139","group":"Group2","condition":"1_Rep","full_date":"2026-02-26T19:06:53.765Z","date":"2026-02-26","time":"19:06:53","cor_ans":true},{"trial_type":"html-keyboard-response","rt":null,"stimulus":"<p style=\"color: green; font-size: 50px; font-weight: bold;\">Correct</p>","response":null,"trial_index":112,"plugin_version":"2.1.0","time_elapsed":277682,"subject_id":"91139","group":"Group2","condition":"1_Rep","full_date":"2026-02-26T19:06:53.765Z","date":"2026-02-26","time":"19:06:53"},{"correct_response":"a","task":"test_phase","broad_category":"I","image_png":"I_Gabbro_11.png","image_id":59,"category_name":"Gabbro","category":4,"distinct_rating":1.99,"distinct_type":"Bottom","item_type":"Foil","rt":3405,"stimulus":"Stimuli_Rocks480/I_Gabbro_11.png","response":"a","trial_type":"image-keyboard-response","trial_index":113,"plugin_version":"2.1.0","time_elapsed":281088,"subject_id":"91139","group":"Group2","condition":"1_Rep","full_date":"2026-02-26T19:06:53.765Z","date":"2026-02-26","time":"19:06:53","cor_ans":true},{"trial_type":"html-keyboard-response","rt":null,"stimulus":"<p style=\"color: green; font-size: 50px; font-weight: bold;\">Correct</p>","response":null,"trial_index":114,"plugin_version":"2.1.0","time_elapsed":281589,"subject_id":"91139","group":"Group2","condition":"1_Rep","full_date":"2026-02-26T19:06:53.765Z","date":"2026-02-26","time":"19:06:53"},{"correct_response":"l","task":"test_phase","broad_category":"I","image_png":"I_Diorite_10.png","image_id":42,"category_name":"Diorite","category":3,"distinct_rating":2.84,"distinct_type":"Bottom","item_type":"Target","rt":1386,"stimulus":"Stimuli_Rocks480/I_Diorite_10.png","response":"l","trial_type":"image-keyboard-response","trial_index":115,"plugin_version":"2.1.0","time_elapsed":282977,"subject_id":"91139","group":"Group2","condition":"1_Rep","full_date":"2026-02-26T19:06:53.765Z","date":"2026-02-26","time":"19:06:53","cor_ans":true},{"trial_type":"html-keyboard-response","rt":null,"stimulus":"<p style=\"color: green; font-size: 50px; font-weight: bold;\">Correct</p>","response":null,"trial_index":116,"plugin_version":"2.1.0","time_elapsed":283478,"subject_id":"91139","group":"Group2","condition":"1_Rep","full_date":"2026-02-26T19:06:53.765Z","date":"2026-02-26","time":"19:06:53"},{"correct_response":"l","task":"test_phase","broad_category":"I","image_png":"I_Rhyolite_08.png","image_id":152,"category_name":"Rhyolite","category":10,"distinct_rating":1.38,"distinct_type":"Bottom","item_type":"Target","rt":904,"stimulus":"Stimuli_Rocks480/I_Rhyolite_08.png","response":"l","trial_type":"image-keyboard-response","trial_index":117,"plugin_version":"2.1.0","time_elapsed":284383,"subject_id":"91139","group":"Group2","condition":"1_Rep","full_date":"2026-02-26T19:06:53.765Z","date":"2026-02-26","time":"19:06:53","cor_ans":true},{"trial_type":"html-keyboard-response","rt":null,"stimulus":"<p style=\"color: green; font-size: 50px; font-weight: bold;\">Correct</p>","response":null,"trial_index":118,"plugin_version":"2.1.0","time_elapsed":284885,"subject_id":"91139","group":"Group2","condition":"1_Rep","full_date":"2026-02-26T19:06:53.765Z","date":"2026-02-26","time":"19:06:53"},{"correct_response":"l","task":"test_phase","broad_category":"I","image_png":"I_Andesite_09.png","image_id":9,"category_name":"Andesite","category":1,"distinct_rating":2.49,"distinct_type":"Bottom","item_type":"Target","rt":860,"stimulus":"Stimuli_Rocks480/I_Andesite_09.png","response":"l","trial_type":"image-keyboard-response","trial_index":119,"plugin_version":"2.1.0","time_elapsed":285747,"subject_id":"91139","group":"Group2","condition":"1_Rep","full_date":"2026-02-26T19:06:53.765Z","date":"2026-02-26","time":"19:06:53","cor_ans":true},{"trial_type":"html-keyboard-response","rt":null,"stimulus":"<p style=\"color: green; font-size: 50px; font-weight: bold;\">Correct</p>","response":null,"trial_index":120,"plugin_version":"2.1.0","time_elapsed":286248,"subject_id":"91139","group":"Group2","condition":"1_Rep","full_date":"2026-02-26T19:06:53.765Z","date":"2026-02-26","time":"19:06:53"},{"correct_response":"a","task":"test_phase","broad_category":"S","image_png":"S_Dolomite_14.png","image_id":398,"category_name":"Dolomite","category":25,"distinct_rating":1.43,"distinct_type":"Bottom","item_type":"Foil","rt":926,"stimulus":"Stimuli_Rocks480/S_Dolomite_14.png","response":"l","trial_type":"image-keyboard-response","trial_index":121,"plugin_version":"2.1.0","time_elapsed":287176,"subject_id":"91139","group":"Group2","condition":"1_Rep","full_date":"2026-02-26T19:06:53.765Z","date":"2026-02-26","time":"19:06:53","cor_ans":false},{"trial_type":"html-keyboard-response","rt":null,"stimulus":"<p style=\"color: red; font-size: 50px; font-weight: bold;\">Incorrect</p>","response":null,"trial_index":122,"plugin_version":"2.1.0","time_elapsed":287677,"subject_id":"91139","group":"Group2","condition":"1_Rep","full_date":"2026-02-26T19:06:53.765Z","date":"2026-02-26","time":"19:06:53"},{"correct_response":"a","task":"test_phase","broad_category":"S","image_png":"S_Breccia_11.png","image_id":347,"category_name":"Breccia","category":22,"distinct_rating":6.7,"distinct_type":"Top","item_type":"Foil","rt":1123,"stimulus":"Stimuli_Rocks480/S_Breccia_11.png","response":"a","trial_type":"image-keyboard-response","trial_index":123,"plugin_version":"2.1.0","time_elapsed":288801,"subject_id":"91139","group":"Group2","condition":"1_Rep","full_date":"2026-02-26T19:06:53.765Z","date":"2026-02-26","time":"19:06:53","cor_ans":true},{"trial_type":"html-keyboard-response","rt":null,"stimulus":"<p style=\"color: green; font-size: 50px; font-weight: bold;\">Correct</p>","response":null,"trial_index":124,"plugin_version":"2.1.0","time_elapsed":289302,"subject_id":"91139","group":"Group2","condition":"1_Rep","full_date":"2026-02-26T19:06:53.765Z","date":"2026-02-26","time":"19:06:53"},{"correct_response":"l","task":"test_phase","broad_category":"M","image_png":"M_Marble_02.png","image_id":226,"category_name":"Marble","category":15,"distinct_rating":3.2,"distinct_type":"Bottom","item_type":"Target","rt":2717,"stimulus":"Stimuli_Rocks480/M_Marble_02.png","response":"a","trial_type":"image-keyboard-response","trial_index":125,"plugin_version":"2.1.0","time_elapsed":292021,"subject_id":"91139","group":"Group2","condition":"1_Rep","full_date":"2026-02-26T19:06:53.765Z","date":"2026-02-26","time":"19:06:53","cor_ans":false},{"trial_type":"html-keyboard-response","rt":null,"stimulus":"<p style=\"color: red; font-size: 50px; font-weight: bold;\">Incorrect</p>","response":null,"trial_index":126,"plugin_version":"2.1.0","time_elapsed":292522,"subject_id":"91139","group":"Group2","condition":"1_Rep","full_date":"2026-02-26T19:06:53.765Z","date":"2026-02-26","time":"19:06:53"},{"correct_response":"a","task":"test_phase","broad_category":"S","image_png":"S_Sandstone_16.png","image_id":464,"category_name":"Sandstone","category":29,"distinct_rating":1.93,"distinct_type":"Bottom","item_type":"Foil","rt":1900,"stimulus":"Stimuli_Rocks480/S_Sandstone_16.png","response":"a","trial_type":"image-keyboard-response","trial_index":127,"plugin_version":"2.1.0","time_elapsed":294424,"subject_id":"91139","group":"Group2","condition":"1_Rep","full_date":"2026-02-26T19:06:53.765Z","date":"2026-02-26","time":"19:06:53","cor_ans":true},{"trial_type":"html-keyboard-response","rt":null,"stimulus":"<p style=\"color: green; font-size: 50px; font-weight: bold;\">Correct</p>","response":null,"trial_index":128,"plugin_version":"2.1.0","time_elapsed":294925,"subject_id":"91139","group":"Group2","condition":"1_Rep","full_date":"2026-02-26T19:06:53.765Z","date":"2026-02-26","time":"19:06:53"},{"correct_response":"a","task":"test_phase","broad_category":"I","image_png":"I_Andesite_10.png","image_id":10,"category_name":"Andesite","category":1,"distinct_rating":3.15,"distinct_type":"Bottom","item_type":"Foil","rt":1487,"stimulus":"Stimuli_Rocks480/I_Andesite_10.png","response":"a","trial_type":"image-keyboard-response","trial_index":129,"plugin_version":"2.1.0","time_elapsed":296413,"subject_id":"91139","group":"Group2","condition":"1_Rep","full_date":"2026-02-26T19:06:53.765Z","date":"2026-02-26","time":"19:06:53","cor_ans":true},{"trial_type":"html-keyboard-response","rt":null,"stimulus":"<p style=\"color: green; font-size: 50px; font-weight: bold;\">Correct</p>","response":null,"trial_index":130,"plugin_version":"2.1.0","time_elapsed":296915,"subject_id":"91139","group":"Group2","condition":"1_Rep","full_date":"2026-02-26T19:06:53.765Z","date":"2026-02-26","time":"19:06:53"},{"correct_response":"a","task":"test_phase","broad_category":"I","image_png":"I_Pumice_11.png","image_id":139,"category_name":"Pumice","category":9,"distinct_rating":1.74,"distinct_type":"Bottom","item_type":"Foil","rt":1767,"stimulus":"Stimuli_Rocks480/I_Pumice_11.png","response":"a","trial_type":"image-keyboard-response","trial_index":131,"plugin_version":"2.1.0","time_elapsed":298684,"subject_id":"91139","group":"Group2","condition":"1_Rep","full_date":"2026-02-26T19:06:53.765Z","date":"2026-02-26","time":"19:06:53","cor_ans":true},{"trial_type":"html-keyboard-response","rt":null,"stimulus":"<p style=\"color: green; font-size: 50px; font-weight: bold;\">Correct</p>","response":null,"trial_index":132,"plugin_version":"2.1.0","time_elapsed":299185,"subject_id":"91139","group":"Group2","condition":"1_Rep","full_date":"2026-02-26T19:06:53.765Z","date":"2026-02-26","time":"19:06:53"},{"correct_response":"l","task":"test_phase","broad_category":"S","image_png":"S_Rock Salt_15.png","image_id":447,"category_name":"Rock Salt","category":28,"distinct_rating":7.79,"distinct_type":"Top","item_type":"Target","rt":827,"stimulus":"Stimuli_Rocks480/S_Rock Salt_15.png","response":"l","trial_type":"image-keyboard-response","trial_index":133,"plugin_version":"2.1.0","time_elapsed":300013,"subject_id":"91139","group":"Group2","condition":"1_Rep","full_date":"2026-02-26T19:06:53.765Z","date":"2026-02-26","time":"19:06:53","cor_ans":true},{"trial_type":"html-keyboard-response","rt":null,"stimulus":"<p style=\"color: green; font-size: 50px; font-weight: bold;\">Correct</p>","response":null,"trial_index":134,"plugin_version":"2.1.0","time_elapsed":300515,"subject_id":"91139","group":"Group2","condition":"1_Rep","full_date":"2026-02-26T19:06:53.765Z","date":"2026-02-26","time":"19:06:53"},{"correct_response":"l","task":"test_phase","broad_category":"I","image_png":"I_Diorite_01.png","image_id":33,"category_name":"Diorite","category":3,"distinct_rating":2.97,"distinct_type":"Bottom","item_type":"Target","rt":2147,"stimulus":"Stimuli_Rocks480/I_Diorite_01.png","response":"l","trial_type":"image-keyboard-response","trial_index":135,"plugin_version":"2.1.0","time_elapsed":302664,"subject_id":"91139","group":"Group2","condition":"1_Rep","full_date":"2026-02-26T19:06:53.765Z","date":"2026-02-26","time":"19:06:53","cor_ans":true},{"trial_type":"html-keyboard-response","rt":null,"stimulus":"<p style=\"color: green; font-size: 50px; font-weight: bold;\">Correct</p>","response":null,"trial_index":136,"plugin_version":"2.1.0","time_elapsed":303165,"subject_id":"91139","group":"Group2","condition":"1_Rep","full_date":"2026-02-26T19:06:53.765Z","date":"2026-02-26","time":"19:06:53"},{"correct_response":"l","task":"test_phase","broad_category":"S","image_png":"S_Rock Salt_13.png","image_id":445,"category_name":"Rock Salt","category":28,"distinct_rating":7.58,"distinct_type":"Top","item_type":"Target","rt":815,"stimulus":"Stimuli_Rocks480/S_Rock Salt_13.png","response":"l","trial_type":"image-keyboard-response","trial_index":137,"plugin_version":"2.1.0","time_elapsed":303981,"subject_id":"91139","group":"Group2","condition":"1_Rep","full_date":"2026-02-26T19:06:53.765Z","date":"2026-02-26","time":"19:06:53","cor_ans":true},{"trial_type":"html-keyboard-response","rt":null,"stimulus":"<p style=\"color: green; font-size: 50px; font-weight: bold;\">Correct</p>","response":null,"trial_index":138,"plugin_version":"2.1.0","time_elapsed":304482,"subject_id":"91139","group":"Group2","condition":"1_Rep","full_date":"2026-02-26T19:06:53.765Z","date":"2026-02-26","time":"19:06:53"},{"correct_response":"a","task":"test_phase","broad_category":"M","image_png":"M_Gneiss_06.png","image_id":198,"category_name":"Gneiss","category":13,"distinct_rating":2.65,"distinct_type":"Bottom","item_type":"Foil","rt":817,"stimulus":"Stimuli_Rocks480/M_Gneiss_06.png","response":"a","trial_type":"image-keyboard-response","trial_index":139,"plugin_version":"2.1.0","time_elapsed":305300,"subject_id":"91139","group":"Group2","condition":"1_Rep","full_date":"2026-02-26T19:06:53.765Z","date":"2026-02-26","time":"19:06:53","cor_ans":true},{"trial_type":"html-keyboard-response","rt":null,"stimulus":"<p style=\"color: green; font-size: 50px; font-weight: bold;\">Correct</p>","response":null,"trial_index":140,"plugin_version":"2.1.0","time_elapsed":305802,"subject_id":"91139","group":"Group2","condition":"1_Rep","full_date":"2026-02-26T19:06:53.765Z","date":"2026-02-26","time":"19:06:53"},{"correct_response":"a","task":"test_phase","broad_category":"M","image_png":"M_Quartzite_05.png","image_id":277,"category_name":"Quartzite","category":18,"distinct_rating":2.23,"distinct_type":"Bottom","item_type":"Foil","rt":1122,"stimulus":"Stimuli_Rocks480/M_Quartzite_05.png","response":"a","trial_type":"image-keyboard-response","trial_index":141,"plugin_version":"2.1.0","time_elapsed":306926,"subject_id":"91139","group":"Group2","condition":"1_Rep","full_date":"2026-02-26T19:06:53.765Z","date":"2026-02-26","time":"19:06:53","cor_ans":true},{"trial_type":"html-keyboard-response","rt":null,"stimulus":"<p style=\"color: green; font-size: 50px; font-weight: bold;\">Correct</p>","response":null,"trial_index":142,"plugin_version":"2.1.0","time_elapsed":307427,"subject_id":"91139","group":"Group2","condition":"1_Rep","full_date":"2026-02-26T19:06:53.765Z","date":"2026-02-26","time":"19:06:53"},{"correct_response":"a","task":"test_phase","broad_category":"M","image_png":"M_Marble_16.png","image_id":240,"category_name":"Marble","category":15,"distinct_rating":2.57,"distinct_type":"Bottom","item_type":"Foil","rt":752,"stimulus":"Stimuli_Rocks480/M_Marble_16.png","response":"l","trial_type":"image-keyboard-response","trial_index":143,"plugin_version":"2.1.0","time_elapsed":308180,"subject_id":"91139","group":"Group2","condition":"1_Rep","full_date":"2026-02-26T19:06:53.765Z","date":"2026-02-26","time":"19:06:53","cor_ans":false},{"trial_type":"html-keyboard-response","rt":null,"stimulus":"<p style=\"color: red; font-size: 50px; font-weight: bold;\">Incorrect</p>","response":null,"trial_index":144,"plugin_version":"2.1.0","time_elapsed":308681,"subject_id":"91139","group":"Group2","condition":"1_Rep","full_date":"2026-02-26T19:06:53.765Z","date":"2026-02-26","time":"19:06:53"},{"correct_response":"a","task":"test_phase","broad_category":"M","image_png":"M_Slate_15.png","image_id":319,"category_name":"Slate","category":20,"distinct_rating":2.13,"distinct_type":"Bottom","item_type":"Foil","rt":754,"stimulus":"Stimuli_Rocks480/M_Slate_15.png","response":"l","trial_type":"image-keyboard-response","trial_index":145,"plugin_version":"2.1.0","time_elapsed":309437,"subject_id":"91139","group":"Group2","condition":"1_Rep","full_date":"2026-02-26T19:06:53.765Z","date":"2026-02-26","time":"19:06:53","cor_ans":false},{"trial_type":"html-keyboard-response","rt":null,"stimulus":"<p style=\"color: red; font-size: 50px; font-weight: bold;\">Incorrect</p>","response":null,"trial_index":146,"plugin_version":"2.1.0","time_elapsed":309939,"subject_id":"91139","group":"Group2","condition":"1_Rep","full_date":"2026-02-26T19:06:53.765Z","date":"2026-02-26","time":"19:06:53"},{"correct_response":"a","task":"test_phase","broad_category":"S","image_png":"S_Shale_01.png","image_id":465,"category_name":"Shale","category":30,"distinct_rating":2.7,"distinct_type":"Bottom","item_type":"Foil","rt":916,"stimulus":"Stimuli_Rocks480/S_Shale_01.png","response":"l","trial_type":"image-keyboard-response","trial_index":147,"plugin_version":"2.1.0","time_elapsed":310857,"subject_id":"91139","group":"Group2","condition":"1_Rep","full_date":"2026-02-26T19:06:53.765Z","date":"2026-02-26","time":"19:06:53","cor_ans":false},{"trial_type":"html-keyboard-response","rt":null,"stimulus":"<p style=\"color: red; font-size: 50px; font-weight: bold;\">Incorrect</p>","response":null,"trial_index":148,"plugin_version":"2.1.0","time_elapsed":311359,"subject_id":"91139","group":"Group2","condition":"1_Rep","full_date":"2026-02-26T19:06:53.765Z","date":"2026-02-26","time":"19:06:53"},{"correct_response":"a","task":"test_phase","broad_category":"M","image_png":"M_Phyllite_03.png","image_id":259,"category_name":"Phyllite","category":17,"distinct_rating":2.5,"distinct_type":"Bottom","item_type":"Foil","rt":1203,"stimulus":"Stimuli_Rocks480/M_Phyllite_03.png","response":"a","trial_type":"image-keyboard-response","trial_index":149,"plugin_version":"2.1.0","time_elapsed":312563,"subject_id":"91139","group":"Group2","condition":"1_Rep","full_date":"2026-02-26T19:06:53.765Z","date":"2026-02-26","time":"19:06:53","cor_ans":true},{"trial_type":"html-keyboard-response","rt":null,"stimulus":"<p style=\"color: green; font-size: 50px; font-weight: bold;\">Correct</p>","response":null,"trial_index":150,"plugin_version":"2.1.0","time_elapsed":313065,"subject_id":"91139","group":"Group2","condition":"1_Rep","full_date":"2026-02-26T19:06:53.765Z","date":"2026-02-26","time":"19:06:53"},{"correct_response":"l","task":"test_phase","broad_category":"M","image_png":"M_Slate_10.png","image_id":314,"category_name":"Slate","category":20,"distinct_rating":1.94,"distinct_type":"Bottom","item_type":"Target","rt":1202,"stimulus":"Stimuli_Rocks480/M_Slate_10.png","response":"l","trial_type":"image-keyboard-response","trial_index":151,"plugin_version":"2.1.0","time_elapsed":314269,"subject_id":"91139","group":"Group2","condition":"1_Rep","full_date":"2026-02-26T19:06:53.765Z","date":"2026-02-26","time":"19:06:53","cor_ans":true},{"trial_type":"html-keyboard-response","rt":null,"stimulus":"<p style=\"color: green; font-size: 50px; font-weight: bold;\">Correct</p>","response":null,"trial_index":152,"plugin_version":"2.1.0","time_elapsed":314769,"subject_id":"91139","group":"Group2","condition":"1_Rep","full_date":"2026-02-26T19:06:53.765Z","date":"2026-02-26","time":"19:06:53"},{"correct_response":"l","task":"test_phase","broad_category":"I","image_png":"I_Pumice_13.png","image_id":141,"category_name":"Pumice","category":9,"distinct_rating":3.12,"distinct_type":"Bottom","item_type":"Target","rt":712,"stimulus":"Stimuli_Rocks480/I_Pumice_13.png","response":"l","trial_type":"image-keyboard-response","trial_index":153,"plugin_version":"2.1.0","time_elapsed":315483,"subject_id":"91139","group":"Group2","condition":"1_Rep","full_date":"2026-02-26T19:06:53.765Z","date":"2026-02-26","time":"19:06:53","cor_ans":true},{"trial_type":"html-keyboard-response","rt":null,"stimulus":"<p style=\"color: green; font-size: 50px; font-weight: bold;\">Correct</p>","response":null,"trial_index":154,"plugin_version":"2.1.0","time_elapsed":315984,"subject_id":"91139","group":"Group2","condition":"1_Rep","full_date":"2026-02-26T19:06:53.765Z","date":"2026-02-26","time":"19:06:53"},{"correct_response":"a","task":"test_phase","broad_category":"I","image_png":"I_Andesite_06.png","image_id":6,"category_name":"Andesite","category":1,"distinct_rating":3.17,"distinct_type":"Bottom","item_type":"Foil","rt":771,"stimulus":"Stimuli_Rocks480/I_Andesite_06.png","response":"l","trial_type":"image-keyboard-response","trial_index":155,"plugin_version":"2.1.0","time_elapsed":316757,"subject_id":"91139","group":"Group2","condition":"1_Rep","full_date":"2026-02-26T19:06:53.765Z","date":"2026-02-26","time":"19:06:53","cor_ans":false},{"trial_type":"html-keyboard-response","rt":null,"stimulus":"<p style=\"color: red; font-size: 50px; font-weight: bold;\">Incorrect</p>","response":null,"trial_index":156,"plugin_version":"2.1.0","time_elapsed":317258,"subject_id":"91139","group":"Group2","condition":"1_Rep","full_date":"2026-02-26T19:06:53.765Z","date":"2026-02-26","time":"19:06:53"},{"correct_response":"l","task":"test_phase","broad_category":"M","image_png":"M_Phyllite_02.png","image_id":258,"category_name":"Phyllite","category":17,"distinct_rating":2.89,"distinct_type":"Bottom","item_type":"Target","rt":1764,"stimulus":"Stimuli_Rocks480/M_Phyllite_02.png","response":"l","trial_type":"image-keyboard-response","trial_index":157,"plugin_version":"2.1.0","time_elapsed":319023,"subject_id":"91139","group":"Group2","condition":"1_Rep","full_date":"2026-02-26T19:06:53.765Z","date":"2026-02-26","time":"19:06:53","cor_ans":true},{"trial_type":"html-keyboard-response","rt":null,"stimulus":"<p style=\"color: green; font-size: 50px; font-weight: bold;\">Correct</p>","response":null,"trial_index":158,"plugin_version":"2.1.0","time_elapsed":319524,"subject_id":"91139","group":"Group2","condition":"1_Rep","full_date":"2026-02-26T19:06:53.765Z","date":"2026-02-26","time":"19:06:53"},{"correct_response":"a","task":"test_phase","broad_category":"I","image_png":"I_Rhyolite_16.png","image_id":160,"category_name":"Rhyolite","category":10,"distinct_rating":2.19,"distinct_type":"Bottom","item_type":"Foil","rt":1455,"stimulus":"Stimuli_Rocks480/I_Rhyolite_16.png","response":"l","trial_type":"image-keyboard-response","trial_index":159,"plugin_version":"2.1.0","time_elapsed":320980,"subject_id":"91139","group":"Group2","condition":"1_Rep","full_date":"2026-02-26T19:06:53.765Z","date":"2026-02-26","time":"19:06:53","cor_ans":false},{"trial_type":"html-keyboard-response","rt":null,"stimulus":"<p style=\"color: red; font-size: 50px; font-weight: bold;\">Incorrect</p>","response":null,"trial_index":160,"plugin_version":"2.1.0","time_elapsed":321482,"subject_id":"91139","group":"Group2","condition":"1_Rep","full_date":"2026-02-26T19:06:53.765Z","date":"2026-02-26","time":"19:06:53"},{"correct_response":"a","task":"test_phase","broad_category":"S","image_png":"S_Chert_10.png","image_id":362,"category_name":"Chert","category":23,"distinct_rating":7.17,"distinct_type":"Top","item_type":"Foil","rt":1246,"stimulus":"Stimuli_Rocks480/S_Chert_10.png","response":"a","trial_type":"image-keyboard-response","trial_index":161,"plugin_version":"2.1.0","time_elapsed":322730,"subject_id":"91139","group":"Group2","condition":"1_Rep","full_date":"2026-02-26T19:06:53.765Z","date":"2026-02-26","time":"19:06:53","cor_ans":true},{"trial_type":"html-keyboard-response","rt":null,"stimulus":"<p style=\"color: green; font-size: 50px; font-weight: bold;\">Correct</p>","response":null,"trial_index":162,"plugin_version":"2.1.0","time_elapsed":323231,"subject_id":"91139","group":"Group2","condition":"1_Rep","full_date":"2026-02-26T19:06:53.765Z","date":"2026-02-26","time":"19:06:53"},{"correct_response":"a","task":"test_phase","broad_category":"I","image_png":"I_Pumice_08.png","image_id":136,"category_name":"Pumice","category":9,"distinct_rating":3.1,"distinct_type":"Bottom","item_type":"Foil","rt":1004,"stimulus":"Stimuli_Rocks480/I_Pumice_08.png","response":"a","trial_type":"image-keyboard-response","trial_index":163,"plugin_version":"2.1.0","time_elapsed":324237,"subject_id":"91139","group":"Group2","condition":"1_Rep","full_date":"2026-02-26T19:06:53.765Z","date":"2026-02-26","time":"19:06:53","cor_ans":true},{"trial_type":"html-keyboard-response","rt":null,"stimulus":"<p style=\"color: green; font-size: 50px; font-weight: bold;\">Correct</p>","response":null,"trial_index":164,"plugin_version":"2.1.0","time_elapsed":324738,"subject_id":"91139","group":"Group2","condition":"1_Rep","full_date":"2026-02-26T19:06:53.765Z","date":"2026-02-26","time":"19:06:53"},{"correct_response":"l","task":"test_phase","broad_category":"M","image_png":"M_Marble_03.png","image_id":227,"category_name":"Marble","category":15,"distinct_rating":2.67,"distinct_type":"Bottom","item_type":"Target","rt":852,"stimulus":"Stimuli_Rocks480/M_Marble_03.png","response":"l","trial_type":"image-keyboard-response","trial_index":165,"plugin_version":"2.1.0","time_elapsed":325592,"subject_id":"91139","group":"Group2","condition":"1_Rep","full_date":"2026-02-26T19:06:53.765Z","date":"2026-02-26","time":"19:06:53","cor_ans":true},{"trial_type":"html-keyboard-response","rt":null,"stimulus":"<p style=\"color: green; font-size: 50px; font-weight: bold;\">Correct</p>","response":null,"trial_index":166,"plugin_version":"2.1.0","time_elapsed":326094,"subject_id":"91139","group":"Group2","condition":"1_Rep","full_date":"2026-02-26T19:06:53.765Z","date":"2026-02-26","time":"19:06:53"},{"correct_response":"a","task":"test_phase","broad_category":"I","image_png":"I_Rhyolite_14.png","image_id":158,"category_name":"Rhyolite","category":10,"distinct_rating":2.59,"distinct_type":"Bottom","item_type":"Foil","rt":416,"stimulus":"Stimuli_Rocks480/I_Rhyolite_14.png","response":"a","trial_type":"image-keyboard-response","trial_index":167,"plugin_version":"2.1.0","time_elapsed":326511,"subject_id":"91139","group":"Group2","condition":"1_Rep","full_date":"2026-02-26T19:06:53.765Z","date":"2026-02-26","time":"19:06:53","cor_ans":true},{"trial_type":"html-keyboard-response","rt":null,"stimulus":"<p style=\"color: green; font-size: 50px; font-weight: bold;\">Correct</p>","response":null,"trial_index":168,"plugin_version":"2.1.0","time_elapsed":327012,"subject_id":"91139","group":"Group2","condition":"1_Rep","full_date":"2026-02-26T19:06:53.765Z","date":"2026-02-26","time":"19:06:53"},{"correct_response":"a","task":"test_phase","broad_category":"I","image_png":"I_Obsidian_05.png","image_id":85,"category_name":"Obsidian","category":6,"distinct_rating":7.32,"distinct_type":"Top","item_type":"Foil","rt":1654,"stimulus":"Stimuli_Rocks480/I_Obsidian_05.png","response":"a","trial_type":"image-keyboard-response","trial_index":169,"plugin_version":"2.1.0","time_elapsed":328668,"subject_id":"91139","group":"Group2","condition":"1_Rep","full_date":"2026-02-26T19:06:53.765Z","date":"2026-02-26","time":"19:06:53","cor_ans":true},{"trial_type":"html-keyboard-response","rt":null,"stimulus":"<p style=\"color: green; font-size: 50px; font-weight: bold;\">Correct</p>","response":null,"trial_index":170,"plugin_version":"2.1.0","time_elapsed":329169,"subject_id":"91139","group":"Group2","condition":"1_Rep","full_date":"2026-02-26T19:06:53.765Z","date":"2026-02-26","time":"19:06:53"},{"correct_response":"l","task":"test_phase","broad_category":"I","image_png":"I_Andesite_03.png","image_id":3,"category_name":"Andesite","category":1,"distinct_rating":3.17,"distinct_type":"Bottom","item_type":"Target","rt":909,"stimulus":"Stimuli_Rocks480/I_Andesite_03.png","response":"a","trial_type":"image-keyboard-response","trial_index":171,"plugin_version":"2.1.0","time_elapsed":330080,"subject_id":"91139","group":"Group2","condition":"1_Rep","full_date":"2026-02-26T19:06:53.765Z","date":"2026-02-26","time":"19:06:53","cor_ans":false},{"trial_type":"html-keyboard-response","rt":null,"stimulus":"<p style=\"color: red; font-size: 50px; font-weight: bold;\">Incorrect</p>","response":null,"trial_index":172,"plugin_version":"2.1.0","time_elapsed":330581,"subject_id":"91139","group":"Group2","condition":"1_Rep","full_date":"2026-02-26T19:06:53.765Z","date":"2026-02-26","time":"19:06:53"},{"correct_response":"l","task":"test_phase","broad_category":"I","image_png":"I_Diorite_15.png","image_id":47,"category_name":"Diorite","category":3,"distinct_rating":3.05,"distinct_type":"Bottom","item_type":"Target","rt":736,"stimulus":"Stimuli_Rocks480/I_Diorite_15.png","response":"l","trial_type":"image-keyboard-response","trial_index":173,"plugin_version":"2.1.0","time_elapsed":331318,"subject_id":"91139","group":"Group2","condition":"1_Rep","full_date":"2026-02-26T19:06:53.765Z","date":"2026-02-26","time":"19:06:53","cor_ans":true},{"trial_type":"html-keyboard-response","rt":null,"stimulus":"<p style=\"color: green; font-size: 50px; font-weight: bold;\">Correct</p>","response":null,"trial_index":174,"plugin_version":"2.1.0","time_elapsed":331820,"subject_id":"91139","group":"Group2","condition":"1_Rep","full_date":"2026-02-26T19:06:53.765Z","date":"2026-02-26","time":"19:06:53"},{"correct_response":"l","task":"test_phase","broad_category":"S","image_png":"S_Shale_07.png","image_id":471,"category_name":"Shale","category":30,"distinct_rating":2.73,"distinct_type":"Bottom","item_type":"Target","rt":903,"stimulus":"Stimuli_Rocks480/S_Shale_07.png","response":"l","trial_type":"image-keyboard-response","trial_index":175,"plugin_version":"2.1.0","time_elapsed":332724,"subject_id":"91139","group":"Group2","condition":"1_Rep","full_date":"2026-02-26T19:06:53.765Z","date":"2026-02-26","time":"19:06:53","cor_ans":true},{"trial_type":"html-keyboard-response","rt":null,"stimulus":"<p style=\"color: green; font-size: 50px; font-weight: bold;\">Correct</p>","response":null,"trial_index":176,"plugin_version":"2.1.0","time_elapsed":333226,"subject_id":"91139","group":"Group2","condition":"1_Rep","full_date":"2026-02-26T19:06:53.765Z","date":"2026-02-26","time":"19:06:53"},{"correct_response":"a","task":"test_phase","broad_category":"S","image_png":"S_Conglomerate_05.png","image_id":373,"category_name":"Conglomerate","category":24,"distinct_rating":7.32,"distinct_type":"Top","item_type":"Foil","rt":1599,"stimulus":"Stimuli_Rocks480/S_Conglomerate_05.png","response":"a","trial_type":"image-keyboard-response","trial_index":177,"plugin_version":"2.1.0","time_elapsed":334827,"subject_id":"91139","group":"Group2","condition":"1_Rep","full_date":"2026-02-26T19:06:53.765Z","date":"2026-02-26","time":"19:06:53","cor_ans":true},{"trial_type":"html-keyboard-response","rt":null,"stimulus":"<p style=\"color: green; font-size: 50px; font-weight: bold;\">Correct</p>","response":null,"trial_index":178,"plugin_version":"2.1.0","time_elapsed":335329,"subject_id":"91139","group":"Group2","condition":"1_Rep","full_date":"2026-02-26T19:06:53.765Z","date":"2026-02-26","time":"19:06:53"},{"correct_response":"a","task":"test_phase","broad_category":"I","image_png":"I_Diorite_04.png","image_id":36,"category_name":"Diorite","category":3,"distinct_rating":2.98,"distinct_type":"Bottom","item_type":"Foil","rt":1014,"stimulus":"Stimuli_Rocks480/I_Diorite_04.png","response":"a","trial_type":"image-keyboard-response","trial_index":179,"plugin_version":"2.1.0","time_elapsed":336344,"subject_id":"91139","group":"Group2","condition":"1_Rep","full_date":"2026-02-26T19:06:53.765Z","date":"2026-02-26","time":"19:06:53","cor_ans":true},{"trial_type":"html-keyboard-response","rt":null,"stimulus":"<p style=\"color: green; font-size: 50px; font-weight: bold;\">Correct</p>","response":null,"trial_index":180,"plugin_version":"2.1.0","time_elapsed":336845,"subject_id":"91139","group":"Group2","condition":"1_Rep","full_date":"2026-02-26T19:06:53.765Z","date":"2026-02-26","time":"19:06:53"},{"correct_response":"l","task":"test_phase","broad_category":"S","image_png":"S_Chert_13.png","image_id":365,"category_name":"Chert","category":23,"distinct_rating":6.57,"distinct_type":"Top","item_type":"Target","rt":1419,"stimulus":"Stimuli_Rocks480/S_Chert_13.png","response":"a","trial_type":"image-keyboard-response","trial_index":181,"plugin_version":"2.1.0","time_elapsed":338266,"subject_id":"91139","group":"Group2","condition":"1_Rep","full_date":"2026-02-26T19:06:53.765Z","date":"2026-02-26","time":"19:06:53","cor_ans":false},{"trial_type":"html-keyboard-response","rt":null,"stimulus":"<p style=\"color: red; font-size: 50px; font-weight: bold;\">Incorrect</p>","response":null,"trial_index":182,"plugin_version":"2.1.0","time_elapsed":338767,"subject_id":"91139","group":"Group2","condition":"1_Rep","full_date":"2026-02-26T19:06:53.765Z","date":"2026-02-26","time":"19:06:53"},{"correct_response":"l","task":"test_phase","broad_category":"S","image_png":"S_Dolomite_07.png","image_id":391,"category_name":"Dolomite","category":25,"distinct_rating":1.73,"distinct_type":"Bottom","item_type":"Target","rt":1435,"stimulus":"Stimuli_Rocks480/S_Dolomite_07.png","response":"l","trial_type":"image-keyboard-response","trial_index":183,"plugin_version":"2.1.0","time_elapsed":340204,"subject_id":"91139","group":"Group2","condition":"1_Rep","full_date":"2026-02-26T19:06:53.765Z","date":"2026-02-26","time":"19:06:53","cor_ans":true},{"trial_type":"html-keyboard-response","rt":null,"stimulus":"<p style=\"color: green; font-size: 50px; font-weight: bold;\">Correct</p>","response":null,"trial_index":184,"plugin_version":"2.1.0","time_elapsed":340706,"subject_id":"91139","group":"Group2","condition":"1_Rep","full_date":"2026-02-26T19:06:53.765Z","date":"2026-02-26","time":"19:06:53"},{"correct_response":"a","task":"test_phase","broad_category":"M","image_png":"M_Phyllite_10.png","image_id":266,"category_name":"Phyllite","category":17,"distinct_rating":2.6,"distinct_type":"Bottom","item_type":"Foil","rt":500,"stimulus":"Stimuli_Rocks480/M_Phyllite_10.png","response":"l","trial_type":"image-keyboard-response","trial_index":185,"plugin_version":"2.1.0","time_elapsed":341207,"subject_id":"91139","group":"Group2","condition":"1_Rep","full_date":"2026-02-26T19:06:53.765Z","date":"2026-02-26","time":"19:06:53","cor_ans":false},{"trial_type":"html-keyboard-response","rt":null,"stimulus":"<p style=\"color: red; font-size: 50px; font-weight: bold;\">Incorrect</p>","response":null,"trial_index":186,"plugin_version":"2.1.0","time_elapsed":341709,"subject_id":"91139","group":"Group2","condition":"1_Rep","full_date":"2026-02-26T19:06:53.765Z","date":"2026-02-26","time":"19:06:53"},{"correct_response":"l","task":"test_phase","broad_category":"S","image_png":"S_Sandstone_08.png","image_id":456,"category_name":"Sandstone","category":29,"distinct_rating":1.5,"distinct_type":"Bottom","item_type":"Target","rt":856,"stimulus":"Stimuli_Rocks480/S_Sandstone_08.png","response":"l","trial_type":"image-keyboard-response","trial_index":187,"plugin_version":"2.1.0","time_elapsed":342566,"subject_id":"91139","group":"Group2","condition":"1_Rep","full_date":"2026-02-26T19:06:53.765Z","date":"2026-02-26","time":"19:06:53","cor_ans":true},{"trial_type":"html-keyboard-response","rt":null,"stimulus":"<p style=\"color: green; font-size: 50px; font-weight: bold;\">Correct</p>","response":null,"trial_index":188,"plugin_version":"2.1.0","time_elapsed":343068,"subject_id":"91139","group":"Group2","condition":"1_Rep","full_date":"2026-02-26T19:06:53.765Z","date":"2026-02-26","time":"19:06:53"},{"correct_response":"a","task":"test_phase","broad_category":"M","image_png":"M_Marble_04.png","image_id":228,"category_name":"Marble","category":15,"distinct_rating":3.15,"distinct_type":"Bottom","item_type":"Foil","rt":1023,"stimulus":"Stimuli_Rocks480/M_Marble_04.png","response":"l","trial_type":"image-keyboard-response","trial_index":189,"plugin_version":"2.1.0","time_elapsed":344093,"subject_id":"91139","group":"Group2","condition":"1_Rep","full_date":"2026-02-26T19:06:53.765Z","date":"2026-02-26","time":"19:06:53","cor_ans":false},{"trial_type":"html-keyboard-response","rt":null,"stimulus":"<p style=\"color: red; font-size: 50px; font-weight: bold;\">Incorrect</p>","response":null,"trial_index":190,"plugin_version":"2.1.0","time_elapsed":344594,"subject_id":"91139","group":"Group2","condition":"1_Rep","full_date":"2026-02-26T19:06:53.765Z","date":"2026-02-26","time":"19:06:53"},{"correct_response":"l","task":"test_phase","broad_category":"I","image_png":"I_Basalt_13.png","image_id":29,"category_name":"Basalt","category":2,"distinct_rating":2.68,"distinct_type":"Bottom","item_type":"Target","rt":951,"stimulus":"Stimuli_Rocks480/I_Basalt_13.png","response":"a","trial_type":"image-keyboard-response","trial_index":191,"plugin_version":"2.1.0","time_elapsed":345546,"subject_id":"91139","group":"Group2","condition":"1_Rep","full_date":"2026-02-26T19:06:53.765Z","date":"2026-02-26","time":"19:06:53","cor_ans":false},{"trial_type":"html-keyboard-response","rt":null,"stimulus":"<p style=\"color: red; font-size: 50px; font-weight: bold;\">Incorrect</p>","response":null,"trial_index":192,"plugin_version":"2.1.0","time_elapsed":346048,"subject_id":"91139","group":"Group2","condition":"1_Rep","full_date":"2026-02-26T19:06:53.765Z","date":"2026-02-26","time":"19:06:53"},{"correct_response":"a","task":"test_phase","broad_category":"M","image_png":"M_Quartzite_08.png","image_id":280,"category_name":"Quartzite","category":18,"distinct_rating":2.15,"distinct_type":"Bottom","item_type":"Foil","rt":799,"stimulus":"Stimuli_Rocks480/M_Quartzite_08.png","response":"l","trial_type":"image-keyboard-response","trial_index":193,"plugin_version":"2.1.0","time_elapsed":346848,"subject_id":"91139","group":"Group2","condition":"1_Rep","full_date":"2026-02-26T19:06:53.765Z","date":"2026-02-26","time":"19:06:53","cor_ans":false},{"trial_type":"html-keyboard-response","rt":null,"stimulus":"<p style=\"color: red; font-size: 50px; font-weight: bold;\">Incorrect</p>","response":null,"trial_index":194,"plugin_version":"2.1.0","time_elapsed":347350,"subject_id":"91139","group":"Group2","condition":"1_Rep","full_date":"2026-02-26T19:06:53.765Z","date":"2026-02-26","time":"19:06:53"},{"correct_response":"a","task":"test_phase","broad_category":"M","image_png":"M_Slate_03.png","image_id":307,"category_name":"Slate","category":20,"distinct_rating":1.87,"distinct_type":"Bottom","item_type":"Foil","rt":436,"stimulus":"Stimuli_Rocks480/M_Slate_03.png","response":"l","trial_type":"image-keyboard-response","trial_index":195,"plugin_version":"2.1.0","time_elapsed":347787,"subject_id":"91139","group":"Group2","condition":"1_Rep","full_date":"2026-02-26T19:06:53.765Z","date":"2026-02-26","time":"19:06:53","cor_ans":false},{"trial_type":"html-keyboard-response","rt":null,"stimulus":"<p style=\"color: red; font-size: 50px; font-weight: bold;\">Incorrect</p>","response":null,"trial_index":196,"plugin_version":"2.1.0","time_elapsed":348289,"subject_id":"91139","group":"Group2","condition":"1_Rep","full_date":"2026-02-26T19:06:53.765Z","date":"2026-02-26","time":"19:06:53"},{"correct_response":"a","task":"test_phase","broad_category":"I","image_png":"I_Pegmatite_16.png","image_id":112,"category_name":"Pegmatite","category":7,"distinct_rating":7.03,"distinct_type":"Top","item_type":"Foil","rt":331,"stimulus":"Stimuli_Rocks480/I_Pegmatite_16.png","response":"a","trial_type":"image-keyboard-response","trial_index":197,"plugin_version":"2.1.0","time_elapsed":348621,"subject_id":"91139","group":"Group2","condition":"1_Rep","full_date":"2026-02-26T19:06:53.765Z","date":"2026-02-26","time":"19:06:53","cor_ans":true},{"trial_type":"html-keyboard-response","rt":null,"stimulus":"<p style=\"color: green; font-size: 50px; font-weight: bold;\">Correct</p>","response":null,"trial_index":198,"plugin_version":"2.1.0","time_elapsed":349123,"subject_id":"91139","group":"Group2","condition":"1_Rep","full_date":"2026-02-26T19:06:53.765Z","date":"2026-02-26","time":"19:06:53"},{"correct_response":"l","task":"test_phase","broad_category":"M","image_png":"M_Slate_04.png","image_id":308,"category_name":"Slate","category":20,"distinct_rating":2.2,"distinct_type":"Bottom","item_type":"Target","rt":1519,"stimulus":"Stimuli_Rocks480/M_Slate_04.png","response":"a","trial_type":"image-keyboard-response","trial_index":199,"plugin_version":"2.1.0","time_elapsed":350643,"subject_id":"91139","group":"Group2","condition":"1_Rep","full_date":"2026-02-26T19:06:53.765Z","date":"2026-02-26","time":"19:06:53","cor_ans":false},{"trial_type":"html-keyboard-response","rt":null,"stimulus":"<p style=\"color: red; font-size: 50px; font-weight: bold;\">Incorrect</p>","response":null,"trial_index":200,"plugin_version":"2.1.0","time_elapsed":351145,"subject_id":"91139","group":"Group2","condition":"1_Rep","full_date":"2026-02-26T19:06:53.765Z","date":"2026-02-26","time":"19:06:53"},{"correct_response":"l","task":"test_phase","broad_category":"M","image_png":"M_Quartzite_07.png","image_id":279,"category_name":"Quartzite","category":18,"distinct_rating":1.97,"distinct_type":"Bottom","item_type":"Target","rt":660,"stimulus":"Stimuli_Rocks480/M_Quartzite_07.png","response":"l","trial_type":"image-keyboard-response","trial_index":201,"plugin_version":"2.1.0","time_elapsed":351806,"subject_id":"91139","group":"Group2","condition":"1_Rep","full_date":"2026-02-26T19:06:53.765Z","date":"2026-02-26","time":"19:06:53","cor_ans":true},{"trial_type":"html-keyboard-response","rt":null,"stimulus":"<p style=\"color: green; font-size: 50px; font-weight: bold;\">Correct</p>","response":null,"trial_index":202,"plugin_version":"2.1.0","time_elapsed":352308,"subject_id":"91139","group":"Group2","condition":"1_Rep","full_date":"2026-02-26T19:06:53.765Z","date":"2026-02-26","time":"19:06:53"},{"correct_response":"l","task":"test_phase","broad_category":"I","image_png":"I_Pegmatite_11.png","image_id":107,"category_name":"Pegmatite","category":7,"distinct_rating":7.11,"distinct_type":"Top","item_type":"Target","rt":854,"stimulus":"Stimuli_Rocks480/I_Pegmatite_11.png","response":"l","trial_type":"image-keyboard-response","trial_index":203,"plugin_version":"2.1.0","time_elapsed":353163,"subject_id":"91139","group":"Group2","condition":"1_Rep","full_date":"2026-02-26T19:06:53.765Z","date":"2026-02-26","time":"19:06:53","cor_ans":true},{"trial_type":"html-keyboard-response","rt":null,"stimulus":"<p style=\"color: green; font-size: 50px; font-weight: bold;\">Correct</p>","response":null,"trial_index":204,"plugin_version":"2.1.0","time_elapsed":353665,"subject_id":"91139","group":"Group2","condition":"1_Rep","full_date":"2026-02-26T19:06:53.765Z","date":"2026-02-26","time":"19:06:53"},{"correct_response":"l","task":"test_phase","broad_category":"I","image_png":"I_Gabbro_14.png","image_id":62,"category_name":"Gabbro","category":4,"distinct_rating":2.95,"distinct_type":"Bottom","item_type":"Target","rt":1010,"stimulus":"Stimuli_Rocks480/I_Gabbro_14.png","response":"l","trial_type":"image-keyboard-response","trial_index":205,"plugin_version":"2.1.0","time_elapsed":354676,"subject_id":"91139","group":"Group2","condition":"1_Rep","full_date":"2026-02-26T19:06:53.765Z","date":"2026-02-26","time":"19:06:53","cor_ans":true},{"trial_type":"html-keyboard-response","rt":null,"stimulus":"<p style=\"color: green; font-size: 50px; font-weight: bold;\">Correct</p>","response":null,"trial_index":206,"plugin_version":"2.1.0","time_elapsed":355177,"subject_id":"91139","group":"Group2","condition":"1_Rep","full_date":"2026-02-26T19:06:53.765Z","date":"2026-02-26","time":"19:06:53"},{"correct_response":"l","task":"test_phase","broad_category":"M","image_png":"M_Gneiss_14.png","image_id":206,"category_name":"Gneiss","category":13,"distinct_rating":3.41,"distinct_type":"Bottom","item_type":"Target","rt":618,"stimulus":"Stimuli_Rocks480/M_Gneiss_14.png","response":"l","trial_type":"image-keyboard-response","trial_index":207,"plugin_version":"2.1.0","time_elapsed":355797,"subject_id":"91139","group":"Group2","condition":"1_Rep","full_date":"2026-02-26T19:06:53.765Z","date":"2026-02-26","time":"19:06:53","cor_ans":true},{"trial_type":"html-keyboard-response","rt":null,"stimulus":"<p style=\"color: green; font-size: 50px; font-weight: bold;\">Correct</p>","response":null,"trial_index":208,"plugin_version":"2.1.0","time_elapsed":356299,"subject_id":"91139","group":"Group2","condition":"1_Rep","full_date":"2026-02-26T19:06:53.765Z","date":"2026-02-26","time":"19:06:53"},{"correct_response":"l","task":"test_phase","broad_category":"I","image_png":"I_Gabbro_02.png","image_id":50,"category_name":"Gabbro","category":4,"distinct_rating":2.73,"distinct_type":"Bottom","item_type":"Target","rt":1131,"stimulus":"Stimuli_Rocks480/I_Gabbro_02.png","response":"l","trial_type":"image-keyboard-response","trial_index":209,"plugin_version":"2.1.0","time_elapsed":357431,"subject_id":"91139","group":"Group2","condition":"1_Rep","full_date":"2026-02-26T19:06:53.765Z","date":"2026-02-26","time":"19:06:53","cor_ans":true},{"trial_type":"html-keyboard-response","rt":null,"stimulus":"<p style=\"color: green; font-size: 50px; font-weight: bold;\">Correct</p>","response":null,"trial_index":210,"plugin_version":"2.1.0","time_elapsed":357932,"subject_id":"91139","group":"Group2","condition":"1_Rep","full_date":"2026-02-26T19:06:53.765Z","date":"2026-02-26","time":"19:06:53"},{"correct_response":"a","task":"test_phase","broad_category":"M","image_png":"M_Quartzite_13.png","image_id":285,"category_name":"Quartzite","category":18,"distinct_rating":2.27,"distinct_type":"Bottom","item_type":"Foil","rt":929,"stimulus":"Stimuli_Rocks480/M_Quartzite_13.png","response":"a","trial_type":"image-keyboard-response","trial_index":211,"plugin_version":"2.1.0","time_elapsed":358863,"subject_id":"91139","group":"Group2","condition":"1_Rep","full_date":"2026-02-26T19:06:53.765Z","date":"2026-02-26","time":"19:06:53","cor_ans":true},{"trial_type":"html-keyboard-response","rt":null,"stimulus":"<p style=\"color: green; font-size: 50px; font-weight: bold;\">Correct</p>","response":null,"trial_index":212,"plugin_version":"2.1.0","time_elapsed":359364,"subject_id":"91139","group":"Group2","condition":"1_Rep","full_date":"2026-02-26T19:06:53.765Z","date":"2026-02-26","time":"19:06:53"},{"correct_response":"l","task":"test_phase","broad_category":"I","image_png":"I_Rhyolite_05.png","image_id":149,"category_name":"Rhyolite","category":10,"distinct_rating":3.02,"distinct_type":"Bottom","item_type":"Target","rt":1125,"stimulus":"Stimuli_Rocks480/I_Rhyolite_05.png","response":"a","trial_type":"image-keyboard-response","trial_index":213,"plugin_version":"2.1.0","time_elapsed":360491,"subject_id":"91139","group":"Group2","condition":"1_Rep","full_date":"2026-02-26T19:06:53.765Z","date":"2026-02-26","time":"19:06:53","cor_ans":false},{"trial_type":"html-keyboard-response","rt":null,"stimulus":"<p style=\"color: red; font-size: 50px; font-weight: bold;\">Incorrect</p>","response":null,"trial_index":214,"plugin_version":"2.1.0","time_elapsed":360992,"subject_id":"91139","group":"Group2","condition":"1_Rep","full_date":"2026-02-26T19:06:53.765Z","date":"2026-02-26","time":"19:06:53"},{"correct_response":"l","task":"test_phase","broad_category":"S","image_png":"S_Conglomerate_14.png","image_id":382,"category_name":"Conglomerate","category":24,"distinct_rating":6.86,"distinct_type":"Top","item_type":"Target","rt":961,"stimulus":"Stimuli_Rocks480/S_Conglomerate_14.png","response":"l","trial_type":"image-keyboard-response","trial_index":215,"plugin_version":"2.1.0","time_elapsed":361955,"subject_id":"91139","group":"Group2","condition":"1_Rep","full_date":"2026-02-26T19:06:53.765Z","date":"2026-02-26","time":"19:06:53","cor_ans":true},{"trial_type":"html-keyboard-response","rt":null,"stimulus":"<p style=\"color: green; font-size: 50px; font-weight: bold;\">Correct</p>","response":null,"trial_index":216,"plugin_version":"2.1.0","time_elapsed":362456,"subject_id":"91139","group":"Group2","condition":"1_Rep","full_date":"2026-02-26T19:06:53.765Z","date":"2026-02-26","time":"19:06:53"},{"correct_response":"a","task":"test_phase","broad_category":"I","image_png":"I_Andesite_08.png","image_id":8,"category_name":"Andesite","category":1,"distinct_rating":1.95,"distinct_type":"Bottom","item_type":"Foil","rt":753,"stimulus":"Stimuli_Rocks480/I_Andesite_08.png","response":"l","trial_type":"image-keyboard-response","trial_index":217,"plugin_version":"2.1.0","time_elapsed":363211,"subject_id":"91139","group":"Group2","condition":"1_Rep","full_date":"2026-02-26T19:06:53.765Z","date":"2026-02-26","time":"19:06:53","cor_ans":false},{"trial_type":"html-keyboard-response","rt":null,"stimulus":"<p style=\"color: red; font-size: 50px; font-weight: bold;\">Incorrect</p>","response":null,"trial_index":218,"plugin_version":"2.1.0","time_elapsed":363712,"subject_id":"91139","group":"Group2","condition":"1_Rep","full_date":"2026-02-26T19:06:53.765Z","date":"2026-02-26","time":"19:06:53"},{"correct_response":"l","task":"test_phase","broad_category":"I","image_png":"I_Andesite_04.png","image_id":4,"category_name":"Andesite","category":1,"distinct_rating":3.18,"distinct_type":"Bottom","item_type":"Target","rt":1605,"stimulus":"Stimuli_Rocks480/I_Andesite_04.png","response":"l","trial_type":"image-keyboard-response","trial_index":219,"plugin_version":"2.1.0","time_elapsed":365318,"subject_id":"91139","group":"Group2","condition":"1_Rep","full_date":"2026-02-26T19:06:53.765Z","date":"2026-02-26","time":"19:06:53","cor_ans":true},{"trial_type":"html-keyboard-response","rt":null,"stimulus":"<p style=\"color: green; font-size: 50px; font-weight: bold;\">Correct</p>","response":null,"trial_index":220,"plugin_version":"2.1.0","time_elapsed":365820,"subject_id":"91139","group":"Group2","condition":"1_Rep","full_date":"2026-02-26T19:06:53.765Z","date":"2026-02-26","time":"19:06:53"},{"correct_response":"l","task":"test_phase","broad_category":"S","image_png":"S_Shale_02.png","image_id":466,"category_name":"Shale","category":30,"distinct_rating":2.9,"distinct_type":"Bottom","item_type":"Target","rt":4994,"stimulus":"Stimuli_Rocks480/S_Shale_02.png","response":"l","trial_type":"image-keyboard-response","trial_index":221,"plugin_version":"2.1.0","time_elapsed":370816,"subject_id":"91139","group":"Group2","condition":"1_Rep","full_date":"2026-02-26T19:06:53.765Z","date":"2026-02-26","time":"19:06:53","cor_ans":true},{"trial_type":"html-keyboard-response","rt":null,"stimulus":"<p style=\"color: green; font-size: 50px; font-weight: bold;\">Correct</p>","response":null,"trial_index":222,"plugin_version":"2.1.0","time_elapsed":371317,"subject_id":"91139","group":"Group2","condition":"1_Rep","full_date":"2026-02-26T19:06:53.765Z","date":"2026-02-26","time":"19:06:53"},{"correct_response":"a","task":"test_phase","broad_category":"I","image_png":"I_Pegmatite_10.png","image_id":106,"category_name":"Pegmatite","category":7,"distinct_rating":7.66,"distinct_type":"Top","item_type":"Foil","rt":947,"stimulus":"Stimuli_Rocks480/I_Pegmatite_10.png","response":"a","trial_type":"image-keyboard-response","trial_index":223,"plugin_version":"2.1.0","time_elapsed":372265,"subject_id":"91139","group":"Group2","condition":"1_Rep","full_date":"2026-02-26T19:06:53.765Z","date":"2026-02-26","time":"19:06:53","cor_ans":true},{"trial_type":"html-keyboard-response","rt":null,"stimulus":"<p style=\"color: green; font-size: 50px; font-weight: bold;\">Correct</p>","response":null,"trial_index":224,"plugin_version":"2.1.0","time_elapsed":372766,"subject_id":"91139","group":"Group2","condition":"1_Rep","full_date":"2026-02-26T19:06:53.765Z","date":"2026-02-26","time":"19:06:53"},{"correct_response":"l","task":"test_phase","broad_category":"M","