[{"width":820,"height":1052,"webaudio":true,"browser":"safari","browser_version":"26.2.0","mobile":false,"os":"Mac OS","fullscreen":true,"vsync_rate":60.54,"webcam":true,"microphone":true,"trial_type":"browser-check","trial_index":0,"plugin_version":"2.1.0","time_elapsed":1001,"subject_id":"92025","group":"Group2","condition":"1_Rep","full_date":"2026-02-12T22:48:32.124Z","date":"2026-02-12","time":"22:48:32"},{"success":true,"timeout":false,"failed_images":[],"failed_audio":[],"failed_video":[],"trial_type":"preload","trial_index":1,"plugin_version":"2.1.0","time_elapsed":6517,"subject_id":"92025","group":"Group2","condition":"1_Rep","full_date":"2026-02-12T22:48:32.124Z","date":"2026-02-12","time":"22:48:32"},{"rt":30074,"url":"SONA_consent_memorability.html","trial_type":"external-html","trial_index":2,"plugin_version":"2.1.0","time_elapsed":36651,"subject_id":"92025","group":"Group2","condition":"1_Rep","full_date":"2026-02-12T22:48:32.124Z","date":"2026-02-12","time":"22:48:32"},{"success":true,"rt":28761,"trial_type":"fullscreen","trial_index":3,"plugin_version":"2.1.0","time_elapsed":66417,"subject_id":"92025","group":"Group2","condition":"1_Rep","full_date":"2026-02-12T22:48:32.124Z","date":"2026-02-12","time":"22:48:32"},{"rt":40375,"stimulus":"<div style=\"max-width: 760px; margin: auto; font-size: 20px; line-height: 1.5;\">\n      <h1 style=\"text-align:center; font-size: 30px;\">Instructions</h1>\n      <p>\n        Welcome to the study on <b>visual memory</b>. This experiment consists of <b>two phases</b>: \n        a <b>study phase</b> and a <b>test phase</b>.\n      </p>\n      <p>\n        In the study phase, you will see a series of rock images along with their category labels.\n        The images will appear one at a time.\n        <b>Your task</b> is to learn the categories to which the rock images belong \n        and to remember each image as accurately as possible.\n      </p> \n      <p>\n        Note that you will see each image only <b>once</b> during the study phase. \n          So, please pay close attention and try to remember each image carefully.\n      </p>\n      <p>\n        After the study phase, <b>your memory will be tested</b>. \n        Additional instructions for the test phase will be provided at that time.\n      </p>\n      <p>\n        If your computer has multiple <b>language settings</b> (e.g., English and another language),\n        please make sure it is set to English before starting.\n      </p>\n      <p>\n        You can track your progress using the <b>completion bar</b> at the top of the screen. \n        Please note that the bar will refresh when the test phase begins \n        to give you an accurate sense of your progress in both phases.\n      </p> \n      <p>\n        Press the button below when you are ready to begin.\n      </p>\n    </div>","response":0,"trial_type":"html-button-response","trial_index":4,"plugin_version":"2.1.0","time_elapsed":106795,"subject_id":"92025","group":"Group2","condition":"1_Rep","full_date":"2026-02-12T22:48:32.124Z","date":"2026-02-12","time":"22:48:32"},{"rt":null,"stimulus":"<p style=\"font-size: 50px; margin: 0; text-align: center;\">+</p>","response":null,"trial_type":"html-keyboard-response","trial_index":5,"plugin_version":"2.1.0","time_elapsed":107799,"subject_id":"92025","group":"Group2","condition":"1_Rep","full_date":"2026-02-12T22:48:32.124Z","date":"2026-02-12","time":"22:48:32"},{"task":"memory_phase","broad_category":"S","image_png":"S_Sandstone_08.png","image_id":456,"category_name":"Sandstone","category":29,"distinct_rating":1.5,"distinct_type":"Bottom","rt":null,"stimulus":"Stimuli_Rocks480/S_Sandstone_08.png","response":null,"trial_type":"image-keyboard-response","trial_index":6,"plugin_version":"2.1.0","time_elapsed":110320,"subject_id":"92025","group":"Group2","condition":"1_Rep","full_date":"2026-02-12T22:48:32.124Z","date":"2026-02-12","time":"22:48:32"},{"rt":null,"stimulus":"<p style=\"font-size: 50px; margin: 0; text-align: center;\">+</p>","response":null,"trial_type":"html-keyboard-response","trial_index":7,"plugin_version":"2.1.0","time_elapsed":111322,"subject_id":"92025","group":"Group2","condition":"1_Rep","full_date":"2026-02-12T22:48:32.124Z","date":"2026-02-12","time":"22:48:32"},{"task":"memory_phase","broad_category":"I","image_png":"I_Diorite_15.png","image_id":47,"category_name":"Diorite","category":3,"distinct_rating":3.05,"distinct_type":"Bottom","rt":null,"stimulus":"Stimuli_Rocks480/I_Diorite_15.png","response":null,"trial_type":"image-keyboard-response","trial_index":8,"plugin_version":"2.1.0","time_elapsed":113839,"subject_id":"92025","group":"Group2","condition":"1_Rep","full_date":"2026-02-12T22:48:32.124Z","date":"2026-02-12","time":"22:48:32"},{"rt":null,"stimulus":"<p style=\"font-size: 50px; margin: 0; text-align: center;\">+</p>","response":null,"trial_type":"html-keyboard-response","trial_index":9,"plugin_version":"2.1.0","time_elapsed":114842,"subject_id":"92025","group":"Group2","condition":"1_Rep","full_date":"2026-02-12T22:48:32.124Z","date":"2026-02-12","time":"22:48:32"},{"task":"memory_phase","broad_category":"M","image_png":"M_Marble_14.png","image_id":238,"category_name":"Marble","category":15,"distinct_rating":3.31,"distinct_type":"Bottom","rt":null,"stimulus":"Stimuli_Rocks480/M_Marble_14.png","response":null,"trial_type":"image-keyboard-response","trial_index":10,"plugin_version":"2.1.0","time_elapsed":117360,"subject_id":"92025","group":"Group2","condition":"1_Rep","full_date":"2026-02-12T22:48:32.124Z","date":"2026-02-12","time":"22:48:32"},{"rt":null,"stimulus":"<p style=\"font-size: 50px; margin: 0; text-align: center;\">+</p>","response":null,"trial_type":"html-keyboard-response","trial_index":11,"plugin_version":"2.1.0","time_elapsed":118363,"subject_id":"92025","group":"Group2","condition":"1_Rep","full_date":"2026-02-12T22:48:32.124Z","date":"2026-02-12","time":"22:48:32"},{"task":"memory_phase","broad_category":"M","image_png":"M_Quartzite_15.png","image_id":287,"category_name":"Quartzite","category":18,"distinct_rating":2.19,"distinct_type":"Bottom","rt":null,"stimulus":"Stimuli_Rocks480/M_Quartzite_15.png","response":null,"trial_type":"image-keyboard-response","trial_index":12,"plugin_version":"2.1.0","time_elapsed":120885,"subject_id":"92025","group":"Group2","condition":"1_Rep","full_date":"2026-02-12T22:48:32.124Z","date":"2026-02-12","time":"22:48:32"},{"rt":null,"stimulus":"<p style=\"font-size: 50px; margin: 0; text-align: center;\">+</p>","response":null,"trial_type":"html-keyboard-response","trial_index":13,"plugin_version":"2.1.0","time_elapsed":121888,"subject_id":"92025","group":"Group2","condition":"1_Rep","full_date":"2026-02-12T22:48:32.124Z","date":"2026-02-12","time":"22:48:32"},{"task":"memory_phase","broad_category":"S","image_png":"S_Rock Salt_13.png","image_id":445,"category_name":"Rock Salt","category":28,"distinct_rating":7.58,"distinct_type":"Top","rt":null,"stimulus":"Stimuli_Rocks480/S_Rock Salt_13.png","response":null,"trial_type":"image-keyboard-response","trial_index":14,"plugin_version":"2.1.0","time_elapsed":124411,"subject_id":"92025","group":"Group2","condition":"1_Rep","full_date":"2026-02-12T22:48:32.124Z","date":"2026-02-12","time":"22:48:32"},{"rt":null,"stimulus":"<p style=\"font-size: 50px; margin: 0; text-align: center;\">+</p>","response":null,"trial_type":"html-keyboard-response","trial_index":15,"plugin_version":"2.1.0","time_elapsed":125414,"subject_id":"92025","group":"Group2","condition":"1_Rep","full_date":"2026-02-12T22:48:32.124Z","date":"2026-02-12","time":"22:48:32"},{"task":"memory_phase","broad_category":"S","image_png":"S_Dolomite_07.png","image_id":391,"category_name":"Dolomite","category":25,"distinct_rating":1.73,"distinct_type":"Bottom","rt":null,"stimulus":"Stimuli_Rocks480/S_Dolomite_07.png","response":null,"trial_type":"image-keyboard-response","trial_index":16,"plugin_version":"2.1.0","time_elapsed":127933,"subject_id":"92025","group":"Group2","condition":"1_Rep","full_date":"2026-02-12T22:48:32.124Z","date":"2026-02-12","time":"22:48:32"},{"rt":null,"stimulus":"<p style=\"font-size: 50px; margin: 0; text-align: center;\">+</p>","response":null,"trial_type":"html-keyboard-response","trial_index":17,"plugin_version":"2.1.0","time_elapsed":128936,"subject_id":"92025","group":"Group2","condition":"1_Rep","full_date":"2026-02-12T22:48:32.124Z","date":"2026-02-12","time":"22:48:32"},{"task":"memory_phase","broad_category":"I","image_png":"I_Peridotite_13.png","image_id":125,"category_name":"Peridotite","category":8,"distinct_rating":7.28,"distinct_type":"Top","rt":null,"stimulus":"Stimuli_Rocks480/I_Peridotite_13.png","response":null,"trial_type":"image-keyboard-response","trial_index":18,"plugin_version":"2.1.0","time_elapsed":131459,"subject_id":"92025","group":"Group2","condition":"1_Rep","full_date":"2026-02-12T22:48:32.124Z","date":"2026-02-12","time":"22:48:32"},{"rt":null,"stimulus":"<p style=\"font-size: 50px; margin: 0; text-align: center;\">+</p>","response":null,"trial_type":"html-keyboard-response","trial_index":19,"plugin_version":"2.1.0","time_elapsed":132462,"subject_id":"92025","group":"Group2","condition":"1_Rep","full_date":"2026-02-12T22:48:32.124Z","date":"2026-02-12","time":"22:48:32"},{"task":"memory_phase","broad_category":"M","image_png":"M_Phyllite_05.png","image_id":261,"category_name":"Phyllite","category":17,"distinct_rating":2.14,"distinct_type":"Bottom","rt":null,"stimulus":"Stimuli_Rocks480/M_Phyllite_05.png","response":null,"trial_type":"image-keyboard-response","trial_index":20,"plugin_version":"2.1.0","time_elapsed":134978,"subject_id":"92025","group":"Group2","condition":"1_Rep","full_date":"2026-02-12T22:48:32.124Z","date":"2026-02-12","time":"22:48:32"},{"rt":null,"stimulus":"<p style=\"font-size: 50px; margin: 0; text-align: center;\">+</p>","response":null,"trial_type":"html-keyboard-response","trial_index":21,"plugin_version":"2.1.0","time_elapsed":135981,"subject_id":"92025","group":"Group2","condition":"1_Rep","full_date":"2026-02-12T22:48:32.124Z","date":"2026-02-12","time":"22:48:32"},{"task":"memory_phase","broad_category":"S","image_png":"S_Chert_13.png","image_id":365,"category_name":"Chert","category":23,"distinct_rating":6.57,"distinct_type":"Top","rt":null,"stimulus":"Stimuli_Rocks480/S_Chert_13.png","response":null,"trial_type":"image-keyboard-response","trial_index":22,"plugin_version":"2.1.0","time_elapsed":138496,"subject_id":"92025","group":"Group2","condition":"1_Rep","full_date":"2026-02-12T22:48:32.124Z","date":"2026-02-12","time":"22:48:32"},{"rt":null,"stimulus":"<p style=\"font-size: 50px; margin: 0; text-align: center;\">+</p>","response":null,"trial_type":"html-keyboard-response","trial_index":23,"plugin_version":"2.1.0","time_elapsed":139499,"subject_id":"92025","group":"Group2","condition":"1_Rep","full_date":"2026-02-12T22:48:32.124Z","date":"2026-02-12","time":"22:48:32"},{"task":"memory_phase","broad_category":"I","image_png":"I_Pumice_13.png","image_id":141,"category_name":"Pumice","category":9,"distinct_rating":3.12,"distinct_type":"Bottom","rt":null,"stimulus":"Stimuli_Rocks480/I_Pumice_13.png","response":null,"trial_type":"image-keyboard-response","trial_index":24,"plugin_version":"2.1.0","time_elapsed":142019,"subject_id":"92025","group":"Group2","condition":"1_Rep","full_date":"2026-02-12T22:48:32.124Z","date":"2026-02-12","time":"22:48:32"},{"rt":null,"stimulus":"<p style=\"font-size: 50px; margin: 0; text-align: center;\">+</p>","response":null,"trial_type":"html-keyboard-response","trial_index":25,"plugin_version":"2.1.0","time_elapsed":143022,"subject_id":"92025","group":"Group2","condition":"1_Rep","full_date":"2026-02-12T22:48:32.124Z","date":"2026-02-12","time":"22:48:32"},{"task":"memory_phase","broad_category":"M","image_png":"M_Quartzite_07.png","image_id":279,"category_name":"Quartzite","category":18,"distinct_rating":1.97,"distinct_type":"Bottom","rt":null,"stimulus":"Stimuli_Rocks480/M_Quartzite_07.png","response":null,"trial_type":"image-keyboard-response","trial_index":26,"plugin_version":"2.1.0","time_elapsed":145545,"subject_id":"92025","group":"Group2","condition":"1_Rep","full_date":"2026-02-12T22:48:32.124Z","date":"2026-02-12","time":"22:48:32"},{"rt":null,"stimulus":"<p style=\"font-size: 50px; margin: 0; text-align: center;\">+</p>","response":null,"trial_type":"html-keyboard-response","trial_index":27,"plugin_version":"2.1.0","time_elapsed":146548,"subject_id":"92025","group":"Group2","condition":"1_Rep","full_date":"2026-02-12T22:48:32.124Z","date":"2026-02-12","time":"22:48:32"},{"task":"memory_phase","broad_category":"M","image_png":"M_Phyllite_13.png","image_id":269,"category_name":"Phyllite","category":17,"distinct_rating":2.8,"distinct_type":"Bottom","rt":null,"stimulus":"Stimuli_Rocks480/M_Phyllite_13.png","response":null,"trial_type":"image-keyboard-response","trial_index":28,"plugin_version":"2.1.0","time_elapsed":149067,"subject_id":"92025","group":"Group2","condition":"1_Rep","full_date":"2026-02-12T22:48:32.124Z","date":"2026-02-12","time":"22:48:32"},{"rt":null,"stimulus":"<p style=\"font-size: 50px; margin: 0; text-align: center;\">+</p>","response":null,"trial_type":"html-keyboard-response","trial_index":29,"plugin_version":"2.1.0","time_elapsed":150070,"subject_id":"92025","group":"Group2","condition":"1_Rep","full_date":"2026-02-12T22:48:32.124Z","date":"2026-02-12","time":"22:48:32"},{"task":"memory_phase","broad_category":"S","image_png":"S_Sandstone_11.png","image_id":459,"category_name":"Sandstone","category":29,"distinct_rating":1.82,"distinct_type":"Bottom","rt":null,"stimulus":"Stimuli_Rocks480/S_Sandstone_11.png","response":null,"trial_type":"image-keyboard-response","trial_index":30,"plugin_version":"2.1.0","time_elapsed":152595,"subject_id":"92025","group":"Group2","condition":"1_Rep","full_date":"2026-02-12T22:48:32.124Z","date":"2026-02-12","time":"22:48:32"},{"rt":null,"stimulus":"<p style=\"font-size: 50px; margin: 0; text-align: center;\">+</p>","response":null,"trial_type":"html-keyboard-response","trial_index":31,"plugin_version":"2.1.0","time_elapsed":153597,"subject_id":"92025","group":"Group2","condition":"1_Rep","full_date":"2026-02-12T22:48:32.124Z","date":"2026-02-12","time":"22:48:32"},{"task":"memory_phase","broad_category":"I","image_png":"I_Rhyolite_08.png","image_id":152,"category_name":"Rhyolite","category":10,"distinct_rating":1.38,"distinct_type":"Bottom","rt":null,"stimulus":"Stimuli_Rocks480/I_Rhyolite_08.png","response":null,"trial_type":"image-keyboard-response","trial_index":32,"plugin_version":"2.1.0","time_elapsed":156116,"subject_id":"92025","group":"Group2","condition":"1_Rep","full_date":"2026-02-12T22:48:32.124Z","date":"2026-02-12","time":"22:48:32"},{"rt":null,"stimulus":"<p style=\"font-size: 50px; margin: 0; text-align: center;\">+</p>","response":null,"trial_type":"html-keyboard-response","trial_index":33,"plugin_version":"2.1.0","time_elapsed":157119,"subject_id":"92025","group":"Group2","condition":"1_Rep","full_date":"2026-02-12T22:48:32.124Z","date":"2026-02-12","time":"22:48:32"},{"task":"memory_phase","broad_category":"S","image_png":"S_Dolomite_01.png","image_id":385,"category_name":"Dolomite","category":25,"distinct_rating":1.43,"distinct_type":"Bottom","rt":null,"stimulus":"Stimuli_Rocks480/S_Dolomite_01.png","response":null,"trial_type":"image-keyboard-response","trial_index":34,"plugin_version":"2.1.0","time_elapsed":159642,"subject_id":"92025","group":"Group2","condition":"1_Rep","full_date":"2026-02-12T22:48:32.124Z","date":"2026-02-12","time":"22:48:32"},{"rt":null,"stimulus":"<p style=\"font-size: 50px; margin: 0; text-align: center;\">+</p>","response":null,"trial_type":"html-keyboard-response","trial_index":35,"plugin_version":"2.1.0","time_elapsed":160645,"subject_id":"92025","group":"Group2","condition":"1_Rep","full_date":"2026-02-12T22:48:32.124Z","date":"2026-02-12","time":"22:48:32"},{"task":"memory_phase","broad_category":"M","image_png":"M_Slate_10.png","image_id":314,"category_name":"Slate","category":20,"distinct_rating":1.94,"distinct_type":"Bottom","rt":null,"stimulus":"Stimuli_Rocks480/M_Slate_10.png","response":null,"trial_type":"image-keyboard-response","trial_index":36,"plugin_version":"2.1.0","time_elapsed":163160,"subject_id":"92025","group":"Group2","condition":"1_Rep","full_date":"2026-02-12T22:48:32.124Z","date":"2026-02-12","time":"22:48:32"},{"rt":null,"stimulus":"<p style=\"font-size: 50px; margin: 0; text-align: center;\">+</p>","response":null,"trial_type":"html-keyboard-response","trial_index":37,"plugin_version":"2.1.0","time_elapsed":164163,"subject_id":"92025","group":"Group2","condition":"1_Rep","full_date":"2026-02-12T22:48:32.124Z","date":"2026-02-12","time":"22:48:32"},{"task":"memory_phase","broad_category":"I","image_png":"I_Rhyolite_05.png","image_id":149,"category_name":"Rhyolite","category":10,"distinct_rating":3.02,"distinct_type":"Bottom","rt":null,"stimulus":"Stimuli_Rocks480/I_Rhyolite_05.png","response":null,"trial_type":"image-keyboard-response","trial_index":38,"plugin_version":"2.1.0","time_elapsed":166686,"subject_id":"92025","group":"Group2","condition":"1_Rep","full_date":"2026-02-12T22:48:32.124Z","date":"2026-02-12","time":"22:48:32"},{"rt":null,"stimulus":"<p style=\"font-size: 50px; margin: 0; text-align: center;\">+</p>","response":null,"trial_type":"html-keyboard-response","trial_index":39,"plugin_version":"2.1.0","time_elapsed":167689,"subject_id":"92025","group":"Group2","condition":"1_Rep","full_date":"2026-02-12T22:48:32.124Z","date":"2026-02-12","time":"22:48:32"},{"task":"memory_phase","broad_category":"I","image_png":"I_Obsidian_06.png","image_id":86,"category_name":"Obsidian","category":6,"distinct_rating":8.01,"distinct_type":"Top","rt":null,"stimulus":"Stimuli_Rocks480/I_Obsidian_06.png","response":null,"trial_type":"image-keyboard-response","trial_index":40,"plugin_version":"2.1.0","time_elapsed":170212,"subject_id":"92025","group":"Group2","condition":"1_Rep","full_date":"2026-02-12T22:48:32.124Z","date":"2026-02-12","time":"22:48:32"},{"rt":null,"stimulus":"<p style=\"font-size: 50px; margin: 0; text-align: center;\">+</p>","response":null,"trial_type":"html-keyboard-response","trial_index":41,"plugin_version":"2.1.0","time_elapsed":171216,"subject_id":"92025","group":"Group2","condition":"1_Rep","full_date":"2026-02-12T22:48:32.124Z","date":"2026-02-12","time":"22:48:32"},{"task":"memory_phase","broad_category":"I","image_png":"I_Basalt_13.png","image_id":29,"category_name":"Basalt","category":2,"distinct_rating":2.68,"distinct_type":"Bottom","rt":null,"stimulus":"Stimuli_Rocks480/I_Basalt_13.png","response":null,"trial_type":"image-keyboard-response","trial_index":42,"plugin_version":"2.1.0","time_elapsed":173733,"subject_id":"92025","group":"Group2","condition":"1_Rep","full_date":"2026-02-12T22:48:32.124Z","date":"2026-02-12","time":"22:48:32"},{"rt":null,"stimulus":"<p style=\"font-size: 50px; margin: 0; text-align: center;\">+</p>","response":null,"trial_type":"html-keyboard-response","trial_index":43,"plugin_version":"2.1.0","time_elapsed":174736,"subject_id":"92025","group":"Group2","condition":"1_Rep","full_date":"2026-02-12T22:48:32.124Z","date":"2026-02-12","time":"22:48:32"},{"task":"memory_phase","broad_category":"I","image_png":"I_Basalt_08.png","image_id":24,"category_name":"Basalt","category":2,"distinct_rating":2.31,"distinct_type":"Bottom","rt":null,"stimulus":"Stimuli_Rocks480/I_Basalt_08.png","response":null,"trial_type":"image-keyboard-response","trial_index":44,"plugin_version":"2.1.0","time_elapsed":177263,"subject_id":"92025","group":"Group2","condition":"1_Rep","full_date":"2026-02-12T22:48:32.124Z","date":"2026-02-12","time":"22:48:32"},{"rt":null,"stimulus":"<p style=\"font-size: 50px; margin: 0; text-align: center;\">+</p>","response":null,"trial_type":"html-keyboard-response","trial_index":45,"plugin_version":"2.1.0","time_elapsed":178266,"subject_id":"92025","group":"Group2","condition":"1_Rep","full_date":"2026-02-12T22:48:32.124Z","date":"2026-02-12","time":"22:48:32"},{"task":"memory_phase","broad_category":"M","image_png":"M_Phyllite_02.png","image_id":258,"category_name":"Phyllite","category":17,"distinct_rating":2.89,"distinct_type":"Bottom","rt":null,"stimulus":"Stimuli_Rocks480/M_Phyllite_02.png","response":null,"trial_type":"image-keyboard-response","trial_index":46,"plugin_version":"2.1.0","time_elapsed":180793,"subject_id":"92025","group":"Group2","condition":"1_Rep","full_date":"2026-02-12T22:48:32.124Z","date":"2026-02-12","time":"22:48:32"},{"rt":null,"stimulus":"<p style=\"font-size: 50px; margin: 0; text-align: center;\">+</p>","response":null,"trial_type":"html-keyboard-response","trial_index":47,"plugin_version":"2.1.0","time_elapsed":181796,"subject_id":"92025","group":"Group2","condition":"1_Rep","full_date":"2026-02-12T22:48:32.124Z","date":"2026-02-12","time":"22:48:32"},{"task":"memory_phase","broad_category":"S","image_png":"S_Conglomerate_14.png","image_id":382,"category_name":"Conglomerate","category":24,"distinct_rating":6.86,"distinct_type":"Top","rt":null,"stimulus":"Stimuli_Rocks480/S_Conglomerate_14.png","response":null,"trial_type":"image-keyboard-response","trial_index":48,"plugin_version":"2.1.0","time_elapsed":184318,"subject_id":"92025","group":"Group2","condition":"1_Rep","full_date":"2026-02-12T22:48:32.124Z","date":"2026-02-12","time":"22:48:32"},{"rt":null,"stimulus":"<p style=\"font-size: 50px; margin: 0; text-align: center;\">+</p>","response":null,"trial_type":"html-keyboard-response","trial_index":49,"plugin_version":"2.1.0","time_elapsed":185321,"subject_id":"92025","group":"Group2","condition":"1_Rep","full_date":"2026-02-12T22:48:32.124Z","date":"2026-02-12","time":"22:48:32"},{"task":"memory_phase","broad_category":"I","image_png":"I_Pumice_01.png","image_id":129,"category_name":"Pumice","category":9,"distinct_rating":3.25,"distinct_type":"Bottom","rt":null,"stimulus":"Stimuli_Rocks480/I_Pumice_01.png","response":null,"trial_type":"image-keyboard-response","trial_index":50,"plugin_version":"2.1.0","time_elapsed":187838,"subject_id":"92025","group":"Group2","condition":"1_Rep","full_date":"2026-02-12T22:48:32.124Z","date":"2026-02-12","time":"22:48:32"},{"rt":null,"stimulus":"<p style=\"font-size: 50px; margin: 0; text-align: center;\">+</p>","response":null,"trial_type":"html-keyboard-response","trial_index":51,"plugin_version":"2.1.0","time_elapsed":188841,"subject_id":"92025","group":"Group2","condition":"1_Rep","full_date":"2026-02-12T22:48:32.124Z","date":"2026-02-12","time":"22:48:32"},{"task":"memory_phase","broad_category":"I","image_png":"I_Pegmatite_11.png","image_id":107,"category_name":"Pegmatite","category":7,"distinct_rating":7.11,"distinct_type":"Top","rt":null,"stimulus":"Stimuli_Rocks480/I_Pegmatite_11.png","response":null,"trial_type":"image-keyboard-response","trial_index":52,"plugin_version":"2.1.0","time_elapsed":191366,"subject_id":"92025","group":"Group2","condition":"1_Rep","full_date":"2026-02-12T22:48:32.124Z","date":"2026-02-12","time":"22:48:32"},{"rt":null,"stimulus":"<p style=\"font-size: 50px; margin: 0; text-align: center;\">+</p>","response":null,"trial_type":"html-keyboard-response","trial_index":53,"plugin_version":"2.1.0","time_elapsed":192368,"subject_id":"92025","group":"Group2","condition":"1_Rep","full_date":"2026-02-12T22:48:32.124Z","date":"2026-02-12","time":"22:48:32"},{"task":"memory_phase","broad_category":"S","image_png":"S_Rock Salt_15.png","image_id":447,"category_name":"Rock Salt","category":28,"distinct_rating":7.79,"distinct_type":"Top","rt":null,"stimulus":"Stimuli_Rocks480/S_Rock Salt_15.png","response":null,"trial_type":"image-keyboard-response","trial_index":54,"plugin_version":"2.1.0","time_elapsed":194887,"subject_id":"92025","group":"Group2","condition":"1_Rep","full_date":"2026-02-12T22:48:32.124Z","date":"2026-02-12","time":"22:48:32"},{"rt":173301,"stimulus":"<p style=\"max-width: 760px; margin: auto; font-size: 35px; line-height: 1.5;\">\n                Press SPACE to continue study phase\n              </p>","response":" ","trial_type":"html-keyboard-response","trial_index":55,"plugin_version":"2.1.0","time_elapsed":368190,"subject_id":"92025","group":"Group2","condition":"1_Rep","full_date":"2026-02-12T22:48:32.124Z","date":"2026-02-12","time":"22:48:32"},{"rt":null,"stimulus":"<p style=\"font-size: 50px; margin: 0; text-align: center;\">+</p>","response":null,"trial_type":"html-keyboard-response","trial_index":56,"plugin_version":"2.1.0","time_elapsed":369195,"subject_id":"92025","group":"Group2","condition":"1_Rep","full_date":"2026-02-12T22:48:32.124Z","date":"2026-02-12","time":"22:48:32"},{"task":"memory_phase","broad_category":"S","image_png":"S_Shale_07.png","image_id":471,"category_name":"Shale","category":30,"distinct_rating":2.73,"distinct_type":"Bottom","rt":null,"stimulus":"Stimuli_Rocks480/S_Shale_07.png","response":null,"trial_type":"image-keyboard-response","trial_index":57,"plugin_version":"2.1.0","time_elapsed":371713,"subject_id":"92025","group":"Group2","condition":"1_Rep","full_date":"2026-02-12T22:48:32.124Z","date":"2026-02-12","time":"22:48:32"},{"rt":null,"stimulus":"<p style=\"font-size: 50px; margin: 0; text-align: center;\">+</p>","response":null,"trial_type":"html-keyboard-response","trial_index":58,"plugin_version":"2.1.0","time_elapsed":372715,"subject_id":"92025","group":"Group2","condition":"1_Rep","full_date":"2026-02-12T22:48:32.124Z","date":"2026-02-12","time":"22:48:32"},{"task":"memory_phase","broad_category":"I","image_png":"I_Gabbro_14.png","image_id":62,"category_name":"Gabbro","category":4,"distinct_rating":2.95,"distinct_type":"Bottom","rt":null,"stimulus":"Stimuli_Rocks480/I_Gabbro_14.png","response":null,"trial_type":"image-keyboard-response","trial_index":59,"plugin_version":"2.1.0","time_elapsed":375238,"subject_id":"92025","group":"Group2","condition":"1_Rep","full_date":"2026-02-12T22:48:32.124Z","date":"2026-02-12","time":"22:48:32"},{"rt":null,"stimulus":"<p style=\"font-size: 50px; margin: 0; text-align: center;\">+</p>","response":null,"trial_type":"html-keyboard-response","trial_index":60,"plugin_version":"2.1.0","time_elapsed":376241,"subject_id":"92025","group":"Group2","condition":"1_Rep","full_date":"2026-02-12T22:48:32.124Z","date":"2026-02-12","time":"22:48:32"},{"task":"memory_phase","broad_category":"I","image_png":"I_Gabbro_12.png","image_id":60,"category_name":"Gabbro","category":4,"distinct_rating":2.6,"distinct_type":"Bottom","rt":null,"stimulus":"Stimuli_Rocks480/I_Gabbro_12.png","response":null,"trial_type":"image-keyboard-response","trial_index":61,"plugin_version":"2.1.0","time_elapsed":378765,"subject_id":"92025","group":"Group2","condition":"1_Rep","full_date":"2026-02-12T22:48:32.124Z","date":"2026-02-12","time":"22:48:32"},{"rt":null,"stimulus":"<p style=\"font-size: 50px; margin: 0; text-align: center;\">+</p>","response":null,"trial_type":"html-keyboard-response","trial_index":62,"plugin_version":"2.1.0","time_elapsed":379768,"subject_id":"92025","group":"Group2","condition":"1_Rep","full_date":"2026-02-12T22:48:32.124Z","date":"2026-02-12","time":"22:48:32"},{"task":"memory_phase","broad_category":"I","image_png":"I_Andesite_04.png","image_id":4,"category_name":"Andesite","category":1,"distinct_rating":3.18,"distinct_type":"Bottom","rt":null,"stimulus":"Stimuli_Rocks480/I_Andesite_04.png","response":null,"trial_type":"image-keyboard-response","trial_index":63,"plugin_version":"2.1.0","time_elapsed":382287,"subject_id":"92025","group":"Group2","condition":"1_Rep","full_date":"2026-02-12T22:48:32.124Z","date":"2026-02-12","time":"22:48:32"},{"rt":null,"stimulus":"<p style=\"font-size: 50px; margin: 0; text-align: center;\">+</p>","response":null,"trial_type":"html-keyboard-response","trial_index":64,"plugin_version":"2.1.0","time_elapsed":383290,"subject_id":"92025","group":"Group2","condition":"1_Rep","full_date":"2026-02-12T22:48:32.124Z","date":"2026-02-12","time":"22:48:32"},{"task":"memory_phase","broad_category":"I","image_png":"I_Rhyolite_10.png","image_id":154,"category_name":"Rhyolite","category":10,"distinct_rating":2.88,"distinct_type":"Bottom","rt":null,"stimulus":"Stimuli_Rocks480/I_Rhyolite_10.png","response":null,"trial_type":"image-keyboard-response","trial_index":65,"plugin_version":"2.1.0","time_elapsed":385818,"subject_id":"92025","group":"Group2","condition":"1_Rep","full_date":"2026-02-12T22:48:32.124Z","date":"2026-02-12","time":"22:48:32"},{"rt":null,"stimulus":"<p style=\"font-size: 50px; margin: 0; text-align: center;\">+</p>","response":null,"trial_type":"html-keyboard-response","trial_index":66,"plugin_version":"2.1.0","time_elapsed":386821,"subject_id":"92025","group":"Group2","condition":"1_Rep","full_date":"2026-02-12T22:48:32.124Z","date":"2026-02-12","time":"22:48:32"},{"task":"memory_phase","broad_category":"M","image_png":"M_Gneiss_15.png","image_id":207,"category_name":"Gneiss","category":13,"distinct_rating":3.11,"distinct_type":"Bottom","rt":null,"stimulus":"Stimuli_Rocks480/M_Gneiss_15.png","response":null,"trial_type":"image-keyboard-response","trial_index":67,"plugin_version":"2.1.0","time_elapsed":389336,"subject_id":"92025","group":"Group2","condition":"1_Rep","full_date":"2026-02-12T22:48:32.124Z","date":"2026-02-12","time":"22:48:32"},{"rt":null,"stimulus":"<p style=\"font-size: 50px; margin: 0; text-align: center;\">+</p>","response":null,"trial_type":"html-keyboard-response","trial_index":68,"plugin_version":"2.1.0","time_elapsed":390339,"subject_id":"92025","group":"Group2","condition":"1_Rep","full_date":"2026-02-12T22:48:32.124Z","date":"2026-02-12","time":"22:48:32"},{"task":"memory_phase","broad_category":"I","image_png":"I_Diorite_01.png","image_id":33,"category_name":"Diorite","category":3,"distinct_rating":2.97,"distinct_type":"Bottom","rt":null,"stimulus":"Stimuli_Rocks480/I_Diorite_01.png","response":null,"trial_type":"image-keyboard-response","trial_index":69,"plugin_version":"2.1.0","time_elapsed":392866,"subject_id":"92025","group":"Group2","condition":"1_Rep","full_date":"2026-02-12T22:48:32.124Z","date":"2026-02-12","time":"22:48:32"},{"rt":null,"stimulus":"<p style=\"font-size: 50px; margin: 0; text-align: center;\">+</p>","response":null,"trial_type":"html-keyboard-response","trial_index":70,"plugin_version":"2.1.0","time_elapsed":393869,"subject_id":"92025","group":"Group2","condition":"1_Rep","full_date":"2026-02-12T22:48:32.124Z","date":"2026-02-12","time":"22:48:32"},{"task":"memory_phase","broad_category":"S","image_png":"S_Sandstone_04.png","image_id":452,"category_name":"Sandstone","category":29,"distinct_rating":1.8,"distinct_type":"Bottom","rt":null,"stimulus":"Stimuli_Rocks480/S_Sandstone_04.png","response":null,"trial_type":"image-keyboard-response","trial_index":71,"plugin_version":"2.1.0","time_elapsed":396388,"subject_id":"92025","group":"Group2","condition":"1_Rep","full_date":"2026-02-12T22:48:32.124Z","date":"2026-02-12","time":"22:48:32"},{"rt":null,"stimulus":"<p style=\"font-size: 50px; margin: 0; text-align: center;\">+</p>","response":null,"trial_type":"html-keyboard-response","trial_index":72,"plugin_version":"2.1.0","time_elapsed":397391,"subject_id":"92025","group":"Group2","condition":"1_Rep","full_date":"2026-02-12T22:48:32.124Z","date":"2026-02-12","time":"22:48:32"},{"task":"memory_phase","broad_category":"I","image_png":"I_Gabbro_02.png","image_id":50,"category_name":"Gabbro","category":4,"distinct_rating":2.73,"distinct_type":"Bottom","rt":null,"stimulus":"Stimuli_Rocks480/I_Gabbro_02.png","response":null,"trial_type":"image-keyboard-response","trial_index":73,"plugin_version":"2.1.0","time_elapsed":399909,"subject_id":"92025","group":"Group2","condition":"1_Rep","full_date":"2026-02-12T22:48:32.124Z","date":"2026-02-12","time":"22:48:32"},{"rt":null,"stimulus":"<p style=\"font-size: 50px; margin: 0; text-align: center;\">+</p>","response":null,"trial_type":"html-keyboard-response","trial_index":74,"plugin_version":"2.1.0","time_elapsed":400913,"subject_id":"92025","group":"Group2","condition":"1_Rep","full_date":"2026-02-12T22:48:32.124Z","date":"2026-02-12","time":"22:48:32"},{"task":"memory_phase","broad_category":"M","image_png":"M_Marble_03.png","image_id":227,"category_name":"Marble","category":15,"distinct_rating":2.67,"distinct_type":"Bottom","rt":null,"stimulus":"Stimuli_Rocks480/M_Marble_03.png","response":null,"trial_type":"image-keyboard-response","trial_index":75,"plugin_version":"2.1.0","time_elapsed":403432,"subject_id":"92025","group":"Group2","condition":"1_Rep","full_date":"2026-02-12T22:48:32.124Z","date":"2026-02-12","time":"22:48:32"},{"rt":null,"stimulus":"<p style=\"font-size: 50px; margin: 0; text-align: center;\">+</p>","response":null,"trial_type":"html-keyboard-response","trial_index":76,"plugin_version":"2.1.0","time_elapsed":404435,"subject_id":"92025","group":"Group2","condition":"1_Rep","full_date":"2026-02-12T22:48:32.124Z","date":"2026-02-12","time":"22:48:32"},{"task":"memory_phase","broad_category":"S","image_png":"S_Shale_03.png","image_id":467,"category_name":"Shale","category":30,"distinct_rating":1.95,"distinct_type":"Bottom","rt":null,"stimulus":"Stimuli_Rocks480/S_Shale_03.png","response":null,"trial_type":"image-keyboard-response","trial_index":77,"plugin_version":"2.1.0","time_elapsed":406958,"subject_id":"92025","group":"Group2","condition":"1_Rep","full_date":"2026-02-12T22:48:32.124Z","date":"2026-02-12","time":"22:48:32"},{"rt":null,"stimulus":"<p style=\"font-size: 50px; margin: 0; text-align: center;\">+</p>","response":null,"trial_type":"html-keyboard-response","trial_index":78,"plugin_version":"2.1.0","time_elapsed":407960,"subject_id":"92025","group":"Group2","condition":"1_Rep","full_date":"2026-02-12T22:48:32.124Z","date":"2026-02-12","time":"22:48:32"},{"task":"memory_phase","broad_category":"S","image_png":"S_Dolomite_16.png","image_id":400,"category_name":"Dolomite","category":25,"distinct_rating":1.71,"distinct_type":"Bottom","rt":null,"stimulus":"Stimuli_Rocks480/S_Dolomite_16.png","response":null,"trial_type":"image-keyboard-response","trial_index":79,"plugin_version":"2.1.0","time_elapsed":410482,"subject_id":"92025","group":"Group2","condition":"1_Rep","full_date":"2026-02-12T22:48:32.124Z","date":"2026-02-12","time":"22:48:32"},{"rt":null,"stimulus":"<p style=\"font-size: 50px; margin: 0; text-align: center;\">+</p>","response":null,"trial_type":"html-keyboard-response","trial_index":80,"plugin_version":"2.1.0","time_elapsed":411485,"subject_id":"92025","group":"Group2","condition":"1_Rep","full_date":"2026-02-12T22:48:32.124Z","date":"2026-02-12","time":"22:48:32"},{"task":"memory_phase","broad_category":"I","image_png":"I_Andesite_03.png","image_id":3,"category_name":"Andesite","category":1,"distinct_rating":3.17,"distinct_type":"Bottom","rt":null,"stimulus":"Stimuli_Rocks480/I_Andesite_03.png","response":null,"trial_type":"image-keyboard-response","trial_index":81,"plugin_version":"2.1.0","time_elapsed":414000,"subject_id":"92025","group":"Group2","condition":"1_Rep","full_date":"2026-02-12T22:48:32.124Z","date":"2026-02-12","time":"22:48:32"},{"rt":null,"stimulus":"<p style=\"font-size: 50px; margin: 0; text-align: center;\">+</p>","response":null,"trial_type":"html-keyboard-response","trial_index":82,"plugin_version":"2.1.0","time_elapsed":415003,"subject_id":"92025","group":"Group2","condition":"1_Rep","full_date":"2026-02-12T22:48:32.124Z","date":"2026-02-12","time":"22:48:32"},{"task":"memory_phase","broad_category":"I","image_png":"I_Pumice_14.png","image_id":142,"category_name":"Pumice","category":9,"distinct_rating":3.22,"distinct_type":"Bottom","rt":null,"stimulus":"Stimuli_Rocks480/I_Pumice_14.png","response":null,"trial_type":"image-keyboard-response","trial_index":83,"plugin_version":"2.1.0","time_elapsed":417522,"subject_id":"92025","group":"Group2","condition":"1_Rep","full_date":"2026-02-12T22:48:32.124Z","date":"2026-02-12","time":"22:48:32"},{"rt":null,"stimulus":"<p style=\"font-size: 50px; margin: 0; text-align: center;\">+</p>","response":null,"trial_type":"html-keyboard-response","trial_index":84,"plugin_version":"2.1.0","time_elapsed":418525,"subject_id":"92025","group":"Group2","condition":"1_Rep","full_date":"2026-02-12T22:48:32.124Z","date":"2026-02-12","time":"22:48:32"},{"task":"memory_phase","broad_category":"M","image_png":"M_Slate_04.png","image_id":308,"category_name":"Slate","category":20,"distinct_rating":2.2,"distinct_type":"Bottom","rt":null,"stimulus":"Stimuli_Rocks480/M_Slate_04.png","response":null,"trial_type":"image-keyboard-response","trial_index":85,"plugin_version":"2.1.0","time_elapsed":421041,"subject_id":"92025","group":"Group2","condition":"1_Rep","full_date":"2026-02-12T22:48:32.124Z","date":"2026-02-12","time":"22:48:32"},{"rt":null,"stimulus":"<p style=\"font-size: 50px; margin: 0; text-align: center;\">+</p>","response":null,"trial_type":"html-keyboard-response","trial_index":86,"plugin_version":"2.1.0","time_elapsed":422044,"subject_id":"92025","group":"Group2","condition":"1_Rep","full_date":"2026-02-12T22:48:32.124Z","date":"2026-02-12","time":"22:48:32"},{"task":"memory_phase","broad_category":"M","image_png":"M_Gneiss_14.png","image_id":206,"category_name":"Gneiss","category":13,"distinct_rating":3.41,"distinct_type":"Bottom","rt":null,"stimulus":"Stimuli_Rocks480/M_Gneiss_14.png","response":null,"trial_type":"image-keyboard-response","trial_index":87,"plugin_version":"2.1.0","time_elapsed":424564,"subject_id":"92025","group":"Group2","condition":"1_Rep","full_date":"2026-02-12T22:48:32.124Z","date":"2026-02-12","time":"22:48:32"},{"rt":null,"stimulus":"<p style=\"font-size: 50px; margin: 0; text-align: center;\">+</p>","response":null,"trial_type":"html-keyboard-response","trial_index":88,"plugin_version":"2.1.0","time_elapsed":425567,"subject_id":"92025","group":"Group2","condition":"1_Rep","full_date":"2026-02-12T22:48:32.124Z","date":"2026-02-12","time":"22:48:32"},{"task":"memory_phase","broad_category":"M","image_png":"M_Marble_02.png","image_id":226,"category_name":"Marble","category":15,"distinct_rating":3.2,"distinct_type":"Bottom","rt":null,"stimulus":"Stimuli_Rocks480/M_Marble_02.png","response":null,"trial_type":"image-keyboard-response","trial_index":89,"plugin_version":"2.1.0","time_elapsed":428085,"subject_id":"92025","group":"Group2","condition":"1_Rep","full_date":"2026-02-12T22:48:32.124Z","date":"2026-02-12","time":"22:48:32"},{"rt":null,"stimulus":"<p style=\"font-size: 50px; margin: 0; text-align: center;\">+</p>","response":null,"trial_type":"html-keyboard-response","trial_index":90,"plugin_version":"2.1.0","time_elapsed":429088,"subject_id":"92025","group":"Group2","condition":"1_Rep","full_date":"2026-02-12T22:48:32.124Z","date":"2026-02-12","time":"22:48:32"},{"task":"memory_phase","broad_category":"M","image_png":"M_Quartzite_12.png","image_id":284,"category_name":"Quartzite","category":18,"distinct_rating":1.92,"distinct_type":"Bottom","rt":null,"stimulus":"Stimuli_Rocks480/M_Quartzite_12.png","response":null,"trial_type":"image-keyboard-response","trial_index":91,"plugin_version":"2.1.0","time_elapsed":431605,"subject_id":"92025","group":"Group2","condition":"1_Rep","full_date":"2026-02-12T22:48:32.124Z","date":"2026-02-12","time":"22:48:32"},{"rt":null,"stimulus":"<p style=\"font-size: 50px; margin: 0; text-align: center;\">+</p>","response":null,"trial_type":"html-keyboard-response","trial_index":92,"plugin_version":"2.1.0","time_elapsed":432608,"subject_id":"92025","group":"Group2","condition":"1_Rep","full_date":"2026-02-12T22:48:32.124Z","date":"2026-02-12","time":"22:48:32"},{"task":"memory_phase","broad_category":"M","image_png":"M_Gneiss_10.png","image_id":202,"category_name":"Gneiss","category":13,"distinct_rating":3.09,"distinct_type":"Bottom","rt":null,"stimulus":"Stimuli_Rocks480/M_Gneiss_10.png","response":null,"trial_type":"image-keyboard-response","trial_index":93,"plugin_version":"2.1.0","time_elapsed":435129,"subject_id":"92025","group":"Group2","condition":"1_Rep","full_date":"2026-02-12T22:48:32.124Z","date":"2026-02-12","time":"22:48:32"},{"rt":null,"stimulus":"<p style=\"font-size: 50px; margin: 0; text-align: center;\">+</p>","response":null,"trial_type":"html-keyboard-response","trial_index":94,"plugin_version":"2.1.0","time_elapsed":436132,"subject_id":"92025","group":"Group2","condition":"1_Rep","full_date":"2026-02-12T22:48:32.124Z","date":"2026-02-12","time":"22:48:32"},{"task":"memory_phase","broad_category":"M","image_png":"M_Slate_14.png","image_id":318,"category_name":"Slate","category":20,"distinct_rating":2.58,"distinct_type":"Bottom","rt":null,"stimulus":"Stimuli_Rocks480/M_Slate_14.png","response":null,"trial_type":"image-keyboard-response","trial_index":95,"plugin_version":"2.1.0","time_elapsed":438646,"subject_id":"92025","group":"Group2","condition":"1_Rep","full_date":"2026-02-12T22:48:32.124Z","date":"2026-02-12","time":"22:48:32"},{"rt":null,"stimulus":"<p style=\"font-size: 50px; margin: 0; text-align: center;\">+</p>","response":null,"trial_type":"html-keyboard-response","trial_index":96,"plugin_version":"2.1.0","time_elapsed":439649,"subject_id":"92025","group":"Group2","condition":"1_Rep","full_date":"2026-02-12T22:48:32.124Z","date":"2026-02-12","time":"22:48:32"},{"task":"memory_phase","broad_category":"I","image_png":"I_Diorite_10.png","image_id":42,"category_name":"Diorite","category":3,"distinct_rating":2.84,"distinct_type":"Bottom","rt":null,"stimulus":"Stimuli_Rocks480/I_Diorite_10.png","response":null,"trial_type":"image-keyboard-response","trial_index":97,"plugin_version":"2.1.0","time_elapsed":442172,"subject_id":"92025","group":"Group2","condition":"1_Rep","full_date":"2026-02-12T22:48:32.124Z","date":"2026-02-12","time":"22:48:32"},{"rt":null,"stimulus":"<p style=\"font-size: 50px; margin: 0; text-align: center;\">+</p>","response":null,"trial_type":"html-keyboard-response","trial_index":98,"plugin_version":"2.1.0","time_elapsed":443174,"subject_id":"92025","group":"Group2","condition":"1_Rep","full_date":"2026-02-12T22:48:32.124Z","date":"2026-02-12","time":"22:48:32"},{"task":"memory_phase","broad_category":"S","image_png":"S_Shale_02.png","image_id":466,"category_name":"Shale","category":30,"distinct_rating":2.9,"distinct_type":"Bottom","rt":null,"stimulus":"Stimuli_Rocks480/S_Shale_02.png","response":null,"trial_type":"image-keyboard-response","trial_index":99,"plugin_version":"2.1.0","time_elapsed":445691,"subject_id":"92025","group":"Group2","condition":"1_Rep","full_date":"2026-02-12T22:48:32.124Z","date":"2026-02-12","time":"22:48:32"},{"rt":null,"stimulus":"<p style=\"font-size: 50px; margin: 0; text-align: center;\">+</p>","response":null,"trial_type":"html-keyboard-response","trial_index":100,"plugin_version":"2.1.0","time_elapsed":446694,"subject_id":"92025","group":"Group2","condition":"1_Rep","full_date":"2026-02-12T22:48:32.124Z","date":"2026-02-12","time":"22:48:32"},{"task":"memory_phase","broad_category":"I","image_png":"I_Andesite_09.png","image_id":9,"category_name":"Andesite","category":1,"distinct_rating":2.49,"distinct_type":"Bottom","rt":null,"stimulus":"Stimuli_Rocks480/I_Andesite_09.png","response":null,"trial_type":"image-keyboard-response","trial_index":101,"plugin_version":"2.1.0","time_elapsed":449213,"subject_id":"92025","group":"Group2","condition":"1_Rep","full_date":"2026-02-12T22:48:32.124Z","date":"2026-02-12","time":"22:48:32"},{"rt":null,"stimulus":"<p style=\"font-size: 50px; margin: 0; text-align: center;\">+</p>","response":null,"trial_type":"html-keyboard-response","trial_index":102,"plugin_version":"2.1.0","time_elapsed":450216,"subject_id":"92025","group":"Group2","condition":"1_Rep","full_date":"2026-02-12T22:48:32.124Z","date":"2026-02-12","time":"22:48:32"},{"task":"memory_phase","broad_category":"I","image_png":"I_Pegmatite_03.png","image_id":99,"category_name":"Pegmatite","category":7,"distinct_rating":7.24,"distinct_type":"Top","rt":null,"stimulus":"Stimuli_Rocks480/I_Pegmatite_03.png","response":null,"trial_type":"image-keyboard-response","trial_index":103,"plugin_version":"2.1.0","time_elapsed":452733,"subject_id":"92025","group":"Group2","condition":"1_Rep","full_date":"2026-02-12T22:48:32.124Z","date":"2026-02-12","time":"22:48:32"},{"rt":null,"stimulus":"<p style=\"font-size: 50px; margin: 0; text-align: center;\">+</p>","response":null,"trial_type":"html-keyboard-response","trial_index":104,"plugin_version":"2.1.0","time_elapsed":453735,"subject_id":"92025","group":"Group2","condition":"1_Rep","full_date":"2026-02-12T22:48:32.124Z","date":"2026-02-12","time":"22:48:32"},{"task":"memory_phase","broad_category":"I","image_png":"I_Basalt_10.png","image_id":26,"category_name":"Basalt","category":2,"distinct_rating":2.76,"distinct_type":"Bottom","rt":null,"stimulus":"Stimuli_Rocks480/I_Basalt_10.png","response":null,"trial_type":"image-keyboard-response","trial_index":105,"plugin_version":"2.1.0","time_elapsed":456256,"subject_id":"92025","group":"Group2","condition":"1_Rep","full_date":"2026-02-12T22:48:32.124Z","date":"2026-02-12","time":"22:48:32"},{"rt":13199,"stimulus":"<div style=\"max-width: 760px; margin: auto; font-size: 20px; line-height: 1.5;\">\n      <h1 style=\"text-align:center; font-size: 30px;\">Instructions for the Test Phase</h1>\n      <p>\n        The study phase is now complete.\n      </p>\n      <p>\n        In the test phase, you will again see a series of rock images. \n        Some will be ones you saw before - during the study phase, while others will be new.  \n        <b>Your task</b> is to decide whether you have seen each image before by pressing the corresponding key on your keyboard:<br><br>\n          <b>A</b> - NO (you did not see this image before)<br>\n          <b>L</b> - YES (you saw this image before)<br><br>\n        The test will proceed at your own pace. You will receive feedback after each response.  \n        Please try to respond <b>as accurately as possible</b>.\n      </p>\n      <p>\n        <b>Reminder:</b> If your computer has multiple language settings (e.g., English and another language),\n        please ensure it is set to English during the test phase.\n      </p>\n      <p>\n        You can track your progress using the <b>completion bar</b> at the top of the screen.  \n        Note that it has been refreshed to reflect your progress during this final phase.\n      </p>\n      <p>\n        Press the button below when you are ready to continue.\n      </p>\n    </div>","response":0,"trial_type":"html-button-response","trial_index":106,"plugin_version":"2.1.0","time_elapsed":469461,"subject_id":"92025","group":"Group2","condition":"1_Rep","full_date":"2026-02-12T22:48:32.124Z","date":"2026-02-12","time":"22:48:32"},{"correct_response":"l","task":"test_phase","broad_category":"M","image_png":"M_Marble_03.png","image_id":227,"category_name":"Marble","category":15,"distinct_rating":2.67,"distinct_type":"Bottom","item_type":"Target","rt":9604,"stimulus":"Stimuli_Rocks480/M_Marble_03.png","response":"l","trial_type":"image-keyboard-response","trial_index":107,"plugin_version":"2.1.0","time_elapsed":479069,"subject_id":"92025","group":"Group2","condition":"1_Rep","full_date":"2026-02-12T22:48:32.124Z","date":"2026-02-12","time":"22:48:32","cor_ans":true},{"trial_type":"html-keyboard-response","rt":null,"stimulus":"<p style=\"color: green; font-size: 50px; font-weight: bold;\">Correct</p>","response":null,"trial_index":108,"plugin_version":"2.1.0","time_elapsed":479573,"subject_id":"92025","group":"Group2","condition":"1_Rep","full_date":"2026-02-12T22:48:32.124Z","date":"2026-02-12","time":"22:48:32"},{"correct_response":"l","task":"test_phase","broad_category":"I","image_png":"I_Basalt_10.png","image_id":26,"category_name":"Basalt","category":2,"distinct_rating":2.76,"distinct_type":"Bottom","item_type":"Target","rt":2334,"stimulus":"Stimuli_Rocks480/I_Basalt_10.png","response":"a","trial_type":"image-keyboard-response","trial_index":109,"plugin_version":"2.1.0","time_elapsed":481910,"subject_id":"92025","group":"Group2","condition":"1_Rep","full_date":"2026-02-12T22:48:32.124Z","date":"2026-02-12","time":"22:48:32","cor_ans":false},{"trial_type":"html-keyboard-response","rt":null,"stimulus":"<p style=\"color: red; font-size: 50px; font-weight: bold;\">Incorrect</p>","response":null,"trial_index":110,"plugin_version":"2.1.0","time_elapsed":482412,"subject_id":"92025","group":"Group2","condition":"1_Rep","full_date":"2026-02-12T22:48:32.124Z","date":"2026-02-12","time":"22:48:32"},{"correct_response":"a","task":"test_phase","broad_category":"S","image_png":"S_Dolomite_12.png","image_id":396,"category_name":"Dolomite","category":25,"distinct_rating":1.85,"distinct_type":"Bottom","item_type":"Foil","rt":1352,"stimulus":"Stimuli_Rocks480/S_Dolomite_12.png","response":"l","trial_type":"image-keyboard-response","trial_index":111,"plugin_version":"2.1.0","time_elapsed":483782,"subject_id":"92025","group":"Group2","condition":"1_Rep","full_date":"2026-02-12T22:48:32.124Z","date":"2026-02-12","time":"22:48:32","cor_ans":false},{"trial_type":"html-keyboard-response","rt":null,"stimulus":"<p style=\"color: red; font-size: 50px; font-weight: bold;\">Incorrect</p>","response":null,"trial_index":112,"plugin_version":"2.1.0","time_elapsed":484284,"subject_id":"92025","group":"Group2","condition":"1_Rep","full_date":"2026-02-12T22:48:32.124Z","date":"2026-02-12","time":"22:48:32"},{"correct_response":"l","task":"test_phase","broad_category":"I","image_png":"I_Gabbro_12.png","image_id":60,"category_name":"Gabbro","category":4,"distinct_rating":2.6,"distinct_type":"Bottom","item_type":"Target","rt":658,"stimulus":"Stimuli_Rocks480/I_Gabbro_12.png","response":"l","trial_type":"image-keyboard-response","trial_index":113,"plugin_version":"2.1.0","time_elapsed":484945,"subject_id":"92025","group":"Group2","condition":"1_Rep","full_date":"2026-02-12T22:48:32.124Z","date":"2026-02-12","time":"22:48:32","cor_ans":true},{"trial_type":"html-keyboard-response","rt":null,"stimulus":"<p style=\"color: green; font-size: 50px; font-weight: bold;\">Correct</p>","response":null,"trial_index":114,"plugin_version":"2.1.0","time_elapsed":485447,"subject_id":"92025","group":"Group2","condition":"1_Rep","full_date":"2026-02-12T22:48:32.124Z","date":"2026-02-12","time":"22:48:32"},{"correct_response":"l","task":"test_phase","broad_category":"S","image_png":"S_Conglomerate_14.png","image_id":382,"category_name":"Conglomerate","category":24,"distinct_rating":6.86,"distinct_type":"Top","item_type":"Target","rt":1366,"stimulus":"Stimuli_Rocks480/S_Conglomerate_14.png","response":"a","trial_type":"image-keyboard-response","trial_index":115,"plugin_version":"2.1.0","time_elapsed":486829,"subject_id":"92025","group":"Group2","condition":"1_Rep","full_date":"2026-02-12T22:48:32.124Z","date":"2026-02-12","time":"22:48:32","cor_ans":false},{"trial_type":"html-keyboard-response","rt":null,"stimulus":"<p style=\"color: red; font-size: 50px; font-weight: bold;\">Incorrect</p>","response":null,"trial_index":116,"plugin_version":"2.1.0","time_elapsed":487332,"subject_id":"92025","group":"Group2","condition":"1_Rep","full_date":"2026-02-12T22:48:32.124Z","date":"2026-02-12","time":"22:48:32"},{"correct_response":"l","task":"test_phase","broad_category":"I","image_png":"I_Andesite_03.png","image_id":3,"category_name":"Andesite","category":1,"distinct_rating":3.17,"distinct_type":"Bottom","item_type":"Target","rt":1115,"stimulus":"Stimuli_Rocks480/I_Andesite_03.png","response":"l","trial_type":"image-keyboard-response","trial_index":117,"plugin_version":"2.1.0","time_elapsed":488450,"subject_id":"92025","group":"Group2","condition":"1_Rep","full_date":"2026-02-12T22:48:32.124Z","date":"2026-02-12","time":"22:48:32","cor_ans":true},{"trial_type":"html-keyboard-response","rt":null,"stimulus":"<p style=\"color: green; font-size: 50px; font-weight: bold;\">Correct</p>","response":null,"trial_index":118,"plugin_version":"2.1.0","time_elapsed":488952,"subject_id":"92025","group":"Group2","condition":"1_Rep","full_date":"2026-02-12T22:48:32.124Z","date":"2026-02-12","time":"22:48:32"},{"correct_response":"a","task":"test_phase","broad_category":"M","image_png":"M_Gneiss_05.png","image_id":197,"category_name":"Gneiss","category":13,"distinct_rating":2.97,"distinct_type":"Bottom","item_type":"Foil","rt":694,"stimulus":"Stimuli_Rocks480/M_Gneiss_05.png","response":"l","trial_type":"image-keyboard-response","trial_index":119,"plugin_version":"2.1.0","time_elapsed":489674,"subject_id":"92025","group":"Group2","condition":"1_Rep","full_date":"2026-02-12T22:48:32.124Z","date":"2026-02-12","time":"22:48:32","cor_ans":false},{"trial_type":"html-keyboard-response","rt":null,"stimulus":"<p style=\"color: red; font-size: 50px; font-weight: bold;\">Incorrect</p>","response":null,"trial_index":120,"plugin_version":"2.1.0","time_elapsed":490176,"subject_id":"92025","group":"Group2","condition":"1_Rep","full_date":"2026-02-12T22:48:32.124Z","date":"2026-02-12","time":"22:48:32"},{"correct_response":"a","task":"test_phase","broad_category":"M","image_png":"M_Quartzite_13.png","image_id":285,"category_name":"Quartzite","category":18,"distinct_rating":2.27,"distinct_type":"Bottom","item_type":"Foil","rt":380,"stimulus":"Stimuli_Rocks480/M_Quartzite_13.png","response":"l","trial_type":"image-keyboard-response","trial_index":121,"plugin_version":"2.1.0","time_elapsed":490575,"subject_id":"92025","group":"Group2","condition":"1_Rep","full_date":"2026-02-12T22:48:32.124Z","date":"2026-02-12","time":"22:48:32","cor_ans":false},{"trial_type":"html-keyboard-response","rt":null,"stimulus":"<p style=\"color: red; font-size: 50px; font-weight: bold;\">Incorrect</p>","response":null,"trial_index":122,"plugin_version":"2.1.0","time_elapsed":491077,"subject_id":"92025","group":"Group2","condition":"1_Rep","full_date":"2026-02-12T22:48:32.124Z","date":"2026-02-12","time":"22:48:32"},{"correct_response":"a","task":"test_phase","broad_category":"M","image_png":"M_Slate_15.png","image_id":319,"category_name":"Slate","category":20,"distinct_rating":2.13,"distinct_type":"Bottom","item_type":"Foil","rt":293,"stimulus":"Stimuli_Rocks480/M_Slate_15.png","response":"l","trial_type":"image-keyboard-response","trial_index":123,"plugin_version":"2.1.0","time_elapsed":491383,"subject_id":"92025","group":"Group2","condition":"1_Rep","full_date":"2026-02-12T22:48:32.124Z","date":"2026-02-12","time":"22:48:32","cor_ans":false},{"trial_type":"html-keyboard-response","rt":null,"stimulus":"<p style=\"color: red; font-size: 50px; font-weight: bold;\">Incorrect</p>","response":null,"trial_index":124,"plugin_version":"2.1.0","time_elapsed":491884,"subject_id":"92025","group":"Group2","condition":"1_Rep","full_date":"2026-02-12T22:48:32.124Z","date":"2026-02-12","time":"22:48:32"},{"correct_response":"l","task":"test_phase","broad_category":"S","image_png":"S_Dolomite_07.png","image_id":391,"category_name":"Dolomite","category":25,"distinct_rating":1.73,"distinct_type":"Bottom","item_type":"Target","rt":322,"stimulus":"Stimuli_Rocks480/S_Dolomite_07.png","response":"l","trial_type":"image-keyboard-response","trial_index":125,"plugin_version":"2.1.0","time_elapsed":492224,"subject_id":"92025","group":"Group2","condition":"1_Rep","full_date":"2026-02-12T22:48:32.124Z","date":"2026-02-12","time":"22:48:32","cor_ans":true},{"trial_type":"html-keyboard-response","rt":null,"stimulus":"<p style=\"color: green; font-size: 50px; font-weight: bold;\">Correct</p>","response":null,"trial_index":126,"plugin_version":"2.1.0","time_elapsed":492727,"subject_id":"92025","group":"Group2","condition":"1_Rep","full_date":"2026-02-12T22:48:32.124Z","date":"2026-02-12","time":"22:48:32"},{"correct_response":"l","task":"test_phase","broad_category":"M","image_png":"M_Slate_04.png","image_id":308,"category_name":"Slate","category":20,"distinct_rating":2.2,"distinct_type":"Bottom","item_type":"Target","rt":1484,"stimulus":"Stimuli_Rocks480/M_Slate_04.png","response":"l","trial_type":"image-keyboard-response","trial_index":127,"plugin_version":"2.1.0","time_elapsed":494228,"subject_id":"92025","group":"Group2","condition":"1_Rep","full_date":"2026-02-12T22:48:32.124Z","date":"2026-02-12","time":"22:48:32","cor_ans":true},{"trial_type":"html-keyboard-response","rt":null,"stimulus":"<p style=\"color: green; font-size: 50px; font-weight: bold;\">Correct</p>","response":null,"trial_index":128,"plugin_version":"2.1.0","time_elapsed":494730,"subject_id":"92025","group":"Group2","condition":"1_Rep","full_date":"2026-02-12T22:48:32.124Z","date":"2026-02-12","time":"22:48:32"},{"correct_response":"l","task":"test_phase","broad_category":"M","image_png":"M_Quartzite_15.png","image_id":287,"category_name":"Quartzite","category":18,"distinct_rating":2.19,"distinct_type":"Bottom","item_type":"Target","rt":1025,"stimulus":"Stimuli_Rocks480/M_Quartzite_15.png","response":"l","trial_type":"image-keyboard-response","trial_index":129,"plugin_version":"2.1.0","time_elapsed":495775,"subject_id":"92025","group":"Group2","condition":"1_Rep","full_date":"2026-02-12T22:48:32.124Z","date":"2026-02-12","time":"22:48:32","cor_ans":true},{"trial_type":"html-keyboard-response","rt":null,"stimulus":"<p style=\"color: green; font-size: 50px; font-weight: bold;\">Correct</p>","response":null,"trial_index":130,"plugin_version":"2.1.0","time_elapsed":496277,"subject_id":"92025","group":"Group2","condition":"1_Rep","full_date":"2026-02-12T22:48:32.124Z","date":"2026-02-12","time":"22:48:32"},{"correct_response":"a","task":"test_phase","broad_category":"I","image_png":"I_Basalt_01.png","image_id":17,"category_name":"Basalt","category":2,"distinct_rating":1.92,"distinct_type":"Bottom","item_type":"Foil","rt":1826,"stimulus":"Stimuli_Rocks480/I_Basalt_01.png","response":"a","trial_type":"image-keyboard-response","trial_index":131,"plugin_version":"2.1.0","time_elapsed":498128,"subject_id":"92025","group":"Group2","condition":"1_Rep","full_date":"2026-02-12T22:48:32.124Z","date":"2026-02-12","time":"22:48:32","cor_ans":true},{"trial_type":"html-keyboard-response","rt":null,"stimulus":"<p style=\"color: green; font-size: 50px; font-weight: bold;\">Correct</p>","response":null,"trial_index":132,"plugin_version":"2.1.0","time_elapsed":498630,"subject_id":"92025","group":"Group2","condition":"1_Rep","full_date":"2026-02-12T22:48:32.124Z","date":"2026-02-12","time":"22:48:32"},{"correct_response":"a","task":"test_phase","broad_category":"I","image_png":"I_Gabbro_11.png","image_id":59,"category_name":"Gabbro","category":4,"distinct_rating":1.99,"distinct_type":"Bottom","item_type":"Foil","rt":1212,"stimulus":"Stimuli_Rocks480/I_Gabbro_11.png","response":"a","trial_type":"image-keyboard-response","trial_index":133,"plugin_version":"2.1.0","time_elapsed":499856,"subject_id":"92025","group":"Group2","condition":"1_Rep","full_date":"2026-02-12T22:48:32.124Z","date":"2026-02-12","time":"22:48:32","cor_ans":true},{"trial_type":"html-keyboard-response","rt":null,"stimulus":"<p style=\"color: green; font-size: 50px; font-weight: bold;\">Correct</p>","response":null,"trial_index":134,"plugin_version":"2.1.0","time_elapsed":500358,"subject_id":"92025","group":"Group2","condition":"1_Rep","full_date":"2026-02-12T22:48:32.124Z","date":"2026-02-12","time":"22:48:32"},{"correct_response":"l","task":"test_phase","broad_category":"M","image_png":"M_Phyllite_02.png","image_id":258,"category_name":"Phyllite","category":17,"distinct_rating":2.89,"distinct_type":"Bottom","item_type":"Target","rt":951,"stimulus":"Stimuli_Rocks480/M_Phyllite_02.png","response":"l","trial_type":"image-keyboard-response","trial_index":135,"plugin_version":"2.1.0","time_elapsed":501328,"subject_id":"92025","group":"Group2","condition":"1_Rep","full_date":"2026-02-12T22:48:32.124Z","date":"2026-02-12","time":"22:48:32","cor_ans":true},{"trial_type":"html-keyboard-response","rt":null,"stimulus":"<p style=\"color: green; font-size: 50px; font-weight: bold;\">Correct</p>","response":null,"trial_index":136,"plugin_version":"2.1.0","time_elapsed":501830,"subject_id":"92025","group":"Group2","condition":"1_Rep","full_date":"2026-02-12T22:48:32.124Z","date":"2026-02-12","time":"22:48:32"},{"correct_response":"l","task":"test_phase","broad_category":"M","image_png":"M_Gneiss_15.png","image_id":207,"category_name":"Gneiss","category":13,"distinct_rating":3.11,"distinct_type":"Bottom","item_type":"Target","rt":875,"stimulus":"Stimuli_Rocks480/M_Gneiss_15.png","response":"l","trial_type":"image-keyboard-response","trial_index":137,"plugin_version":"2.1.0","time_elapsed":502717,"subject_id":"92025","group":"Group2","condition":"1_Rep","full_date":"2026-02-12T22:48:32.124Z","date":"2026-02-12","time":"22:48:32","cor_ans":true},{"trial_type":"html-keyboard-response","rt":null,"stimulus":"<p style=\"color: green; font-size: 50px; font-weight: bold;\">Correct</p>","response":null,"trial_index":138,"plugin_version":"2.1.0","time_elapsed":503220,"subject_id":"92025","group":"Group2","condition":"1_Rep","full_date":"2026-02-12T22:48:32.124Z","date":"2026-02-12","time":"22:48:32"},{"correct_response":"l","task":"test_phase","broad_category":"I","image_png":"I_Gabbro_02.png","image_id":50,"category_name":"Gabbro","category":4,"distinct_rating":2.73,"distinct_type":"Bottom","item_type":"Target","rt":630,"stimulus":"Stimuli_Rocks480/I_Gabbro_02.png","response":"a","trial_type":"image-keyboard-response","trial_index":139,"plugin_version":"2.1.0","time_elapsed":503867,"subject_id":"92025","group":"Group2","condition":"1_Rep","full_date":"2026-02-12T22:48:32.124Z","date":"2026-02-12","time":"22:48:32","cor_ans":false},{"trial_type":"html-keyboard-response","rt":null,"stimulus":"<p style=\"color: red; font-size: 50px; font-weight: bold;\">Incorrect</p>","response":null,"trial_index":140,"plugin_version":"2.1.0","time_elapsed":504368,"subject_id":"92025","group":"Group2","condition":"1_Rep","full_date":"2026-02-12T22:48:32.124Z","date":"2026-02-12","time":"22:48:32"},{"correct_response":"l","task":"test_phase","broad_category":"I","image_png":"I_Rhyolite_08.png","image_id":152,"category_name":"Rhyolite","category":10,"distinct_rating":1.38,"distinct_type":"Bottom","item_type":"Target","rt":1071,"stimulus":"Stimuli_Rocks480/I_Rhyolite_08.png","response":"a","trial_type":"image-keyboard-response","trial_index":141,"plugin_version":"2.1.0","time_elapsed":505457,"subject_id":"92025","group":"Group2","condition":"1_Rep","full_date":"2026-02-12T22:48:32.124Z","date":"2026-02-12","time":"22:48:32","cor_ans":false},{"trial_type":"html-keyboard-response","rt":null,"stimulus":"<p style=\"color: red; font-size: 50px; font-weight: bold;\">Incorrect</p>","response":null,"trial_index":142,"plugin_version":"2.1.0","time_elapsed":505959,"subject_id":"92025","group":"Group2","condition":"1_Rep","full_date":"2026-02-12T22:48:32.124Z","date":"2026-02-12","time":"22:48:32"},{"correct_response":"l","task":"test_phase","broad_category":"M","image_png":"M_Marble_14.png","image_id":238,"category_name":"Marble","category":15,"distinct_rating":3.31,"distinct_type":"Bottom","item_type":"Target","rt":497,"stimulus":"Stimuli_Rocks480/M_Marble_14.png","response":"l","trial_type":"image-keyboard-response","trial_index":143,"plugin_version":"2.1.0","time_elapsed":506473,"subject_id":"92025","group":"Group2","condition":"1_Rep","full_date":"2026-02-12T22:48:32.124Z","date":"2026-02-12","time":"22:48:32","cor_ans":true},{"trial_type":"html-keyboard-response","rt":null,"stimulus":"<p style=\"color: green; font-size: 50px; font-weight: bold;\">Correct</p>","response":null,"trial_index":144,"plugin_version":"2.1.0","time_elapsed":506975,"subject_id":"92025","group":"Group2","condition":"1_Rep","full_date":"2026-02-12T22:48:32.124Z","date":"2026-02-12","time":"22:48:32"},{"correct_response":"a","task":"test_phase","broad_category":"I","image_png":"I_Gabbro_08.png","image_id":56,"category_name":"Gabbro","category":4,"distinct_rating":3.02,"distinct_type":"Bottom","item_type":"Foil","rt":1036,"stimulus":"Stimuli_Rocks480/I_Gabbro_08.png","response":"a","trial_type":"image-keyboard-response","trial_index":145,"plugin_version":"2.1.0","time_elapsed":508025,"subject_id":"92025","group":"Group2","condition":"1_Rep","full_date":"2026-02-12T22:48:32.124Z","date":"2026-02-12","time":"22:48:32","cor_ans":true},{"trial_type":"html-keyboard-response","rt":null,"stimulus":"<p style=\"color: green; font-size: 50px; font-weight: bold;\">Correct</p>","response":null,"trial_index":146,"plugin_version":"2.1.0","time_elapsed":508527,"subject_id":"92025","group":"Group2","condition":"1_Rep","full_date":"2026-02-12T22:48:32.124Z","date":"2026-02-12","time":"22:48:32"},{"correct_response":"l","task":"test_phase","broad_category":"S","image_png":"S_Shale_03.png","image_id":467,"category_name":"Shale","category":30,"distinct_rating":1.95,"distinct_type":"Bottom","item_type":"Target","rt":825,"stimulus":"Stimuli_Rocks480/S_Shale_03.png","response":"l","trial_type":"image-keyboard-response","trial_index":147,"plugin_version":"2.1.0","time_elapsed":509372,"subject_id":"92025","group":"Group2","condition":"1_Rep","full_date":"2026-02-12T22:48:32.124Z","date":"2026-02-12","time":"22:48:32","cor_ans":true},{"trial_type":"html-keyboard-response","rt":null,"stimulus":"<p style=\"color: green; font-size: 50px; font-weight: bold;\">Correct</p>","response":null,"trial_index":148,"plugin_version":"2.1.0","time_elapsed":509874,"subject_id":"92025","group":"Group2","condition":"1_Rep","full_date":"2026-02-12T22:48:32.124Z","date":"2026-02-12","time":"22:48:32"},{"correct_response":"a","task":"test_phase","broad_category":"I","image_png":"I_Pumice_12.png","image_id":140,"category_name":"Pumice","category":9,"distinct_rating":2.97,"distinct_type":"Bottom","item_type":"Foil","rt":997,"stimulus":"Stimuli_Rocks480/I_Pumice_12.png","response":"a","trial_type":"image-keyboard-response","trial_index":149,"plugin_version":"2.1.0","time_elapsed":510884,"subject_id":"92025","group":"Group2","condition":"1_Rep","full_date":"2026-02-12T22:48:32.124Z","date":"2026-02-12","time":"22:48:32","cor_ans":true},{"trial_type":"html-keyboard-response","rt":null,"stimulus":"<p style=\"color: green; font-size: 50px; font-weight: bold;\">Correct</p>","response":null,"trial_index":150,"plugin_version":"2.1.0","time_elapsed":511387,"subject_id":"92025","group":"Group2","condition":"1_Rep","full_date":"2026-02-12T22:48:32.124Z","date":"2026-02-12","time":"22:48:32"},{"correct_response":"a","task":"test_phase","broad_category":"I","image_png":"I_Gabbro_16.png","image_id":64,"category_name":"Gabbro","category":4,"distinct_rating":2.52,"distinct_type":"Bottom","item_type":"Foil","rt":1107,"stimulus":"Stimuli_Rocks480/I_Gabbro_16.png","response":"l","trial_type":"image-keyboard-response","trial_index":151,"plugin_version":"2.1.0","time_elapsed":512510,"subject_id":"92025","group":"Group2","condition":"1_Rep","full_date":"2026-02-12T22:48:32.124Z","date":"2026-02-12","time":"22:48:32","cor_ans":false},{"trial_type":"html-keyboard-response","rt":null,"stimulus":"<p style=\"color: red; font-size: 50px; font-weight: bold;\">Incorrect</p>","response":null,"trial_index":152,"plugin_version":"2.1.0","time_elapsed":513012,"subject_id":"92025","group":"Group2","condition":"1_Rep","full_date":"2026-02-12T22:48:32.124Z","date":"2026-02-12","time":"22:48:32"},{"correct_response":"a","task":"test_phase","broad_category":"S","image_png":"S_Breccia_11.png","image_id":347,"category_name":"Breccia","category":22,"distinct_rating":6.7,"distinct_type":"Top","item_type":"Foil","rt":1097,"stimulus":"Stimuli_Rocks480/S_Breccia_11.png","response":"a","trial_type":"image-keyboard-response","trial_index":153,"plugin_version":"2.1.0","time_elapsed":514137,"subject_id":"92025","group":"Group2","condition":"1_Rep","full_date":"2026-02-12T22:48:32.124Z","date":"2026-02-12","time":"22:48:32","cor_ans":true},{"trial_type":"html-keyboard-response","rt":null,"stimulus":"<p style=\"color: green; font-size: 50px; font-weight: bold;\">Correct</p>","response":null,"trial_index":154,"plugin_version":"2.1.0","time_elapsed":514640,"subject_id":"92025","group":"Group2","condition":"1_Rep","full_date":"2026-02-12T22:48:32.124Z","date":"2026-02-12","time":"22:48:32"},{"correct_response":"a","task":"test_phase","broad_category":"M","image_png":"M_Marble_16.png","image_id":240,"category_name":"Marble","category":15,"distinct_rating":2.57,"distinct_type":"Bottom","item_type":"Foil","rt":2906,"stimulus":"Stimuli_Rocks480/M_Marble_16.png","response":"a","trial_type":"image-keyboard-response","trial_index":155,"plugin_version":"2.1.0","time_elapsed":517563,"subject_id":"92025","group":"Group2","condition":"1_Rep","full_date":"2026-02-12T22:48:32.124Z","date":"2026-02-12","time":"22:48:32","cor_ans":true},{"trial_type":"html-keyboard-response","rt":null,"stimulus":"<p style=\"color: green; font-size: 50px; font-weight: bold;\">Correct</p>","response":null,"trial_index":156,"plugin_version":"2.1.0","time_elapsed":518065,"subject_id":"92025","group":"Group2","condition":"1_Rep","full_date":"2026-02-12T22:48:32.124Z","date":"2026-02-12","time":"22:48:32"},{"correct_response":"l","task":"test_phase","broad_category":"M","image_png":"M_Quartzite_07.png","image_id":279,"category_name":"Quartzite","category":18,"distinct_rating":1.97,"distinct_type":"Bottom","item_type":"Target","rt":1198,"stimulus":"Stimuli_Rocks480/M_Quartzite_07.png","response":"l","trial_type":"image-keyboard-response","trial_index":157,"plugin_version":"2.1.0","time_elapsed":519283,"subject_id":"92025","group":"Group2","condition":"1_Rep","full_date":"2026-02-12T22:48:32.124Z","date":"2026-02-12","time":"22:48:32","cor_ans":true},{"trial_type":"html-keyboard-response","rt":null,"stimulus":"<p style=\"color: green; font-size: 50px; font-weight: bold;\">Correct</p>","response":null,"trial_index":158,"plugin_version":"2.1.0","time_elapsed":519784,"subject_id":"92025","group":"Group2","condition":"1_Rep","full_date":"2026-02-12T22:48:32.124Z","date":"2026-02-12","time":"22:48:32"},{"correct_response":"a","task":"test_phase","broad_category":"I","image_png":"I_Andesite_08.png","image_id":8,"category_name":"Andesite","category":1,"distinct_rating":1.95,"distinct_type":"Bottom","item_type":"Foil","rt":792,"stimulus":"Stimuli_Rocks480/I_Andesite_08.png","response":"a","trial_type":"image-keyboard-response","trial_index":159,"plugin_version":"2.1.0","time_elapsed":520596,"subject_id":"92025","group":"Group2","condition":"1_Rep","full_date":"2026-02-12T22:48:32.124Z","date":"2026-02-12","time":"22:48:32","cor_ans":true},{"trial_type":"html-keyboard-response","rt":null,"stimulus":"<p style=\"color: green; font-size: 50px; font-weight: bold;\">Correct</p>","response":null,"trial_index":160,"plugin_version":"2.1.0","time_elapsed":521097,"subject_id":"92025","group":"Group2","condition":"1_Rep","full_date":"2026-02-12T22:48:32.124Z","date":"2026-02-12","time":"22:48:32"},{"correct_response":"a","task":"test_phase","broad_category":"S","image_png":"S_Shale_08.png","image_id":472,"category_name":"Shale","category":30,"distinct_rating":2.55,"distinct_type":"Bottom","item_type":"Foil","rt":1173,"stimulus":"Stimuli_Rocks480/S_Shale_08.png","response":"l","trial_type":"image-keyboard-response","trial_index":161,"plugin_version":"2.1.0","time_elapsed":522290,"subject_id":"92025","group":"Group2","condition":"1_Rep","full_date":"2026-02-12T22:48:32.124Z","date":"2026-02-12","time":"22:48:32","cor_ans":false},{"trial_type":"html-keyboard-response","rt":null,"stimulus":"<p style=\"color: red; font-size: 50px; font-weight: bold;\">Incorrect</p>","response":null,"trial_index":162,"plugin_version":"2.1.0","time_elapsed":522794,"subject_id":"92025","group":"Group2","condition":"1_Rep","full_date":"2026-02-12T22:48:32.124Z","date":"2026-02-12","time":"22:48:32"},{"correct_response":"a","task":"test_phase","broad_category":"S","image_png":"S_Rock Gypsum_04.png","image_id":420,"category_name":"Rock Gypsum","category":27,"distinct_rating":7.61,"distinct_type":"Top","item_type":"Foil","rt":1415,"stimulus":"Stimuli_Rocks480/S_Rock Gypsum_04.png","response":"l","trial_type":"image-keyboard-response","trial_index":163,"plugin_version":"2.1.0","time_elapsed":524229,"subject_id":"92025","group":"Group2","condition":"1_Rep","full_date":"2026-02-12T22:48:32.124Z","date":"2026-02-12","time":"22:48:32","cor_ans":false},{"trial_type":"html-keyboard-response","rt":null,"stimulus":"<p style=\"color: red; font-size: 50px; font-weight: bold;\">Incorrect</p>","response":null,"trial_index":164,"plugin_version":"2.1.0","time_elapsed":524732,"subject_id":"92025","group":"Group2","condition":"1_Rep","full_date":"2026-02-12T22:48:32.124Z","date":"2026-02-12","time":"22:48:32"},{"correct_response":"a","task":"test_phase","broad_category":"I","image_png":"I_Basalt_09.png","image_id":25,"category_name":"Basalt","category":2,"distinct_rating":1.89,"distinct_type":"Bottom","item_type":"Foil","rt":1267,"stimulus":"Stimuli_Rocks480/I_Basalt_09.png","response":"l","trial_type":"image-keyboard-response","trial_index":165,"plugin_version":"2.1.0","time_elapsed":526015,"subject_id":"92025","group":"Group2","condition":"1_Rep","full_date":"2026-02-12T22:48:32.124Z","date":"2026-02-12","time":"22:48:32","cor_ans":false},{"trial_type":"html-keyboard-response","rt":null,"stimulus":"<p style=\"color: red; font-size: 50px; font-weight: bold;\">Incorrect</p>","response":null,"trial_index":166,"plugin_version":"2.1.0","time_elapsed":526516,"subject_id":"92025","group":"Group2","condition":"1_Rep","full_date":"2026-02-12T22:48:32.124Z","date":"2026-02-12","time":"22:48:32"},{"correct_response":"l","task":"test_phase","broad_category":"I","image_png":"I_Obsidian_06.png","image_id":86,"category_name":"Obsidian","category":6,"distinct_rating":8.01,"distinct_type":"Top","item_type":"Target","rt":1007,"stimulus":"Stimuli_Rocks480/I_Obsidian_06.png","response":"l","trial_type":"image-keyboard-response","trial_index":167,"plugin_version":"2.1.0","time_elapsed":527546,"subject_id":"92025","group":"Group2","condition":"1_Rep","full_date":"2026-02-12T22:48:32.124Z","date":"2026-02-12","time":"22:48:32","cor_ans":true},{"trial_type":"html-keyboard-response","rt":null,"stimulus":"<p style=\"color: green; font-size: 50px; font-weight: bold;\">Correct</p>","response":null,"trial_index":168,"plugin_version":"2.1.0","time_elapsed":528048,"subject_id":"92025","group":"Group2","condition":"1_Rep","full_date":"2026-02-12T22:48:32.124Z","date":"2026-02-12","time":"22:48:32"},{"correct_response":"a","task":"test_phase","broad_category":"I","image_png":"I_Pegmatite_10.png","image_id":106,"category_name":"Pegmatite","category":7,"distinct_rating":7.66,"distinct_type":"Top","item_type":"Foil","rt":927,"stimulus":"Stimuli_Rocks480/I_Pegmatite_10.png","response":"a","trial_type":"image-keyboard-response","trial_index":169,"plugin_version":"2.1.0","time_elapsed":528992,"subject_id":"92025","group":"Group2","condition":"1_Rep","full_date":"2026-02-12T22:48:32.124Z","date":"2026-02-12","time":"22:48:32","cor_ans":true},{"trial_type":"html-keyboard-response","rt":null,"stimulus":"<p style=\"color: green; font-size: 50px; font-weight: bold;\">Correct</p>","response":null,"trial_index":170,"plugin_version":"2.1.0","time_elapsed":529495,"subject_id":"92025","group":"Group2","condition":"1_Rep","full_date":"2026-02-12T22:48:32.124Z","date":"2026-02-12","time":"22:48:32"},{"correct_response":"a","task":"test_phase","broad_category":"M","image_png":"M_Slate_11.png","image_id":315,"category_name":"Slate","category":20,"distinct_rating":2.75,"distinct_type":"Bottom","item_type":"Foil","rt":1079,"stimulus":"Stimuli_Rocks480/M_Slate_11.png","response":"a","trial_type":"image-keyboard-response","trial_index":171,"plugin_version":"2.1.0","time_elapsed":530590,"subject_id":"92025","group":"Group2","condition":"1_Rep","full_date":"2026-02-12T22:48:32.124Z","date":"2026-02-12","time":"22:48:32","cor_ans":true},{"trial_type":"html-keyboard-response","rt":null,"stimulus":"<p style=\"color: green; font-size: 50px; font-weight: bold;\">Correct</p>","response":null,"trial_index":172,"plugin_version":"2.1.0","time_elapsed":531092,"subject_id":"92025","group":"Group2","condition":"1_Rep","full_date":"2026-02-12T22:48:32.124Z","date":"2026-02-12","time":"22:48:32"},{"correct_response":"l","task":"test_phase","broad_category":"S","image_png":"S_Rock Salt_15.png","image_id":447,"category_name":"Rock Salt","category":28,"distinct_rating":7.79,"distinct_type":"Top","item_type":"Target","rt":2471,"stimulus":"Stimuli_Rocks480/S_Rock Salt_15.png","response":"l","trial_type":"image-keyboard-response","trial_index":173,"plugin_version":"2.1.0","time_elapsed":533579,"subject_id":"92025","group":"Group2","condition":"1_Rep","full_date":"2026-02-12T22:48:32.124Z","date":"2026-02-12","time":"22:48:32","cor_ans":true},{"trial_type":"html-keyboard-response","rt":null,"stimulus":"<p style=\"color: green; font-size: 50px; font-weight: bold;\">Correct</p>","response":null,"trial_index":174,"plugin_version":"2.1.0","time_elapsed":534080,"subject_id":"92025","group":"Group2","condition":"1_Rep","full_date":"2026-02-12T22:48:32.124Z","date":"2026-02-12","time":"22:48:32"},{"correct_response":"a","task":"test_phase","broad_category":"S","image_png":"S_Shale_12.png","image_id":476,"category_name":"Shale","category":30,"distinct_rating":2.48,"distinct_type":"Bottom","item_type":"Foil","rt":1202,"stimulus":"Stimuli_Rocks480/S_Shale_12.png","response":"l","trial_type":"image-keyboard-response","trial_index":175,"plugin_version":"2.1.0","time_elapsed":535303,"subject_id":"92025","group":"Group2","condition":"1_Rep","full_date":"2026-02-12T22:48:32.124Z","date":"2026-02-12","time":"22:48:32","cor_ans":false},{"trial_type":"html-keyboard-response","rt":null,"stimulus":"<p style=\"color: red; font-size: 50px; font-weight: bold;\">Incorrect</p>","response":null,"trial_index":176,"plugin_version":"2.1.0","time_elapsed":535806,"subject_id":"92025","group":"Group2","condition":"1_Rep","full_date":"2026-02-12T22:48:32.124Z","date":"2026-02-12","time":"22:48:32"},{"correct_response":"l","task":"test_phase","broad_category":"M","image_png":"M_Gneiss_10.png","image_id":202,"category_name":"Gneiss","category":13,"distinct_rating":3.09,"distinct_type":"Bottom","item_type":"Target","rt":981,"stimulus":"Stimuli_Rocks480/M_Gneiss_10.png","response":"l","trial_type":"image-keyboard-response","trial_index":177,"plugin_version":"2.1.0","time_elapsed":536807,"subject_id":"92025","group":"Group2","condition":"1_Rep","full_date":"2026-02-12T22:48:32.124Z","date":"2026-02-12","time":"22:48:32","cor_ans":true},{"trial_type":"html-keyboard-response","rt":null,"stimulus":"<p style=\"color: green; font-size: 50px; font-weight: bold;\">Correct</p>","response":null,"trial_index":178,"plugin_version":"2.1.0","time_elapsed":537308,"subject_id":"92025","group":"Group2","condition":"1_Rep","full_date":"2026-02-12T22:48:32.124Z","date":"2026-02-12","time":"22:48:32"},{"correct_response":"l","task":"test_phase","broad_category":"M","image_png":"M_Marble_02.png","image_id":226,"category_name":"Marble","category":15,"distinct_rating":3.2,"distinct_type":"Bottom","item_type":"Target","rt":1217,"stimulus":"Stimuli_Rocks480/M_Marble_02.png","response":"l","trial_type":"image-keyboard-response","trial_index":179,"plugin_version":"2.1.0","time_elapsed":538539,"subject_id":"92025","group":"Group2","condition":"1_Rep","full_date":"2026-02-12T22:48:32.124Z","date":"2026-02-12","time":"22:48:32","cor_ans":true},{"trial_type":"html-keyboard-response","rt":null,"stimulus":"<p style=\"color: green; font-size: 50px; font-weight: bold;\">Correct</p>","response":null,"trial_index":180,"plugin_version":"2.1.0","time_elapsed":539040,"subject_id":"92025","group":"Group2","condition":"1_Rep","full_date":"2026-02-12T22:48:32.124Z","date":"2026-02-12","time":"22:48:32"},{"correct_response":"a","task":"test_phase","broad_category":"S","image_png":"S_Rock Salt_01.png","image_id":433,"category_name":"Rock Salt","category":28,"distinct_rating":7.18,"distinct_type":"Top","item_type":"Foil","rt":1012,"stimulus":"Stimuli_Rocks480/S_Rock Salt_01.png","response":"a","trial_type":"image-keyboard-response","trial_index":181,"plugin_version":"2.1.0","time_elapsed":540073,"subject_id":"92025","group":"Group2","condition":"1_Rep","full_date":"2026-02-12T22:48:32.124Z","date":"2026-02-12","time":"22:48:32","cor_ans":true},{"trial_type":"html-keyboard-response","rt":null,"stimulus":"<p style=\"color: green; font-size: 50px; font-weight: bold;\">Correct</p>","response":null,"trial_index":182,"plugin_version":"2.1.0","time_elapsed":540575,"subject_id":"92025","group":"Group2","condition":"1_Rep","full_date":"2026-02-12T22:48:32.124Z","date":"2026-02-12","time":"22:48:32"},{"correct_response":"l","task":"test_phase","broad_category":"I","image_png":"I_Andesite_09.png","image_id":9,"category_name":"Andesite","category":1,"distinct_rating":2.49,"distinct_type":"Bottom","item_type":"Target","rt":774,"stimulus":"Stimuli_Rocks480/I_Andesite_09.png","response":"l","trial_type":"image-keyboard-response","trial_index":183,"plugin_version":"2.1.0","time_elapsed":541364,"subject_id":"92025","group":"Group2","condition":"1_Rep","full_date":"2026-02-12T22:48:32.124Z","date":"2026-02-12","time":"22:48:32","cor_ans":true},{"trial_type":"html-keyboard-response","rt":null,"stimulus":"<p style=\"color: green; font-size: 50px; font-weight: bold;\">Correct</p>","response":null,"trial_index":184,"plugin_version":"2.1.0","time_elapsed":541865,"subject_id":"92025","group":"Group2","condition":"1_Rep","full_date":"2026-02-12T22:48:32.124Z","date":"2026-02-12","time":"22:48:32"},{"correct_response":"a","task":"test_phase","broad_category":"M","image_png":"M_Phyllite_03.png","image_id":259,"category_name":"Phyllite","category":17,"distinct_rating":2.5,"distinct_type":"Bottom","item_type":"Foil","rt":1140,"stimulus":"Stimuli_Rocks480/M_Phyllite_03.png","response":"a","trial_type":"image-keyboard-response","trial_index":185,"plugin_version":"2.1.0","time_elapsed":543022,"subject_id":"92025","group":"Group2","condition":"1_Rep","full_date":"2026-02-12T22:48:32.124Z","date":"2026-02-12","time":"22:48:32","cor_ans":true},{"trial_type":"html-keyboard-response","rt":null,"stimulus":"<p style=\"color: green; font-size: 50px; font-weight: bold;\">Correct</p>","response":null,"trial_index":186,"plugin_version":"2.1.0","time_elapsed":543523,"subject_id":"92025","group":"Group2","condition":"1_Rep","full_date":"2026-02-12T22:48:32.124Z","date":"2026-02-12","time":"22:48:32"},{"correct_response":"l","task":"test_phase","broad_category":"I","image_png":"I_Pumice_14.png","image_id":142,"category_name":"Pumice","category":9,"distinct_rating":3.22,"distinct_type":"Bottom","item_type":"Target","rt":1030,"stimulus":"Stimuli_Rocks480/I_Pumice_14.png","response":"l","trial_type":"image-keyboard-response","trial_index":187,"plugin_version":"2.1.0","time_elapsed":544569,"subject_id":"92025","group":"Group2","condition":"1_Rep","full_date":"2026-02-12T22:48:32.124Z","date":"2026-02-12","time":"22:48:32","cor_ans":true},{"trial_type":"html-keyboard-response","rt":null,"stimulus":"<p style=\"color: green; font-size: 50px; font-weight: bold;\">Correct</p>","response":null,"trial_index":188,"plugin_version":"2.1.0","time_elapsed":545070,"subject_id":"92025","group":"Group2","condition":"1_Rep","full_date":"2026-02-12T22:48:32.124Z","date":"2026-02-12","time":"22:48:32"},{"correct_response":"a","task":"test_phase","broad_category":"I","image_png":"I_Pumice_08.png","image_id":136,"category_name":"Pumice","category":9,"distinct_rating":3.1,"distinct_type":"Bottom","item_type":"Foil","rt":1382,"stimulus":"Stimuli_Rocks480/I_Pumice_08.png","response":"a","trial_type":"image-keyboard-response","trial_index":189,"plugin_version":"2.1.0","time_elapsed":546470,"subject_id":"92025","group":"Group2","condition":"1_Rep","full_date":"2026-02-12T22:48:32.124Z","date":"2026-02-12","time":"22:48:32","cor_ans":true},{"trial_type":"html-keyboard-response","rt":null,"stimulus":"<p style=\"color: green; font-size: 50px; font-weight: bold;\">Correct</p>","response":null,"trial_index":190,"plugin_version":"2.1.0","time_elapsed":546973,"subject_id":"92025","group":"Group2","condition":"1_Rep","full_date":"2026-02-12T22:48:32.124Z","date":"2026-02-12","time":"22:48:32"},{"correct_response":"l","task":"test_phase","broad_category":"M","image_png":"M_Phyllite_05.png","image_id":261,"category_name":"Phyllite","category":17,"distinct_rating":2.14,"distinct_type":"Bottom","item_type":"Target","rt":669,"stimulus":"Stimuli_Rocks480/M_Phyllite_05.png","response":"l","trial_type":"image-keyboard-response","trial_index":191,"plugin_version":"2.1.0","time_elapsed":547657,"subject_id":"92025","group":"Group2","condition":"1_Rep","full_date":"2026-02-12T22:48:32.124Z","date":"2026-02-12","time":"22:48:32","cor_ans":true},{"trial_type":"html-keyboard-response","rt":null,"stimulus":"<p style=\"color: green; font-size: 50px; font-weight: bold;\">Correct</p>","response":null,"trial_index":192,"plugin_version":"2.1.0","time_elapsed":548159,"subject_id":"92025","group":"Group2","condition":"1_Rep","full_date":"2026-02-12T22:48:32.124Z","date":"2026-02-12","time":"22:48:32"},{"correct_response":"a","task":"test_phase","broad_category":"I","image_png":"I_Rhyolite_14.png","image_id":158,"category_name":"Rhyolite","category":10,"distinct_rating":2.59,"distinct_type":"Bottom","item_type":"Foil","rt":764,"stimulus":"Stimuli_Rocks480/I_Rhyolite_14.png","response":"a","trial_type":"image-keyboard-response","trial_index":193,"plugin_version":"2.1.0","time_elapsed":548937,"subject_id":"92025","group":"Group2","condition":"1_Rep","full_date":"2026-02-12T22:48:32.124Z","date":"2026-02-12","time":"22:48:32","cor_ans":true},{"trial_type":"html-keyboard-response","rt":null,"stimulus":"<p style=\"color: green; font-size: 50px; font-weight: bold;\">Correct</p>","response":null,"trial_index":194,"plugin_version":"2.1.0","time_elapsed":549439,"subject_id":"92025","group":"Group2","condition":"1_Rep","full_date":"2026-02-12T22:48:32.124Z","date":"2026-02-12","time":"22:48:32"},{"correct_response":"l","task":"test_phase","broad_category":"I","image_png":"I_Basalt_13.png","image_id":29,"category_name":"Basalt","category":2,"distinct_rating":2.68,"distinct_type":"Bottom","item_type":"Target","rt":1367,"stimulus":"Stimuli_Rocks480/I_Basalt_13.png","response":"a","trial_type":"image-keyboard-response","trial_index":195,"plugin_version":"2.1.0","time_elapsed":550822,"subject_id":"92025","group":"Group2","condition":"1_Rep","full_date":"2026-02-12T22:48:32.124Z","date":"2026-02-12","time":"22:48:32","cor_ans":false},{"trial_type":"html-keyboard-response","rt":null,"stimulus":"<p style=\"color: red; font-size: 50px; font-weight: bold;\">Incorrect</p>","response":null,"trial_index":196,"plugin_version":"2.1.0","time_elapsed":551323,"subject_id":"92025","group":"Group2","condition":"1_Rep","full_date":"2026-02-12T22:48:32.124Z","date":"2026-02-12","time":"22:48:32"},{"correct_response":"l","task":"test_phase","broad_category":"I","image_png":"I_Diorite_10.png","image_id":42,"category_name":"Diorite","category":3,"distinct_rating":2.84,"distinct_type":"Bottom","item_type":"Target","rt":1070,"stimulus":"Stimuli_Rocks480/I_Diorite_10.png","response":"a","trial_type":"image-keyboard-response","trial_index":197,"plugin_version":"2.1.0","time_elapsed":552410,"subject_id":"92025","group":"Group2","condition":"1_Rep","full_date":"2026-02-12T22:48:32.124Z","date":"2026-02-12","time":"22:48:32","cor_ans":false},{"trial_type":"html-keyboard-response","rt":null,"stimulus":"<p style=\"color: red; font-size: 50px; font-weight: bold;\">Incorrect</p>","response":null,"trial_index":198,"plugin_version":"2.1.0","time_elapsed":552911,"subject_id":"92025","group":"Group2","condition":"1_Rep","full_date":"2026-02-12T22:48:32.124Z","date":"2026-02-12","time":"22:48:32"},{"correct_response":"l","task":"test_phase","broad_category":"I","image_png":"I_Diorite_15.png","image_id":47,"category_name":"Diorite","category":3,"distinct_rating":3.05,"distinct_type":"Bottom","item_type":"Target","rt":777,"stimulus":"Stimuli_Rocks480/I_Diorite_15.png","response":"l","trial_type":"image-keyboard-response","trial_index":199,"plugin_version":"2.1.0","time_elapsed":553704,"subject_id":"92025","group":"Group2","condition":"1_Rep","full_date":"2026-02-12T22:48:32.124Z","date":"2026-02-12","time":"22:48:32","cor_ans":true},{"trial_type":"html-keyboard-response","rt":null,"stimulus":"<p style=\"color: green; font-size: 50px; font-weight: bold;\">Correct</p>","response":null,"trial_index":200,"plugin_version":"2.1.0","time_elapsed":554205,"subject_id":"92025","group":"Group2","condition":"1_Rep","full_date":"2026-02-12T22:48:32.124Z","date":"2026-02-12","time":"22:48:32"},{"correct_response":"a","task":"test_phase","broad_category":"I","image_png":"I_Basalt_02.png","image_id":18,"category_name":"Basalt","category":2,"distinct_rating":1.84,"distinct_type":"Bottom","item_type":"Foil","rt":966,"stimulus":"Stimuli_Rocks480/I_Basalt_02.png","response":"l","trial_type":"image-keyboard-response","trial_index":201,"plugin_version":"2.1.0","time_elapsed":555191,"subject_id":"92025","group":"Group2","condition":"1_Rep","full_date":"2026-02-12T22:48:32.124Z","date":"2026-02-12","time":"22:48:32","cor_ans":false},{"trial_type":"html-keyboard-response","rt":null,"stimulus":"<p style=\"color: red; font-size: 50px; font-weight: bold;\">Incorrect</p>","response":null,"trial_index":202,"plugin_version":"2.1.0","time_elapsed":555693,"subject_id":"92025","group":"Group2","condition":"1_Rep","full_date":"2026-02-12T22:48:32.124Z","date":"2026-02-12","time":"22:48:32"},{"correct_response":"l","task":"test_phase","broad_category":"S","image_png":"S_Chert_13.png","image_id":365,"category_name":"Chert","category":23,"distinct_rating":6.57,"distinct_type":"Top","item_type":"Target","rt":919,"stimulus":"Stimuli_Rocks480/S_Chert_13.png","response":"l","trial_type":"image-keyboard-response","trial_index":203,"plugin_version":"2.1.0","time_elapsed":556624,"subject_id":"92025","group":"Group2","condition":"1_Rep","full_date":"2026-02-12T22:48:32.124Z","date":"2026-02-12","time":"22:48:32","cor_ans":true},{"trial_type":"html-keyboard-response","rt":null,"stimulus":"<p style=\"color: green; font-size: 50px; font-weight: bold;\">Correct</p>","response":null,"trial_index":204,"plugin_version":"2.1.0","time_elapsed":557125,"subject_id":"92025","group":"Group2","condition":"1_Rep","full_date":"2026-02-12T22:48:32.124Z","date":"2026-02-12","time":"22:48:32"},{"correct_response":"a","task":"test_phase","broad_category":"M","image_png":"M_Phyllite_10.png","image_id":266,"category_name":"Phyllite","category":17,"distinct_rating":2.6,"distinct_type":"Bottom","item_type":"Foil","rt":923,"stimulus":"Stimuli_Rocks480/M_Phyllite_10.png","response":"a","trial_type":"image-keyboard-response","trial_index":205,"plugin_version":"2.1.0","time_elapsed":558066,"subject_id":"92025","group":"Group2","condition":"1_Rep","full_date":"2026-02-12T22:48:32.124Z","date":"2026-02-12","time":"22:48:32","cor_ans":true},{"trial_type":"html-keyboard-response","rt":null,"stimulus":"<p style=\"color: green; font-size: 50px; font-weight: bold;\">Correct</p>","response":null,"trial_index":206,"plugin_version":"2.1.0","time_elapsed":558568,"subject_id":"92025","group":"Group2","condition":"1_Rep","full_date":"2026-02-12T22:48:32.124Z","date":"2026-02-12","time":"22:48:32"},{"correct_response":"l","task":"test_phase","broad_category":"I","image_png":"I_Pegmatite_03.png","image_id":99,"category_name":"Pegmatite","category":7,"distinct_rating":7.24,"distinct_type":"Top","item_type":"Target","rt":884,"stimulus":"Stimuli_Rocks480/I_Pegmatite_03.png","response":"a","trial_type":"image-keyboard-response","trial_index":207,"plugin_version":"2.1.0","time_elapsed":559468,"subject_id":"92025","group":"Group2","condition":"1_Rep","full_date":"2026-02-12T22:48:32.124Z","date":"2026-02-12","time":"22:48:32","cor_ans":false},{"trial_type":"html-keyboard-response","rt":null,"stimulus":"<p style=\"color: red; font-size: 50px; font-weight: bold;\">Incorrect</p>","response":null,"trial_index":208,"plugin_version":"2.1.0","time_elapsed":559970,"subject_id":"92025","group":"Group2","condition":"1_Rep","full_date":"2026-02-12T22:48:32.124Z","date":"2026-02-12","time":"22:48:32"},{"correct_response":"a","task":"test_phase","broad_category":"S","image_png":"S_Dolomite_13.png","image_id":397,"category_name":"Dolomite","category":25,"distinct_rating":1.77,"distinct_type":"Bottom","item_type":"Foil","rt":28162,"stimulus":"Stimuli_Rocks480/S_Dolomite_13.png","response":"l","trial_type":"image-keyboard-response","trial_index":209,"plugin_version":"2.1.0","time_elapsed":588148,"subject_id":"92025","group":"Group2","condition":"1_Rep","full_date":"2026-02-12T22:48:32.124Z","date":"2026-02-12","time":"22:48:32","cor_ans":false},{"trial_type":"html-keyboard-response","rt":null,"stimulus":"<p style=\"color: red; font-size: 50px; font-weight: bold;\">Incorrect</p>","response":null,"trial_index":210,"plugin_version":"2.1.0","time_elapsed":588651,"subject_id":"92025","group":"Group2","condition":"1_Rep","full_date":"2026-02-12T22:48:32.124Z","date":"2026-02-12","time":"22:48:32"},{"correct_response":"l","task":"test_phase","broad_category":"M","image_png":"M_Gneiss_14.png","image_id":206,"category_name":"Gneiss","category":13,"distinct_rating":3.41,"distinct_type":"Bottom","item_type":"Target","rt":1310,"stimulus":"Stimuli_Rocks480/M_Gneiss_14.png","response":"l","trial_type":"image-keyboard-response","trial_index":211,"plugin_version":"2.1.0","time_elapsed":589978,"subject_id":"92025","group":"Group2","condition":"1_Rep","full_date":"2026-02-12T22:48:32.124Z","date":"2026-02-12","time":"22:48:32","cor_ans":true},{"trial_type":"html-keyboard-response","rt":null,"stimulus":"<p style=\"color: green; font-size: 50px; font-weight: bold;\">Correct</p>","response":null,"trial_index":212,"plugin_version":"2.1.0","time_elapsed":590481,"subject_id":"92025","group":"Group2","condition":"1_Rep","full_date":"2026-02-12T22:48:32.124Z","date":"2026-02-12","time":"22:48:32"},{"correct_response":"l","task":"test_phase","broad_category":"I","image_png":"I_Diorite_01.png","image_id":33,"category_name":"Diorite","category":3,"distinct_rating":2.97,"distinct_type":"Bottom","item_type":"Target","rt":1171,"stimulus":"Stimuli_Rocks480/I_Diorite_01.png","response":"a","trial_type":"image-keyboard-response","trial_index":213,"plugin_version":"2.1.0","time_elapsed":591675,"subject_id":"92025","group":"Group2","condition":"1_Rep","full_date":"2026-02-12T22:48:32.124Z","date":"2026-02-12","time":"22:48:32","cor_ans":false},{"trial_type":"html-keyboard-response","rt":null,"stimulus":"<p style=\"color: red; font-size: 50px; font-weight: bold;\">Incorrect</p>","response":null,"trial_index":214,"plugin_version":"2.1.0","time_elapsed":592177,"subject_id":"92025","group":"Group2","condition":"1_Rep","full_date":"2026-02-12T22:48:32.124Z","date":"2026-02-12","time":"22:48:32"},{"correct_response":"a","task":"test_phase","broad_category":"M","image_png":"M_Phyllite_07.png","image_id":263,"category_name":"Phyllite","category":17,"distinct_rating":2.59,"distinct_type":"Bottom","item_type":"Foil","rt":722,"stimulus":"Stimuli_Rocks480/M_Phyllite_07.png","response":"a","trial_type":"image-keyboard-response","trial_index":215,"plugin_version":"2.1.0","time_elapsed":592913,"subject_id":"92025","group":"Group2","condition":"1_Rep","full_date":"2026-02-12T22:48:32.124Z","date":"2026-02-12","time":"22:48:32","cor_ans":true},{"trial_type":"html-keyboard-response","rt":null,"stimulus":"<p style=\"color: green; font-size: 50px; font-weight: bold;\">Correct</p>","response":null,"trial_index":216,"plugin_version":"2.1.0","time_elapsed":593415,"subject_id":"92025","group":"Group2","condition":"1_Rep","full_date":"2026-02-12T22:48:32.124Z","date":"2026-02-12","time":"22:48:32"},{"correct_response":"l","task":"test_phase","broad_category":"I","image_png":"I_Rhyolite_10.png","image_id":154,"category_name":"Rhyolite","category":10,"distinct_rating":2.88,"distinct_type":"Bottom","item_type":"Target","rt":753,"stimulus":"Stimuli_Rocks480/I_Rhyolite_10.png","response":"l","trial_type":"image-keyboard-response","trial_index":217,"plugin_version":"2.1.0","time_elapsed":594195,"subject_id":"92025","group":"Group2","condition":"1_Rep","full_date":"2026-02-12T22:48:32.124Z","date":"2026-02-12","time":"22:48:32","cor_ans":true},{"trial_type":"html-keyboard-response","rt":null,"stimulus":"<p style=\"color: green; font-size: 50px; font-weight: bold;\">Correct</p>","response":null,"trial_index":218,"plugin_version":"2.1.0","time_elapsed":594697,"subject_id":"92025","group":"Group2","condition":"1_Rep","full_date":"2026-02-12T22:48:32.124Z","date":"2026-02-12","time":"22:48:32"},{"correct_response":"l","task":"test_phase","broad_category":"I","image_png":"I_Pegmatite_11.png","image_id":107,"category_name":"Pegmatite","category":7,"distinct_rating":7.11,"distinct_type":"Top","item_type":"Target","rt":943,"stimulus":"Stimuli_Rocks480/I_Pegmatite_11.png","response":"a","trial_type":"image-keyboard-response","trial_index":219,"plugin_version":"2.1.0","time_elapsed":595663,"subject_id":"92025","group":"Group2","condition":"1_Rep","full_date":"2026-02-12T22:48:32.124Z","date":"2026-02-12","time":"22:48:32","cor_ans":false},{"trial_type":"html-keyboard-response","rt":null,"stimulus":"<p style=\"color: red; font-size: 50px; font-weight: bold;\">Incorrect</p>","response":null,"trial_index":220,"plugin_version":"2.1.0","time_elapsed":596165,"subject_id":"92025","group":"Group2","condition":"1_Rep","full_date":"2026-02-12T22:48:32.124Z","date":"2026-02-12","time":"22:48:32"},{"correct_response":"a","task":"test_phase","broad_category":"S","image_png":"S_Sandstone_16.png","image_id":464,"category_name":"Sandstone","category":29,"distinct_rating":1.93,"distinct_type":"Bottom","item_type":"Foil","rt":1039,"stimulus":"Stimuli_Rocks480/S_Sandstone_16.png","response":"l","trial_type":"image-keyboard-response","trial_index":221,"plugin_version":"2.1.0","time_elapsed":597218,"subject_id":"92025","group":"Group2","condition":"1_Rep","full_date":"2026-02-12T22:48:32.124Z","date":"2026-02-12","time":"22:48:32","cor_ans":false},{"trial_type":"html-keyboard-response","rt":null,"stimulus":"<p style=\"color: red; font-size: 50px; font-weight: bold;\">Incorrect</p>","response":null,"trial_index":222,"plugin_version":"2.1.0","time_elapsed":597721,"subject_id":"92025","group":"Group2","condition":"1_Rep","full_date":"2026-02-12T22:48:32.124Z","date":"2026-02-12","time":"22:48:32"},{"correct_response":"a","task":"test_phase","broad_category":"I","image_png":"I_Pegmatite_16.png","image_id":112,"category_name":"Pegmatite","category":7,"distinct_rating":7.03,"distinct_type":"Top","item_type":"Foil","rt":1044,"stimulus":"Stimuli_Rocks480/I_Pegmatite_16.png","response":"a","trial_type":"image-keyboard-response","trial_index":223,"plugin_version":"2.1.0","time_elapsed":598781,"subject_id":"92025","group":"Group2","condition":"1_Rep","full_date":"2026-02-12T22:48:32.124Z","date":"2026-02-12","time":"22:48:32","cor_ans":true},{"trial_type":"html-keyboard-response","rt":null,"stimulus":"<p style=\"color: green; font-size: 50px; font-weight: bold;\">Correct</p>","response":null,"trial_index":224,"plugin_version":"2.1.0","time_elapsed":599283,"subject_id":"92025","group":"Group2","condition":"1_Rep","full_date":"2026-02-12T22:48:32.124Z","date":"2026-02-12","time":"22:48:32"},{"correct_response":"a","task":"test_phase","broad_cate