[{"width":1272,"height":668,"webaudio":true,"browser":"edge-chromium","browser_version":"145.0.0","mobile":false,"os":"Windows 10","fullscreen":true,"vsync_rate":60.86,"webcam":true,"microphone":true,"trial_type":"browser-check","trial_index":0,"plugin_version":"2.1.0","time_elapsed":992,"subject_id":"91495","group":"Group2","condition":"1_Rep","full_date":"2026-02-21T22:50:11.134Z","date":"2026-02-21","time":"22:50:11"},{"success":true,"timeout":false,"failed_images":[],"failed_audio":[],"failed_video":[],"trial_type":"preload","trial_index":1,"plugin_version":"2.1.0","time_elapsed":5391,"subject_id":"91495","group":"Group2","condition":"1_Rep","full_date":"2026-02-21T22:50:11.134Z","date":"2026-02-21","time":"22:50:11"},{"rt":11162,"url":"SONA_consent_memorability.html","trial_type":"external-html","trial_index":2,"plugin_version":"2.1.0","time_elapsed":16626,"subject_id":"91495","group":"Group2","condition":"1_Rep","full_date":"2026-02-21T22:50:11.134Z","date":"2026-02-21","time":"22:50:11"},{"success":true,"rt":2862,"trial_type":"fullscreen","trial_index":3,"plugin_version":"2.1.0","time_elapsed":20499,"subject_id":"91495","group":"Group2","condition":"1_Rep","full_date":"2026-02-21T22:50:11.134Z","date":"2026-02-21","time":"22:50:11"},{"rt":16064,"stimulus":"<div style=\"max-width: 760px; margin: auto; font-size: 20px; line-height: 1.5;\">\n      <h1 style=\"text-align:center; font-size: 30px;\">Instructions</h1>\n      <p>\n        Welcome to the study on <b>visual memory</b>. This experiment consists of <b>two phases</b>: \n        a <b>study phase</b> and a <b>test phase</b>.\n      </p>\n      <p>\n        In the study phase, you will see a series of rock images along with their category labels.\n        The images will appear one at a time.\n        <b>Your task</b> is to learn the categories to which the rock images belong \n        and to remember each image as accurately as possible.\n      </p> \n      <p>\n        Note that you will see each image only <b>once</b> during the study phase. \n          So, please pay close attention and try to remember each image carefully.\n      </p>\n      <p>\n        After the study phase, <b>your memory will be tested</b>. \n        Additional instructions for the test phase will be provided at that time.\n      </p>\n      <p>\n        If your computer has multiple <b>language settings</b> (e.g., English and another language),\n        please make sure it is set to English before starting.\n      </p>\n      <p>\n        You can track your progress using the <b>completion bar</b> at the top of the screen. \n        Please note that the bar will refresh when the test phase begins \n        to give you an accurate sense of your progress in both phases.\n      </p> \n      <p>\n        Press the button below when you are ready to begin.\n      </p>\n    </div>","response":0,"trial_type":"html-button-response","trial_index":4,"plugin_version":"2.1.0","time_elapsed":36565,"subject_id":"91495","group":"Group2","condition":"1_Rep","full_date":"2026-02-21T22:50:11.134Z","date":"2026-02-21","time":"22:50:11"},{"rt":null,"stimulus":"<p style=\"font-size: 50px; margin: 0; text-align: center;\">+</p>","response":null,"trial_type":"html-keyboard-response","trial_index":5,"plugin_version":"2.1.0","time_elapsed":37574,"subject_id":"91495","group":"Group2","condition":"1_Rep","full_date":"2026-02-21T22:50:11.134Z","date":"2026-02-21","time":"22:50:11"},{"task":"memory_phase","broad_category":"I","image_png":"I_Basalt_10.png","image_id":26,"category_name":"Basalt","category":2,"distinct_rating":2.76,"distinct_type":"Bottom","rt":null,"stimulus":"Stimuli_Rocks480/I_Basalt_10.png","response":null,"trial_type":"image-keyboard-response","trial_index":6,"plugin_version":"2.1.0","time_elapsed":40095,"subject_id":"91495","group":"Group2","condition":"1_Rep","full_date":"2026-02-21T22:50:11.134Z","date":"2026-02-21","time":"22:50:11"},{"rt":null,"stimulus":"<p style=\"font-size: 50px; margin: 0; text-align: center;\">+</p>","response":null,"trial_type":"html-keyboard-response","trial_index":7,"plugin_version":"2.1.0","time_elapsed":41099,"subject_id":"91495","group":"Group2","condition":"1_Rep","full_date":"2026-02-21T22:50:11.134Z","date":"2026-02-21","time":"22:50:11"},{"task":"memory_phase","broad_category":"I","image_png":"I_Peridotite_13.png","image_id":125,"category_name":"Peridotite","category":8,"distinct_rating":7.28,"distinct_type":"Top","rt":null,"stimulus":"Stimuli_Rocks480/I_Peridotite_13.png","response":null,"trial_type":"image-keyboard-response","trial_index":8,"plugin_version":"2.1.0","time_elapsed":43611,"subject_id":"91495","group":"Group2","condition":"1_Rep","full_date":"2026-02-21T22:50:11.134Z","date":"2026-02-21","time":"22:50:11"},{"rt":null,"stimulus":"<p style=\"font-size: 50px; margin: 0; text-align: center;\">+</p>","response":null,"trial_type":"html-keyboard-response","trial_index":9,"plugin_version":"2.1.0","time_elapsed":44621,"subject_id":"91495","group":"Group2","condition":"1_Rep","full_date":"2026-02-21T22:50:11.134Z","date":"2026-02-21","time":"22:50:11"},{"task":"memory_phase","broad_category":"I","image_png":"I_Pumice_14.png","image_id":142,"category_name":"Pumice","category":9,"distinct_rating":3.22,"distinct_type":"Bottom","rt":null,"stimulus":"Stimuli_Rocks480/I_Pumice_14.png","response":null,"trial_type":"image-keyboard-response","trial_index":10,"plugin_version":"2.1.0","time_elapsed":47130,"subject_id":"91495","group":"Group2","condition":"1_Rep","full_date":"2026-02-21T22:50:11.134Z","date":"2026-02-21","time":"22:50:11"},{"rt":null,"stimulus":"<p style=\"font-size: 50px; margin: 0; text-align: center;\">+</p>","response":null,"trial_type":"html-keyboard-response","trial_index":11,"plugin_version":"2.1.0","time_elapsed":48140,"subject_id":"91495","group":"Group2","condition":"1_Rep","full_date":"2026-02-21T22:50:11.134Z","date":"2026-02-21","time":"22:50:11"},{"task":"memory_phase","broad_category":"I","image_png":"I_Andesite_09.png","image_id":9,"category_name":"Andesite","category":1,"distinct_rating":2.49,"distinct_type":"Bottom","rt":null,"stimulus":"Stimuli_Rocks480/I_Andesite_09.png","response":null,"trial_type":"image-keyboard-response","trial_index":12,"plugin_version":"2.1.0","time_elapsed":50650,"subject_id":"91495","group":"Group2","condition":"1_Rep","full_date":"2026-02-21T22:50:11.134Z","date":"2026-02-21","time":"22:50:11"},{"rt":null,"stimulus":"<p style=\"font-size: 50px; margin: 0; text-align: center;\">+</p>","response":null,"trial_type":"html-keyboard-response","trial_index":13,"plugin_version":"2.1.0","time_elapsed":51654,"subject_id":"91495","group":"Group2","condition":"1_Rep","full_date":"2026-02-21T22:50:11.134Z","date":"2026-02-21","time":"22:50:11"},{"task":"memory_phase","broad_category":"M","image_png":"M_Quartzite_15.png","image_id":287,"category_name":"Quartzite","category":18,"distinct_rating":2.19,"distinct_type":"Bottom","rt":null,"stimulus":"Stimuli_Rocks480/M_Quartzite_15.png","response":null,"trial_type":"image-keyboard-response","trial_index":14,"plugin_version":"2.1.0","time_elapsed":54173,"subject_id":"91495","group":"Group2","condition":"1_Rep","full_date":"2026-02-21T22:50:11.134Z","date":"2026-02-21","time":"22:50:11"},{"rt":null,"stimulus":"<p style=\"font-size: 50px; margin: 0; text-align: center;\">+</p>","response":null,"trial_type":"html-keyboard-response","trial_index":15,"plugin_version":"2.1.0","time_elapsed":55188,"subject_id":"91495","group":"Group2","condition":"1_Rep","full_date":"2026-02-21T22:50:11.134Z","date":"2026-02-21","time":"22:50:11"},{"task":"memory_phase","broad_category":"S","image_png":"S_Shale_07.png","image_id":471,"category_name":"Shale","category":30,"distinct_rating":2.73,"distinct_type":"Bottom","rt":null,"stimulus":"Stimuli_Rocks480/S_Shale_07.png","response":null,"trial_type":"image-keyboard-response","trial_index":16,"plugin_version":"2.1.0","time_elapsed":57696,"subject_id":"91495","group":"Group2","condition":"1_Rep","full_date":"2026-02-21T22:50:11.134Z","date":"2026-02-21","time":"22:50:11"},{"rt":null,"stimulus":"<p style=\"font-size: 50px; margin: 0; text-align: center;\">+</p>","response":null,"trial_type":"html-keyboard-response","trial_index":17,"plugin_version":"2.1.0","time_elapsed":58702,"subject_id":"91495","group":"Group2","condition":"1_Rep","full_date":"2026-02-21T22:50:11.134Z","date":"2026-02-21","time":"22:50:11"},{"task":"memory_phase","broad_category":"I","image_png":"I_Andesite_04.png","image_id":4,"category_name":"Andesite","category":1,"distinct_rating":3.18,"distinct_type":"Bottom","rt":null,"stimulus":"Stimuli_Rocks480/I_Andesite_04.png","response":null,"trial_type":"image-keyboard-response","trial_index":18,"plugin_version":"2.1.0","time_elapsed":61220,"subject_id":"91495","group":"Group2","condition":"1_Rep","full_date":"2026-02-21T22:50:11.134Z","date":"2026-02-21","time":"22:50:11"},{"rt":null,"stimulus":"<p style=\"font-size: 50px; margin: 0; text-align: center;\">+</p>","response":null,"trial_type":"html-keyboard-response","trial_index":19,"plugin_version":"2.1.0","time_elapsed":62233,"subject_id":"91495","group":"Group2","condition":"1_Rep","full_date":"2026-02-21T22:50:11.134Z","date":"2026-02-21","time":"22:50:11"},{"task":"memory_phase","broad_category":"I","image_png":"I_Pumice_13.png","image_id":141,"category_name":"Pumice","category":9,"distinct_rating":3.12,"distinct_type":"Bottom","rt":null,"stimulus":"Stimuli_Rocks480/I_Pumice_13.png","response":null,"trial_type":"image-keyboard-response","trial_index":20,"plugin_version":"2.1.0","time_elapsed":64746,"subject_id":"91495","group":"Group2","condition":"1_Rep","full_date":"2026-02-21T22:50:11.134Z","date":"2026-02-21","time":"22:50:11"},{"rt":null,"stimulus":"<p style=\"font-size: 50px; margin: 0; text-align: center;\">+</p>","response":null,"trial_type":"html-keyboard-response","trial_index":21,"plugin_version":"2.1.0","time_elapsed":65760,"subject_id":"91495","group":"Group2","condition":"1_Rep","full_date":"2026-02-21T22:50:11.134Z","date":"2026-02-21","time":"22:50:11"},{"task":"memory_phase","broad_category":"S","image_png":"S_Dolomite_07.png","image_id":391,"category_name":"Dolomite","category":25,"distinct_rating":1.73,"distinct_type":"Bottom","rt":null,"stimulus":"Stimuli_Rocks480/S_Dolomite_07.png","response":null,"trial_type":"image-keyboard-response","trial_index":22,"plugin_version":"2.1.0","time_elapsed":68276,"subject_id":"91495","group":"Group2","condition":"1_Rep","full_date":"2026-02-21T22:50:11.134Z","date":"2026-02-21","time":"22:50:11"},{"rt":null,"stimulus":"<p style=\"font-size: 50px; margin: 0; text-align: center;\">+</p>","response":null,"trial_type":"html-keyboard-response","trial_index":23,"plugin_version":"2.1.0","time_elapsed":69284,"subject_id":"91495","group":"Group2","condition":"1_Rep","full_date":"2026-02-21T22:50:11.134Z","date":"2026-02-21","time":"22:50:11"},{"task":"memory_phase","broad_category":"I","image_png":"I_Diorite_10.png","image_id":42,"category_name":"Diorite","category":3,"distinct_rating":2.84,"distinct_type":"Bottom","rt":null,"stimulus":"Stimuli_Rocks480/I_Diorite_10.png","response":null,"trial_type":"image-keyboard-response","trial_index":24,"plugin_version":"2.1.0","time_elapsed":71801,"subject_id":"91495","group":"Group2","condition":"1_Rep","full_date":"2026-02-21T22:50:11.134Z","date":"2026-02-21","time":"22:50:11"},{"rt":null,"stimulus":"<p style=\"font-size: 50px; margin: 0; text-align: center;\">+</p>","response":null,"trial_type":"html-keyboard-response","trial_index":25,"plugin_version":"2.1.0","time_elapsed":72808,"subject_id":"91495","group":"Group2","condition":"1_Rep","full_date":"2026-02-21T22:50:11.134Z","date":"2026-02-21","time":"22:50:11"},{"task":"memory_phase","broad_category":"I","image_png":"I_Rhyolite_05.png","image_id":149,"category_name":"Rhyolite","category":10,"distinct_rating":3.02,"distinct_type":"Bottom","rt":null,"stimulus":"Stimuli_Rocks480/I_Rhyolite_05.png","response":null,"trial_type":"image-keyboard-response","trial_index":26,"plugin_version":"2.1.0","time_elapsed":75326,"subject_id":"91495","group":"Group2","condition":"1_Rep","full_date":"2026-02-21T22:50:11.134Z","date":"2026-02-21","time":"22:50:11"},{"rt":null,"stimulus":"<p style=\"font-size: 50px; margin: 0; text-align: center;\">+</p>","response":null,"trial_type":"html-keyboard-response","trial_index":27,"plugin_version":"2.1.0","time_elapsed":76337,"subject_id":"91495","group":"Group2","condition":"1_Rep","full_date":"2026-02-21T22:50:11.134Z","date":"2026-02-21","time":"22:50:11"},{"task":"memory_phase","broad_category":"M","image_png":"M_Slate_04.png","image_id":308,"category_name":"Slate","category":20,"distinct_rating":2.2,"distinct_type":"Bottom","rt":null,"stimulus":"Stimuli_Rocks480/M_Slate_04.png","response":null,"trial_type":"image-keyboard-response","trial_index":28,"plugin_version":"2.1.0","time_elapsed":78854,"subject_id":"91495","group":"Group2","condition":"1_Rep","full_date":"2026-02-21T22:50:11.134Z","date":"2026-02-21","time":"22:50:11"},{"rt":null,"stimulus":"<p style=\"font-size: 50px; margin: 0; text-align: center;\">+</p>","response":null,"trial_type":"html-keyboard-response","trial_index":29,"plugin_version":"2.1.0","time_elapsed":79857,"subject_id":"91495","group":"Group2","condition":"1_Rep","full_date":"2026-02-21T22:50:11.134Z","date":"2026-02-21","time":"22:50:11"},{"task":"memory_phase","broad_category":"M","image_png":"M_Slate_10.png","image_id":314,"category_name":"Slate","category":20,"distinct_rating":1.94,"distinct_type":"Bottom","rt":null,"stimulus":"Stimuli_Rocks480/M_Slate_10.png","response":null,"trial_type":"image-keyboard-response","trial_index":30,"plugin_version":"2.1.0","time_elapsed":82375,"subject_id":"91495","group":"Group2","condition":"1_Rep","full_date":"2026-02-21T22:50:11.134Z","date":"2026-02-21","time":"22:50:11"},{"rt":null,"stimulus":"<p style=\"font-size: 50px; margin: 0; text-align: center;\">+</p>","response":null,"trial_type":"html-keyboard-response","trial_index":31,"plugin_version":"2.1.0","time_elapsed":83382,"subject_id":"91495","group":"Group2","condition":"1_Rep","full_date":"2026-02-21T22:50:11.134Z","date":"2026-02-21","time":"22:50:11"},{"task":"memory_phase","broad_category":"I","image_png":"I_Diorite_01.png","image_id":33,"category_name":"Diorite","category":3,"distinct_rating":2.97,"distinct_type":"Bottom","rt":null,"stimulus":"Stimuli_Rocks480/I_Diorite_01.png","response":null,"trial_type":"image-keyboard-response","trial_index":32,"plugin_version":"2.1.0","time_elapsed":85901,"subject_id":"91495","group":"Group2","condition":"1_Rep","full_date":"2026-02-21T22:50:11.134Z","date":"2026-02-21","time":"22:50:11"},{"rt":null,"stimulus":"<p style=\"font-size: 50px; margin: 0; text-align: center;\">+</p>","response":null,"trial_type":"html-keyboard-response","trial_index":33,"plugin_version":"2.1.0","time_elapsed":86904,"subject_id":"91495","group":"Group2","condition":"1_Rep","full_date":"2026-02-21T22:50:11.134Z","date":"2026-02-21","time":"22:50:11"},{"task":"memory_phase","broad_category":"M","image_png":"M_Slate_14.png","image_id":318,"category_name":"Slate","category":20,"distinct_rating":2.58,"distinct_type":"Bottom","rt":null,"stimulus":"Stimuli_Rocks480/M_Slate_14.png","response":null,"trial_type":"image-keyboard-response","trial_index":34,"plugin_version":"2.1.0","time_elapsed":89422,"subject_id":"91495","group":"Group2","condition":"1_Rep","full_date":"2026-02-21T22:50:11.134Z","date":"2026-02-21","time":"22:50:11"},{"rt":null,"stimulus":"<p style=\"font-size: 50px; margin: 0; text-align: center;\">+</p>","response":null,"trial_type":"html-keyboard-response","trial_index":35,"plugin_version":"2.1.0","time_elapsed":90434,"subject_id":"91495","group":"Group2","condition":"1_Rep","full_date":"2026-02-21T22:50:11.134Z","date":"2026-02-21","time":"22:50:11"},{"task":"memory_phase","broad_category":"I","image_png":"I_Gabbro_12.png","image_id":60,"category_name":"Gabbro","category":4,"distinct_rating":2.6,"distinct_type":"Bottom","rt":null,"stimulus":"Stimuli_Rocks480/I_Gabbro_12.png","response":null,"trial_type":"image-keyboard-response","trial_index":36,"plugin_version":"2.1.0","time_elapsed":92946,"subject_id":"91495","group":"Group2","condition":"1_Rep","full_date":"2026-02-21T22:50:11.134Z","date":"2026-02-21","time":"22:50:11"},{"rt":null,"stimulus":"<p style=\"font-size: 50px; margin: 0; text-align: center;\">+</p>","response":null,"trial_type":"html-keyboard-response","trial_index":37,"plugin_version":"2.1.0","time_elapsed":93964,"subject_id":"91495","group":"Group2","condition":"1_Rep","full_date":"2026-02-21T22:50:11.134Z","date":"2026-02-21","time":"22:50:11"},{"task":"memory_phase","broad_category":"I","image_png":"I_Gabbro_14.png","image_id":62,"category_name":"Gabbro","category":4,"distinct_rating":2.95,"distinct_type":"Bottom","rt":null,"stimulus":"Stimuli_Rocks480/I_Gabbro_14.png","response":null,"trial_type":"image-keyboard-response","trial_index":38,"plugin_version":"2.1.0","time_elapsed":96480,"subject_id":"91495","group":"Group2","condition":"1_Rep","full_date":"2026-02-21T22:50:11.134Z","date":"2026-02-21","time":"22:50:11"},{"rt":null,"stimulus":"<p style=\"font-size: 50px; margin: 0; text-align: center;\">+</p>","response":null,"trial_type":"html-keyboard-response","trial_index":39,"plugin_version":"2.1.0","time_elapsed":97496,"subject_id":"91495","group":"Group2","condition":"1_Rep","full_date":"2026-02-21T22:50:11.134Z","date":"2026-02-21","time":"22:50:11"},{"task":"memory_phase","broad_category":"I","image_png":"I_Pegmatite_11.png","image_id":107,"category_name":"Pegmatite","category":7,"distinct_rating":7.11,"distinct_type":"Top","rt":null,"stimulus":"Stimuli_Rocks480/I_Pegmatite_11.png","response":null,"trial_type":"image-keyboard-response","trial_index":40,"plugin_version":"2.1.0","time_elapsed":100010,"subject_id":"91495","group":"Group2","condition":"1_Rep","full_date":"2026-02-21T22:50:11.134Z","date":"2026-02-21","time":"22:50:11"},{"rt":null,"stimulus":"<p style=\"font-size: 50px; margin: 0; text-align: center;\">+</p>","response":null,"trial_type":"html-keyboard-response","trial_index":41,"plugin_version":"2.1.0","time_elapsed":101014,"subject_id":"91495","group":"Group2","condition":"1_Rep","full_date":"2026-02-21T22:50:11.134Z","date":"2026-02-21","time":"22:50:11"},{"task":"memory_phase","broad_category":"M","image_png":"M_Marble_03.png","image_id":227,"category_name":"Marble","category":15,"distinct_rating":2.67,"distinct_type":"Bottom","rt":null,"stimulus":"Stimuli_Rocks480/M_Marble_03.png","response":null,"trial_type":"image-keyboard-response","trial_index":42,"plugin_version":"2.1.0","time_elapsed":103519,"subject_id":"91495","group":"Group2","condition":"1_Rep","full_date":"2026-02-21T22:50:11.134Z","date":"2026-02-21","time":"22:50:11"},{"rt":null,"stimulus":"<p style=\"font-size: 50px; margin: 0; text-align: center;\">+</p>","response":null,"trial_type":"html-keyboard-response","trial_index":43,"plugin_version":"2.1.0","time_elapsed":104527,"subject_id":"91495","group":"Group2","condition":"1_Rep","full_date":"2026-02-21T22:50:11.134Z","date":"2026-02-21","time":"22:50:11"},{"task":"memory_phase","broad_category":"I","image_png":"I_Gabbro_02.png","image_id":50,"category_name":"Gabbro","category":4,"distinct_rating":2.73,"distinct_type":"Bottom","rt":null,"stimulus":"Stimuli_Rocks480/I_Gabbro_02.png","response":null,"trial_type":"image-keyboard-response","trial_index":44,"plugin_version":"2.1.0","time_elapsed":107042,"subject_id":"91495","group":"Group2","condition":"1_Rep","full_date":"2026-02-21T22:50:11.134Z","date":"2026-02-21","time":"22:50:11"},{"rt":null,"stimulus":"<p style=\"font-size: 50px; margin: 0; text-align: center;\">+</p>","response":null,"trial_type":"html-keyboard-response","trial_index":45,"plugin_version":"2.1.0","time_elapsed":108056,"subject_id":"91495","group":"Group2","condition":"1_Rep","full_date":"2026-02-21T22:50:11.134Z","date":"2026-02-21","time":"22:50:11"},{"task":"memory_phase","broad_category":"M","image_png":"M_Phyllite_13.png","image_id":269,"category_name":"Phyllite","category":17,"distinct_rating":2.8,"distinct_type":"Bottom","rt":null,"stimulus":"Stimuli_Rocks480/M_Phyllite_13.png","response":null,"trial_type":"image-keyboard-response","trial_index":46,"plugin_version":"2.1.0","time_elapsed":110560,"subject_id":"91495","group":"Group2","condition":"1_Rep","full_date":"2026-02-21T22:50:11.134Z","date":"2026-02-21","time":"22:50:11"},{"rt":null,"stimulus":"<p style=\"font-size: 50px; margin: 0; text-align: center;\">+</p>","response":null,"trial_type":"html-keyboard-response","trial_index":47,"plugin_version":"2.1.0","time_elapsed":111563,"subject_id":"91495","group":"Group2","condition":"1_Rep","full_date":"2026-02-21T22:50:11.134Z","date":"2026-02-21","time":"22:50:11"},{"task":"memory_phase","broad_category":"S","image_png":"S_Shale_02.png","image_id":466,"category_name":"Shale","category":30,"distinct_rating":2.9,"distinct_type":"Bottom","rt":null,"stimulus":"Stimuli_Rocks480/S_Shale_02.png","response":null,"trial_type":"image-keyboard-response","trial_index":48,"plugin_version":"2.1.0","time_elapsed":114076,"subject_id":"91495","group":"Group2","condition":"1_Rep","full_date":"2026-02-21T22:50:11.134Z","date":"2026-02-21","time":"22:50:11"},{"rt":null,"stimulus":"<p style=\"font-size: 50px; margin: 0; text-align: center;\">+</p>","response":null,"trial_type":"html-keyboard-response","trial_index":49,"plugin_version":"2.1.0","time_elapsed":115088,"subject_id":"91495","group":"Group2","condition":"1_Rep","full_date":"2026-02-21T22:50:11.134Z","date":"2026-02-21","time":"22:50:11"},{"task":"memory_phase","broad_category":"S","image_png":"S_Sandstone_08.png","image_id":456,"category_name":"Sandstone","category":29,"distinct_rating":1.5,"distinct_type":"Bottom","rt":null,"stimulus":"Stimuli_Rocks480/S_Sandstone_08.png","response":null,"trial_type":"image-keyboard-response","trial_index":50,"plugin_version":"2.1.0","time_elapsed":117602,"subject_id":"91495","group":"Group2","condition":"1_Rep","full_date":"2026-02-21T22:50:11.134Z","date":"2026-02-21","time":"22:50:11"},{"rt":null,"stimulus":"<p style=\"font-size: 50px; margin: 0; text-align: center;\">+</p>","response":null,"trial_type":"html-keyboard-response","trial_index":51,"plugin_version":"2.1.0","time_elapsed":118611,"subject_id":"91495","group":"Group2","condition":"1_Rep","full_date":"2026-02-21T22:50:11.134Z","date":"2026-02-21","time":"22:50:11"},{"task":"memory_phase","broad_category":"S","image_png":"S_Rock Salt_15.png","image_id":447,"category_name":"Rock Salt","category":28,"distinct_rating":7.79,"distinct_type":"Top","rt":null,"stimulus":"Stimuli_Rocks480/S_Rock Salt_15.png","response":null,"trial_type":"image-keyboard-response","trial_index":52,"plugin_version":"2.1.0","time_elapsed":121128,"subject_id":"91495","group":"Group2","condition":"1_Rep","full_date":"2026-02-21T22:50:11.134Z","date":"2026-02-21","time":"22:50:11"},{"rt":null,"stimulus":"<p style=\"font-size: 50px; margin: 0; text-align: center;\">+</p>","response":null,"trial_type":"html-keyboard-response","trial_index":53,"plugin_version":"2.1.0","time_elapsed":122142,"subject_id":"91495","group":"Group2","condition":"1_Rep","full_date":"2026-02-21T22:50:11.134Z","date":"2026-02-21","time":"22:50:11"},{"task":"memory_phase","broad_category":"I","image_png":"I_Andesite_03.png","image_id":3,"category_name":"Andesite","category":1,"distinct_rating":3.17,"distinct_type":"Bottom","rt":null,"stimulus":"Stimuli_Rocks480/I_Andesite_03.png","response":null,"trial_type":"image-keyboard-response","trial_index":54,"plugin_version":"2.1.0","time_elapsed":124655,"subject_id":"91495","group":"Group2","condition":"1_Rep","full_date":"2026-02-21T22:50:11.134Z","date":"2026-02-21","time":"22:50:11"},{"rt":1762,"stimulus":"<p style=\"max-width: 760px; margin: auto; font-size: 35px; line-height: 1.5;\">\n                Press SPACE to continue study phase\n              </p>","response":" ","trial_type":"html-keyboard-response","trial_index":55,"plugin_version":"2.1.0","time_elapsed":126419,"subject_id":"91495","group":"Group2","condition":"1_Rep","full_date":"2026-02-21T22:50:11.134Z","date":"2026-02-21","time":"22:50:11"},{"rt":null,"stimulus":"<p style=\"font-size: 50px; margin: 0; text-align: center;\">+</p>","response":null,"trial_type":"html-keyboard-response","trial_index":56,"plugin_version":"2.1.0","time_elapsed":127425,"subject_id":"91495","group":"Group2","condition":"1_Rep","full_date":"2026-02-21T22:50:11.134Z","date":"2026-02-21","time":"22:50:11"},{"task":"memory_phase","broad_category":"M","image_png":"M_Gneiss_15.png","image_id":207,"category_name":"Gneiss","category":13,"distinct_rating":3.11,"distinct_type":"Bottom","rt":null,"stimulus":"Stimuli_Rocks480/M_Gneiss_15.png","response":null,"trial_type":"image-keyboard-response","trial_index":57,"plugin_version":"2.1.0","time_elapsed":129931,"subject_id":"91495","group":"Group2","condition":"1_Rep","full_date":"2026-02-21T22:50:11.134Z","date":"2026-02-21","time":"22:50:11"},{"rt":null,"stimulus":"<p style=\"font-size: 50px; margin: 0; text-align: center;\">+</p>","response":null,"trial_type":"html-keyboard-response","trial_index":58,"plugin_version":"2.1.0","time_elapsed":130947,"subject_id":"91495","group":"Group2","condition":"1_Rep","full_date":"2026-02-21T22:50:11.134Z","date":"2026-02-21","time":"22:50:11"},{"task":"memory_phase","broad_category":"I","image_png":"I_Rhyolite_10.png","image_id":154,"category_name":"Rhyolite","category":10,"distinct_rating":2.88,"distinct_type":"Bottom","rt":null,"stimulus":"Stimuli_Rocks480/I_Rhyolite_10.png","response":null,"trial_type":"image-keyboard-response","trial_index":59,"plugin_version":"2.1.0","time_elapsed":133457,"subject_id":"91495","group":"Group2","condition":"1_Rep","full_date":"2026-02-21T22:50:11.134Z","date":"2026-02-21","time":"22:50:11"},{"rt":null,"stimulus":"<p style=\"font-size: 50px; margin: 0; text-align: center;\">+</p>","response":null,"trial_type":"html-keyboard-response","trial_index":60,"plugin_version":"2.1.0","time_elapsed":134471,"subject_id":"91495","group":"Group2","condition":"1_Rep","full_date":"2026-02-21T22:50:11.134Z","date":"2026-02-21","time":"22:50:11"},{"task":"memory_phase","broad_category":"M","image_png":"M_Phyllite_05.png","image_id":261,"category_name":"Phyllite","category":17,"distinct_rating":2.14,"distinct_type":"Bottom","rt":null,"stimulus":"Stimuli_Rocks480/M_Phyllite_05.png","response":null,"trial_type":"image-keyboard-response","trial_index":61,"plugin_version":"2.1.0","time_elapsed":136990,"subject_id":"91495","group":"Group2","condition":"1_Rep","full_date":"2026-02-21T22:50:11.134Z","date":"2026-02-21","time":"22:50:11"},{"rt":null,"stimulus":"<p style=\"font-size: 50px; margin: 0; text-align: center;\">+</p>","response":null,"trial_type":"html-keyboard-response","trial_index":62,"plugin_version":"2.1.0","time_elapsed":138006,"subject_id":"91495","group":"Group2","condition":"1_Rep","full_date":"2026-02-21T22:50:11.134Z","date":"2026-02-21","time":"22:50:11"},{"task":"memory_phase","broad_category":"S","image_png":"S_Rock Salt_13.png","image_id":445,"category_name":"Rock Salt","category":28,"distinct_rating":7.58,"distinct_type":"Top","rt":null,"stimulus":"Stimuli_Rocks480/S_Rock Salt_13.png","response":null,"trial_type":"image-keyboard-response","trial_index":63,"plugin_version":"2.1.0","time_elapsed":140521,"subject_id":"91495","group":"Group2","condition":"1_Rep","full_date":"2026-02-21T22:50:11.134Z","date":"2026-02-21","time":"22:50:11"},{"rt":null,"stimulus":"<p style=\"font-size: 50px; margin: 0; text-align: center;\">+</p>","response":null,"trial_type":"html-keyboard-response","trial_index":64,"plugin_version":"2.1.0","time_elapsed":141532,"subject_id":"91495","group":"Group2","condition":"1_Rep","full_date":"2026-02-21T22:50:11.134Z","date":"2026-02-21","time":"22:50:11"},{"task":"memory_phase","broad_category":"S","image_png":"S_Shale_03.png","image_id":467,"category_name":"Shale","category":30,"distinct_rating":1.95,"distinct_type":"Bottom","rt":null,"stimulus":"Stimuli_Rocks480/S_Shale_03.png","response":null,"trial_type":"image-keyboard-response","trial_index":65,"plugin_version":"2.1.0","time_elapsed":144048,"subject_id":"91495","group":"Group2","condition":"1_Rep","full_date":"2026-02-21T22:50:11.134Z","date":"2026-02-21","time":"22:50:11"},{"rt":null,"stimulus":"<p style=\"font-size: 50px; margin: 0; text-align: center;\">+</p>","response":null,"trial_type":"html-keyboard-response","trial_index":66,"plugin_version":"2.1.0","time_elapsed":145053,"subject_id":"91495","group":"Group2","condition":"1_Rep","full_date":"2026-02-21T22:50:11.134Z","date":"2026-02-21","time":"22:50:11"},{"task":"memory_phase","broad_category":"S","image_png":"S_Chert_13.png","image_id":365,"category_name":"Chert","category":23,"distinct_rating":6.57,"distinct_type":"Top","rt":null,"stimulus":"Stimuli_Rocks480/S_Chert_13.png","response":null,"trial_type":"image-keyboard-response","trial_index":67,"plugin_version":"2.1.0","time_elapsed":147562,"subject_id":"91495","group":"Group2","condition":"1_Rep","full_date":"2026-02-21T22:50:11.134Z","date":"2026-02-21","time":"22:50:11"},{"rt":null,"stimulus":"<p style=\"font-size: 50px; margin: 0; text-align: center;\">+</p>","response":null,"trial_type":"html-keyboard-response","trial_index":68,"plugin_version":"2.1.0","time_elapsed":148572,"subject_id":"91495","group":"Group2","condition":"1_Rep","full_date":"2026-02-21T22:50:11.134Z","date":"2026-02-21","time":"22:50:11"},{"task":"memory_phase","broad_category":"M","image_png":"M_Gneiss_10.png","image_id":202,"category_name":"Gneiss","category":13,"distinct_rating":3.09,"distinct_type":"Bottom","rt":null,"stimulus":"Stimuli_Rocks480/M_Gneiss_10.png","response":null,"trial_type":"image-keyboard-response","trial_index":69,"plugin_version":"2.1.0","time_elapsed":151088,"subject_id":"91495","group":"Group2","condition":"1_Rep","full_date":"2026-02-21T22:50:11.134Z","date":"2026-02-21","time":"22:50:11"},{"rt":null,"stimulus":"<p style=\"font-size: 50px; margin: 0; text-align: center;\">+</p>","response":null,"trial_type":"html-keyboard-response","trial_index":70,"plugin_version":"2.1.0","time_elapsed":152097,"subject_id":"91495","group":"Group2","condition":"1_Rep","full_date":"2026-02-21T22:50:11.134Z","date":"2026-02-21","time":"22:50:11"},{"task":"memory_phase","broad_category":"I","image_png":"I_Diorite_15.png","image_id":47,"category_name":"Diorite","category":3,"distinct_rating":3.05,"distinct_type":"Bottom","rt":null,"stimulus":"Stimuli_Rocks480/I_Diorite_15.png","response":null,"trial_type":"image-keyboard-response","trial_index":71,"plugin_version":"2.1.0","time_elapsed":154600,"subject_id":"91495","group":"Group2","condition":"1_Rep","full_date":"2026-02-21T22:50:11.134Z","date":"2026-02-21","time":"22:50:11"},{"rt":null,"stimulus":"<p style=\"font-size: 50px; margin: 0; text-align: center;\">+</p>","response":null,"trial_type":"html-keyboard-response","trial_index":72,"plugin_version":"2.1.0","time_elapsed":155615,"subject_id":"91495","group":"Group2","condition":"1_Rep","full_date":"2026-02-21T22:50:11.134Z","date":"2026-02-21","time":"22:50:11"},{"task":"memory_phase","broad_category":"I","image_png":"I_Obsidian_06.png","image_id":86,"category_name":"Obsidian","category":6,"distinct_rating":8.01,"distinct_type":"Top","rt":null,"stimulus":"Stimuli_Rocks480/I_Obsidian_06.png","response":null,"trial_type":"image-keyboard-response","trial_index":73,"plugin_version":"2.1.0","time_elapsed":158119,"subject_id":"91495","group":"Group2","condition":"1_Rep","full_date":"2026-02-21T22:50:11.134Z","date":"2026-02-21","time":"22:50:11"},{"rt":null,"stimulus":"<p style=\"font-size: 50px; margin: 0; text-align: center;\">+</p>","response":null,"trial_type":"html-keyboard-response","trial_index":74,"plugin_version":"2.1.0","time_elapsed":159133,"subject_id":"91495","group":"Group2","condition":"1_Rep","full_date":"2026-02-21T22:50:11.134Z","date":"2026-02-21","time":"22:50:11"},{"task":"memory_phase","broad_category":"M","image_png":"M_Phyllite_02.png","image_id":258,"category_name":"Phyllite","category":17,"distinct_rating":2.89,"distinct_type":"Bottom","rt":null,"stimulus":"Stimuli_Rocks480/M_Phyllite_02.png","response":null,"trial_type":"image-keyboard-response","trial_index":75,"plugin_version":"2.1.0","time_elapsed":161651,"subject_id":"91495","group":"Group2","condition":"1_Rep","full_date":"2026-02-21T22:50:11.134Z","date":"2026-02-21","time":"22:50:11"},{"rt":null,"stimulus":"<p style=\"font-size: 50px; margin: 0; text-align: center;\">+</p>","response":null,"trial_type":"html-keyboard-response","trial_index":76,"plugin_version":"2.1.0","time_elapsed":162662,"subject_id":"91495","group":"Group2","condition":"1_Rep","full_date":"2026-02-21T22:50:11.134Z","date":"2026-02-21","time":"22:50:11"},{"task":"memory_phase","broad_category":"S","image_png":"S_Sandstone_11.png","image_id":459,"category_name":"Sandstone","category":29,"distinct_rating":1.82,"distinct_type":"Bottom","rt":null,"stimulus":"Stimuli_Rocks480/S_Sandstone_11.png","response":null,"trial_type":"image-keyboard-response","trial_index":77,"plugin_version":"2.1.0","time_elapsed":165170,"subject_id":"91495","group":"Group2","condition":"1_Rep","full_date":"2026-02-21T22:50:11.134Z","date":"2026-02-21","time":"22:50:11"},{"rt":null,"stimulus":"<p style=\"font-size: 50px; margin: 0; text-align: center;\">+</p>","response":null,"trial_type":"html-keyboard-response","trial_index":78,"plugin_version":"2.1.0","time_elapsed":166184,"subject_id":"91495","group":"Group2","condition":"1_Rep","full_date":"2026-02-21T22:50:11.134Z","date":"2026-02-21","time":"22:50:11"},{"task":"memory_phase","broad_category":"I","image_png":"I_Pumice_01.png","image_id":129,"category_name":"Pumice","category":9,"distinct_rating":3.25,"distinct_type":"Bottom","rt":null,"stimulus":"Stimuli_Rocks480/I_Pumice_01.png","response":null,"trial_type":"image-keyboard-response","trial_index":79,"plugin_version":"2.1.0","time_elapsed":168688,"subject_id":"91495","group":"Group2","condition":"1_Rep","full_date":"2026-02-21T22:50:11.134Z","date":"2026-02-21","time":"22:50:11"},{"rt":null,"stimulus":"<p style=\"font-size: 50px; margin: 0; text-align: center;\">+</p>","response":null,"trial_type":"html-keyboard-response","trial_index":80,"plugin_version":"2.1.0","time_elapsed":169697,"subject_id":"91495","group":"Group2","condition":"1_Rep","full_date":"2026-02-21T22:50:11.134Z","date":"2026-02-21","time":"22:50:11"},{"task":"memory_phase","broad_category":"M","image_png":"M_Gneiss_14.png","image_id":206,"category_name":"Gneiss","category":13,"distinct_rating":3.41,"distinct_type":"Bottom","rt":null,"stimulus":"Stimuli_Rocks480/M_Gneiss_14.png","response":null,"trial_type":"image-keyboard-response","trial_index":81,"plugin_version":"2.1.0","time_elapsed":172210,"subject_id":"91495","group":"Group2","condition":"1_Rep","full_date":"2026-02-21T22:50:11.134Z","date":"2026-02-21","time":"22:50:11"},{"rt":null,"stimulus":"<p style=\"font-size: 50px; margin: 0; text-align: center;\">+</p>","response":null,"trial_type":"html-keyboard-response","trial_index":82,"plugin_version":"2.1.0","time_elapsed":173213,"subject_id":"91495","group":"Group2","condition":"1_Rep","full_date":"2026-02-21T22:50:11.134Z","date":"2026-02-21","time":"22:50:11"},{"task":"memory_phase","broad_category":"M","image_png":"M_Quartzite_12.png","image_id":284,"category_name":"Quartzite","category":18,"distinct_rating":1.92,"distinct_type":"Bottom","rt":null,"stimulus":"Stimuli_Rocks480/M_Quartzite_12.png","response":null,"trial_type":"image-keyboard-response","trial_index":83,"plugin_version":"2.1.0","time_elapsed":175718,"subject_id":"91495","group":"Group2","condition":"1_Rep","full_date":"2026-02-21T22:50:11.134Z","date":"2026-02-21","time":"22:50:11"},{"rt":null,"stimulus":"<p style=\"font-size: 50px; margin: 0; text-align: center;\">+</p>","response":null,"trial_type":"html-keyboard-response","trial_index":84,"plugin_version":"2.1.0","time_elapsed":176731,"subject_id":"91495","group":"Group2","condition":"1_Rep","full_date":"2026-02-21T22:50:11.134Z","date":"2026-02-21","time":"22:50:11"},{"task":"memory_phase","broad_category":"M","image_png":"M_Marble_14.png","image_id":238,"category_name":"Marble","category":15,"distinct_rating":3.31,"distinct_type":"Bottom","rt":null,"stimulus":"Stimuli_Rocks480/M_Marble_14.png","response":null,"trial_type":"image-keyboard-response","trial_index":85,"plugin_version":"2.1.0","time_elapsed":179249,"subject_id":"91495","group":"Group2","condition":"1_Rep","full_date":"2026-02-21T22:50:11.134Z","date":"2026-02-21","time":"22:50:11"},{"rt":null,"stimulus":"<p style=\"font-size: 50px; margin: 0; text-align: center;\">+</p>","response":null,"trial_type":"html-keyboard-response","trial_index":86,"plugin_version":"2.1.0","time_elapsed":180262,"subject_id":"91495","group":"Group2","condition":"1_Rep","full_date":"2026-02-21T22:50:11.134Z","date":"2026-02-21","time":"22:50:11"},{"task":"memory_phase","broad_category":"I","image_png":"I_Basalt_13.png","image_id":29,"category_name":"Basalt","category":2,"distinct_rating":2.68,"distinct_type":"Bottom","rt":null,"stimulus":"Stimuli_Rocks480/I_Basalt_13.png","response":null,"trial_type":"image-keyboard-response","trial_index":87,"plugin_version":"2.1.0","time_elapsed":182769,"subject_id":"91495","group":"Group2","condition":"1_Rep","full_date":"2026-02-21T22:50:11.134Z","date":"2026-02-21","time":"22:50:11"},{"rt":null,"stimulus":"<p style=\"font-size: 50px; margin: 0; text-align: center;\">+</p>","response":null,"trial_type":"html-keyboard-response","trial_index":88,"plugin_version":"2.1.0","time_elapsed":183785,"subject_id":"91495","group":"Group2","condition":"1_Rep","full_date":"2026-02-21T22:50:11.134Z","date":"2026-02-21","time":"22:50:11"},{"task":"memory_phase","broad_category":"I","image_png":"I_Pegmatite_03.png","image_id":99,"category_name":"Pegmatite","category":7,"distinct_rating":7.24,"distinct_type":"Top","rt":null,"stimulus":"Stimuli_Rocks480/I_Pegmatite_03.png","response":null,"trial_type":"image-keyboard-response","trial_index":89,"plugin_version":"2.1.0","time_elapsed":186296,"subject_id":"91495","group":"Group2","condition":"1_Rep","full_date":"2026-02-21T22:50:11.134Z","date":"2026-02-21","time":"22:50:11"},{"rt":null,"stimulus":"<p style=\"font-size: 50px; margin: 0; text-align: center;\">+</p>","response":null,"trial_type":"html-keyboard-response","trial_index":90,"plugin_version":"2.1.0","time_elapsed":187307,"subject_id":"91495","group":"Group2","condition":"1_Rep","full_date":"2026-02-21T22:50:11.134Z","date":"2026-02-21","time":"22:50:11"},{"task":"memory_phase","broad_category":"S","image_png":"S_Conglomerate_14.png","image_id":382,"category_name":"Conglomerate","category":24,"distinct_rating":6.86,"distinct_type":"Top","rt":null,"stimulus":"Stimuli_Rocks480/S_Conglomerate_14.png","response":null,"trial_type":"image-keyboard-response","trial_index":91,"plugin_version":"2.1.0","time_elapsed":189814,"subject_id":"91495","group":"Group2","condition":"1_Rep","full_date":"2026-02-21T22:50:11.134Z","date":"2026-02-21","time":"22:50:11"},{"rt":null,"stimulus":"<p style=\"font-size: 50px; margin: 0; text-align: center;\">+</p>","response":null,"trial_type":"html-keyboard-response","trial_index":92,"plugin_version":"2.1.0","time_elapsed":190826,"subject_id":"91495","group":"Group2","condition":"1_Rep","full_date":"2026-02-21T22:50:11.134Z","date":"2026-02-21","time":"22:50:11"},{"task":"memory_phase","broad_category":"S","image_png":"S_Dolomite_16.png","image_id":400,"category_name":"Dolomite","category":25,"distinct_rating":1.71,"distinct_type":"Bottom","rt":null,"stimulus":"Stimuli_Rocks480/S_Dolomite_16.png","response":null,"trial_type":"image-keyboard-response","trial_index":93,"plugin_version":"2.1.0","time_elapsed":193337,"subject_id":"91495","group":"Group2","condition":"1_Rep","full_date":"2026-02-21T22:50:11.134Z","date":"2026-02-21","time":"22:50:11"},{"rt":null,"stimulus":"<p style=\"font-size: 50px; margin: 0; text-align: center;\">+</p>","response":null,"trial_type":"html-keyboard-response","trial_index":94,"plugin_version":"2.1.0","time_elapsed":194345,"subject_id":"91495","group":"Group2","condition":"1_Rep","full_date":"2026-02-21T22:50:11.134Z","date":"2026-02-21","time":"22:50:11"},{"task":"memory_phase","broad_category":"S","image_png":"S_Dolomite_01.png","image_id":385,"category_name":"Dolomite","category":25,"distinct_rating":1.43,"distinct_type":"Bottom","rt":null,"stimulus":"Stimuli_Rocks480/S_Dolomite_01.png","response":null,"trial_type":"image-keyboard-response","trial_index":95,"plugin_version":"2.1.0","time_elapsed":196861,"subject_id":"91495","group":"Group2","condition":"1_Rep","full_date":"2026-02-21T22:50:11.134Z","date":"2026-02-21","time":"22:50:11"},{"rt":null,"stimulus":"<p style=\"font-size: 50px; margin: 0; text-align: center;\">+</p>","response":null,"trial_type":"html-keyboard-response","trial_index":96,"plugin_version":"2.1.0","time_elapsed":197877,"subject_id":"91495","group":"Group2","condition":"1_Rep","full_date":"2026-02-21T22:50:11.134Z","date":"2026-02-21","time":"22:50:11"},{"task":"memory_phase","broad_category":"S","image_png":"S_Sandstone_04.png","image_id":452,"category_name":"Sandstone","category":29,"distinct_rating":1.8,"distinct_type":"Bottom","rt":null,"stimulus":"Stimuli_Rocks480/S_Sandstone_04.png","response":null,"trial_type":"image-keyboard-response","trial_index":97,"plugin_version":"2.1.0","time_elapsed":200387,"subject_id":"91495","group":"Group2","condition":"1_Rep","full_date":"2026-02-21T22:50:11.134Z","date":"2026-02-21","time":"22:50:11"},{"rt":null,"stimulus":"<p style=\"font-size: 50px; margin: 0; text-align: center;\">+</p>","response":null,"trial_type":"html-keyboard-response","trial_index":98,"plugin_version":"2.1.0","time_elapsed":201402,"subject_id":"91495","group":"Group2","condition":"1_Rep","full_date":"2026-02-21T22:50:11.134Z","date":"2026-02-21","time":"22:50:11"},{"task":"memory_phase","broad_category":"M","image_png":"M_Marble_02.png","image_id":226,"category_name":"Marble","category":15,"distinct_rating":3.2,"distinct_type":"Bottom","rt":null,"stimulus":"Stimuli_Rocks480/M_Marble_02.png","response":null,"trial_type":"image-keyboard-response","trial_index":99,"plugin_version":"2.1.0","time_elapsed":203919,"subject_id":"91495","group":"Group2","condition":"1_Rep","full_date":"2026-02-21T22:50:11.134Z","date":"2026-02-21","time":"22:50:11"},{"rt":null,"stimulus":"<p style=\"font-size: 50px; margin: 0; text-align: center;\">+</p>","response":null,"trial_type":"html-keyboard-response","trial_index":100,"plugin_version":"2.1.0","time_elapsed":204931,"subject_id":"91495","group":"Group2","condition":"1_Rep","full_date":"2026-02-21T22:50:11.134Z","date":"2026-02-21","time":"22:50:11"},{"task":"memory_phase","broad_category":"I","image_png":"I_Rhyolite_08.png","image_id":152,"category_name":"Rhyolite","category":10,"distinct_rating":1.38,"distinct_type":"Bottom","rt":null,"stimulus":"Stimuli_Rocks480/I_Rhyolite_08.png","response":null,"trial_type":"image-keyboard-response","trial_index":101,"plugin_version":"2.1.0","time_elapsed":207449,"subject_id":"91495","group":"Group2","condition":"1_Rep","full_date":"2026-02-21T22:50:11.134Z","date":"2026-02-21","time":"22:50:11"},{"rt":null,"stimulus":"<p style=\"font-size: 50px; margin: 0; text-align: center;\">+</p>","response":null,"trial_type":"html-keyboard-response","trial_index":102,"plugin_version":"2.1.0","time_elapsed":208465,"subject_id":"91495","group":"Group2","condition":"1_Rep","full_date":"2026-02-21T22:50:11.134Z","date":"2026-02-21","time":"22:50:11"},{"task":"memory_phase","broad_category":"M","image_png":"M_Quartzite_07.png","image_id":279,"category_name":"Quartzite","category":18,"distinct_rating":1.97,"distinct_type":"Bottom","rt":null,"stimulus":"Stimuli_Rocks480/M_Quartzite_07.png","response":null,"trial_type":"image-keyboard-response","trial_index":103,"plugin_version":"2.1.0","time_elapsed":210984,"subject_id":"91495","group":"Group2","condition":"1_Rep","full_date":"2026-02-21T22:50:11.134Z","date":"2026-02-21","time":"22:50:11"},{"rt":null,"stimulus":"<p style=\"font-size: 50px; margin: 0; text-align: center;\">+</p>","response":null,"trial_type":"html-keyboard-response","trial_index":104,"plugin_version":"2.1.0","time_elapsed":211996,"subject_id":"91495","group":"Group2","condition":"1_Rep","full_date":"2026-02-21T22:50:11.134Z","date":"2026-02-21","time":"22:50:11"},{"task":"memory_phase","broad_category":"I","image_png":"I_Basalt_08.png","image_id":24,"category_name":"Basalt","category":2,"distinct_rating":2.31,"distinct_type":"Bottom","rt":null,"stimulus":"Stimuli_Rocks480/I_Basalt_08.png","response":null,"trial_type":"image-keyboard-response","trial_index":105,"plugin_version":"2.1.0","time_elapsed":214509,"subject_id":"91495","group":"Group2","condition":"1_Rep","full_date":"2026-02-21T22:50:11.134Z","date":"2026-02-21","time":"22:50:11"},{"rt":15971,"stimulus":"<div style=\"max-width: 760px; margin: auto; font-size: 20px; line-height: 1.5;\">\n      <h1 style=\"text-align:center; font-size: 30px;\">Instructions for the Test Phase</h1>\n      <p>\n        The study phase is now complete.\n      </p>\n      <p>\n        In the test phase, you will again see a series of rock images. \n        Some will be ones you saw before - during the study phase, while others will be new.  \n        <b>Your task</b> is to decide whether you have seen each image before by pressing the corresponding key on your keyboard:<br><br>\n          <b>A</b> - NO (you did not see this image before)<br>\n          <b>L</b> - YES (you saw this image before)<br><br>\n        The test will proceed at your own pace. You will receive feedback after each response.  \n        Please try to respond <b>as accurately as possible</b>.\n      </p>\n      <p>\n        <b>Reminder:</b> If your computer has multiple language settings (e.g., English and another language),\n        please ensure it is set to English during the test phase.\n      </p>\n      <p>\n        You can track your progress using the <b>completion bar</b> at the top of the screen.  \n        Note that it has been refreshed to reflect your progress during this final phase.\n      </p>\n      <p>\n        Press the button below when you are ready to continue.\n      </p>\n    </div>","response":0,"trial_type":"html-button-response","trial_index":106,"plugin_version":"2.1.0","time_elapsed":230484,"subject_id":"91495","group":"Group2","condition":"1_Rep","full_date":"2026-02-21T22:50:11.134Z","date":"2026-02-21","time":"22:50:11"},{"correct_response":"l","task":"test_phase","broad_category":"S","image_png":"S_Shale_07.png","image_id":471,"category_name":"Shale","category":30,"distinct_rating":2.73,"distinct_type":"Bottom","item_type":"Target","rt":3597,"stimulus":"Stimuli_Rocks480/S_Shale_07.png","response":"a","trial_type":"image-keyboard-response","trial_index":107,"plugin_version":"2.1.0","time_elapsed":234086,"subject_id":"91495","group":"Group2","condition":"1_Rep","full_date":"2026-02-21T22:50:11.134Z","date":"2026-02-21","time":"22:50:11","cor_ans":false},{"trial_type":"html-keyboard-response","rt":null,"stimulus":"<p style=\"color: red; font-size: 50px; font-weight: bold;\">Incorrect</p>","response":null,"trial_index":108,"plugin_version":"2.1.0","time_elapsed":234600,"subject_id":"91495","group":"Group2","condition":"1_Rep","full_date":"2026-02-21T22:50:11.134Z","date":"2026-02-21","time":"22:50:11"},{"correct_response":"l","task":"test_phase","broad_category":"M","image_png":"M_Gneiss_10.png","image_id":202,"category_name":"Gneiss","category":13,"distinct_rating":3.09,"distinct_type":"Bottom","item_type":"Target","rt":1895,"stimulus":"Stimuli_Rocks480/M_Gneiss_10.png","response":"a","trial_type":"image-keyboard-response","trial_index":109,"plugin_version":"2.1.0","time_elapsed":236499,"subject_id":"91495","group":"Group2","condition":"1_Rep","full_date":"2026-02-21T22:50:11.134Z","date":"2026-02-21","time":"22:50:11","cor_ans":false},{"trial_type":"html-keyboard-response","rt":null,"stimulus":"<p style=\"color: red; font-size: 50px; font-weight: bold;\">Incorrect</p>","response":null,"trial_index":110,"plugin_version":"2.1.0","time_elapsed":237002,"subject_id":"91495","group":"Group2","condition":"1_Rep","full_date":"2026-02-21T22:50:11.134Z","date":"2026-02-21","time":"22:50:11"},{"correct_response":"a","task":"test_phase","broad_category":"S","image_png":"S_Sandstone_15.png","image_id":463,"category_name":"Sandstone","category":29,"distinct_rating":2,"distinct_type":"Bottom","item_type":"Foil","rt":4035,"stimulus":"Stimuli_Rocks480/S_Sandstone_15.png","response":"l","trial_type":"image-keyboard-response","trial_index":111,"plugin_version":"2.1.0","time_elapsed":241041,"subject_id":"91495","group":"Group2","condition":"1_Rep","full_date":"2026-02-21T22:50:11.134Z","date":"2026-02-21","time":"22:50:11","cor_ans":false},{"trial_type":"html-keyboard-response","rt":null,"stimulus":"<p style=\"color: red; font-size: 50px; font-weight: bold;\">Incorrect</p>","response":null,"trial_index":112,"plugin_version":"2.1.0","time_elapsed":241550,"subject_id":"91495","group":"Group2","condition":"1_Rep","full_date":"2026-02-21T22:50:11.134Z","date":"2026-02-21","time":"22:50:11"},{"correct_response":"l","task":"test_phase","broad_category":"I","image_png":"I_Andesite_03.png","image_id":3,"category_name":"Andesite","category":1,"distinct_rating":3.17,"distinct_type":"Bottom","item_type":"Target","rt":2212,"stimulus":"Stimuli_Rocks480/I_Andesite_03.png","response":"l","trial_type":"image-keyboard-response","trial_index":113,"plugin_version":"2.1.0","time_elapsed":243767,"subject_id":"91495","group":"Group2","condition":"1_Rep","full_date":"2026-02-21T22:50:11.134Z","date":"2026-02-21","time":"22:50:11","cor_ans":true},{"trial_type":"html-keyboard-response","rt":null,"stimulus":"<p style=\"color: green; font-size: 50px; font-weight: bold;\">Correct</p>","response":null,"trial_index":114,"plugin_version":"2.1.0","time_elapsed":244279,"subject_id":"91495","group":"Group2","condition":"1_Rep","full_date":"2026-02-21T22:50:11.134Z","date":"2026-02-21","time":"22:50:11"},{"correct_response":"l","task":"test_phase","broad_category":"I","image_png":"I_Gabbro_12.png","image_id":60,"category_name":"Gabbro","category":4,"distinct_rating":2.6,"distinct_type":"Bottom","item_type":"Target","rt":1655,"stimulus":"Stimuli_Rocks480/I_Gabbro_12.png","response":"l","trial_type":"image-keyboard-response","trial_index":115,"plugin_version":"2.1.0","time_elapsed":245938,"subject_id":"91495","group":"Group2","condition":"1_Rep","full_date":"2026-02-21T22:50:11.134Z","date":"2026-02-21","time":"22:50:11","cor_ans":true},{"trial_type":"html-keyboard-response","rt":null,"stimulus":"<p style=\"color: green; font-size: 50px; font-weight: bold;\">Correct</p>","response":null,"trial_index":116,"plugin_version":"2.1.0","time_elapsed":246454,"subject_id":"91495","group":"Group2","condition":"1_Rep","full_date":"2026-02-21T22:50:11.134Z","date":"2026-02-21","time":"22:50:11"},{"correct_response":"a","task":"test_phase","broad_category":"I","image_png":"I_Andesite_06.png","image_id":6,"category_name":"Andesite","category":1,"distinct_rating":3.17,"distinct_type":"Bottom","item_type":"Foil","rt":2199,"stimulus":"Stimuli_Rocks480/I_Andesite_06.png","response":"l","trial_type":"image-keyboard-response","trial_index":117,"plugin_version":"2.1.0","time_elapsed":248657,"subject_id":"91495","group":"Group2","condition":"1_Rep","full_date":"2026-02-21T22:50:11.134Z","date":"2026-02-21","time":"22:50:11","cor_ans":false},{"trial_type":"html-keyboard-response","rt":null,"stimulus":"<p style=\"color: red; font-size: 50px; font-weight: bold;\">Incorrect</p>","response":null,"trial_index":118,"plugin_version":"2.1.0","time_elapsed":249169,"subject_id":"91495","group":"Group2","condition":"1_Rep","full_date":"2026-02-21T22:50:11.134Z","date":"2026-02-21","time":"22:50:11"},{"correct_response":"a","task":"test_phase","broad_category":"S","image_png":"S_Sandstone_03.png","image_id":451,"category_name":"Sandstone","category":29,"distinct_rating":1.86,"distinct_type":"Bottom","item_type":"Foil","rt":1558,"stimulus":"Stimuli_Rocks480/S_Sandstone_03.png","response":"a","trial_type":"image-keyboard-response","trial_index":119,"plugin_version":"2.1.0","time_elapsed":250731,"subject_id":"91495","group":"Group2","condition":"1_Rep","full_date":"2026-02-21T22:50:11.134Z","date":"2026-02-21","time":"22:50:11","cor_ans":true},{"trial_type":"html-keyboard-response","rt":null,"stimulus":"<p style=\"color: green; font-size: 50px; font-weight: bold;\">Correct</p>","response":null,"trial_index":120,"plugin_version":"2.1.0","time_elapsed":251239,"subject_id":"91495","group":"Group2","condition":"1_Rep","full_date":"2026-02-21T22:50:11.134Z","date":"2026-02-21","time":"22:50:11"},{"correct_response":"l","task":"test_phase","broad_category":"M","image_png":"M_Phyllite_13.png","image_id":269,"category_name":"Phyllite","category":17,"distinct_rating":2.8,"distinct_type":"Bottom","item_type":"Target","rt":1463,"stimulus":"Stimuli_Rocks480/M_Phyllite_13.png","response":"l","trial_type":"image-keyboard-response","trial_index":121,"plugin_version":"2.1.0","time_elapsed":252705,"subject_id":"91495","group":"Group2","condition":"1_Rep","full_date":"2026-02-21T22:50:11.134Z","date":"2026-02-21","time":"22:50:11","cor_ans":true},{"trial_type":"html-keyboard-response","rt":null,"stimulus":"<p style=\"color: green; font-size: 50px; font-weight: bold;\">Correct</p>","response":null,"trial_index":122,"plugin_version":"2.1.0","time_elapsed":253207,"subject_id":"91495","group":"Group2","condition":"1_Rep","full_date":"2026-02-21T22:50:11.134Z","date":"2026-02-21","time":"22:50:11"},{"correct_response":"a","task":"test_phase","broad_category":"I","image_png":"I_Basalt_09.png","image_id":25,"category_name":"Basalt","category":2,"distinct_rating":1.89,"distinct_type":"Bottom","item_type":"Foil","rt":1593,"stimulus":"Stimuli_Rocks480/I_Basalt_09.png","response":"a","trial_type":"image-keyboard-response","trial_index":123,"plugin_version":"2.1.0","time_elapsed":254804,"subject_id":"91495","group":"Group2","condition":"1_Rep","full_date":"2026-02-21T22:50:11.134Z","date":"2026-02-21","time":"22:50:11","cor_ans":true},{"trial_type":"html-keyboard-response","rt":null,"stimulus":"<p style=\"color: green; font-size: 50px; font-weight: bold;\">Correct</p>","response":null,"trial_index":124,"plugin_version":"2.1.0","time_elapsed":255311,"subject_id":"91495","group":"Group2","condition":"1_Rep","full_date":"2026-02-21T22:50:11.134Z","date":"2026-02-21","time":"22:50:11"},{"correct_response":"a","task":"test_phase","broad_category":"M","image_png":"M_Phyllite_10.png","image_id":266,"category_name":"Phyllite","category":17,"distinct_rating":2.6,"distinct_type":"Bottom","item_type":"Foil","rt":988,"stimulus":"Stimuli_Rocks480/M_Phyllite_10.png","response":"a","trial_type":"image-keyboard-response","trial_index":125,"plugin_version":"2.1.0","time_elapsed":256301,"subject_id":"91495","group":"Group2","condition":"1_Rep","full_date":"2026-02-21T22:50:11.134Z","date":"2026-02-21","time":"22:50:11","cor_ans":true},{"trial_type":"html-keyboard-response","rt":null,"stimulus":"<p style=\"color: green; font-size: 50px; font-weight: bold;\">Correct</p>","response":null,"trial_index":126,"plugin_version":"2.1.0","time_elapsed":256803,"subject_id":"91495","group":"Group2","condition":"1_Rep","full_date":"2026-02-21T22:50:11.134Z","date":"2026-02-21","time":"22:50:11"},{"correct_response":"l","task":"test_phase","broad_category":"M","image_png":"M_Phyllite_05.png","image_id":261,"category_name":"Phyllite","category":17,"distinct_rating":2.14,"distinct_type":"Bottom","item_type":"Target","rt":1100,"stimulus":"Stimuli_Rocks480/M_Phyllite_05.png","response":"l","trial_type":"image-keyboard-response","trial_index":127,"plugin_version":"2.1.0","time_elapsed":257906,"subject_id":"91495","group":"Group2","condition":"1_Rep","full_date":"2026-02-21T22:50:11.134Z","date":"2026-02-21","time":"22:50:11","cor_ans":true},{"trial_type":"html-keyboard-response","rt":null,"stimulus":"<p style=\"color: green; font-size: 50px; font-weight: bold;\">Correct</p>","response":null,"trial_index":128,"plugin_version":"2.1.0","time_elapsed":258415,"subject_id":"91495","group":"Group2","condition":"1_Rep","full_date":"2026-02-21T22:50:11.134Z","date":"2026-02-21","time":"22:50:11"},{"correct_response":"a","task":"test_phase","broad_category":"I","image_png":"I_Rhyolite_16.png","image_id":160,"category_name":"Rhyolite","category":10,"distinct_rating":2.19,"distinct_type":"Bottom","item_type":"Foil","rt":1021,"stimulus":"Stimuli_Rocks480/I_Rhyolite_16.png","response":"l","trial_type":"image-keyboard-response","trial_index":129,"plugin_version":"2.1.0","time_elapsed":259438,"subject_id":"91495","group":"Group2","condition":"1_Rep","full_date":"2026-02-21T22:50:11.134Z","date":"2026-02-21","time":"22:50:11","cor_ans":false},{"trial_type":"html-keyboard-response","rt":null,"stimulus":"<p style=\"color: red; font-size: 50px; font-weight: bold;\">Incorrect</p>","response":null,"trial_index":130,"plugin_version":"2.1.0","time_elapsed":259951,"subject_id":"91495","group":"Group2","condition":"1_Rep","full_date":"2026-02-21T22:50:11.134Z","date":"2026-02-21","time":"22:50:11"},{"correct_response":"a","task":"test_phase","broad_category":"I","image_png":"I_Gabbro_08.png","image_id":56,"category_name":"Gabbro","category":4,"distinct_rating":3.02,"distinct_type":"Bottom","item_type":"Foil","rt":674,"stimulus":"Stimuli_Rocks480/I_Gabbro_08.png","response":"l","trial_type":"image-keyboard-response","trial_index":131,"plugin_version":"2.1.0","time_elapsed":260631,"subject_id":"91495","group":"Group2","condition":"1_Rep","full_date":"2026-02-21T22:50:11.134Z","date":"2026-02-21","time":"22:50:11","cor_ans":false},{"trial_type":"html-keyboard-response","rt":null,"stimulus":"<p style=\"color: red; font-size: 50px; font-weight: bold;\">Incorrect</p>","response":null,"trial_index":132,"plugin_version":"2.1.0","time_elapsed":261135,"subject_id":"91495","group":"Group2","condition":"1_Rep","full_date":"2026-02-21T22:50:11.134Z","date":"2026-02-21","time":"22:50:11"},{"correct_response":"a","task":"test_phase","broad_category":"I","image_png":"I_Obsidian_05.png","image_id":85,"category_name":"Obsidian","category":6,"distinct_rating":7.32,"distinct_type":"Top","item_type":"Foil","rt":879,"stimulus":"Stimuli_Rocks480/I_Obsidian_05.png","response":"a","trial_type":"image-keyboard-response","trial_index":133,"plugin_version":"2.1.0","time_elapsed":262018,"subject_id":"91495","group":"Group2","condition":"1_Rep","full_date":"2026-02-21T22:50:11.134Z","date":"2026-02-21","time":"22:50:11","cor_ans":true},{"trial_type":"html-keyboard-response","rt":null,"stimulus":"<p style=\"color: green; font-size: 50px; font-weight: bold;\">Correct</p>","response":null,"trial_index":134,"plugin_version":"2.1.0","time_elapsed":262529,"subject_id":"91495","group":"Group2","condition":"1_Rep","full_date":"2026-02-21T22:50:11.134Z","date":"2026-02-21","time":"22:50:11"},{"correct_response":"l","task":"test_phase","broad_category":"I","image_png":"I_Andesite_04.png","image_id":4,"category_name":"Andesite","category":1,"distinct_rating":3.18,"distinct_type":"Bottom","item_type":"Target","rt":1452,"stimulus":"Stimuli_Rocks480/I_Andesite_04.png","response":"a","trial_type":"image-keyboard-response","trial_index":135,"plugin_version":"2.1.0","time_elapsed":263984,"subject_id":"91495","group":"Group2","condition":"1_Rep","full_date":"2026-02-21T22:50:11.134Z","date":"2026-02-21","time":"22:50:11","cor_ans":false},{"trial_type":"html-keyboard-response","rt":null,"stimulus":"<p style=\"color: red; font-size: 50px; font-weight: bold;\">Incorrect</p>","response":null,"trial_index":136,"plugin_version":"2.1.0","time_elapsed":264491,"subject_id":"91495","group":"Group2","condition":"1_Rep","full_date":"2026-02-21T22:50:11.134Z","date":"2026-02-21","time":"22:50:11"},{"correct_response":"l","task":"test_phase","broad_category":"M","image_png":"M_Quartzite_12.png","image_id":284,"category_name":"Quartzite","category":18,"distinct_rating":1.92,"distinct_type":"Bottom","item_type":"Target","rt":1226,"stimulus":"Stimuli_Rocks480/M_Quartzite_12.png","response":"a","trial_type":"image-keyboard-response","trial_index":137,"plugin_version":"2.1.0","time_elapsed":265720,"subject_id":"91495","group":"Group2","condition":"1_Rep","full_date":"2026-02-21T22:50:11.134Z","date":"2026-02-21","time":"22:50:11","cor_ans":false},{"trial_type":"html-keyboard-response","rt":null,"stimulus":"<p style=\"color: red; font-size: 50px; font-weight: bold;\">Incorrect</p>","response":null,"trial_index":138,"plugin_version":"2.1.0","time_elapsed":266236,"subject_id":"91495","group":"Group2","condition":"1_Rep","full_date":"2026-02-21T22:50:11.134Z","date":"2026-02-21","time":"22:50:11"},{"correct_response":"a","task":"test_phase","broad_category":"S","image_png":"S_Conglomerate_05.png","image_id":373,"category_name":"Conglomerate","category":24,"distinct_rating":7.32,"distinct_type":"Top","item_type":"Foil","rt":1027,"stimulus":"Stimuli_Rocks480/S_Conglomerate_05.png","response":"a","trial_type":"image-keyboard-response","trial_index":139,"plugin_version":"2.1.0","time_elapsed":267265,"subject_id":"91495","group":"Group2","condition":"1_Rep","full_date":"2026-02-21T22:50:11.134Z","date":"2026-02-21","time":"22:50:11","cor_ans":true},{"trial_type":"html-keyboard-response","rt":null,"stimulus":"<p style=\"color: green; font-size: 50px; font-weight: bold;\">Correct</p>","response":null,"trial_index":140,"plugin_version":"2.1.0","time_elapsed":267777,"subject_id":"91495","group":"Group2","condition":"1_Rep","full_date":"2026-02-21T22:50:11.134Z","date":"2026-02-21","time":"22:50:11"},{"correct_response":"a","task":"test_phase","broad_category":"S","image_png":"S_Rock Salt_01.png","image_id":433,"category_name":"Rock Salt","category":28,"distinct_rating":7.18,"distinct_type":"Top","item_type":"Foil","rt":1340,"stimulus":"Stimuli_Rocks480/S_Rock Salt_01.png","response":"a","trial_type":"image-keyboard-response","trial_index":141,"plugin_version":"2.1.0","time_elapsed":269121,"subject_id":"91495","group":"Group2","condition":"1_Rep","full_date":"2026-02-21T22:50:11.134Z","date":"2026-02-21","time":"22:50:11","cor_ans":true},{"trial_type":"html-keyboard-response","rt":null,"stimulus":"<p style=\"color: green; font-size: 50px; font-weight: bold;\">Correct</p>","response":null,"trial_index":142,"plugin_version":"2.1.0","time_elapsed":269625,"subject_id":"91495","group":"Group2","condition":"1_Rep","full_date":"2026-02-21T22:50:11.134Z","date":"2026-02-21","time":"22:50:11"},{"correct_response":"a","task":"test_phase","broad_category":"I","image_png":"I_Andesite_10.png","image_id":10,"category_name":"Andesite","category":1,"distinct_rating":3.15,"distinct_type":"Bottom","item_type":"Foil","rt":1094,"stimulus":"Stimuli_Rocks480/I_Andesite_10.png","response":"l","trial_type":"image-keyboard-response","trial_index":143,"plugin_version":"2.1.0","time_elapsed":270721,"subject_id":"91495","group":"Group2","condition":"1_Rep","full_date":"2026-02-21T22:50:11.134Z","date":"2026-02-21","time":"22:50:11","cor_ans":false},{"trial_type":"html-keyboard-response","rt":null,"stimulus":"<p style=\"color: red; font-size: 50px; font-weight: bold;\">Incorrect</p>","response":null,"trial_index":144,"plugin_version":"2.1.0","time_elapsed":271223,"subject_id":"91495","group":"Group2","condition":"1_Rep","full_date":"2026-02-21T22:50:11.134Z","date":"2026-02-21","time":"22:50:11"},{"correct_response":"l","task":"test_phase","broad_category":"M","image_png":"M_Slate_14.png","image_id":318,"category_name":"Slate","category":20,"distinct_rating":2.58,"distinct_type":"Bottom","item_type":"Target","rt":823,"stimulus":"Stimuli_Rocks480/M_Slate_14.png","response":"l","trial_type":"image-keyboard-response","trial_index":145,"plugin_version":"2.1.0","time_elapsed":272048,"subject_id":"91495","group":"Group2","condition":"1_Rep","full_date":"2026-02-21T22:50:11.134Z","date":"2026-02-21","time":"22:50:11","cor_ans":true},{"trial_type":"html-keyboard-response","rt":null,"stimulus":"<p style=\"color: green; font-size: 50px; font-weight: bold;\">Correct</p>","response":null,"trial_index":146,"plugin_version":"2.1.0","time_elapsed":272550,"subject_id":"91495","group":"Group2","condition":"1_Rep","full_date":"2026-02-21T22:50:11.134Z","date":"2026-02-21","time":"22:50:11"},{"correct_response":"a","task":"test_phase","broad_category":"M","image_png":"M_Gneiss_13.png","image_id":205,"category_name":"Gneiss","category":13,"distinct_rating":3.26,"distinct_type":"Bottom","item_type":"Foil","rt":1437,"stimulus":"Stimuli_Rocks480/M_Gneiss_13.png","response":"l","trial_type":"image-keyboard-response","trial_index":147,"plugin_version":"2.1.0","time_elapsed":273990,"subject_id":"91495","group":"Group2","condition":"1_Rep","full_date":"2026-02-21T22:50:11.134Z","date":"2026-02-21","time":"22:50:11","cor_ans":false},{"trial_type":"html-keyboard-response","rt":null,"stimulus":"<p style=\"color: red; font-size: 50px; font-weight: bold;\">Incorrect</p>","response":null,"trial_index":148,"plugin_version":"2.1.0","time_elapsed":274496,"subject_id":"91495","group":"Group2","condition":"1_Rep","full_date":"2026-02-21T22:50:11.134Z","date":"2026-02-21","time":"22:50:11"},{"correct_response":"l","task":"test_phase","broad_category":"I","image_png":"I_Rhyolite_08.png","image_id":152,"category_name":"Rhyolite","category":10,"distinct_rating":1.38,"distinct_type":"Bottom","item_type":"Target","rt":926,"stimulus":"Stimuli_Rocks480/I_Rhyolite_08.png","response":"l","trial_type":"image-keyboard-response","trial_index":149,"plugin_version":"2.1.0","time_elapsed":275425,"subject_id":"91495","group":"Group2","condition":"1_Rep","full_date":"2026-02-21T22:50:11.134Z","date":"2026-02-21","time":"22:50:11","cor_ans":true},{"trial_type":"html-keyboard-response","rt":null,"stimulus":"<p style=\"color: green; font-size: 50px; font-weight: bold;\">Correct</p>","response":null,"trial_index":150,"plugin_version":"2.1.0","time_elapsed":275931,"subject_id":"91495","group":"Group2","condition":"1_Rep","full_date":"2026-02-21T22:50:11.134Z","date":"2026-02-21","time":"22:50:11"},{"correct_response":"l","task":"test_phase","broad_category":"S","image_png":"S_Conglomerate_14.png","image_id":382,"category_name":"Conglomerate","category":24,"distinct_rating":6.86,"distinct_type":"Top","item_type":"Target","rt":997,"stimulus":"Stimuli_Rocks480/S_Conglomerate_14.png","response":"l","trial_type":"image-keyboard-response","trial_index":151,"plugin_version":"2.1.0","time_elapsed":276932,"subject_id":"91495","group":"Group2","condition":"1_Rep","full_date":"2026-02-21T22:50:11.134Z","date":"2026-02-21","time":"22:50:11","cor_ans":true},{"trial_type":"html-keyboard-response","rt":null,"stimulus":"<p style=\"color: green; font-size: 50px; font-weight: bold;\">Correct</p>","response":null,"trial_index":152,"plugin_version":"2.1.0","time_elapsed":277442,"subject_id":"91495","group":"Group2","condition":"1_Rep","full_date":"2026-02-21T22:50:11.134Z","date":"2026-02-21","time":"22:50:11"},{"correct_response":"a","task":"test_phase","broad_category":"I","image_png":"I_Rhyolite_14.png","image_id":158,"category_name":"Rhyolite","category":10,"distinct_rating":2.59,"distinct_type":"Bottom","item_type":"Foil","rt":1015,"stimulus":"Stimuli_Rocks480/I_Rhyolite_14.png","response":"a","trial_type":"image-keyboard-response","trial_index":153,"plugin_version":"2.1.0","time_elapsed":278459,"subject_id":"91495","group":"Group2","condition":"1_Rep","full_date":"2026-02-21T22:50:11.134Z","date":"2026-02-21","time":"22:50:11","cor_ans":true},{"trial_type":"html-keyboard-response","rt":null,"stimulus":"<p style=\"color: green; font-size: 50px; font-weight: bold;\">Correct</p>","response":null,"trial_index":154,"plugin_version":"2.1.0","time_elapsed":278969,"subject_id":"91495","group":"Group2","condition":"1_Rep","full_date":"2026-02-21T22:50:11.134Z","date":"2026-02-21","time":"22:50:11"},{"correct_response":"l","task":"test_phase","broad_category":"S","image_png":"S_Shale_02.png","image_id":466,"category_name":"Shale","category":30,"distinct_rating":2.9,"distinct_type":"Bottom","item_type":"Target","rt":1310,"stimulus":"Stimuli_Rocks480/S_Shale_02.png","response":"l","trial_type":"image-keyboard-response","trial_index":155,"plugin_version":"2.1.0","time_elapsed":280282,"subject_id":"91495","group":"Group2","condition":"1_Rep","full_date":"2026-02-21T22:50:11.134Z","date":"2026-02-21","time":"22:50:11","cor_ans":true},{"trial_type":"html-keyboard-response","rt":null,"stimulus":"<p style=\"color: green; font-size: 50px; font-weight: bold;\">Correct</p>","response":null,"trial_index":156,"plugin_version":"2.1.0","time_elapsed":280794,"subject_id":"91495","group":"Group2","condition":"1_Rep","full_date":"2026-02-21T22:50:11.134Z","date":"2026-02-21","time":"22:50:11"},{"correct_response":"l","task":"test_phase","broad_category":"I","image_png":"I_Obsidian_06.png","image_id":86,"category_name":"Obsidian","category":6,"distinct_rating":8.01,"distinct_type":"Top","item_type":"Target","rt":865,"stimulus":"Stimuli_Rocks480/I_Obsidian_06.png","response":"l","trial_type":"image-keyboard-response","trial_index":157,"plugin_version":"2.1.0","time_elapsed":281661,"subject_id":"91495","group":"Group2","condition":"1_Rep","full_date":"2026-02-21T22:50:11.134Z","date":"2026-02-21","time":"22:50:11","cor_ans":true},{"trial_type":"html-keyboard-response","rt":null,"stimulus":"<p style=\"color: green; font-size: 50px; font-weight: bold;\">Correct</p>","response":null,"trial_index":158,"plugin_version":"2.1.0","time_elapsed":282167,"subject_id":"91495","group":"Group2","condition":"1_Rep","full_date":"2026-02-21T22:50:11.134Z","date":"2026-02-21","time":"22:50:11"},{"correct_response":"a","task":"test_phase","broad_category":"S","image_png":"S_Shale_01.png","image_id":465,"category_name":"Shale","category":30,"distinct_rating":2.7,"distinct_type":"Bottom","item_type":"Foil","rt":2351,"stimulus":"Stimuli_Rocks480/S_Shale_01.png","response":"a","trial_type":"image-keyboard-response","trial_index":159,"plugin_version":"2.1.0","time_elapsed":284521,"subject_id":"91495","group":"Group2","condition":"1_Rep","full_date":"2026-02-21T22:50:11.134Z","date":"2026-02-21","time":"22:50:11","cor_ans":true},{"trial_type":"html-keyboard-response","rt":null,"stimulus":"<p style=\"color: green; font-size: 50px; font-weight: bold;\">Correct</p>","response":null,"trial_index":160,"plugin_version":"2.1.0","time_elapsed":285029,"subject_id":"91495","group":"Group2","condition":"1_Rep","full_date":"2026-02-21T22:50:11.134Z","date":"2026-02-21","time":"22:50:11"},{"correct_response":"a","task":"test_phase","broad_category":"I","image_png":"I_Pumice_08.png","image_id":136,"category_name":"Pumice","category":9,"distinct_rating":3.1,"distinct_type":"Bottom","item_type":"Foil","rt":874,"stimulus":"Stimuli_Rocks480/I_Pumice_08.png","response":"a","trial_type":"image-keyboard-response","trial_index":161,"plugin_version":"2.1.0","time_elapsed":285904,"subject_id":"91495","group":"Group2","condition":"1_Rep","full_date":"2026-02-21T22:50:11.134Z","date":"2026-02-21","time":"22:50:11","cor_ans":true},{"trial_type":"html-keyboard-response","rt":null,"stimulus":"<p style=\"color: green; font-size: 50px; font-weight: bold;\">Correct</p>","response":null,"trial_index":162,"plugin_version":"2.1.0","time_elapsed":286418,"subject_id":"91495","group":"Group2","condition":"1_Rep","full_date":"2026-02-21T22:50:11.134Z","date":"2026-02-21","time":"22:50:11"},{"correct_response":"l","task":"test_phase","broad_category":"S","image_png":"S_Dolomite_07.png","image_id":391,"category_name":"Dolomite","category":25,"distinct_rating":1.73,"distinct_type":"Bottom","item_type":"Target","rt":1104,"stimulus":"Stimuli_Rocks480/S_Dolomite_07.png","response":"l","trial_type":"image-keyboard-response","trial_index":163,"plugin_version":"2.1.0","time_elapsed":287527,"subject_id":"91495","group":"Group2","condition":"1_Rep","full_date":"2026-02-21T22:50:11.134Z","date":"2026-02-21","time":"22:50:11","cor_ans":true},{"trial_type":"html-keyboard-response","rt":null,"stimulus":"<p style=\"color: green; font-size: 50px; font-weight: bold;\">Correct</p>","response":null,"trial_index":164,"plugin_version":"2.1.0","time_elapsed":288039,"subject_id":"91495","group":"Group2","condition":"1_Rep","full_date":"2026-02-21T22:50:11.134Z","date":"2026-02-21","time":"22:50:11"},{"correct_response":"a","task":"test_phase","broad_category":"M","image_png":"M_Phyllite_03.png","image_id":259,"category_name":"Phyllite","category":17,"distinct_rating":2.5,"distinct_type":"Bottom","item_type":"Foil","rt":1332,"stimulus":"Stimuli_Rocks480/M_Phyllite_03.png","response":"l","trial_type":"image-keyboard-response","trial_index":165,"plugin_version":"2.1.0","time_elapsed":289376,"subject_id":"91495","group":"Group2","condition":"1_Rep","full_date":"2026-02-21T22:50:11.134Z","date":"2026-02-21","time":"22:50:11","cor_ans":false},{"trial_type":"html-keyboard-response","rt":null,"stimulus":"<p style=\"color: red; font-size: 50px; font-weight: bold;\">Incorrect</p>","response":null,"trial_index":166,"plugin_version":"2.1.0","time_elapsed":289889,"subject_id":"91495","group":"Group2","condition":"1_Rep","full_date":"2026-02-21T22:50:11.134Z","date":"2026-02-21","time":"22:50:11"},{"correct_response":"l","task":"test_phase","broad_category":"I","image_png":"I_Diorite_15.png","image_id":47,"category_name":"Diorite","category":3,"distinct_rating":3.05,"distinct_type":"Bottom","item_type":"Target","rt":747,"stimulus":"Stimuli_Rocks480/I_Diorite_15.png","response":"l","trial_type":"image-keyboard-response","trial_index":167,"plugin_version":"2.1.0","time_elapsed":290640,"subject_id":"91495","group":"Group2","condition":"1_Rep","full_date":"2026-02-21T22:50:11.134Z","date":"2026-02-21","time":"22:50:11","cor_ans":true},{"trial_type":"html-keyboard-response","rt":null,"stimulus":"<p style=\"color: green; font-size: 50px; font-weight: bold;\">Correct</p>","response":null,"trial_index":168,"plugin_version":"2.1.0","time_elapsed":291145,"subject_id":"91495","group":"Group2","condition":"1_Rep","full_date":"2026-02-21T22:50:11.134Z","date":"2026-02-21","time":"22:50:11"},{"correct_response":"a","task":"test_phase","broad_category":"M","image_png":"M_Marble_06.png","image_id":230,"category_name":"Marble","category":15,"distinct_rating":3.4,"distinct_type":"Bottom","item_type":"Foil","rt":1393,"stimulus":"Stimuli_Rocks480/M_Marble_06.png","response":"a","trial_type":"image-keyboard-response","trial_index":169,"plugin_version":"2.1.0","time_elapsed":292542,"subject_id":"91495","group":"Group2","condition":"1_Rep","full_date":"2026-02-21T22:50:11.134Z","date":"2026-02-21","time":"22:50:11","cor_ans":true},{"trial_type":"html-keyboard-response","rt":null,"stimulus":"<p style=\"color: green; font-size: 50px; font-weight: bold;\">Correct</p>","response":null,"trial_index":170,"plugin_version":"2.1.0","time_elapsed":293048,"subject_id":"91495","group":"Group2","condition":"1_Rep","full_date":"2026-02-21T22:50:11.134Z","date":"2026-02-21","time":"22:50:11"},{"correct_response":"l","task":"test_phase","broad_category":"M","image_png":"M_Gneiss_15.png","image_id":207,"category_name":"Gneiss","category":13,"distinct_rating":3.11,"distinct_type":"Bottom","item_type":"Target","rt":1359,"stimulus":"Stimuli_Rocks480/M_Gneiss_15.png","response":"l","trial_type":"image-keyboard-response","trial_index":171,"plugin_version":"2.1.0","time_elapsed":294412,"subject_id":"91495","group":"Group2","condition":"1_Rep","full_date":"2026-02-21T22:50:11.134Z","date":"2026-02-21","time":"22:50:11","cor_ans":true},{"trial_type":"html-keyboard-response","rt":null,"stimulus":"<p style=\"color: green; font-size: 50px; font-weight: bold;\">Correct</p>","response":null,"trial_index":172,"plugin_version":"2.1.0","time_elapsed":294919,"subject_id":"91495","group":"Group2","condition":"1_Rep","full_date":"2026-02-21T22:50:11.134Z","date":"2026-02-21","time":"22:50:11"},{"correct_response":"l","task":"test_phase","broad_category":"I","image_png":"I_Basalt_13.png","image_id":29,"category_name":"Basalt","category":2,"distinct_rating":2.68,"distinct_type":"Bottom","item_type":"Target","rt":2365,"stimulus":"Stimuli_Rocks480/I_Basalt_13.png","response":"a","trial_type":"image-keyboard-response","trial_index":173,"plugin_version":"2.1.0","time_elapsed":297288,"subject_id":"91495","group":"Group2","condition":"1_Rep","full_date":"2026-02-21T22:50:11.134Z","date":"2026-02-21","time":"22:50:11","cor_ans":false},{"trial_type":"html-keyboard-response","rt":null,"stimulus":"<p style=\"color: red; font-size: 50px; font-weight: bold;\">Incorrect</p>","response":null,"trial_index":174,"plugin_version":"2.1.0","time_elapsed":297794,"subject_id":"91495","group":"Group2","condition":"1_Rep","full_date":"2026-02-21T22:50:11.134Z","date":"2026-02-21","time":"22:50:11"},{"correct_response":"a","task":"test_phase","broad_category":"S","image_png":"S_Dolomite_13.png","image_id":397,"category_name":"Dolomite","category":25,"distinct_rating":1.77,"distinct_type":"Bottom","item_type":"Foil","rt":882,"stimulus":"Stimuli_Rocks480/S_Dolomite_13.png","response":"l","trial_type":"image-keyboard-response","trial_index":175,"plugin_version":"2.1.0","time_elapsed":298680,"subject_id":"91495","group":"Group2","condition":"1_Rep","full_date":"2026-02-21T22:50:11.134Z","date":"2026-02-21","time":"22:50:11","cor_ans":false},{"trial_type":"html-keyboard-response","rt":null,"stimulus":"<p style=\"color: red; font-size: 50px; font-weight: bold;\">Incorrect</p>","response":null,"trial_index":176,"plugin_version":"2.1.0","time_elapsed":299184,"subject_id":"91495","group":"Group2","condition":"1_Rep","full_date":"2026-02-21T22:50:11.134Z","date":"2026-02-21","time":"22:50:11"},{"correct_response":"a","task":"test_phase","broad_category":"M","image_png":"M_Quartzite_08.png","image_id":280,"category_name":"Quartzite","category":18,"distinct_rating":2.15,"distinct_type":"Bottom","item_type":"Foil","rt":861,"stimulus":"Stimuli_Rocks480/M_Quartzite_08.png","response":"l","trial_type":"image-keyboard-response","trial_index":177,"plugin_version":"2.1.0","time_elapsed":300049,"subject_id":"91495","group":"Group2","condition":"1_Rep","full_date":"2026-02-21T22:50:11.134Z","date":"2026-02-21","time":"22:50:11","cor_ans":false},{"trial_type":"html-keyboard-response","rt":null,"stimulus":"<p style=\"color: red; font-size: 50px; font-weight: bold;\">Incorrect</p>","response":null,"trial_index":178,"plugin_version":"2.1.0","time_elapsed":300560,"subject_id":"91495","group":"Group2","condition":"1_Rep","full_date":"2026-02-21T22:50:11.134Z","date":"2026-02-21","time":"22:50:11"},{"correct_response":"l","task":"test_phase","broad_category":"S","image_png":"S_Sandstone_11.png","image_id":459,"category_name":"Sandstone","category":29,"distinct_rating":1.82,"distinct_type":"Bottom","item_type":"Target","rt":778,"stimulus":"Stimuli_Rocks480/S_Sandstone_11.png","response":"l","trial_type":"image-keyboard-response","trial_index":179,"plugin_version":"2.1.0","time_elapsed":301341,"subject_id":"91495","group":"Group2","condition":"1_Rep","full_date":"2026-02-21T22:50:11.134Z","date":"2026-02-21","time":"22:50:11","cor_ans":true},{"trial_type":"html-keyboard-response","rt":null,"stimulus":"<p style=\"color: green; font-size: 50px; font-weight: bold;\">Correct</p>","response":null,"trial_index":180,"plugin_version":"2.1.0","time_elapsed":301846,"subject_id":"91495","group":"Group2","condition":"1_Rep","full_date":"2026-02-21T22:50:11.134Z","date":"2026-02-21","time":"22:50:11"},{"correct_response":"l","task":"test_phase","broad_category":"M","image_png":"M_Slate_10.png","image_id":314,"category_name":"Slate","category":20,"distinct_rating":1.94,"distinct_type":"Bottom","item_type":"Target","rt":2014,"stimulus":"Stimuli_Rocks480/M_Slate_10.png","response":"l","trial_type":"image-keyboard-response","trial_index":181,"plugin_version":"2.1.0","time_elapsed":303864,"subject_id":"91495","group":"Group2","condition":"1_Rep","full_date":"2026-02-21T22:50:11.134Z","date":"2026-02-21","time":"22:50:11","cor_ans":true},{"trial_type":"html-keyboard-response","rt":null,"stimulus":"<p style=\"color: green; font-size: 50px; font-weight: bold;\">Correct</p>","response":null,"trial_index":182,"plugin_version":"2.1.0","time_elapsed":304370,"subject_id":"91495","group":"Group2","condition":"1_Rep","full_date":"2026-02-21T22:50:11.134Z","date":"2026-02-21","time":"22:50:11"},{"correct_response":"a","task":"test_phase","broad_category":"I","image_png":"I_Gabbro_16.png","image_id":64,"category_name":"Gabbro","category":4,"distinct_rating":2.52,"distinct_type":"Bottom","item_type":"Foil","rt":1126,"stimulus":"Stimuli_Rocks480/I_Gabbro_16.png","response":"a","trial_type":"image-keyboard-response","trial_index":183,"plugin_version":"2.1.0","time_elapsed":305499,"subject_id":"91495","group":"Group2","condition":"1_Rep","full_date":"2026-02-21T22:50:11.134Z","date":"2026-02-21","time":"22:50:11","cor_ans":true},{"trial_type":"html-keyboard-response","rt":null,"stimulus":"<p style=\"color: green; font-size: 50px; font-weight: bold;\">Correct</p>","response":null,"trial_index":184,"plugin_version":"2.1.0","time_elapsed":306012,"subject_id":"91495","group":"Group2","condition":"1_Rep","full_date":"2026-02-21T22:50:11.134Z","date":"2026-02-21","time":"22:50:11"},{"correct_response":"a","task":"test_phase","broad_category":"S","image_png":"S_Rock Gypsum_04.png","image_id":420,"category_name":"Rock Gypsum","category":27,"distinct_rating":7.61,"distinct_type":"Top","item_type":"Foil","rt":1179,"stimulus":"Stimuli_Rocks480/S_Rock Gypsum_04.png","response":"a","trial_type":"image-keyboard-response","trial_index":185,"plugin_version":"2.1.0","time_elapsed":307196,"subject_id":"91495","group":"Group2","condition":"1_Rep","full_date":"2026-02-21T22:50:11.134Z","date":"2026-02-21","time":"22:50:11","cor_ans":true},{"trial_type":"html-keyboard-response","rt":null,"stimulus":"<p style=\"color: green; font-size: 50px; font-weight: bold;\">Correct</p>","response":null,"trial_index":186,"plugin_version":"2.1.0","time_elapsed":307704,"subject_id":"91495","group":"Group2","condition":"1_Rep","full_date":"2026-02-21T22:50:11.134Z","date":"2026-02-21","time":"22:50:11"},{"correct_response":"l","task":"test_phase","broad_category":"I","image_png":"I_Pumice_14.png","image_id":142,"category_name":"Pumice","category":9,"distinct_rating":3.22,"distinct_type":"Bottom","item_type":"Target","rt":893,"stimulus":"Stimuli_Rocks480/I_Pumice_14.png","response":"l","trial_type":"image-keyboard-response","trial_index":187,"plugin_version":"2.1.0","time_elapsed":308601,"subject_id":"91495","group":"Group2","condition":"1_Rep","full_date":"2026-02-21T22:50:11.134Z","date":"2026-02-21","time":"22:50:11","cor_ans":true},{"trial_type":"html-keyboard-response","rt":null,"stimulus":"<p style=\"color: green; font-size: 50px; font-weight: bold;\">Correct</p>","response":null,"trial_index":188,"plugin_version":"2.1.0","time_elapsed":309113,"subject_id":"91495","group":"Group2","condition":"1_Rep","full_date":"2026-02-21T22:50:11.134Z","date":"2026-02-21","time":"22:50:11"},{"correct_response":"l","task":"test_phase","broad_category":"S","image_png":"S_Chert_13.png","image_id":365,"category_name":"Chert","category":23,"distinct_rating":6.57,"distinct_type":"Top","item_type":"Target","rt":799,"stimulus":"Stimuli_Rocks480/S_Chert_13.png","response":"l","trial_type":"image-keyboard-response","trial_index":189,"plugin_version":"2.1.0","time_elapsed":309916,"subject_id":"91495","group":"Group2","condition":"1_Rep","full_date":"2026-02-21T22:50:11.134Z","date":"2026-02-21","time":"22:50:11","cor_ans":true},{"trial_type":"html-keyboard-response","rt":null,"stimulus":"<p style=\"color: green; font-size: 50px; font-weight: bold;\">Correct</p>","response":null,"trial_index":190,"plugin_version":"2.1.0","time_elapsed":310428,"subject_id":"91495","group":"Group2","condition":"1_Rep","full_date":"2026-02-21T22:50:11.134Z","date":"2026-02-21","time":"22:50:11"},{"correct_response":"a","task":"test_phase","broad_category":"I","image_png":"I_Andesite_08.png","image_id":8,"category_name":"Andesite","category":1,"distinct_rating":1.95,"distinct_type":"Bottom","item_type":"Foil","rt":865,"stimulus":"Stimuli_Rocks480/I_Andesite_08.png","response":"l","trial_type":"image-keyboard-response","trial_index":191,"plugin_version":"2.1.0","time_elapsed":311297,"subject_id":"91495","group":"Group2","condition":"1_Rep","full_date":"2026-02-21T22:50:11.134Z","date":"2026-02-21","time":"22:50:11","cor_ans":false},{"trial_type":"html-keyboard-response","rt":null,"stimulus":"<p style=\"color: red; font-size: 50px; font-weight: bold;\">Incorrect</p>","response":null,"trial_index":192,"plugin_version":"2.1.0","time_elapsed":311806,"subject_id":"91495","group":"Group2","condition":"1_Rep","full_date":"2026-02-21T22:50:11.134Z","date":"2026-02-21","time":"22:50:11"},{"correct_response":"l","task":"test_phase","broad_category":"S","image_png":"S_Dolomite_01.png","image_id":385,"category_name":"Dolomite","category":25,"distinct_rating":1.43,"distinct_type":"Bottom","item_type":"Target","rt":1093,"stimulus":"Stimuli_Rocks480/S_Dolomite_01.png","response":"l","trial_type":"image-keyboard-response","trial_index":193,"plugin_version":"2.1.0","time_elapsed":312903,"subject_id":"91495","group":"Group2","condition":"1_Rep","full_date":"2026-02-21T22:50:11.134Z","date":"2026-02-21","time":"22:50:11","cor_ans":true},{"trial_type":"html-keyboard-response","rt":null,"stimulus":"<p style=\"color: green; font-size: 50px; font-weight: bold;\">Correct</p>","response":null,"trial_index":194,"plugin_version":"2.1.0","time_elapsed":313415,"subject_id":"91495","group":"Group2","condition":"1_Rep","full_date":"2026-02-21T22:50:11.134Z","date":"2026-02-21","time":"22:50:11"},{"correct_response":"a","task":"test_phase","broad_category":"S","image_png":"S_Breccia_11.png","image_id":347,"category_name":"Breccia","category":22,"distinct_rating":6.7,"distinct_type":"Top","item_type":"Foil","rt":831,"stimulus":"Stimuli_Rocks480/S_Breccia_11.png","response":"a","trial_type":"image-keyboard-response","trial_index":195,"plugin_version":"2.1.0","time_elapsed":314250,"subject_id":"91495","group":"Group2","condition":"1_Rep","full_date":"2026-02-21T22:50:11.134Z","date":"2026-02-21","time":"22:50:11","cor_ans":true},{"trial_type":"html-keyboard-response","rt":null,"stimulus":"<p style=\"color: green; font-size: 50px; font-weight: bold;\">Correct</p>","response":null,"trial_index":196,"plugin_version":"2.1.0","time_elapsed":314759,"subject_id":"91495","group":"Group2","condition":"1_Rep","full_date":"2026-02-21T22:50:11.134Z","date":"2026-02-21","time":"22:50:11"},{"correct_response":"a","task":"test_phase","broad_category":"M","image_png":"M_Phyllite_07.png","image_id":263,"category_name":"Phyllite","category":17,"distinct_rating":2.59,"distinct_type":"Bottom","item_type":"Foil","rt":1343,"stimulus":"Stimuli_Rocks480/M_Phyllite_07.png","response":"l","trial_type":"image-keyboard-response","trial_index":197,"plugin_version":"2.1.0","time_elapsed":316106,"subject_id":"91495","group":"Group2","condition":"1_Rep","full_date":"2026-02-21T22:50:11.134Z","date":"2026-02-21","time":"22:50:11","cor_ans":false},{"trial_type":"html-keyboard-response","rt":null,"stimulus":"<p style=\"color: red; font-size: 50px; font-weight: bold;\">Incorrect</p>","response":null,"trial_index":198,"plugin_version":"2.1.0","time_elapsed":316615,"subject_id":"91495","group":"Group2","condition":"1_Rep","full_date":"2026-02-21T22:50:11.134Z","date":"2026-02-21","time":"22:50:11"},{"correct_response":"a","task":"test_phase","broad_category":"M","image_png":"M_Gneiss_05.png","image_id":197,"category_name":"Gneiss","category":13,"distinct_rating":2.97,"distinct_type":"Bottom","item_type":"Foil","rt":751,"stimulus":"Stimuli_Rocks480/M_Gneiss_05.png","response":"l","trial_type":"image-keyboard-response","trial_index":199,"plugin_version":"2.1.0","time_elapsed":317370,"subject_id":"91495","group":"Group2","condition":"1_Rep","full_date":"2026-02-21T22:50:11.134Z","date":"2026-02-21","time":"22:50:11","cor_ans":false},{"trial_type":"html-keyboard-response","rt":null,"stimulus":"<p style=\"color: red; font-size: 50px; font-weight: bold;\">Incorrect</p>","response":null,"trial_index":200,"plugin_version":"2.1.0","time_elapsed":317883,"subject_id":"91495","group":"Group2","condition":"1_Rep","full_date":"2026-02-21T22:50:11.134Z","date":"2026-02-21","time":"22:50:11"},{"correct_response":"a","task":"test_phase","broad_category":"S","image_png":"S_Shale_08.png","image_id":472,"category_name":"Shale","category":30,"distinct_rating":2.55,"distinct_type":"Bottom","item_type":"Foil","rt":1476,"stimulus":"Stimuli_Rocks480/S_Shale_08.png","response":"l","trial_type":"image-keyboard-response","trial_index":201,"plugin_version":"2.1.0","time_elapsed":319363,"subject_id":"91495","group":"Group2","condition":"1_Rep","full_date":"2026-02-21T22:50:11.134Z","date":"2026-02-21","time":"22:50:11","cor_ans":false},{"trial_type":"html-keyboard-response","rt":null,"stimulus":"<p style=\"color: red; font-size: 50px; font-weight: bold;\">Incorrect</p>","response":null,"trial_index":202,"plugin_version":"2.1.0","time_elapsed":319867,"subject_id":"91495","group":"Group2","condition":"1_Rep","full_date":"2026-02-21T22:50:11.134Z","date":"2026-02-21","time":"22:50:11"},{"correct_response":"l","task":"test_phase","broad_category":"I","image_png":"I_Rhyolite_10.png","image_id":154,"category_name":"Rhyolite","category":10,"distinct_rating":2.88,"distinct_type":"Bottom","item_type":"Target","rt":891,"stimulus":"Stimuli_Rocks480/I_Rhyolite_10.png","response":"l","trial_type":"image-keyboard-response","trial_index":203,"plugin_version":"2.1.0","time_elapsed":320763,"subject_id":"91495","group":"Group2","condition":"1_Rep","full_date":"2026-02-21T22:50:11.134Z","date":"2026-02-21","time":"22:50:11","cor_ans":true},{"trial_type":"html-keyboard-response","rt":null,"stimulus":"<p style=\"color: green; font-size: 50px; font-weight: bold;\">Correct</p>","response":null,"trial_index":204,"plugin_version":"2.1.0","time_elapsed":321269,"subject_id":"91495","group":"Group2","condition":"1_Rep","full_date":"2026-02-21T22:50:11.134Z","date":"2026-02-21","time":"22:50:11"},{"correct_response":"l","task":"test_phase","broad_category":"M","image_png":"M_Gneiss_14.png","image_id":206,"category_name":"Gneiss","category":13,"distinct_rating":3.41,"distinct_type":"Bottom","item_type":"Target","rt":1556,"stimulus":"Stimuli_Rocks480/M_Gneiss_14.png","response":"a","trial_type":"image-keyboard-response","trial_index":205,"plugin_version":"2.1.0","time_elapsed":322829,"subject_id":"91495","group":"Group2","condition":"1_Rep","full_date":"2026-02-21T22:50:11.134Z","date":"2026-02-21","time":"22:50:11","cor_ans":false},{"trial_type":"html-keyboard-response","rt":null,"stimulus":"<p style=\"color: red; font-size: 50px; font-weight: bold;\">Incorrect</p>","response":null,"trial_index":206,"plugin_version":"2.1.0","time_elapsed":323338,"subject_id":"91495","group":"Group2","condition":"1_Rep","full_date":"2026-02-21T22:50:11.134Z","date":"2026-02-21","time":"22:50:11"},{"correct_response":"a","task":"test_phase","broad_category":"I","image_png":"I_Gabbro_11.png","image_id":59,"category_name":"Gabbro","category":4,"distinct_rating":1.99,"distinct_type":"Bottom","item_type":"Foil","rt":1129,"stimulus":"Stimuli_Rocks480/I_Gabbro_11.png","response":"a","trial_type":"image-keyboard-response","trial_index":207,"plugin_version":"2.1.0","time_elapsed":324471,"subject_id":"91495","group":"Group2","condition":"1_Rep","full_date":"2026-02-21T22:50:11.134Z","date":"2026-02-21","time":"22:50:11","cor_ans":true},{"trial_type":"html-keyboard-response","rt":null,"stimulus":"<p style=\"color: green; font-size: 50px; font-weight: bold;\">Correct</p>","response":null,"trial_index":208,"plugin_version":"2.1.0","time_elapsed":324981,"subject_id":"91495","group":"Group2","condition":"1_Rep","full_date":"2026-02-21T22:50:11.134Z","date":"2026-02-21","time":"22:50:11"},{"correct_response":"a","task":"test_phase","broad_category":"M","image_png":"M_Slate_15.png","image_id":319,"category_name":"Slate","category":20,"distinct_rating":2.13,"distinct_type":"Bottom","item_type":"Foil","rt":2446,"stimulus":"Stimuli_Rocks480/M_Slate_15.png","response":"a","trial_type":"image-keyboard-response","trial_index":209,"plugin_version":"2.1.0","time_elapsed":327432,"subject_id":"91495","group":"Group2","condition":"1_Rep","full_date":"2026-02-21T22:50:11.134Z","date":"2026-02-21","time":"22:50:11","cor_ans":true},{"trial_type":"html-keyboard-response","rt":null,"stimulus":"<p style=\"color: green; font-size: 50px; font-weight: bold;\">Correct</p>","response":null,"trial_index":210,"plugin_version":"2.1.0","time_elapsed":327940,"subject_id":"91495","group":"Group2","condition":"1_Rep","full_date":"2026-02-21T22:50:11.134Z","date":"2026-02-21","time":"22:50:11"},{"correct_response":"a","task":"test_phase","broad_category":"S","image_png":"S_Chert_10.png","image_id":362,"category_name":"Chert","category":23,"distinct_rating":7.17,"distinct_type":"Top","item_type":"Foil","rt":944,"stimulus":"Stimuli_Rocks480/S_Chert_10.png","response":"a","trial_type":"image-keyboard-response","trial_index":211,"plugin_version":"2.1.0","time_elapsed":328888,"subject_id":"91495","group":"Group2","condition":"1_Rep","full_date":"2026-02-21T22:50:11.134Z","date":"2026-02-21","time":"22:50:11","cor_ans":true},{"trial_type":"html-keyboard-response","rt":null,"stimulus":"<p style=\"color: green; font-size: 50px; font-weight: bold;\">Correct</p>","response":null,"trial_index":212,"plugin_version":"2.1.0","time_elapsed":329389,"subject_id":"91495","group":"Group2","condition":"1_Rep","full_date":"2026-02-21T22:50:11.134Z","date":"2026-02-21","time":"22:50:11"},{"correct_response":"l","task":"test_phase","broad_category":"M","image_png":"M_Marble_03.png","image_id":227,"category_name":"Marble","category":15,"distinct_rating":2.67,"distinct_type":"Bottom","item_type":"Target","rt":778,"stimulus":"Stimuli_Rocks480/M_Marble_03.png","response":"l","trial_type":"image-keyboard-response","trial_index":213,"plugin_version":"2.1.0","time_elapsed":330171,"subject_id":"91495","group":"Group2","condition":"1_Rep","full_date":"2026-02-21T22:50:11.134Z","date":"2026-02-21","time":"22:50:11","cor_ans":true},{"trial_type":"html-keyboard-response","rt":null,"stimulus":"<p style=\"color: green; font-size: 50px; font-weight: bold;\">Correct</p>","response":null,"trial_index":214,"plugin_version":"2.1.0","time_elapsed":330684,"subject_id":"91495","group":"Group2","condition":"1_Rep","full_date":"2026-02-21T22:50:11.134Z","date":"2026-02-21","time":"22:50:11"},{"correct_response":"l","task":"test_phase","broad_category":"S","image_png":"S_Rock Salt_15.png","image_id":447,"category_name":"Rock Salt","category":28,"distinct_rating":7.79,"distinct_type":"Top","item_type":"Target","rt":889,"stimulus":"Stimuli_Rocks480/S_Rock Salt_15.png","response":"l","trial_type":"image-keyboard-response","trial_index":215,"plugin_version":"2.1.0","time_elapsed":331577,"subject_id":"91495","group":"Group2","condition":"1_Rep","full_date":"2026-02-21T22:50:11.134Z","date":"2026-02-21","time":"22:50:11","cor_ans":true},{"trial_type":"html-keyboard-response","rt":null,"stimulus":"<p style=\"color: green; font-size: 50px; font-weight: bold;\">Correct</p>","response":null,"trial_index":216,"plugin_version":"2.1.0","time_elapsed":332079,"subject_id":"91495","group":"Group2","condition":"1_Rep","full_date":"2026-02-21T22:50:11.134Z","date":"2026-02-21","time":"22:50:11"},{"correct_response":"a","task":"test_phase","broad_category":"I","image_png":"I_Pumice_11.png","image_id":139,"category_name":"Pumice","category":9,"distinct_rating":1.74,"distinct_type":"Bottom","item_type":"Foil","rt":942,"stimulus":"Stimuli_Rocks480/I_Pumice_11.png","response":"l","trial_type":"image-keyboard-response","trial_index":217,"plugin_version":"2.1.0","time_elapsed":333024,"subject_id":"91495","group":"Group2","condition":"1_Rep","full_date":"2026-02-21T22:50:11.134Z","date":"2026-02-21","time":"22:50:11","cor_ans":false},{"trial_type":"html-keyboard-response","rt":null,"stimulus":"<p style=\"color: red; font-size: 50px; font-weight: bold;\">Incorrect</p>","response":null,"trial_index":218,"plugin_version":"2.1.0","time_elapsed":333529,"subject_id":"91495","group":"Group2","condition":"1_Rep","full_date":"2026-02-21T22:50:11.134Z","date":"2026-02-21","time":"22:50:11"},{"correct_response":"a","task":"test_phase","broad_category":"I","image_png":"I_Diorite_03.png","image_id":35,"category_name":"Diorite","category":3,"distinct_rating":3.14,"distinct_type":"Bottom","item_type":"Foil","rt":758,"stimulus":"Stimuli_Rocks480/I_Diorite_03.png","response":"l","trial_type":"image-keyboard-response","trial_index":219,"plugin_version":"2.1.0","time_elapsed":334290,"subject_id":"91495","group":"Group2","condition":"1_Rep","full_date":"2026-02-21T22:50:11.134Z","date":"2026-02-21","time":"22:50:11","cor_ans":false},{"trial_type":"html-keyboard-response","rt":null,"stimulus":"<p style=\"color: red; font-size: 50px; font-weight: bold;\">Incorrect</p>","response":null,"trial_index":220,"plugin_version":"2.1.0","time_elapsed":334802,"subject_id":"91495","group":"Group2","condition":"1_Rep","full_date":"2026-02-21T22:50:11.134Z","date":"2026-02-21","time":"22:50:11"},{"correct_response":"a","task":"test_phase","broad_category":"M","image_png":"M_Quartzite_05.png","image_id":277,"category_name":"Quartzite","category":18,"distinct_rating":2.23,"distinct_type":"Bottom","item_type":"Foil","rt":1650,"stimulus":"Stimuli_Rocks480/M_Quartzite_05.png","response":"a","trial_type":"image-keyboard-response","trial_index":221,"plugin_version":"2.1.0","time_elapsed":336456,"subject_id":"91495","group":"Group2","condition":"1_Rep","full_date":"2026-02-21T22:50:11.134Z","date":"2026-02-21","time":"22:50:11","cor_ans":true},{"trial_type":"html-keyboard-response","rt":null,"stimulus":"<p style=\"color: green; font-size: 50px; font-weight: bold;\">Correct</p>","response":null,"trial_index":222,"plugin_version":"2.1.0","time_elapsed":336963,"subject_id":"91495","group":"Group2","condition":"1_Rep","full_date":"2026-02-21T22:50:11.134Z","date":"2026-02-21","time":"22:50:11"},{"correct_response":"l","task":"test_phase","broad_category":"I","image_png":"I_Diorite_10.png","image_id":42,"category_name":"Diorite","category":3,"distinct_rating":2.84,"distinct_type":"Bottom","item_type":"Target","rt":956,"stimulus":"Stimuli_Rocks480/I_Diorite_10.png","response":"l","trial_type":"image-keyboard-response","trial_index":223,"plugin_version":"2.1.0","time_elapsed":337922,"subject_id":"91495","group":"Group2","condition":"1_Rep","full_date":"2026-02-21T22:50:11.134Z","date":"2026-02-21","time":"22:50:11","cor_ans":true},{"trial_type":"html-keyboard-response","rt":null,"stimulus":"<p style=\"color: green; font-size: 50px; font-weight: bold;\">Correct</p>","response":null,"trial_index":224,"plugin_version":"2.1.0","time_elapsed":338435,"subject_id":"91495","group":"Group2","condition":"1_Rep","full_date":"2026-02-21T22:50:11.134Z","date":"2026-02-21","time":"22:50:11"},{"correct_response":"a","task":"test_phase","broad_category":"I","ima