[{"width":1280,"height":665,"webaudio":true,"browser":"chrome","browser_version":"144.0.0","mobile":false,"os":"Windows 10","fullscreen":true,"vsync_rate":59.58,"webcam":true,"microphone":true,"trial_type":"browser-check","trial_index":0,"plugin_version":"2.1.0","time_elapsed":1017,"subject_id":"91551","group":"Group2","condition":"3_Rep","full_date":"2026-02-10T22:22:52.776Z","date":"2026-02-10","time":"22:22:52"},{"success":true,"timeout":false,"failed_images":[],"failed_audio":[],"failed_video":[],"trial_type":"preload","trial_index":1,"plugin_version":"2.1.0","time_elapsed":22807,"subject_id":"91551","group":"Group2","condition":"3_Rep","full_date":"2026-02-10T22:22:52.776Z","date":"2026-02-10","time":"22:22:52"},{"rt":5992,"url":"SONA_consent_memorability.html","trial_type":"external-html","trial_index":2,"plugin_version":"2.1.0","time_elapsed":28872,"subject_id":"91551","group":"Group2","condition":"3_Rep","full_date":"2026-02-10T22:22:52.776Z","date":"2026-02-10","time":"22:22:52"},{"success":true,"rt":1423,"trial_type":"fullscreen","trial_index":3,"plugin_version":"2.1.0","time_elapsed":31302,"subject_id":"91551","group":"Group2","condition":"3_Rep","full_date":"2026-02-10T22:22:52.776Z","date":"2026-02-10","time":"22:22:52"},{"rt":37982,"stimulus":"<div style=\"max-width: 760px; margin: auto; font-size: 20px; line-height: 1.5;\">\n      <h1 style=\"text-align:center; font-size: 30px;\">Instructions</h1>\n      <p>\n        Welcome to the study on <b>visual memory</b>. This experiment consists of <b>two phases</b>: \n        a <b>study phase</b> and a <b>test phase</b>.\n      </p>\n      <p>\n        In the study phase, you will see a series of rock images along with their category labels.\n        The images will appear one at a time.\n        <b>Your task</b> is to learn the categories to which the rock images belong \n        and to remember each image as accurately as possible.\n      </p> \n      <p>\n        Note that we will repeat the study phase <b>3 times</b>, \n             so you will have multiple opportunities to see and remember each image.\n      </p>\n      <p>\n        After the study phase, <b>your memory will be tested</b>. \n        Additional instructions for the test phase will be provided at that time.\n      </p>\n      <p>\n        If your computer has multiple <b>language settings</b> (e.g., English and another language),\n        please make sure it is set to English before starting.\n      </p>\n      <p>\n        You can track your progress using the <b>completion bar</b> at the top of the screen. \n        Please note that the bar will refresh when the test phase begins \n        to give you an accurate sense of your progress in both phases.\n      </p> \n      <p>\n        Press the button below when you are ready to begin.\n      </p>\n    </div>","response":0,"trial_type":"html-button-response","trial_index":4,"plugin_version":"2.1.0","time_elapsed":69286,"subject_id":"91551","group":"Group2","condition":"3_Rep","full_date":"2026-02-10T22:22:52.776Z","date":"2026-02-10","time":"22:22:52"},{"rt":null,"stimulus":"<p style=\"font-size: 50px; margin: 0; text-align: center;\">+</p>","response":null,"trial_type":"html-keyboard-response","trial_index":5,"plugin_version":"2.1.0","time_elapsed":70293,"subject_id":"91551","group":"Group2","condition":"3_Rep","full_date":"2026-02-10T22:22:52.776Z","date":"2026-02-10","time":"22:22:52"},{"task":"memory_phase","broad_category":"I","image_png":"I_Rhyolite_08.png","image_id":152,"category_name":"Rhyolite","category":10,"distinct_rating":1.38,"distinct_type":"Bottom","rt":null,"stimulus":"Stimuli_Rocks480/I_Rhyolite_08.png","response":null,"trial_type":"image-keyboard-response","trial_index":6,"plugin_version":"2.1.0","time_elapsed":72798,"subject_id":"91551","group":"Group2","condition":"3_Rep","full_date":"2026-02-10T22:22:52.776Z","date":"2026-02-10","time":"22:22:52"},{"rt":null,"stimulus":"<p style=\"font-size: 50px; margin: 0; text-align: center;\">+</p>","response":null,"trial_type":"html-keyboard-response","trial_index":7,"plugin_version":"2.1.0","time_elapsed":73805,"subject_id":"91551","group":"Group2","condition":"3_Rep","full_date":"2026-02-10T22:22:52.776Z","date":"2026-02-10","time":"22:22:52"},{"task":"memory_phase","broad_category":"I","image_png":"I_Rhyolite_10.png","image_id":154,"category_name":"Rhyolite","category":10,"distinct_rating":2.88,"distinct_type":"Bottom","rt":null,"stimulus":"Stimuli_Rocks480/I_Rhyolite_10.png","response":null,"trial_type":"image-keyboard-response","trial_index":8,"plugin_version":"2.1.0","time_elapsed":76318,"subject_id":"91551","group":"Group2","condition":"3_Rep","full_date":"2026-02-10T22:22:52.776Z","date":"2026-02-10","time":"22:22:52"},{"rt":null,"stimulus":"<p style=\"font-size: 50px; margin: 0; text-align: center;\">+</p>","response":null,"trial_type":"html-keyboard-response","trial_index":9,"plugin_version":"2.1.0","time_elapsed":77323,"subject_id":"91551","group":"Group2","condition":"3_Rep","full_date":"2026-02-10T22:22:52.776Z","date":"2026-02-10","time":"22:22:52"},{"task":"memory_phase","broad_category":"I","image_png":"I_Diorite_10.png","image_id":42,"category_name":"Diorite","category":3,"distinct_rating":2.84,"distinct_type":"Bottom","rt":null,"stimulus":"Stimuli_Rocks480/I_Diorite_10.png","response":null,"trial_type":"image-keyboard-response","trial_index":10,"plugin_version":"2.1.0","time_elapsed":79830,"subject_id":"91551","group":"Group2","condition":"3_Rep","full_date":"2026-02-10T22:22:52.776Z","date":"2026-02-10","time":"22:22:52"},{"rt":null,"stimulus":"<p style=\"font-size: 50px; margin: 0; text-align: center;\">+</p>","response":null,"trial_type":"html-keyboard-response","trial_index":11,"plugin_version":"2.1.0","time_elapsed":80832,"subject_id":"91551","group":"Group2","condition":"3_Rep","full_date":"2026-02-10T22:22:52.776Z","date":"2026-02-10","time":"22:22:52"},{"task":"memory_phase","broad_category":"M","image_png":"M_Slate_14.png","image_id":318,"category_name":"Slate","category":20,"distinct_rating":2.58,"distinct_type":"Bottom","rt":null,"stimulus":"Stimuli_Rocks480/M_Slate_14.png","response":null,"trial_type":"image-keyboard-response","trial_index":12,"plugin_version":"2.1.0","time_elapsed":83347,"subject_id":"91551","group":"Group2","condition":"3_Rep","full_date":"2026-02-10T22:22:52.776Z","date":"2026-02-10","time":"22:22:52"},{"rt":null,"stimulus":"<p style=\"font-size: 50px; margin: 0; text-align: center;\">+</p>","response":null,"trial_type":"html-keyboard-response","trial_index":13,"plugin_version":"2.1.0","time_elapsed":84363,"subject_id":"91551","group":"Group2","condition":"3_Rep","full_date":"2026-02-10T22:22:52.776Z","date":"2026-02-10","time":"22:22:52"},{"task":"memory_phase","broad_category":"S","image_png":"S_Conglomerate_14.png","image_id":382,"category_name":"Conglomerate","category":24,"distinct_rating":6.86,"distinct_type":"Top","rt":null,"stimulus":"Stimuli_Rocks480/S_Conglomerate_14.png","response":null,"trial_type":"image-keyboard-response","trial_index":14,"plugin_version":"2.1.0","time_elapsed":86879,"subject_id":"91551","group":"Group2","condition":"3_Rep","full_date":"2026-02-10T22:22:52.776Z","date":"2026-02-10","time":"22:22:52"},{"rt":null,"stimulus":"<p style=\"font-size: 50px; margin: 0; text-align: center;\">+</p>","response":null,"trial_type":"html-keyboard-response","trial_index":15,"plugin_version":"2.1.0","time_elapsed":87885,"subject_id":"91551","group":"Group2","condition":"3_Rep","full_date":"2026-02-10T22:22:52.776Z","date":"2026-02-10","time":"22:22:52"},{"task":"memory_phase","broad_category":"I","image_png":"I_Andesite_04.png","image_id":4,"category_name":"Andesite","category":1,"distinct_rating":3.18,"distinct_type":"Bottom","rt":null,"stimulus":"Stimuli_Rocks480/I_Andesite_04.png","response":null,"trial_type":"image-keyboard-response","trial_index":16,"plugin_version":"2.1.0","time_elapsed":90389,"subject_id":"91551","group":"Group2","condition":"3_Rep","full_date":"2026-02-10T22:22:52.776Z","date":"2026-02-10","time":"22:22:52"},{"rt":null,"stimulus":"<p style=\"font-size: 50px; margin: 0; text-align: center;\">+</p>","response":null,"trial_type":"html-keyboard-response","trial_index":17,"plugin_version":"2.1.0","time_elapsed":91393,"subject_id":"91551","group":"Group2","condition":"3_Rep","full_date":"2026-02-10T22:22:52.776Z","date":"2026-02-10","time":"22:22:52"},{"task":"memory_phase","broad_category":"I","image_png":"I_Basalt_08.png","image_id":24,"category_name":"Basalt","category":2,"distinct_rating":2.31,"distinct_type":"Bottom","rt":null,"stimulus":"Stimuli_Rocks480/I_Basalt_08.png","response":null,"trial_type":"image-keyboard-response","trial_index":18,"plugin_version":"2.1.0","time_elapsed":93898,"subject_id":"91551","group":"Group2","condition":"3_Rep","full_date":"2026-02-10T22:22:52.776Z","date":"2026-02-10","time":"22:22:52"},{"rt":null,"stimulus":"<p style=\"font-size: 50px; margin: 0; text-align: center;\">+</p>","response":null,"trial_type":"html-keyboard-response","trial_index":19,"plugin_version":"2.1.0","time_elapsed":94908,"subject_id":"91551","group":"Group2","condition":"3_Rep","full_date":"2026-02-10T22:22:52.776Z","date":"2026-02-10","time":"22:22:52"},{"task":"memory_phase","broad_category":"M","image_png":"M_Quartzite_07.png","image_id":279,"category_name":"Quartzite","category":18,"distinct_rating":1.97,"distinct_type":"Bottom","rt":null,"stimulus":"Stimuli_Rocks480/M_Quartzite_07.png","response":null,"trial_type":"image-keyboard-response","trial_index":20,"plugin_version":"2.1.0","time_elapsed":97426,"subject_id":"91551","group":"Group2","condition":"3_Rep","full_date":"2026-02-10T22:22:52.776Z","date":"2026-02-10","time":"22:22:52"},{"rt":null,"stimulus":"<p style=\"font-size: 50px; margin: 0; text-align: center;\">+</p>","response":null,"trial_type":"html-keyboard-response","trial_index":21,"plugin_version":"2.1.0","time_elapsed":98429,"subject_id":"91551","group":"Group2","condition":"3_Rep","full_date":"2026-02-10T22:22:52.776Z","date":"2026-02-10","time":"22:22:52"},{"task":"memory_phase","broad_category":"M","image_png":"M_Marble_02.png","image_id":226,"category_name":"Marble","category":15,"distinct_rating":3.2,"distinct_type":"Bottom","rt":null,"stimulus":"Stimuli_Rocks480/M_Marble_02.png","response":null,"trial_type":"image-keyboard-response","trial_index":22,"plugin_version":"2.1.0","time_elapsed":100938,"subject_id":"91551","group":"Group2","condition":"3_Rep","full_date":"2026-02-10T22:22:52.776Z","date":"2026-02-10","time":"22:22:52"},{"rt":null,"stimulus":"<p style=\"font-size: 50px; margin: 0; text-align: center;\">+</p>","response":null,"trial_type":"html-keyboard-response","trial_index":23,"plugin_version":"2.1.0","time_elapsed":101941,"subject_id":"91551","group":"Group2","condition":"3_Rep","full_date":"2026-02-10T22:22:52.776Z","date":"2026-02-10","time":"22:22:52"},{"task":"memory_phase","broad_category":"S","image_png":"S_Shale_02.png","image_id":466,"category_name":"Shale","category":30,"distinct_rating":2.9,"distinct_type":"Bottom","rt":null,"stimulus":"Stimuli_Rocks480/S_Shale_02.png","response":null,"trial_type":"image-keyboard-response","trial_index":24,"plugin_version":"2.1.0","time_elapsed":104455,"subject_id":"91551","group":"Group2","condition":"3_Rep","full_date":"2026-02-10T22:22:52.776Z","date":"2026-02-10","time":"22:22:52"},{"rt":null,"stimulus":"<p style=\"font-size: 50px; margin: 0; text-align: center;\">+</p>","response":null,"trial_type":"html-keyboard-response","trial_index":25,"plugin_version":"2.1.0","time_elapsed":105465,"subject_id":"91551","group":"Group2","condition":"3_Rep","full_date":"2026-02-10T22:22:52.776Z","date":"2026-02-10","time":"22:22:52"},{"task":"memory_phase","broad_category":"S","image_png":"S_Shale_07.png","image_id":471,"category_name":"Shale","category":30,"distinct_rating":2.73,"distinct_type":"Bottom","rt":null,"stimulus":"Stimuli_Rocks480/S_Shale_07.png","response":null,"trial_type":"image-keyboard-response","trial_index":26,"plugin_version":"2.1.0","time_elapsed":107982,"subject_id":"91551","group":"Group2","condition":"3_Rep","full_date":"2026-02-10T22:22:52.776Z","date":"2026-02-10","time":"22:22:52"},{"rt":null,"stimulus":"<p style=\"font-size: 50px; margin: 0; text-align: center;\">+</p>","response":null,"trial_type":"html-keyboard-response","trial_index":27,"plugin_version":"2.1.0","time_elapsed":108986,"subject_id":"91551","group":"Group2","condition":"3_Rep","full_date":"2026-02-10T22:22:52.776Z","date":"2026-02-10","time":"22:22:52"},{"task":"memory_phase","broad_category":"S","image_png":"S_Dolomite_07.png","image_id":391,"category_name":"Dolomite","category":25,"distinct_rating":1.73,"distinct_type":"Bottom","rt":null,"stimulus":"Stimuli_Rocks480/S_Dolomite_07.png","response":null,"trial_type":"image-keyboard-response","trial_index":28,"plugin_version":"2.1.0","time_elapsed":111493,"subject_id":"91551","group":"Group2","condition":"3_Rep","full_date":"2026-02-10T22:22:52.776Z","date":"2026-02-10","time":"22:22:52"},{"rt":null,"stimulus":"<p style=\"font-size: 50px; margin: 0; text-align: center;\">+</p>","response":null,"trial_type":"html-keyboard-response","trial_index":29,"plugin_version":"2.1.0","time_elapsed":112497,"subject_id":"91551","group":"Group2","condition":"3_Rep","full_date":"2026-02-10T22:22:52.776Z","date":"2026-02-10","time":"22:22:52"},{"task":"memory_phase","broad_category":"I","image_png":"I_Gabbro_02.png","image_id":50,"category_name":"Gabbro","category":4,"distinct_rating":2.73,"distinct_type":"Bottom","rt":null,"stimulus":"Stimuli_Rocks480/I_Gabbro_02.png","response":null,"trial_type":"image-keyboard-response","trial_index":30,"plugin_version":"2.1.0","time_elapsed":115011,"subject_id":"91551","group":"Group2","condition":"3_Rep","full_date":"2026-02-10T22:22:52.776Z","date":"2026-02-10","time":"22:22:52"},{"rt":null,"stimulus":"<p style=\"font-size: 50px; margin: 0; text-align: center;\">+</p>","response":null,"trial_type":"html-keyboard-response","trial_index":31,"plugin_version":"2.1.0","time_elapsed":116019,"subject_id":"91551","group":"Group2","condition":"3_Rep","full_date":"2026-02-10T22:22:52.776Z","date":"2026-02-10","time":"22:22:52"},{"task":"memory_phase","broad_category":"I","image_png":"I_Obsidian_06.png","image_id":86,"category_name":"Obsidian","category":6,"distinct_rating":8.01,"distinct_type":"Top","rt":null,"stimulus":"Stimuli_Rocks480/I_Obsidian_06.png","response":null,"trial_type":"image-keyboard-response","trial_index":32,"plugin_version":"2.1.0","time_elapsed":118528,"subject_id":"91551","group":"Group2","condition":"3_Rep","full_date":"2026-02-10T22:22:52.776Z","date":"2026-02-10","time":"22:22:52"},{"rt":null,"stimulus":"<p style=\"font-size: 50px; margin: 0; text-align: center;\">+</p>","response":null,"trial_type":"html-keyboard-response","trial_index":33,"plugin_version":"2.1.0","time_elapsed":119534,"subject_id":"91551","group":"Group2","condition":"3_Rep","full_date":"2026-02-10T22:22:52.776Z","date":"2026-02-10","time":"22:22:52"},{"task":"memory_phase","broad_category":"I","image_png":"I_Basalt_13.png","image_id":29,"category_name":"Basalt","category":2,"distinct_rating":2.68,"distinct_type":"Bottom","rt":null,"stimulus":"Stimuli_Rocks480/I_Basalt_13.png","response":null,"trial_type":"image-keyboard-response","trial_index":34,"plugin_version":"2.1.0","time_elapsed":122045,"subject_id":"91551","group":"Group2","condition":"3_Rep","full_date":"2026-02-10T22:22:52.776Z","date":"2026-02-10","time":"22:22:52"},{"rt":null,"stimulus":"<p style=\"font-size: 50px; margin: 0; text-align: center;\">+</p>","response":null,"trial_type":"html-keyboard-response","trial_index":35,"plugin_version":"2.1.0","time_elapsed":123051,"subject_id":"91551","group":"Group2","condition":"3_Rep","full_date":"2026-02-10T22:22:52.776Z","date":"2026-02-10","time":"22:22:52"},{"task":"memory_phase","broad_category":"M","image_png":"M_Phyllite_13.png","image_id":269,"category_name":"Phyllite","category":17,"distinct_rating":2.8,"distinct_type":"Bottom","rt":null,"stimulus":"Stimuli_Rocks480/M_Phyllite_13.png","response":null,"trial_type":"image-keyboard-response","trial_index":36,"plugin_version":"2.1.0","time_elapsed":125566,"subject_id":"91551","group":"Group2","condition":"3_Rep","full_date":"2026-02-10T22:22:52.776Z","date":"2026-02-10","time":"22:22:52"},{"rt":null,"stimulus":"<p style=\"font-size: 50px; margin: 0; text-align: center;\">+</p>","response":null,"trial_type":"html-keyboard-response","trial_index":37,"plugin_version":"2.1.0","time_elapsed":126572,"subject_id":"91551","group":"Group2","condition":"3_Rep","full_date":"2026-02-10T22:22:52.776Z","date":"2026-02-10","time":"22:22:52"},{"task":"memory_phase","broad_category":"M","image_png":"M_Gneiss_15.png","image_id":207,"category_name":"Gneiss","category":13,"distinct_rating":3.11,"distinct_type":"Bottom","rt":null,"stimulus":"Stimuli_Rocks480/M_Gneiss_15.png","response":null,"trial_type":"image-keyboard-response","trial_index":38,"plugin_version":"2.1.0","time_elapsed":129086,"subject_id":"91551","group":"Group2","condition":"3_Rep","full_date":"2026-02-10T22:22:52.776Z","date":"2026-02-10","time":"22:22:52"},{"rt":null,"stimulus":"<p style=\"font-size: 50px; margin: 0; text-align: center;\">+</p>","response":null,"trial_type":"html-keyboard-response","trial_index":39,"plugin_version":"2.1.0","time_elapsed":130095,"subject_id":"91551","group":"Group2","condition":"3_Rep","full_date":"2026-02-10T22:22:52.776Z","date":"2026-02-10","time":"22:22:52"},{"task":"memory_phase","broad_category":"S","image_png":"S_Shale_03.png","image_id":467,"category_name":"Shale","category":30,"distinct_rating":1.95,"distinct_type":"Bottom","rt":null,"stimulus":"Stimuli_Rocks480/S_Shale_03.png","response":null,"trial_type":"image-keyboard-response","trial_index":40,"plugin_version":"2.1.0","time_elapsed":132607,"subject_id":"91551","group":"Group2","condition":"3_Rep","full_date":"2026-02-10T22:22:52.776Z","date":"2026-02-10","time":"22:22:52"},{"rt":null,"stimulus":"<p style=\"font-size: 50px; margin: 0; text-align: center;\">+</p>","response":null,"trial_type":"html-keyboard-response","trial_index":41,"plugin_version":"2.1.0","time_elapsed":133624,"subject_id":"91551","group":"Group2","condition":"3_Rep","full_date":"2026-02-10T22:22:52.776Z","date":"2026-02-10","time":"22:22:52"},{"task":"memory_phase","broad_category":"M","image_png":"M_Quartzite_15.png","image_id":287,"category_name":"Quartzite","category":18,"distinct_rating":2.19,"distinct_type":"Bottom","rt":null,"stimulus":"Stimuli_Rocks480/M_Quartzite_15.png","response":null,"trial_type":"image-keyboard-response","trial_index":42,"plugin_version":"2.1.0","time_elapsed":136140,"subject_id":"91551","group":"Group2","condition":"3_Rep","full_date":"2026-02-10T22:22:52.776Z","date":"2026-02-10","time":"22:22:52"},{"rt":null,"stimulus":"<p style=\"font-size: 50px; margin: 0; text-align: center;\">+</p>","response":null,"trial_type":"html-keyboard-response","trial_index":43,"plugin_version":"2.1.0","time_elapsed":137147,"subject_id":"91551","group":"Group2","condition":"3_Rep","full_date":"2026-02-10T22:22:52.776Z","date":"2026-02-10","time":"22:22:52"},{"task":"memory_phase","broad_category":"M","image_png":"M_Phyllite_02.png","image_id":258,"category_name":"Phyllite","category":17,"distinct_rating":2.89,"distinct_type":"Bottom","rt":null,"stimulus":"Stimuli_Rocks480/M_Phyllite_02.png","response":null,"trial_type":"image-keyboard-response","trial_index":44,"plugin_version":"2.1.0","time_elapsed":139658,"subject_id":"91551","group":"Group2","condition":"3_Rep","full_date":"2026-02-10T22:22:52.776Z","date":"2026-02-10","time":"22:22:52"},{"rt":null,"stimulus":"<p style=\"font-size: 50px; margin: 0; text-align: center;\">+</p>","response":null,"trial_type":"html-keyboard-response","trial_index":45,"plugin_version":"2.1.0","time_elapsed":140675,"subject_id":"91551","group":"Group2","condition":"3_Rep","full_date":"2026-02-10T22:22:52.776Z","date":"2026-02-10","time":"22:22:52"},{"task":"memory_phase","broad_category":"I","image_png":"I_Pegmatite_03.png","image_id":99,"category_name":"Pegmatite","category":7,"distinct_rating":7.24,"distinct_type":"Top","rt":null,"stimulus":"Stimuli_Rocks480/I_Pegmatite_03.png","response":null,"trial_type":"image-keyboard-response","trial_index":46,"plugin_version":"2.1.0","time_elapsed":143185,"subject_id":"91551","group":"Group2","condition":"3_Rep","full_date":"2026-02-10T22:22:52.776Z","date":"2026-02-10","time":"22:22:52"},{"rt":null,"stimulus":"<p style=\"font-size: 50px; margin: 0; text-align: center;\">+</p>","response":null,"trial_type":"html-keyboard-response","trial_index":47,"plugin_version":"2.1.0","time_elapsed":144201,"subject_id":"91551","group":"Group2","condition":"3_Rep","full_date":"2026-02-10T22:22:52.776Z","date":"2026-02-10","time":"22:22:52"},{"task":"memory_phase","broad_category":"I","image_png":"I_Basalt_10.png","image_id":26,"category_name":"Basalt","category":2,"distinct_rating":2.76,"distinct_type":"Bottom","rt":null,"stimulus":"Stimuli_Rocks480/I_Basalt_10.png","response":null,"trial_type":"image-keyboard-response","trial_index":48,"plugin_version":"2.1.0","time_elapsed":146704,"subject_id":"91551","group":"Group2","condition":"3_Rep","full_date":"2026-02-10T22:22:52.776Z","date":"2026-02-10","time":"22:22:52"},{"rt":null,"stimulus":"<p style=\"font-size: 50px; margin: 0; text-align: center;\">+</p>","response":null,"trial_type":"html-keyboard-response","trial_index":49,"plugin_version":"2.1.0","time_elapsed":147705,"subject_id":"91551","group":"Group2","condition":"3_Rep","full_date":"2026-02-10T22:22:52.776Z","date":"2026-02-10","time":"22:22:52"},{"task":"memory_phase","broad_category":"I","image_png":"I_Gabbro_12.png","image_id":60,"category_name":"Gabbro","category":4,"distinct_rating":2.6,"distinct_type":"Bottom","rt":null,"stimulus":"Stimuli_Rocks480/I_Gabbro_12.png","response":null,"trial_type":"image-keyboard-response","trial_index":50,"plugin_version":"2.1.0","time_elapsed":150222,"subject_id":"91551","group":"Group2","condition":"3_Rep","full_date":"2026-02-10T22:22:52.776Z","date":"2026-02-10","time":"22:22:52"},{"rt":null,"stimulus":"<p style=\"font-size: 50px; margin: 0; text-align: center;\">+</p>","response":null,"trial_type":"html-keyboard-response","trial_index":51,"plugin_version":"2.1.0","time_elapsed":151225,"subject_id":"91551","group":"Group2","condition":"3_Rep","full_date":"2026-02-10T22:22:52.776Z","date":"2026-02-10","time":"22:22:52"},{"task":"memory_phase","broad_category":"S","image_png":"S_Sandstone_11.png","image_id":459,"category_name":"Sandstone","category":29,"distinct_rating":1.82,"distinct_type":"Bottom","rt":null,"stimulus":"Stimuli_Rocks480/S_Sandstone_11.png","response":null,"trial_type":"image-keyboard-response","trial_index":52,"plugin_version":"2.1.0","time_elapsed":153737,"subject_id":"91551","group":"Group2","condition":"3_Rep","full_date":"2026-02-10T22:22:52.776Z","date":"2026-02-10","time":"22:22:52"},{"rt":null,"stimulus":"<p style=\"font-size: 50px; margin: 0; text-align: center;\">+</p>","response":null,"trial_type":"html-keyboard-response","trial_index":53,"plugin_version":"2.1.0","time_elapsed":154749,"subject_id":"91551","group":"Group2","condition":"3_Rep","full_date":"2026-02-10T22:22:52.776Z","date":"2026-02-10","time":"22:22:52"},{"task":"memory_phase","broad_category":"I","image_png":"I_Pumice_13.png","image_id":141,"category_name":"Pumice","category":9,"distinct_rating":3.12,"distinct_type":"Bottom","rt":null,"stimulus":"Stimuli_Rocks480/I_Pumice_13.png","response":null,"trial_type":"image-keyboard-response","trial_index":54,"plugin_version":"2.1.0","time_elapsed":157267,"subject_id":"91551","group":"Group2","condition":"3_Rep","full_date":"2026-02-10T22:22:52.776Z","date":"2026-02-10","time":"22:22:52"},{"rt":2473,"stimulus":"<p style=\"max-width: 760px; margin: auto; font-size: 35px; line-height: 1.5;\">\n                Press SPACE to continue study phase\n              </p>","response":" ","trial_type":"html-keyboard-response","trial_index":55,"plugin_version":"2.1.0","time_elapsed":159741,"subject_id":"91551","group":"Group2","condition":"3_Rep","full_date":"2026-02-10T22:22:52.776Z","date":"2026-02-10","time":"22:22:52"},{"rt":null,"stimulus":"<p style=\"font-size: 50px; margin: 0; text-align: center;\">+</p>","response":null,"trial_type":"html-keyboard-response","trial_index":56,"plugin_version":"2.1.0","time_elapsed":160745,"subject_id":"91551","group":"Group2","condition":"3_Rep","full_date":"2026-02-10T22:22:52.776Z","date":"2026-02-10","time":"22:22:52"},{"task":"memory_phase","broad_category":"S","image_png":"S_Dolomite_01.png","image_id":385,"category_name":"Dolomite","category":25,"distinct_rating":1.43,"distinct_type":"Bottom","rt":null,"stimulus":"Stimuli_Rocks480/S_Dolomite_01.png","response":null,"trial_type":"image-keyboard-response","trial_index":57,"plugin_version":"2.1.0","time_elapsed":163250,"subject_id":"91551","group":"Group2","condition":"3_Rep","full_date":"2026-02-10T22:22:52.776Z","date":"2026-02-10","time":"22:22:52"},{"rt":null,"stimulus":"<p style=\"font-size: 50px; margin: 0; text-align: center;\">+</p>","response":null,"trial_type":"html-keyboard-response","trial_index":58,"plugin_version":"2.1.0","time_elapsed":164257,"subject_id":"91551","group":"Group2","condition":"3_Rep","full_date":"2026-02-10T22:22:52.776Z","date":"2026-02-10","time":"22:22:52"},{"task":"memory_phase","broad_category":"M","image_png":"M_Gneiss_14.png","image_id":206,"category_name":"Gneiss","category":13,"distinct_rating":3.41,"distinct_type":"Bottom","rt":null,"stimulus":"Stimuli_Rocks480/M_Gneiss_14.png","response":null,"trial_type":"image-keyboard-response","trial_index":59,"plugin_version":"2.1.0","time_elapsed":166769,"subject_id":"91551","group":"Group2","condition":"3_Rep","full_date":"2026-02-10T22:22:52.776Z","date":"2026-02-10","time":"22:22:52"},{"rt":null,"stimulus":"<p style=\"font-size: 50px; margin: 0; text-align: center;\">+</p>","response":null,"trial_type":"html-keyboard-response","trial_index":60,"plugin_version":"2.1.0","time_elapsed":167771,"subject_id":"91551","group":"Group2","condition":"3_Rep","full_date":"2026-02-10T22:22:52.776Z","date":"2026-02-10","time":"22:22:52"},{"task":"memory_phase","broad_category":"I","image_png":"I_Rhyolite_05.png","image_id":149,"category_name":"Rhyolite","category":10,"distinct_rating":3.02,"distinct_type":"Bottom","rt":null,"stimulus":"Stimuli_Rocks480/I_Rhyolite_05.png","response":null,"trial_type":"image-keyboard-response","trial_index":61,"plugin_version":"2.1.0","time_elapsed":170278,"subject_id":"91551","group":"Group2","condition":"3_Rep","full_date":"2026-02-10T22:22:52.776Z","date":"2026-02-10","time":"22:22:52"},{"rt":null,"stimulus":"<p style=\"font-size: 50px; margin: 0; text-align: center;\">+</p>","response":null,"trial_type":"html-keyboard-response","trial_index":62,"plugin_version":"2.1.0","time_elapsed":171291,"subject_id":"91551","group":"Group2","condition":"3_Rep","full_date":"2026-02-10T22:22:52.776Z","date":"2026-02-10","time":"22:22:52"},{"task":"memory_phase","broad_category":"M","image_png":"M_Marble_14.png","image_id":238,"category_name":"Marble","category":15,"distinct_rating":3.31,"distinct_type":"Bottom","rt":null,"stimulus":"Stimuli_Rocks480/M_Marble_14.png","response":null,"trial_type":"image-keyboard-response","trial_index":63,"plugin_version":"2.1.0","time_elapsed":173800,"subject_id":"91551","group":"Group2","condition":"3_Rep","full_date":"2026-02-10T22:22:52.776Z","date":"2026-02-10","time":"22:22:52"},{"rt":null,"stimulus":"<p style=\"font-size: 50px; margin: 0; text-align: center;\">+</p>","response":null,"trial_type":"html-keyboard-response","trial_index":64,"plugin_version":"2.1.0","time_elapsed":174817,"subject_id":"91551","group":"Group2","condition":"3_Rep","full_date":"2026-02-10T22:22:52.776Z","date":"2026-02-10","time":"22:22:52"},{"task":"memory_phase","broad_category":"I","image_png":"I_Gabbro_14.png","image_id":62,"category_name":"Gabbro","category":4,"distinct_rating":2.95,"distinct_type":"Bottom","rt":null,"stimulus":"Stimuli_Rocks480/I_Gabbro_14.png","response":null,"trial_type":"image-keyboard-response","trial_index":65,"plugin_version":"2.1.0","time_elapsed":177331,"subject_id":"91551","group":"Group2","condition":"3_Rep","full_date":"2026-02-10T22:22:52.776Z","date":"2026-02-10","time":"22:22:52"},{"rt":null,"stimulus":"<p style=\"font-size: 50px; margin: 0; text-align: center;\">+</p>","response":null,"trial_type":"html-keyboard-response","trial_index":66,"plugin_version":"2.1.0","time_elapsed":178343,"subject_id":"91551","group":"Group2","condition":"3_Rep","full_date":"2026-02-10T22:22:52.776Z","date":"2026-02-10","time":"22:22:52"},{"task":"memory_phase","broad_category":"S","image_png":"S_Chert_13.png","image_id":365,"category_name":"Chert","category":23,"distinct_rating":6.57,"distinct_type":"Top","rt":null,"stimulus":"Stimuli_Rocks480/S_Chert_13.png","response":null,"trial_type":"image-keyboard-response","trial_index":67,"plugin_version":"2.1.0","time_elapsed":180850,"subject_id":"91551","group":"Group2","condition":"3_Rep","full_date":"2026-02-10T22:22:52.776Z","date":"2026-02-10","time":"22:22:52"},{"rt":null,"stimulus":"<p style=\"font-size: 50px; margin: 0; text-align: center;\">+</p>","response":null,"trial_type":"html-keyboard-response","trial_index":68,"plugin_version":"2.1.0","time_elapsed":181857,"subject_id":"91551","group":"Group2","condition":"3_Rep","full_date":"2026-02-10T22:22:52.776Z","date":"2026-02-10","time":"22:22:52"},{"task":"memory_phase","broad_category":"I","image_png":"I_Diorite_01.png","image_id":33,"category_name":"Diorite","category":3,"distinct_rating":2.97,"distinct_type":"Bottom","rt":null,"stimulus":"Stimuli_Rocks480/I_Diorite_01.png","response":null,"trial_type":"image-keyboard-response","trial_index":69,"plugin_version":"2.1.0","time_elapsed":184369,"subject_id":"91551","group":"Group2","condition":"3_Rep","full_date":"2026-02-10T22:22:52.776Z","date":"2026-02-10","time":"22:22:52"},{"rt":null,"stimulus":"<p style=\"font-size: 50px; margin: 0; text-align: center;\">+</p>","response":null,"trial_type":"html-keyboard-response","trial_index":70,"plugin_version":"2.1.0","time_elapsed":185374,"subject_id":"91551","group":"Group2","condition":"3_Rep","full_date":"2026-02-10T22:22:52.776Z","date":"2026-02-10","time":"22:22:52"},{"task":"memory_phase","broad_category":"I","image_png":"I_Pumice_14.png","image_id":142,"category_name":"Pumice","category":9,"distinct_rating":3.22,"distinct_type":"Bottom","rt":null,"stimulus":"Stimuli_Rocks480/I_Pumice_14.png","response":null,"trial_type":"image-keyboard-response","trial_index":71,"plugin_version":"2.1.0","time_elapsed":187892,"subject_id":"91551","group":"Group2","condition":"3_Rep","full_date":"2026-02-10T22:22:52.776Z","date":"2026-02-10","time":"22:22:52"},{"rt":null,"stimulus":"<p style=\"font-size: 50px; margin: 0; text-align: center;\">+</p>","response":null,"trial_type":"html-keyboard-response","trial_index":72,"plugin_version":"2.1.0","time_elapsed":188908,"subject_id":"91551","group":"Group2","condition":"3_Rep","full_date":"2026-02-10T22:22:52.776Z","date":"2026-02-10","time":"22:22:52"},{"task":"memory_phase","broad_category":"M","image_png":"M_Marble_03.png","image_id":227,"category_name":"Marble","category":15,"distinct_rating":2.67,"distinct_type":"Bottom","rt":null,"stimulus":"Stimuli_Rocks480/M_Marble_03.png","response":null,"trial_type":"image-keyboard-response","trial_index":73,"plugin_version":"2.1.0","time_elapsed":191416,"subject_id":"91551","group":"Group2","condition":"3_Rep","full_date":"2026-02-10T22:22:52.776Z","date":"2026-02-10","time":"22:22:52"},{"rt":null,"stimulus":"<p style=\"font-size: 50px; margin: 0; text-align: center;\">+</p>","response":null,"trial_type":"html-keyboard-response","trial_index":74,"plugin_version":"2.1.0","time_elapsed":192433,"subject_id":"91551","group":"Group2","condition":"3_Rep","full_date":"2026-02-10T22:22:52.776Z","date":"2026-02-10","time":"22:22:52"},{"task":"memory_phase","broad_category":"I","image_png":"I_Pegmatite_11.png","image_id":107,"category_name":"Pegmatite","category":7,"distinct_rating":7.11,"distinct_type":"Top","rt":null,"stimulus":"Stimuli_Rocks480/I_Pegmatite_11.png","response":null,"trial_type":"image-keyboard-response","trial_index":75,"plugin_version":"2.1.0","time_elapsed":194940,"subject_id":"91551","group":"Group2","condition":"3_Rep","full_date":"2026-02-10T22:22:52.776Z","date":"2026-02-10","time":"22:22:52"},{"rt":null,"stimulus":"<p style=\"font-size: 50px; margin: 0; text-align: center;\">+</p>","response":null,"trial_type":"html-keyboard-response","trial_index":76,"plugin_version":"2.1.0","time_elapsed":195946,"subject_id":"91551","group":"Group2","condition":"3_Rep","full_date":"2026-02-10T22:22:52.776Z","date":"2026-02-10","time":"22:22:52"},{"task":"memory_phase","broad_category":"I","image_png":"I_Andesite_03.png","image_id":3,"category_name":"Andesite","category":1,"distinct_rating":3.17,"distinct_type":"Bottom","rt":null,"stimulus":"Stimuli_Rocks480/I_Andesite_03.png","response":null,"trial_type":"image-keyboard-response","trial_index":77,"plugin_version":"2.1.0","time_elapsed":198464,"subject_id":"91551","group":"Group2","condition":"3_Rep","full_date":"2026-02-10T22:22:52.776Z","date":"2026-02-10","time":"22:22:52"},{"rt":null,"stimulus":"<p style=\"font-size: 50px; margin: 0; text-align: center;\">+</p>","response":null,"trial_type":"html-keyboard-response","trial_index":78,"plugin_version":"2.1.0","time_elapsed":199473,"subject_id":"91551","group":"Group2","condition":"3_Rep","full_date":"2026-02-10T22:22:52.776Z","date":"2026-02-10","time":"22:22:52"},{"task":"memory_phase","broad_category":"M","image_png":"M_Gneiss_10.png","image_id":202,"category_name":"Gneiss","category":13,"distinct_rating":3.09,"distinct_type":"Bottom","rt":null,"stimulus":"Stimuli_Rocks480/M_Gneiss_10.png","response":null,"trial_type":"image-keyboard-response","trial_index":79,"plugin_version":"2.1.0","time_elapsed":201980,"subject_id":"91551","group":"Group2","condition":"3_Rep","full_date":"2026-02-10T22:22:52.776Z","date":"2026-02-10","time":"22:22:52"},{"rt":null,"stimulus":"<p style=\"font-size: 50px; margin: 0; text-align: center;\">+</p>","response":null,"trial_type":"html-keyboard-response","trial_index":80,"plugin_version":"2.1.0","time_elapsed":202991,"subject_id":"91551","group":"Group2","condition":"3_Rep","full_date":"2026-02-10T22:22:52.776Z","date":"2026-02-10","time":"22:22:52"},{"task":"memory_phase","broad_category":"I","image_png":"I_Diorite_15.png","image_id":47,"category_name":"Diorite","category":3,"distinct_rating":3.05,"distinct_type":"Bottom","rt":null,"stimulus":"Stimuli_Rocks480/I_Diorite_15.png","response":null,"trial_type":"image-keyboard-response","trial_index":81,"plugin_version":"2.1.0","time_elapsed":205505,"subject_id":"91551","group":"Group2","condition":"3_Rep","full_date":"2026-02-10T22:22:52.776Z","date":"2026-02-10","time":"22:22:52"},{"rt":null,"stimulus":"<p style=\"font-size: 50px; margin: 0; text-align: center;\">+</p>","response":null,"trial_type":"html-keyboard-response","trial_index":82,"plugin_version":"2.1.0","time_elapsed":206513,"subject_id":"91551","group":"Group2","condition":"3_Rep","full_date":"2026-02-10T22:22:52.776Z","date":"2026-02-10","time":"22:22:52"},{"task":"memory_phase","broad_category":"I","image_png":"I_Peridotite_13.png","image_id":125,"category_name":"Peridotite","category":8,"distinct_rating":7.28,"distinct_type":"Top","rt":null,"stimulus":"Stimuli_Rocks480/I_Peridotite_13.png","response":null,"trial_type":"image-keyboard-response","trial_index":83,"plugin_version":"2.1.0","time_elapsed":209029,"subject_id":"91551","group":"Group2","condition":"3_Rep","full_date":"2026-02-10T22:22:52.776Z","date":"2026-02-10","time":"22:22:52"},{"rt":null,"stimulus":"<p style=\"font-size: 50px; margin: 0; text-align: center;\">+</p>","response":null,"trial_type":"html-keyboard-response","trial_index":84,"plugin_version":"2.1.0","time_elapsed":210036,"subject_id":"91551","group":"Group2","condition":"3_Rep","full_date":"2026-02-10T22:22:52.776Z","date":"2026-02-10","time":"22:22:52"},{"task":"memory_phase","broad_category":"S","image_png":"S_Dolomite_16.png","image_id":400,"category_name":"Dolomite","category":25,"distinct_rating":1.71,"distinct_type":"Bottom","rt":null,"stimulus":"Stimuli_Rocks480/S_Dolomite_16.png","response":null,"trial_type":"image-keyboard-response","trial_index":85,"plugin_version":"2.1.0","time_elapsed":212545,"subject_id":"91551","group":"Group2","condition":"3_Rep","full_date":"2026-02-10T22:22:52.776Z","date":"2026-02-10","time":"22:22:52"},{"rt":null,"stimulus":"<p style=\"font-size: 50px; margin: 0; text-align: center;\">+</p>","response":null,"trial_type":"html-keyboard-response","trial_index":86,"plugin_version":"2.1.0","time_elapsed":213557,"subject_id":"91551","group":"Group2","condition":"3_Rep","full_date":"2026-02-10T22:22:52.776Z","date":"2026-02-10","time":"22:22:52"},{"task":"memory_phase","broad_category":"M","image_png":"M_Slate_04.png","image_id":308,"category_name":"Slate","category":20,"distinct_rating":2.2,"distinct_type":"Bottom","rt":null,"stimulus":"Stimuli_Rocks480/M_Slate_04.png","response":null,"trial_type":"image-keyboard-response","trial_index":87,"plugin_version":"2.1.0","time_elapsed":216062,"subject_id":"91551","group":"Group2","condition":"3_Rep","full_date":"2026-02-10T22:22:52.776Z","date":"2026-02-10","time":"22:22:52"},{"rt":null,"stimulus":"<p style=\"font-size: 50px; margin: 0; text-align: center;\">+</p>","response":null,"trial_type":"html-keyboard-response","trial_index":88,"plugin_version":"2.1.0","time_elapsed":217073,"subject_id":"91551","group":"Group2","condition":"3_Rep","full_date":"2026-02-10T22:22:52.776Z","date":"2026-02-10","time":"22:22:52"},{"task":"memory_phase","broad_category":"M","image_png":"M_Phyllite_05.png","image_id":261,"category_name":"Phyllite","category":17,"distinct_rating":2.14,"distinct_type":"Bottom","rt":null,"stimulus":"Stimuli_Rocks480/M_Phyllite_05.png","response":null,"trial_type":"image-keyboard-response","trial_index":89,"plugin_version":"2.1.0","time_elapsed":219589,"subject_id":"91551","group":"Group2","condition":"3_Rep","full_date":"2026-02-10T22:22:52.776Z","date":"2026-02-10","time":"22:22:52"},{"rt":null,"stimulus":"<p style=\"font-size: 50px; margin: 0; text-align: center;\">+</p>","response":null,"trial_type":"html-keyboard-response","trial_index":90,"plugin_version":"2.1.0","time_elapsed":220592,"subject_id":"91551","group":"Group2","condition":"3_Rep","full_date":"2026-02-10T22:22:52.776Z","date":"2026-02-10","time":"22:22:52"},{"task":"memory_phase","broad_category":"S","image_png":"S_Rock Salt_15.png","image_id":447,"category_name":"Rock Salt","category":28,"distinct_rating":7.79,"distinct_type":"Top","rt":null,"stimulus":"Stimuli_Rocks480/S_Rock Salt_15.png","response":null,"trial_type":"image-keyboard-response","trial_index":91,"plugin_version":"2.1.0","time_elapsed":223098,"subject_id":"91551","group":"Group2","condition":"3_Rep","full_date":"2026-02-10T22:22:52.776Z","date":"2026-02-10","time":"22:22:52"},{"rt":null,"stimulus":"<p style=\"font-size: 50px; margin: 0; text-align: center;\">+</p>","response":null,"trial_type":"html-keyboard-response","trial_index":92,"plugin_version":"2.1.0","time_elapsed":224111,"subject_id":"91551","group":"Group2","condition":"3_Rep","full_date":"2026-02-10T22:22:52.776Z","date":"2026-02-10","time":"22:22:52"},{"task":"memory_phase","broad_category":"I","image_png":"I_Pumice_01.png","image_id":129,"category_name":"Pumice","category":9,"distinct_rating":3.25,"distinct_type":"Bottom","rt":null,"stimulus":"Stimuli_Rocks480/I_Pumice_01.png","response":null,"trial_type":"image-keyboard-response","trial_index":93,"plugin_version":"2.1.0","time_elapsed":226625,"subject_id":"91551","group":"Group2","condition":"3_Rep","full_date":"2026-02-10T22:22:52.776Z","date":"2026-02-10","time":"22:22:52"},{"rt":null,"stimulus":"<p style=\"font-size: 50px; margin: 0; text-align: center;\">+</p>","response":null,"trial_type":"html-keyboard-response","trial_index":94,"plugin_version":"2.1.0","time_elapsed":227639,"subject_id":"91551","group":"Group2","condition":"3_Rep","full_date":"2026-02-10T22:22:52.776Z","date":"2026-02-10","time":"22:22:52"},{"task":"memory_phase","broad_category":"S","image_png":"S_Rock Salt_13.png","image_id":445,"category_name":"Rock Salt","category":28,"distinct_rating":7.58,"distinct_type":"Top","rt":null,"stimulus":"Stimuli_Rocks480/S_Rock Salt_13.png","response":null,"trial_type":"image-keyboard-response","trial_index":95,"plugin_version":"2.1.0","time_elapsed":230143,"subject_id":"91551","group":"Group2","condition":"3_Rep","full_date":"2026-02-10T22:22:52.776Z","date":"2026-02-10","time":"22:22:52"},{"rt":null,"stimulus":"<p style=\"font-size: 50px; margin: 0; text-align: center;\">+</p>","response":null,"trial_type":"html-keyboard-response","trial_index":96,"plugin_version":"2.1.0","time_elapsed":231161,"subject_id":"91551","group":"Group2","condition":"3_Rep","full_date":"2026-02-10T22:22:52.776Z","date":"2026-02-10","time":"22:22:52"},{"task":"memory_phase","broad_category":"M","image_png":"M_Slate_10.png","image_id":314,"category_name":"Slate","category":20,"distinct_rating":1.94,"distinct_type":"Bottom","rt":null,"stimulus":"Stimuli_Rocks480/M_Slate_10.png","response":null,"trial_type":"image-keyboard-response","trial_index":97,"plugin_version":"2.1.0","time_elapsed":233670,"subject_id":"91551","group":"Group2","condition":"3_Rep","full_date":"2026-02-10T22:22:52.776Z","date":"2026-02-10","time":"22:22:52"},{"rt":null,"stimulus":"<p style=\"font-size: 50px; margin: 0; text-align: center;\">+</p>","response":null,"trial_type":"html-keyboard-response","trial_index":98,"plugin_version":"2.1.0","time_elapsed":234675,"subject_id":"91551","group":"Group2","condition":"3_Rep","full_date":"2026-02-10T22:22:52.776Z","date":"2026-02-10","time":"22:22:52"},{"task":"memory_phase","broad_category":"S","image_png":"S_Sandstone_08.png","image_id":456,"category_name":"Sandstone","category":29,"distinct_rating":1.5,"distinct_type":"Bottom","rt":null,"stimulus":"Stimuli_Rocks480/S_Sandstone_08.png","response":null,"trial_type":"image-keyboard-response","trial_index":99,"plugin_version":"2.1.0","time_elapsed":237191,"subject_id":"91551","group":"Group2","condition":"3_Rep","full_date":"2026-02-10T22:22:52.776Z","date":"2026-02-10","time":"22:22:52"},{"rt":null,"stimulus":"<p style=\"font-size: 50px; margin: 0; text-align: center;\">+</p>","response":null,"trial_type":"html-keyboard-response","trial_index":100,"plugin_version":"2.1.0","time_elapsed":238203,"subject_id":"91551","group":"Group2","condition":"3_Rep","full_date":"2026-02-10T22:22:52.776Z","date":"2026-02-10","time":"22:22:52"},{"task":"memory_phase","broad_category":"S","image_png":"S_Sandstone_04.png","image_id":452,"category_name":"Sandstone","category":29,"distinct_rating":1.8,"distinct_type":"Bottom","rt":null,"stimulus":"Stimuli_Rocks480/S_Sandstone_04.png","response":null,"trial_type":"image-keyboard-response","trial_index":101,"plugin_version":"2.1.0","time_elapsed":240709,"subject_id":"91551","group":"Group2","condition":"3_Rep","full_date":"2026-02-10T22:22:52.776Z","date":"2026-02-10","time":"22:22:52"},{"rt":null,"stimulus":"<p style=\"font-size: 50px; margin: 0; text-align: center;\">+</p>","response":null,"trial_type":"html-keyboard-response","trial_index":102,"plugin_version":"2.1.0","time_elapsed":241723,"subject_id":"91551","group":"Group2","condition":"3_Rep","full_date":"2026-02-10T22:22:52.776Z","date":"2026-02-10","time":"22:22:52"},{"task":"memory_phase","broad_category":"M","image_png":"M_Quartzite_12.png","image_id":284,"category_name":"Quartzite","category":18,"distinct_rating":1.92,"distinct_type":"Bottom","rt":null,"stimulus":"Stimuli_Rocks480/M_Quartzite_12.png","response":null,"trial_type":"image-keyboard-response","trial_index":103,"plugin_version":"2.1.0","time_elapsed":244239,"subject_id":"91551","group":"Group2","condition":"3_Rep","full_date":"2026-02-10T22:22:52.776Z","date":"2026-02-10","time":"22:22:52"},{"rt":null,"stimulus":"<p style=\"font-size: 50px; margin: 0; text-align: center;\">+</p>","response":null,"trial_type":"html-keyboard-response","trial_index":104,"plugin_version":"2.1.0","time_elapsed":245242,"subject_id":"91551","group":"Group2","condition":"3_Rep","full_date":"2026-02-10T22:22:52.776Z","date":"2026-02-10","time":"22:22:52"},{"task":"memory_phase","broad_category":"I","image_png":"I_Andesite_09.png","image_id":9,"category_name":"Andesite","category":1,"distinct_rating":2.49,"distinct_type":"Bottom","rt":null,"stimulus":"Stimuli_Rocks480/I_Andesite_09.png","response":null,"trial_type":"image-keyboard-response","trial_index":105,"plugin_version":"2.1.0","time_elapsed":247750,"subject_id":"91551","group":"Group2","condition":"3_Rep","full_date":"2026-02-10T22:22:52.776Z","date":"2026-02-10","time":"22:22:52"},{"rt":11710,"stimulus":"<p style=\"max-width: 760px; margin: auto; font-size: 35px; line-height: 1.5;\">\n                You have completed 1 study phase. \n                Now, we'll show you all the images again 2 more times.\n                <br><br>Press SPACE to continue\n              </p>","response":" ","trial_type":"html-keyboard-response","trial_index":106,"plugin_version":"2.1.0","time_elapsed":259461,"subject_id":"91551","group":"Group2","condition":"3_Rep","full_date":"2026-02-10T22:22:52.776Z","date":"2026-02-10","time":"22:22:52"},{"rt":null,"stimulus":"<p style=\"font-size: 50px; margin: 0; text-align: center;\">+</p>","response":null,"trial_type":"html-keyboard-response","trial_index":107,"plugin_version":"2.1.0","time_elapsed":260463,"subject_id":"91551","group":"Group2","condition":"3_Rep","full_date":"2026-02-10T22:22:52.776Z","date":"2026-02-10","time":"22:22:52"},{"task":"memory_phase","broad_category":"S","image_png":"S_Dolomite_07.png","image_id":391,"category_name":"Dolomite","category":25,"distinct_rating":1.73,"distinct_type":"Bottom","rt":null,"stimulus":"Stimuli_Rocks480/S_Dolomite_07.png","response":null,"trial_type":"image-keyboard-response","trial_index":108,"plugin_version":"2.1.0","time_elapsed":262971,"subject_id":"91551","group":"Group2","condition":"3_Rep","full_date":"2026-02-10T22:22:52.776Z","date":"2026-02-10","time":"22:22:52"},{"rt":null,"stimulus":"<p style=\"font-size: 50px; margin: 0; text-align: center;\">+</p>","response":null,"trial_type":"html-keyboard-response","trial_index":109,"plugin_version":"2.1.0","time_elapsed":263987,"subject_id":"91551","group":"Group2","condition":"3_Rep","full_date":"2026-02-10T22:22:52.776Z","date":"2026-02-10","time":"22:22:52"},{"task":"memory_phase","broad_category":"S","image_png":"S_Dolomite_01.png","image_id":385,"category_name":"Dolomite","category":25,"distinct_rating":1.43,"distinct_type":"Bottom","rt":null,"stimulus":"Stimuli_Rocks480/S_Dolomite_01.png","response":null,"trial_type":"image-keyboard-response","trial_index":110,"plugin_version":"2.1.0","time_elapsed":266503,"subject_id":"91551","group":"Group2","condition":"3_Rep","full_date":"2026-02-10T22:22:52.776Z","date":"2026-02-10","time":"22:22:52"},{"rt":null,"stimulus":"<p style=\"font-size: 50px; margin: 0; text-align: center;\">+</p>","response":null,"trial_type":"html-keyboard-response","trial_index":111,"plugin_version":"2.1.0","time_elapsed":267509,"subject_id":"91551","group":"Group2","condition":"3_Rep","full_date":"2026-02-10T22:22:52.776Z","date":"2026-02-10","time":"22:22:52"},{"task":"memory_phase","broad_category":"M","image_png":"M_Phyllite_13.png","image_id":269,"category_name":"Phyllite","category":17,"distinct_rating":2.8,"distinct_type":"Bottom","rt":null,"stimulus":"Stimuli_Rocks480/M_Phyllite_13.png","response":null,"trial_type":"image-keyboard-response","trial_index":112,"plugin_version":"2.1.0","time_elapsed":270018,"subject_id":"91551","group":"Group2","condition":"3_Rep","full_date":"2026-02-10T22:22:52.776Z","date":"2026-02-10","time":"22:22:52"},{"rt":null,"stimulus":"<p style=\"font-size: 50px; margin: 0; text-align: center;\">+</p>","response":null,"trial_type":"html-keyboard-response","trial_index":113,"plugin_version":"2.1.0","time_elapsed":271022,"subject_id":"91551","group":"Group2","condition":"3_Rep","full_date":"2026-02-10T22:22:52.776Z","date":"2026-02-10","time":"22:22:52"},{"task":"memory_phase","broad_category":"I","image_png":"I_Diorite_01.png","image_id":33,"category_name":"Diorite","category":3,"distinct_rating":2.97,"distinct_type":"Bottom","rt":null,"stimulus":"Stimuli_Rocks480/I_Diorite_01.png","response":null,"trial_type":"image-keyboard-response","trial_index":114,"plugin_version":"2.1.0","time_elapsed":273526,"subject_id":"91551","group":"Group2","condition":"3_Rep","full_date":"2026-02-10T22:22:52.776Z","date":"2026-02-10","time":"22:22:52"},{"rt":null,"stimulus":"<p style=\"font-size: 50px; margin: 0; text-align: center;\">+</p>","response":null,"trial_type":"html-keyboard-response","trial_index":115,"plugin_version":"2.1.0","time_elapsed":274529,"subject_id":"91551","group":"Group2","condition":"3_Rep","full_date":"2026-02-10T22:22:52.776Z","date":"2026-02-10","time":"22:22:52"},{"task":"memory_phase","broad_category":"M","image_png":"M_Gneiss_15.png","image_id":207,"category_name":"Gneiss","category":13,"distinct_rating":3.11,"distinct_type":"Bottom","rt":null,"stimulus":"Stimuli_Rocks480/M_Gneiss_15.png","response":null,"trial_type":"image-keyboard-response","trial_index":116,"plugin_version":"2.1.0","time_elapsed":277040,"subject_id":"91551","group":"Group2","condition":"3_Rep","full_date":"2026-02-10T22:22:52.776Z","date":"2026-02-10","time":"22:22:52"},{"rt":null,"stimulus":"<p style=\"font-size: 50px; margin: 0; text-align: center;\">+</p>","response":null,"trial_type":"html-keyboard-response","trial_index":117,"plugin_version":"2.1.0","time_elapsed":278045,"subject_id":"91551","group":"Group2","condition":"3_Rep","full_date":"2026-02-10T22:22:52.776Z","date":"2026-02-10","time":"22:22:52"},{"task":"memory_phase","broad_category":"I","image_png":"I_Pegmatite_03.png","image_id":99,"category_name":"Pegmatite","category":7,"distinct_rating":7.24,"distinct_type":"Top","rt":null,"stimulus":"Stimuli_Rocks480/I_Pegmatite_03.png","response":null,"trial_type":"image-keyboard-response","trial_index":118,"plugin_version":"2.1.0","time_elapsed":280562,"subject_id":"91551","group":"Group2","condition":"3_Rep","full_date":"2026-02-10T22:22:52.776Z","date":"2026-02-10","time":"22:22:52"},{"rt":null,"stimulus":"<p style=\"font-size: 50px; margin: 0; text-align: center;\">+</p>","response":null,"trial_type":"html-keyboard-response","trial_index":119,"plugin_version":"2.1.0","time_elapsed":281575,"subject_id":"91551","group":"Group2","condition":"3_Rep","full_date":"2026-02-10T22:22:52.776Z","date":"2026-02-10","time":"22:22:52"},{"task":"memory_phase","broad_category":"M","image_png":"M_Marble_14.png","image_id":238,"category_name":"Marble","category":15,"distinct_rating":3.31,"distinct_type":"Bottom","rt":null,"stimulus":"Stimuli_Rocks480/M_Marble_14.png","response":null,"trial_type":"image-keyboard-response","trial_index":120,"plugin_version":"2.1.0","time_elapsed":284079,"subject_id":"91551","group":"Group2","condition":"3_Rep","full_date":"2026-02-10T22:22:52.776Z","date":"2026-02-10","time":"22:22:52"},{"rt":null,"stimulus":"<p style=\"font-size: 50px; margin: 0; text-align: center;\">+</p>","response":null,"trial_type":"html-keyboard-response","trial_index":121,"plugin_version":"2.1.0","time_elapsed":285087,"subject_id":"91551","group":"Group2","condition":"3_Rep","full_date":"2026-02-10T22:22:52.776Z","date":"2026-02-10","time":"22:22:52"},{"task":"memory_phase","broad_category":"I","image_png":"I_Rhyolite_10.png","image_id":154,"category_name":"Rhyolite","category":10,"distinct_rating":2.88,"distinct_type":"Bottom","rt":null,"stimulus":"Stimuli_Rocks480/I_Rhyolite_10.png","response":null,"trial_type":"image-keyboard-response","trial_index":122,"plugin_version":"2.1.0","time_elapsed":287603,"subject_id":"91551","group":"Group2","condition":"3_Rep","full_date":"2026-02-10T22:22:52.776Z","date":"2026-02-10","time":"22:22:52"},{"rt":null,"stimulus":"<p style=\"font-size: 50px; margin: 0; text-align: center;\">+</p>","response":null,"trial_type":"html-keyboard-response","trial_index":123,"plugin_version":"2.1.0","time_elapsed":288619,"subject_id":"91551","group":"Group2","condition":"3_Rep","full_date":"2026-02-10T22:22:52.776Z","date":"2026-02-10","time":"22:22:52"},{"task":"memory_phase","broad_category":"I","image_png":"I_Andesite_09.png","image_id":9,"category_name":"Andesite","category":1,"distinct_rating":2.49,"distinct_type":"Bottom","rt":null,"stimulus":"Stimuli_Rocks480/I_Andesite_09.png","response":null,"trial_type":"image-keyboard-response","trial_index":124,"plugin_version":"2.1.0","time_elapsed":291137,"subject_id":"91551","group":"Group2","condition":"3_Rep","full_date":"2026-02-10T22:22:52.776Z","date":"2026-02-10","time":"22:22:52"},{"rt":null,"stimulus":"<p style=\"font-size: 50px; margin: 0; text-align: center;\">+</p>","response":null,"trial_type":"html-keyboard-response","trial_index":125,"plugin_version":"2.1.0","time_elapsed":292139,"subject_id":"91551","group":"Group2","condition":"3_Rep","full_date":"2026-02-10T22:22:52.776Z","date":"2026-02-10","time":"22:22:52"},{"task":"memory_phase","broad_category":"S","image_png":"S_Sandstone_08.png","image_id":456,"category_name":"Sandstone","category":29,"distinct_rating":1.5,"distinct_type":"Bottom","rt":null,"stimulus":"Stimuli_Rocks480/S_Sandstone_08.png","response":null,"trial_type":"image-keyboard-response","trial_index":126,"plugin_version":"2.1.0","time_elapsed":294641,"subject_id":"91551","group":"Group2","condition":"3_Rep","full_date":"2026-02-10T22:22:52.776Z","date":"2026-02-10","time":"22:22:52"},{"rt":null,"stimulus":"<p style=\"font-size: 50px; margin: 0; text-align: center;\">+</p>","response":null,"trial_type":"html-keyboard-response","trial_index":127,"plugin_version":"2.1.0","time_elapsed":295658,"subject_id":"91551","group":"Group2","condition":"3_Rep","full_date":"2026-02-10T22:22:52.776Z","date":"2026-02-10","time":"22:22:52"},{"task":"memory_phase","broad_category":"I","image_png":"I_Rhyolite_05.png","image_id":149,"category_name":"Rhyolite","category":10,"distinct_rating":3.02,"distinct_type":"Bottom","rt":null,"stimulus":"Stimuli_Rocks480/I_Rhyolite_05.png","response":null,"trial_type":"image-keyboard-response","trial_index":128,"plugin_version":"2.1.0","time_elapsed":298174,"subject_id":"91551","group":"Group2","condition":"3_Rep","full_date":"2026-02-10T22:22:52.776Z","date":"2026-02-10","time":"22:22:52"},{"rt":null,"stimulus":"<p style=\"font-size: 50px; margin: 0; text-align: center;\">+</p>","response":null,"trial_type":"html-keyboard-response","trial_index":129,"plugin_version":"2.1.0","time_elapsed":299192,"subject_id":"91551","group":"Group2","condition":"3_Rep","full_date":"2026-02-10T22:22:52.776Z","date":"2026-02-10","time":"22:22:52"},{"task":"memory_phase","broad_category":"M","image_png":"M_Phyllite_05.png","image_id":261,"category_name":"Phyllite","category":17,"distinct_rating":2.14,"distinct_type":"Bottom","rt":null,"stimulus":"Stimuli_Rocks480/M_Phyllite_05.png","response":null,"trial_type":"image-keyboard-response","trial_index":130,"plugin_version":"2.1.0","time_elapsed":301702,"subject_id":"91551","group":"Group2","condition":"3_Rep","full_date":"2026-02-10T22:22:52.776Z","date":"2026-02-10","time":"22:22:52"},{"rt":null,"stimulus":"<p style=\"font-size: 50px; margin: 0; text-align: center;\">+</p>","response":null,"trial_type":"html-keyboard-response","trial_index":131,"plugin_version":"2.1.0","time_elapsed":302705,"subject_id":"91551","group":"Group2","condition":"3_Rep","full_date":"2026-02-10T22:22:52.776Z","date":"2026-02-10","time":"22:22:52"},{"task":"memory_phase","broad_category":"I","image_png":"I_Gabbro_02.png","image_id":50,"category_name":"Gabbro","category":4,"distinct_rating":2.73,"distinct_type":"Bottom","rt":null,"stimulus":"Stimuli_Rocks480/I_Gabbro_02.png","response":null,"trial_type":"image-keyboard-response","trial_index":132,"plugin_version":"2.1.0","time_elapsed":305218,"subject_id":"91551","group":"Group2","condition":"3_Rep","full_date":"2026-02-10T22:22:52.776Z","date":"2026-02-10","time":"22:22:52"},{"rt":null,"stimulus":"<p style=\"font-size: 50px; margin: 0; text-align: center;\">+</p>","response":null,"trial_type":"html-keyboard-response","trial_index":133,"plugin_version":"2.1.0","time_elapsed":306235,"subject_id":"91551","group":"Group2","condition":"3_Rep","full_date":"2026-02-10T22:22:52.776Z","date":"2026-02-10","time":"22:22:52"},{"task":"memory_phase","broad_category":"S","image_png":"S_Shale_03.png","image_id":467,"category_name":"Shale","category":30,"distinct_rating":1.95,"distinct_type":"Bottom","rt":null,"stimulus":"Stimuli_Rocks480/S_Shale_03.png","response":null,"trial_type":"image-keyboard-response","trial_index":134,"plugin_version":"2.1.0","time_elapsed":308738,"subject_id":"91551","group":"Group2","condition":"3_Rep","full_date":"2026-02-10T22:22:52.776Z","date":"2026-02-10","time":"22:22:52"},{"rt":null,"stimulus":"<p style=\"font-size: 50px; margin: 0; text-align: center;\">+</p>","response":null,"trial_type":"html-keyboard-response","trial_index":135,"plugin_version":"2.1.0","time_elapsed":309743,"subject_id":"91551","group":"Group2","condition":"3_Rep","full_date":"2026-02-10T22:22:52.776Z","date":"2026-02-10","time":"22:22:52"},{"task":"memory_phase","broad_category":"I","image_png":"I_Andesite_04.png","image_id":4,"category_name":"Andesite","category":1,"distinct_rating":3.18,"distinct_type":"Bottom","rt":null,"stimulus":"Stimuli_Rocks480/I_Andesite_04.png","response":null,"trial_type":"image-keyboard-response","trial_index":136,"plugin_version":"2.1.0","time_elapsed":312255,"subject_id":"91551","group":"Group2","condition":"3_Rep","full_date":"2026-02-10T22:22:52.776Z","date":"2026-02-10","time":"22:22:52"},{"rt":null,"stimulus":"<p style=\"font-size: 50px; margin: 0; text-align: center;\">+</p>","response":null,"trial_type":"html-keyboard-response","trial_index":137,"plugin_version":"2.1.0","time_elapsed":313258,"subject_id":"91551","group":"Group2","condition":"3_Rep","full_date":"2026-02-10T22:22:52.776Z","date":"2026-02-10","time":"22:22:52"},{"task":"memory_phase","broad_category":"M","image_png":"M_Phyllite_02.png","image_id":258,"category_name":"Phyllite","category":17,"distinct_rating":2.89,"distinct_type":"Bottom","rt":null,"stimulus":"Stimuli_Rocks480/M_Phyllite_02.png","response":null,"trial_type":"image-keyboard-response","trial_index":138,"plugin_version":"2.1.0","time_elapsed":315768,"subject_id":"91551","group":"Group2","condition":"3_Rep","full_date":"2026-02-10T22:22:52.776Z","date":"2026-02-10","time":"22:22:52"},{"rt":null,"stimulus":"<p style=\"font-size: 50px; margin: 0; text-align: center;\">+</p>","response":null,"trial_type":"html-keyboard-response","trial_index":139,"plugin_version":"2.1.0","time_elapsed":316772,"subject_id":"91551","group":"Group2","condition":"3_Rep","full_date":"2026-02-10T22:22:52.776Z","date":"2026-02-10","time":"22:22:52"},{"task":"memory_phase","broad_category":"M","image_png":"M_Quartzite_15.png","image_id":287,"category_name":"Quartzite","category":18,"distinct_rating":2.19,"distinct_type":"Bottom","rt":null,"stimulus":"Stimuli_Rocks480/M_Quartzite_15.png","response":null,"trial_type":"image-keyboard-response","trial_index":140,"plugin_version":"2.1.0","time_elapsed":319285,"subject_id":"91551","group":"Group2","condition":"3_Rep","full_date":"2026-02-10T22:22:52.776Z","date":"2026-02-10","time":"22:22:52"},{"rt":null,"stimulus":"<p style=\"font-size: 50px; margin: 0; text-align: center;\">+</p>","response":null,"trial_type":"html-keyboard-response","trial_index":141,"plugin_version":"2.1.0","time_elapsed":320289,"subject_id":"91551","group":"Group2","condition":"3_Rep","full_date":"2026-02-10T22:22:52.776Z","date":"2026-02-10","time":"22:22:52"},{"task":"memory_phase","broad_category":"I","image_png":"I_Peridotite_13.png","image_id":125,"category_name":"Peridotite","category":8,"distinct_rating":7.28,"distinct_type":"Top","rt":null,"stimulus":"Stimuli_Rocks480/I_Peridotite_13.png","response":null,"trial_type":"image-keyboard-response","trial_index":142,"plugin_version":"2.1.0","time_elapsed":322803,"subject_id":"91551","group":"Group2","condition":"3_Rep","full_date":"2026-02-10T22:22:52.776Z","date":"2026-02-10","time":"22:22:52"},{"rt":null,"stimulus":"<p style=\"font-size: 50px; margin: 0; text-align: center;\">+</p>","response":null,"trial_type":"html-keyboard-response","trial_index":143,"plugin_version":"2.1.0","time_elapsed":323814,"subject_id":"91551","group":"Group2","condition":"3_Rep","full_date":"2026-02-10T22:22:52.776Z","date":"2026-02-10","time":"22:22:52"},{"task":"memory_phase","broad_category":"M","image_png":"M_Gneiss_10.png","image_id":202,"category_name":"Gneiss","category":13,"distinct_rating":3.09,"distinct_type":"Bottom","rt":null,"stimulus":"Stimuli_Rocks480/M_Gneiss_10.png","response":null,"trial_type":"image-keyboard-response","trial_index":144,"plugin_version":"2.1.0","time_elapsed":326321,"subject_id":"91551","group":"Group2","condition":"3_Rep","full_date":"2026-02-10T22:22:52.776Z","date":"2026-02-10","time":"22:22:52"},{"rt":null,"stimulus":"<p style=\"font-size: 50px; margin: 0; text-align: center;\">+</p>","response":null,"trial_type":"html-keyboard-response","trial_index":145,"plugin_version":"2.1.0","time_elapsed":327328,"subject_id":"91551","group":"Group2","condition":"3_Rep","full_date":"2026-02-10T22:22:52.776Z","date":"2026-02-10","time":"22:22:52"},{"task":"memory_phase","broad_category":"I","image_png":"I_Basalt_08.png","image_id":24,"category_name":"Basalt","category":2,"distinct_rating":2.31,"distinct_type":"Bottom","rt":null,"stimulus":"Stimuli_Rocks480/I_Basalt_08.png","response":null,"trial_type":"image-keyboard-response","trial_index":146,"plugin_version":"2.1.0","time_elapsed":329835,"subject_id":"91551","group":"Group2","condition":"3_Rep","full_date":"2026-02-10T22:22:52.776Z","date":"2026-02-10","time":"22:22:52"},{"rt":null,"stimulus":"<p style=\"font-size: 50px; margin: 0; text-align: center;\">+</p>","response":null,"trial_type":"html-keyboard-response","trial_index":147,"plugin_version":"2.1.0","time_elapsed":330845,"subject_id":"91551","group":"Group2","condition":"3_Rep","full_date":"2026-02-10T22:22:52.776Z","date":"2026-02-10","time":"22:22:52"},{"task":"memory_phase","broad_category":"M","image_png":"M_Quartzite_07.png","image_id":279,"category_name":"Quartzite","category":18,"distinct_rating":1.97,"distinct_type":"Bottom","rt":null,"stimulus":"Stimuli_Rocks480/M_Quartzite_07.png","response":null,"trial_type":"image-keyboard-response","trial_index":148,"plugin_version":"2.1.0","time_elapsed":333362,"subject_id":"91551","group":"Group2","condition":"3_Rep","full_date":"2026-02-10T22:22:52.776Z","date":"2026-02-10","time":"22:22:52"},{"rt":null,"stimulus":"<p style=\"font-size: 50px; margin: 0; text-align: center;\">+</p>","response":null,"trial_type":"html-keyboard-response","trial_index":149,"plugin_version":"2.1.0","time_elapsed":334365,"subject_id":"91551","group":"Group2","condition":"3_Rep","full_date":"2026-02-10T22:22:52.776Z","date":"2026-02-10","time":"22:22:52"},{"task":"memory_phase","broad_category":"M","image_png":"M_Marble_02.png","image_id":226,"category_name":"Marble","category":15,"distinct_rating":3.2,"distinct_type":"Bottom","rt":null,"stimulus":"Stimuli_Rocks480/M_Marble_02.png","response":null,"trial_type":"image-keyboard-response","trial_index":150,"plugin_version":"2.1.0","time_elapsed":336881,"subject_id":"91551","group":"Group2","condition":"3_Rep","full_date":"2026-02-10T22:22:52.776Z","date":"2026-02-10","time":"22:22:52"},{"rt":null,"stimulus":"<p style=\"font-size: 50px; margin: 0; text-align: center;\">+</p>","response":null,"trial_type":"html-keyboard-response","trial_index":151,"plugin_version":"2.1.0","time_elapsed":337893,"subject_id":"91551","group":"Group2","condition":"3_Rep","full_date":"2026-02-10T22:22:52.776Z","date":"2026-02-10","time":"22:22:52"},{"task":"memory_phase","broad_category":"M","image_png":"M_Marble_03.png","image_id":227,"category_name":"Marble","category":15,"distinct_rating":2.67,"distinct_type":"Bottom","rt":null,"stimulus":"Stimuli_Rocks480/M_Marble_03.png","response":null,"trial_type":"image-keyboard-response","trial_index":152,"plugin_version":"2.1.0","time_elapsed":340401,"subject_id":"91551","group":"Group2","condition":"3_Rep","full_date":"2026-02-10T22:22:52.776Z","date":"2026-02-10","time":"22:22:52"},{"rt":null,"stimulus":"<p style=\"font-size: 50px; margin: 0; text-align: center;\">+</p>","response":null,"trial_type":"html-keyboard-response","trial_index":153,"plugin_version":"2.1.0","time_elapsed":341410,"subject_id":"91551","group":"Group2","condition":"3_Rep","full_date":"2026-02-10T22:22:52.776Z","date":"2026-02-10","time":"22:22:52"},{"task":"memory_phase","broad_category":"S","image_png":"S_Rock Salt_13.png","image_id":445,"category_name":"Rock Salt","category":28,"distinct_rating":7.58,"distinct_type":"Top","rt":null,"stimulus":"Stimuli_Rocks480/S_Rock Salt_13.png","response":null,"trial_type":"image-keyboard-response","trial_index":154,"plugin_version":"2.1.0","time_elapsed":343922,"subject_id":"91551","group":"Group2","condition":"3_Rep","full_date":"2026-02-10T22:22:52.776Z","date":"2026-02-10","time":"22:22:52"},{"rt":null,"stimulus":"<p style=\"font-size: 50px; margin: 0; text-align: center;\">+</p>","response":null,"trial_type":"html-keyboard-response","trial_index":155,"plugin_version":"2.1.0","time_elapsed":344927,"subject_id":"91551","group":"Group2","condition":"3_Rep","full_date":"2026-02-10T22:22:52.776Z","date":"2026-02-10","time":"22:22:52"},{"task":"memory_phase","broad_category":"I","image_png":"I_Diorite_10.png","image_id":42,"category_name":"Diorite","category":3,"distinct_rating":2.84,"distinct_type":"Bottom","rt":null,"stimulus":"Stimuli_Rocks480/I_Diorite_10.png","response":null,"trial_type":"image-keyboard-response","trial_index":156,"plugin_version":"2.1.0","time_elapsed":347429,"subject_id":"91551","group":"Group2","condition":"3_Rep","full_date":"2026-02-10T22:22:52.776Z","date":"2026-02-10","time":"22:22:52"},{"rt":2366,"stimulus":"<p style=\"max-width: 760px; margin: auto; font-size: 35px; line-height: 1.5;\">\n                Press SPACE to continue study phase\n              </p>","response":" ","trial_type":"html-keyboard-response","trial_index":157,"plugin_version":"2.1.0","time_elapsed":349797,"subject_id":"91551","group":"Group2","condition":"3_Rep","full_date":"2026-02-10T22:22:52.776Z","date":"2026-02-10","time":"22:22:52"},{"rt":null,"stimulus":"<p style=\"font-size: 50px; margin: 0; text-align: center;\">+</p>","response":null,"trial_type":"html-keyboard-response","trial_index":158,"plugin_version":"2.1.0","time_elapsed":350810,"subject_id":"91551","group":"Group2","condition":"3_Rep","full_date":"2026-02-10T22:22:52.776Z","date":"2026-02-10","time":"22:22:52"},{"task":"memory_phase","broad_category":"I","image_png":"I_Obsidian_06.png","image_id":86,"category_name":"Obsidian","category":6,"distinct_rating":8.01,"distinct_type":"Top","rt":null,"stimulus":"Stimuli_Rocks480/I_Obsidian_06.png","response":null,"trial_type":"image-keyboard-response","trial_index":159,"plugin_version":"2.1.0","time_elapsed":353316,"subject_id":"91551","group":"Group2","condition":"3_Rep","full_date":"2026-02-10T22:22:52.776Z","date":"2026-02-10","time":"22:22:52"},{"rt":null,"stimulus":"<p style=\"font-size: 50px; margin: 0; text-align: center;\">+</p>","response":null,"trial_type":"html-keyboard-response","trial_index":160,"plugin_version":"2.1.0","time_elapsed":354333,"subject_id":"91551","group":"Group2","condition":"3_Rep","full_date":"2026-02-10T22:22:52.776Z","date":"2026-02-10","time":"22:22:52"},{"task":"memory_phase","broad_category":"I","image_png":"I_Basalt_10.png","image_id":26,"category_name":"Basalt","category":2,"distinct_rating":2.76,"distinct_type":"Bottom","rt":null,"stimulus":"Stimuli_Rocks480/I_Basalt_10.png","response":null,"trial_type":"image-keyboard-response","trial_index":161,"plugin_version":"2.1.0","time_elapsed":356850,"subject_id":"91551","group":"Group2","condition":"3_Rep","full_date":"2026-02-10T22:22:52.776Z","date":"2026-02-10","time":"22:22:52"},{"rt":null,"stimulus":"<p style=\"font-size: 50px; margin: 0; text-align: center;\">+</p>","response":null,"trial_type":"html-keyboard-response","trial_index":162,"plugin_version":"2.1.0","time_elapsed":357858,"subject_id":"91551","group":"Group2","condition":"3_Rep","full_date":"2026-02-10T22:22:52.776Z","date":"2026-02-10","time":"22:22:52"},{"task":"memory_phase","broad_category":"I","image_png":"I_Andesite_03.png","image_id":3,"category_name":"Andesite","category":1,"distinct_rating":3.17,"distinct_type":"Bottom","rt":null,"stimulus":"Stimuli_Rocks480/I_Andesite_03.png","response":null,"trial_type":"image-keyboard-response","trial_index":163,"plugin_version":"2.1.0","time_elapsed":360363,"subject_id":"91551","group":"Group2","condition":"3_Rep","full_date":"2026-02-10T22:22:52.776Z","date":"2026-02-10","time":"22:22:52"},{"rt":null,"stimulus":"<p style=\"font-size: 50px; margin: 0; text-align: center;\">+</p>","response":null,"trial_type":"html-keyboard-response","trial_index":164,"plugin_version":"2.1.0","time_elapsed":361365,"subject_id":"91551","group":"Group2","condition":"3_Rep","full_date":"2026-02-10T22:22:52.776Z","date":"2026-02-10","time":"22:22:52"},{"task":"memory_phase","broad_category":"S","image_png":"S_Shale_02.png","image_id":466,"category_name":"Shale","category":30,"distinct_rating":2.9,"distinct_type":"Bottom","rt":null,"stimulus":"Stimuli_Rocks480/S_Shale_02.png","response":null,"trial_type":"image-keyboard-response","trial_index":165,"plugin_version":"2.1.0","time_elapsed":363880,"subject_id":"91551","group":"Group2","condition":"3_Rep","full_date":"2026-02-10T22:22:52.776Z","date":"2026-02-10","time":"22:22:52"},{"rt":null,"stimulus":"<p style=\"font-size: 50px; margin: 0; text-align: center;\">+</p>","response":null,"trial_type":"html-keyboard-response","trial_index":166,"plugin_version":"2.1.0","time_elapsed":364883,"subject_id":"91551","group":"Group2","condition":"3_Rep","full_date":"2026-02-10T22:22:52.776Z","date":"2026-02-10","time":"22:22:52"},{"task":"memory_phase","broad_category":"S","image_png":"S_Rock Salt_15.png","image_id":447,"category_name":"Rock Salt","category":28,"distinct_rating":7.79,"distinct_type":"Top","rt":null,"stimulus":"Stimuli_Rocks480/S_Rock Salt_15.png","response":null,"trial_type":"image-keyboard-response","trial_index":167,"plugin_version":"2.1.0","time_elapsed":367396,"subject_id":"91551","group":"Group2","condition":"3_Rep","full_date":"2026-02-10T22:22:52.776Z","date":"2026-02-10","time":"22:22:52"},{"rt":null,"stimulus":"<p style=\"font-size: 50px; margin: 0; text-align: center;\">+</p>","response":null,"trial_type":"html-keyboard-response","trial_index":168,"plugin_version":"2.1.0","time_elapsed":368399,"subject_id":"91551","group":"Group2","condition":"3_Rep","full_date":"2026-02-10T22:22:52.776Z","date":"2026-02-10","time":"22:22:52"},{"task":"memory_phase","broad_category":"I","image_png":"I_Basalt_13.png","image_id":29,"category_name":"Basalt","category":2,"distinct_rating":2.68,"distinct_type":"Bottom","rt":null,"stimulus":"Stimuli_Rocks480/I_Basalt_13.png","response":null,"trial_type":"image-keyboard-response","trial_index":169,"plugin_version":"2.1.0","time_elapsed":370915,"subject_id":"91551","group":"Group2","condition":"3_Rep","full_date":"2026-02-10T22:22:52.776Z","date":"2026-02-10","time":"22:22:52"},{"rt":null,"stimulus":"<p style=\"font-size: 50px; margin: 0; text-align: center;\">+</p>","response":null,"trial_type":"html-keyboard-response","trial_index":170,"plugin_version":"2.1.0","time_elapsed":371928,"subject_id":"91551","group":"Group2","condition":"3_Rep","full_date":"2026-02-10T22:22:52.776Z","date":"2026-02-10","time":"22:22:52"},{"task":"memory_phase","broad_category":"S","image_png":"S_Shale_07.png","image_id":471,"category_name":"Shale","category":30,"distinct_rating":2.73,"distinct_type":"Bottom","rt":null,"stimulus":"Stimuli_Rocks480/S_Shale_07.png","response":null,"trial_type":"image-keyboard-response","trial_index":171,"plugin_version":"2.1.0","time_elapsed":374432,"subject_id":"91551","group":"Group2","condition":"3_Rep","full_date":"2026-02-10T22:22:52.776Z","date":"2026-02-10","time":"22:22:52"},{"rt":null,"stimulus":"<p style=\"font-size: 50px; margin: 0; text-align: center;\">+</p>","response":null,"trial_type":"html-keyboard-response","trial_index":172,"plugin_version":"2.1.0","time_elapsed":375445,"subject_id":"91551","group":"Group2","condition":"3_Rep","full_date":"2026-02-10T22:22:52.776Z","date":"2026-02-10","time":"22:22:52"},{"task":"memory_phase","broad_category":"M","image_png":"M_Gneiss_14.png","image_id":206,"category_name":"Gneiss","category":13,"distinct_rating":3.41,"distinct_type":"Bottom","rt":null,"stimulus":"Stimuli_Rocks480/M_Gneiss_14.png","response":null,"trial_type":"image-keyboard-response","trial_index":173,"plugin_version":"2.1.0","time_elapsed":377961,"subject_id":"91551","group":"Group2","condition":"3_Rep","full_date":"2026-02-10T22:22:52.776Z","date":"2026-02-10","time":"22:22:52"},{"rt":null,"stimulus":"<p style=\"font-size: 50px; margin: 0; text-align: center;\">+</p>","response":null,"trial_type":"html-keyboard-response","trial_index":174,"plugin_version":"2.1.0","time_elapsed":378971,"subject_id":"91551","group":"Group2","condition":"3_Rep","full_date":"2026-02-10T22:22:52.776Z","date":"2026-02-10","time":"22:22:52"},{"task":"memory_phase","broad_category":"I","image_png":"I_Diorite_15.png","image_id":47,"category_name":"Diorite","category":3,"distinct_rating":3.05,"distinct_type":"Bottom","rt":null,"stimulus":"Stimuli_Rocks480/I_Diorite_15.png","response":null,"trial_type":"image-keyboard-response","trial_index":175,"plugin_version":"2.1.0","time_elapsed":381477,"subject_id":"91551","group":"Group2","condition":"3_Rep","full_date":"2026-02-10T22:22:52.776Z","date":"2026-02-10","time":"22:22:52"},{"rt":null,"stimulus":"<p style=\"font-size: 50px; margin: 0; text-align: center;\">+</p>","response":null,"trial_type":"html-keyboard-response","trial_index":176,"plugin_version":"2.1.0","time_elapsed":382491,"subject_id":"91551","group":"Group2","condition":"3_Rep","full_date":"2026-02-10T22:22:52.776Z","date":"2026-02-10","time":"22:22:52"},{"task":"memory_phase","broad_category":"I","image_png":"I_Pumice_14.png","image_id":142,"category_name":"Pumice","category":9,"distinct_rating":3.22,"distinct_type":"Bottom","rt":null,"stimulus":"Stimuli_Rocks480/I_Pumice_14.png","response":null,"trial_type":"image-keyboard-response","trial_index":177,"plugin_version":"2.1.0","time_elapsed":385005,"subject_id":"91551","group":"Group2","condition":"3_Rep","full_date":"2026-02-10T22:22:52.776Z","date":"2026-02-10","time":"22:22:52"},{"rt":null,"stimulus":"<p style=\"font-size: 50px; margin: 0; text-align: center;\">+</p>","response":null,"trial_type":"html-keyboard-response","trial_index":178,"plugin_version":"2.1.0","time_elapsed":386014,"subject_id":"91551","group":"Group2","condition":"3_Rep","full_date":"2026-02-10T22:22:52.776Z","date":"2026-02-10","time":"22:22:52"},{"task":"memory_phase","broad_category":"M","image_png":"M_Slate_14.png","image_id":318,"category_name":"Slate","category":20,"distinct_rating":2.58,"distinct_type":"Bottom","rt":null,"stimulus":"Stimuli_Rocks480/M_Slate_14.png","response":null,"trial_type":"image-keyboard-response","trial_index":179,"plugin_version":"2.1.0","time_elapsed":388517,"subject_id":"91551","group":"Group2","condition":"3_Rep","full_date":"2026-02-10T22:22:52.776Z","date":"2026-02-10","time":"22:22:52"},{"rt":null,"stimulus":"<p style=\"font-size: 50px; margin: 0; text-align: center;\">+</p>","response":null,"trial_type":"html-keyboard-response","trial_index":180,"plugin_version":"2.1.0","time_elapsed":389531,"subject_id":"91551","group":"Group2","condition":"3_Rep","full_date":"2026-02-10T22:22:52.776Z","date":"2026-02-10","time":"22:22:52"},{"task":"memory_phase","broad_category":"I","image_png":"I_Pumice_13.png","image_id":141,"category_name":"Pumice","category":9,"distinct_rating":3.12,"distinct_type":"Bottom","rt":null,"stimulus":"Stimuli_Rocks480/I_Pumice_13.png","response":null,"trial_type":"image-keyboard-response","trial_index":181,"plugin_version":"2.1.0","time_elapsed":392046,"subject_id":"91551","group":"Group2","condition":"3_Rep","full_date":"2026-02-10T22:22:52.776Z","date":"2026-02-10","time":"22:22:52"},{"rt":null,"stimulus":"<p style=\"font-size: 50px; margin: 0; text-align: center;\">+</p>","response":null,"trial_type":"html-keyboard-response","trial_index":182,"plugin_version":"2.1.0","time_elapsed":393063,"subject_id":"91551","group":"Group2","condition":"3_Rep","full_date":"2026-02-10T22:22:52.776Z","date":"2026-02-10","time":"22:22:52"},{"task":"memory_phase","broad_category":"S","image_png":"S_Dolomite_16.png","image_id":400,"category_name":"Dolomite","category":25,"distinct_rating":1.71,"distinct_type":"Bottom","rt":null,"stimulus":"Stimuli_Rocks480/S_Dolomite_16.png","response":null,"trial_type":"image-keyboard-response","trial_index":183,"plugin_version":"2.1.0","time_elapsed":395573,"subject_id":"91551","group":"Group2","condition":"3_Rep","full_date":"2026-02-10T22:22:52.776Z","date":"2026-02-10","time":"22:22:52"},{"rt":null,"stimulus":"<p style=\"font-size: 50px; margin: 0; text-align: center;\">+</p>","response":null,"trial_type":"html-keyboard-response","trial_index":184,"plugin_version":"2.1.0","time_elapsed":396576,"subject_id":"91551","group":"Group2","condition":"3_Rep","full_date":"2026-02-10T22:22:52.776Z","date":"2026-02-10","time":"22:22:52"},{"task":"memory_phase","broad_category":"M","image_png":"M_Quartzite_12.png","image_id":284,"category_name":"Quartzite","category":18,"distinct_rating":1.92,"distinct_type":"Bottom","rt":null,"stimulus":"Stimuli_Rocks480/M_Quartzite_12.png","response":null,"trial_type":"image-keyboard-response","trial_index":185,"plugin_version":"2.1.0","time_elapsed":399090,"subject_id":"91551","group":"Group2","condition":"3_Rep","full_date":"2026-02-10T22:22:52.776Z","date":"2026-02-10","time":"22:22:52"},{"rt":null,"stimulus":"<p style=\"font-size: 50px; margin: 0; text-align: center;\">+</p>","response":null,"trial_type":"html-keyboard-response","trial_index":186,"plugin_version":"2.1.0","time_elapsed":400095,"subject_id":"91551","group":"Group2","condition":"3_Rep","full_date":"2026-02-10T22:22:52.776Z","date":"2026-02-10","time":"22:22:52"},{"task":"memory_phase","broad_category":"I","image_png":"I_Gabbro_12.png","image_id":60,"category_name":"Gabbro","category":4,"distinct_rating":2.6,"distinct_type":"Bottom","rt":null,"stimulus":"Stimuli_Rocks480/I_Gabbro_12.png","response":null,"trial_type":"image-keyboard-response","trial_index":187,"plugin_version":"2.1.0","time_elapsed":402612,"subject_id":"91551","group":"Group2","condition":"3_Rep","full_date":"2026-02-10T22:22:52.776Z","date":"2026-02-10","time":"22:22:52"},{"rt":null,"stimulus":"<p style=\"font-size: 50px; margin: 0; text-align: center;\">+</p>","response":null,"trial_type":"html-keyboard-response","trial_index":188,"plugin_version":"2.1.0","time_elapsed":403619,"subject_id":"91551","group":"Group2","condition":"3_Rep","full_date":"2026-02-10T22:22:52.776Z","date":"2026-02-10","time":"22:22:52"},{"task":"memory_phase","broad_category":"I","image_png":"I_Gabbro_14.png","image_id":62,"category_name":"Gabbro","category":4,"distinct_rating":2.95,"distinct_type":"Bottom","rt":null,"stimulus":"Stimuli_Rocks480/I_Gabbro_14.png","response":null,"trial_type":"image-keyboard-response","trial_index":189,"plugin_version":"2.1.0","time_elapsed":406123,"subject_id":"91551","group":"Group2","condition":"3_Rep","full_date":"2026-02-10T22:22:52.776Z","date":"2026-02-10","time":"22:22:52"},{"rt":null,"stimulus":"<p style=\"font-size: 50px; margin: 0; text-align: center;\">+</p>","response":null,"trial_type":"html-keyboard-response","trial_index":190,"plugin_version":"2.1.0","time_elapsed":407126,"subject_id":"91551","group":"Group2","condition":"3_Rep","full_date":"2026-02-10T22:22:52.776Z","date":"2026-02-10","time":"22:22:52"},{"task":"memory_phase","broad_category":"S","image_png":"S_Chert_13.png","image_id":365,"category_name":"Chert","category":23,"distinct_rating":6.57,"distinct_type":"Top","rt":null,"stimulus":"Stimuli_Rocks480/S_Chert_13.png","response":null,"trial_type":"image-keyboard-response","trial_index":191,"plugin_version":"2.1.0","time_elapsed":409633,"subject_id":"91551","group":"Group2","condition":"3_Rep","full_date":"2026-02-10T22:22:52.776Z","date":"2026-02-10","time":"22:22:52"},{"rt":null,"stimulus":"<p style=\"font-size: 50px; margin: 0; text-align: center;\">+</p>","response":null,"trial_type":"html-keyboard-response","trial_index":192,"plugin_version":"2.1.0","time_elapsed":410640,"subject_id":"91551","group":"Group2","condition":"3_Rep","full_date":"2026-02-10T22:22:52.776Z","date":"2026-02-10","time":"22:22:52"},{"task":"memory_phase","broad_category":"S","image_png":"S_Sandstone_04.png","image_id":452,"category_name":"Sandstone","category":29,"distinct_rating":1.8,"distinct_type":"Bottom","rt":null,"stimulus":"Stimuli_Rocks480/S_Sandstone_04.png","response":null,"trial_type":"image-keyboard-response","trial_index":193,"plugin_version":"2.1.0","time_elapsed":413152,"subject_id":"91551","group":"Group2","condition":"3_Rep","full_date":"2026-02-10T22:22:52.776Z","date":"2026-02-10","time":"22:22:52"},{"rt":null,"stimulus":"<p style=\"font-size: 50px; margin: 0; text-align: center;\">+</p>","response":null,"trial_type":"html-keyboard-response","trial_index":194,"plugin_version":"2.1.0","time_elapsed":414166,"subject_id":"91551","group":"Group2","condition":"3_Rep","full_date":"2026-02-10T22:22:52.776Z","date":"2026-02-10","time":"22:22:52"},{"task":"memory_phase","broad_category":"S","image_png":"S_Sandstone_11.png","image_id":459,"category_name":"Sandstone","category":29,"distinct_rating":1.82,"distinct_type":"Bottom","rt":null,"stimulus":"Stimuli_Rocks480/S_Sandstone_11.png","response":null,"trial_type":"image-keyboard-response","trial_index":195,"plugin_version":"2.1.0","time_elapsed":416677,"subject_id":"91551","group":"Group2","condition":"3_Rep","full_date":"2026-02-10T22:22:52.776Z","date":"2026-02-10","time":"22:22:52"},{"rt":null,"stimulus":"<p style=\"font-size: 50px; margin: 0; text-align: center;\">+</p>","response":null,"trial_type":"html-keyboard-response","trial_index":196,"plugin_version":"2.1.0","time_elapsed":417693,"subject_id":"91551","group":"Group2","condition":"3_Rep","full_date":"2026-02-10T22:22:52.776Z","date":"2026-02-10","time":"22:22:52"},{"task":"memory_phase","broad_category":"M","image_png":"M_Slate_10.png","image_id":314,"category_name":"Slate","category":20,"distinct_rating":1.94,"distinct_type":"Bottom","rt":null,"stimulus":"Stimuli_Rocks480/M_Slate_10.png","response":null,"trial_type":"image-keyboard-response","trial_index":197,"plugin_version":"2.1.0","time_elapsed":420200,"subject_id":"91551","group":"Group2","condition":"3_Rep","full_date":"2026-02-10T22:22:52.776Z","date":"2026-02-10","time":"22:22:52"},{"rt":null,"stimulus":"<p style=\"font-size: 50px; margin: 0; text-align: center;\">+</p>","response":null,"trial_type":"html-keyboard-response","trial_index":198,"plugin_version":"2.1.0","time_elapsed":421215,"subject_id":"91551","group":"Group2","condition":"3_Rep","full_date":"2026-02-10T22:22:52.776Z","date":"2026-02-10","time":"22:22:52"},{"task":"memory_phase","broad_category":"I","image_png":"I_Rhyolite_08.png","image_id":152,"category_name":"Rhyolite","category":10,"distinct_rating":1.38,"distinct_type":"Bottom","rt":null,"stimulus":"Stimuli_Rocks480/I_Rhyolite_08.png","response":null,"trial_type":"image-keyboard-response","trial_index":199,"plugin_version":"2.1.0","time_elapsed":423725,"subject_id":"91551","group":"Group2","condition":"3_Rep","full_date":"2026-02-10T22:22:52.776Z","date":"2026-02-10","time":"22:22:52"},{"rt":null,"stimulus":"<p style=\"font-size: 50px; margin: 0; text-align: center;\">+</p>","response":null,"trial_type":"html-keyboard-response","trial_index":200,"plugin_version":"2.1.0","time_elapsed":424735,"subject_id":"91551","group":"Group2","condition":"3_Rep","full_date":"2026-02-10T22:22:52.776Z","date":"2026-02-10","time":"22:22:52"},{"task":"memory_phase","broad_category":"S","image_png":"S_Conglomerate_14.png","image_id":382,"category_name":"Conglomerate","category":24,"distinct_rating":6.86,"distinct_type":"Top","rt":null,"stimulus":"Stimuli_Rocks480/S_Conglomerate_14.png","response":null,"trial_type":"image-keyboard-response","trial_index":201,"plugin_version":"2.1.0","time_elapsed":427252,"subject_id":"91551","group":"Group2","condition":"3_Rep","full_date":"2026-02-10T22:22:52.776Z","date":"2026-02-10","time":"22:22:52"},{"rt":null,"stimulus":"<p style=\"font-size: 50px; margin: 0; text-align: center;\">+</p>","response":null,"trial_type":"html-keyboard-response","trial_index":202,"plugin_version":"2.1.0","time_elapsed":428255,"subject_id":"91551","group":"Group2","condition":"3_Rep","full_date":"2026-02-10T22:22:52.776Z","date":"2026-02-10","time":"22:22:52"},{"task":"memory_phase","broad_category":"I","image_png":"I_Pegmatite_11.png","image_id":107,"category_name":"Pegmatite","category":7,"distinct_rating":7.11,"distinct_type":"Top","rt":null,"stimulus":"Stimuli_Rocks480/I_Pegmatite_11.png","response":null,"trial_type":"image-keyboard-response","trial_index":203,"plugin_version":"2.1.0","time_elapsed":430771,"subject_id":"91551","group":"Group2","condition":"3_Rep","full_date":"2026-02-10T22:22:52.776Z","date":"2026-02-10","time":"22:22:52"},{"rt":null,"stimulus":"<p style=\"font-size: 50px; margin: 0; text-align: center;\">+</p>","response":null,"trial_type":"html-keyboard-response","trial_index":204,"plugin_version":"2.1.0","time_elapsed":431773,"subject_id":"91551","group":"Group2","condition":"3_Rep","full_date":"2026-02-10T22:22:52.776Z","date":"2026-02-10","time":"22:22:52"},{"task":"memory_phase","broad_category":"M","image_png":"M_Slate_04.png","image_id":308,"category_name":"Slate","category":20,"distinct_rating":2.2,"distinct_type":"Bottom","rt":null,"stimulus":"Stimuli_Rocks480/M_Slate_04.png","response":null,"trial_type":"image-keyboard-response","trial_index":205,"plugin_version":"2.1.0","time_elapsed":434288,"subject_id":"91551","group":"Group2","condition":"3_Rep","full_date":"2026-02-10T22:22:52.776Z","date":"2026-02-10","time":"22:22:52"},{"rt":null,"stimulus":"<p style=\"font-size: 50px; margin: 0; text-align: center;\">+</p>","response":null,"trial_type":"html-keyboard-response","trial_index":206,"plugin_version":"2.1.0","time_elapsed":435291,"subject_id":"91551","group":"Group2","condition":"3_Rep","full_date":"2026-02-10T22:22:52.776Z","date":"2026-02-10","time":"22:22:52"},{"task":"memory_phase","broad_category":"I","image_png":"I_Pumice_01.png","image_id":129,"category_name":"Pumice","category":9,"distinct_rating":3.25,"distinct_type":"Bottom","rt":null,"stimulus":"Stimuli_Rocks480/I_Pumice_01.png","response":null,"trial_type":"image-keyboard-response","trial_index":207,"plugin_version":"2.1.0","time_elapsed":437797,"subject_id":"91551","group":"Group2","condition":"3_Rep","full_date":"2026-02-10T22:22:52.776Z","date":"2026-02-10","time":"22:22:52"},{"rt":7728,"stimulus":"<p style=\"max-width: 760px; margin: auto; font-size: 35px; line-height: 1.5;\">\n                You have completed 2 study phases. \n                Now, we'll show you all the images again 1 more time.\n                <br><br>Press SPACE to continue\n              </p>","response":" ","trial_type":"html-keyboard-response","trial_index":208,"plugin_version":"2.1.0","time_elapsed":445526,"subject_id":"91551","group":"Group2","condition":"3_Rep","full_date":"2026-02-10T22:22:52.776Z","date":"2026-02-10","time":"22:22:52"},{"rt":null,"stimulus":"<p style=\"font-size: 50px; margin: 0; text-align: center;\">+</p>","response":null,"trial_type":"html-keyboard-response","trial_index":209,"plugin_version":"2.1.0","time_elapsed":446529,"subject_id":"91551","group":"Group2","condition":"3_Rep","full_date":"2026-02-10T22:22:52.776Z","date":"2026-02-10","time":"22:22:52"},{"task":"memory_phase","broad_category":"S","image_png":"S_Dolomite_01.png","image_id":385,"category_name":"Dolomite","category":25,"distinct_rating":1.43,"distinct_type":"Bottom","rt":null,"stimulus":"Stimuli_Rocks480/S_Dolomite_01.png","response":null,"trial_type":"image-keyboard-response","trial_index":210,"plugin_version":"2.1.0","time_elapsed":449044,"subject_id":"91551","group":"Group2","condition":"3_Rep","full_date":"2026-02-10T22:22:52.776Z","date":"2026-02-10","time":"22:22:52"},{"rt":null,"stimulus":"<p style=\"font-size: 50px; margin: 0; text-align: center;\">+</p>","response":null,"trial_type":"html-keyboard-response","trial_index":211,"plugin_version":"2.1.0","time_elapsed":450061,"subject_id":"91551","group":"Group2","condition":"3_Rep","full_date":"2026-02-10T22:22:52.776Z","date":"2026-02-10","time":"22:22:52"},{"task":"memory_phase","broad_category":"M","image_png":"M_Marble_14.png","image_id":238,"category_name":"Marble","category":15,"distinct_rating":3.31,"distinct_type":"Bottom","rt":null,"stimulus":"Stimuli_Rocks480/M_Marble_14.png","response":null,"trial_type":"image-keyboard-response","trial_index":212,"plugin_version":"2.1.0","time_elapsed":452576,"subject_id":"91551","group":"Group2","condition":"3_Rep","full_date":"2026-02-10T22:22:52.776Z","date":"2026-02-10","time":"22:22:52"},{"rt":null,"stimulus":"<p style=\"font-size: 50px; margin: 0; text-align: center;\">+</p>","response":null,"trial_type":"html-keyboard-response","trial_index":213,"plugin_version":"2.1.0","time_elapsed":453578,"subject_id":"91551","group":"Group2","condition":"3_Rep","full_date":"2026-02-10T22:22:52.776Z","date":"2026-02-10","time":"22:22:52"},{"task":"memory_phase","broad_category":"I","image_png":"I_Pumice_13.png","image_id":141,"category_name":"Pumice","category":9,"distinct_rating":3.12,"distinct_type":"Bottom","rt":null,"stimulus":"Stimuli_Rocks480/I_Pumice_13.png","response":null,"trial_type":"image-keyboard-response","trial_index":214,"plugin_version":"2.1.0","time_elapsed":456096,"subject_id":"91551","group":"Group2","condition":"3_Rep","full_date":"2026-02-10T22:22:52.776Z","date":"2026-02-10","time":"22:22:52"},{"rt":null,"stimulus":"<p style=\"font-size: 50px; margin: 0; text-align: center;\">+</p>","response":null,"trial_type":"html-keyboard-response","trial_index":215,"plugin_version":"2.1.0","time_elapsed":457111,"subject_id":"91551","group":"Group2","condition":"3_Rep","full_date":"2026-02-10T22:22:52.776Z","date":"2026-02-10","time":"22:22:52"},{"task":"memory_phase","broad_category":"I","image_png":"I_Andesite_03.png","image_id":3,"category_name":"Andesite","category":1,"distinct_rating":3.17,"distinct_type":"Bottom","rt":null,"stimulus":"Stimuli_Rocks480/I_Andesite_03.png","response":null,"trial_type":"image-keyboard-response","trial_index":216,"plugin_version":"2.1.0","time_elapsed":459627,"subject_id":"91551","group":"Group2","condition":"3_Rep","full_date":"2026-02-10T22:22:52.776Z","date":"2026-02-10","time":"22:22:52"},{"rt":null,"stimulus":"<p style=\"font-size: 50px; margin: 0; text-align: center;\">+</p>","response":null,"trial_type":"html-keyboard-response","trial_index":217,"plugin_version":"2.1.0","time_elapsed":460629,"subject_id":"91551","group":"Group2","condition":"3_Rep","full_date":"2026-02-10T22:22:52.776Z","date":"2026-02-10","time":"22:22:52"},{"task":"memory_phase","broad_category":"M","image_png":"M_Gneiss_10.png","image_id":202,"category_name":"Gneiss","category":13,"distinct_rating":3.09,"distinct_type":"Bottom","rt":null,"stimulus":"Stimuli_Rocks480/M_Gneiss_10.png","response":null,"trial_type":"image-keyboard-response","trial_index":218,"plugin_version":"2.1.0","time_elapsed":463138,"subject_id":"91551","group":"Group2","condition":"3_Rep","full_date":"2026-02-10T22:22:52.776Z","date":"2026-02-10","time":"22:22:52"},{"rt":null,"stimulus":"<p style=\"font-size: 50px; margin: 0; text-align: center;\">+</p>","response":null,"trial_type":"html-keyboard-response","trial_index":219,"plugin_version":"2.1.0","time_elapsed":464155,"subject_id":"91551","group":"Group2","condition":"3_Rep","full_date":"2026-02-10T22:22:52.776Z","date":"2026-02-10","time":"22:22:52"},{"task":"memory_phase","broad_category":"I","image_png":"I_Rhyolite_10.png","image_id":154,"category_name":"Rhyolite","category":10,"distinct_rating":2.88,"distinct_type":"Bottom","rt":null,"stimulus":"Stimuli_Rocks480/I_Rhyolite_10.png","response":null,"trial_type":"image-keyboard-response","trial_index":220,"plugin_version":"2.1.0","time_elapsed":466657,"subject_id":"91551","group":"Group2","condition":"3_Rep","full_date":"2026-02-10T22:22:52.776Z","date":"2026-02-10","time":"22:22:52"},{"rt":null,"stimulus":"<p style=\"font-size: 50px; margin: 0; text-align: center;\">+</p>","response":null,"trial_type":"html-keyboard-response","trial_index":221,"plugin_version":"2.1.0","time_elapsed":467661,"subject_id":"91551","group":"Group2","condition":"3_Rep","full_date":"2026-02-10T22:22:52.776Z","date":"2026-02-10","time":"22:22:52"},{"task":"memory_phase","broad_category":"I","image_png":"I_Gabbro_02.png","image_id":50,"category_name":"Gabbro","category":4,"distinct_rating":2.73,"distinct_type":"Bottom","rt":null,"stimulus":"Stimuli_Rocks480/I_Gabbro_02.png","response":null,"trial_type":"image-keyboard-response","trial_index":222,"plugin_version":"2.1.0","time_elapsed":470165,"subject_id":"91551","group":"Group2","condition":"3_Rep","full_date":"2026-02-10T22:22:52.776Z","date":"2026-02-10","time":"22:22:52"},{"rt":null,"stimulus":"<p style=\"font-size: 50px; margin: 0; text-align: center;\">+</p>","response":null,"trial_type":"html-keyboard-response","trial_index":223,"plugin_version":"2.1.0","time_elapsed":471177,"subject_id":"91551","group":"Group2","condition":"3_Rep","full_date":"2026-02-10T22:22:52.776Z","date":"2026-02-10","time":"22:22:52"},{"task":"memory_phase","broad_category":"M","image_png":"M_Phyllite_05.png","image_id":261,"category_name":"Phyllite","category":17,"distinct_rating":2.14,"distinct_type":"Bottom","rt":null,"stimulus":"Stimuli_Rocks480/M_Phyllite_05.png","response":null,"trial_type":"image-keyboard-response","trial_index":224,"plugin_version":"2.1.0","time_elapsed":473688,"subject_id":"91551","group":"Group2","condition":"3_Rep","full_date":"2026-02-10T22:22:52.776Z","date":"2026-02-10","time":"22:22:52"},{"rt":null,"stimulus":"<p style=\"font-size: 50px; margin: 0; text-align: center;\">+</p>","response":null,"trial_type":"html-keyboard-response","trial_index":225,"plugin_version":"2.1.0","time_elapsed":474691,"subject_id":"91551","group":"Group2","condition":"3_Rep","full_date":"2026-02-10T22:22:52.776Z","date":"2026-02-10","time":"22:22:52"},{"task":"memory_phase","broad_category":"M","image_png":"M_Quartzite_07.png","image_id":279,"category_name":"Quartzite","category":18,"distinct_rating":1.97,"distinct_type":"Bottom","rt":null,"stimulus":"Stimuli_Rocks480/M_Quartzite_07.png","response":null,"trial_type":"image-keyboard-response","trial_index":226,"plugin_version":"2.1.0","time_elapsed":477203,"subject_id":"91551","group":"Group2","condition":"3_Rep","full_date":"2026-02-10T22:22:52.776Z","date":"2026-02-10","time":"22:22:52"},{"rt":null,"stimulus":"<p style=\"font-size: 50px; margin: 0; text-align: center;\">+</p>","response":null,"trial_type":"html-keyboard-response","trial_index":227,"plugin_version":"2.1.0","time_elapsed":478219,"subject_id":"91551","group":"Group2","condition":"3_Rep","full_date":"2026-02-10T22:22:52.776Z","date":"2026-02-10","time":"22:22:52"},{"task":"memory_phase","broad_category":"S","image_png":"S_Chert_13.png","image_id":365,"category_name":"Chert","category":23,"distinct_rating":6.57,"distinct_type":"Top","rt":null,"stimulus":"Stimuli_Rocks480/S_Chert_13.png","response":null,"trial_type":"image-keyboard-response","trial_index":228,"plugin_version":"2.1.0","time_elapsed":480735,"subject_id":"91551","group":"Group2","condition":"3_Rep","full_date":"2026-02-10T22:22:52.776Z","date":"2026-02-10","time":"22:22:52"},{"rt":null,"stimulus":"<p style=\"font-size: 50px; margin: 0; text-align: center;\">+</p>","response":null,"trial_type":"html-keyboard-response","trial_index":229,"plugin_version":"2.1.0","time_elapsed":481743,"subject_id":"91551","group":"Group2","condition":"3_Rep","full_date":"2026-02-10T22:22:52.776Z","date":"2026-02-10","time":"22:22:52"},{"task":"memory_phase","broad_category":"I","image_png":"I_Peridotite_13.png","image_id":125,"category_name":"Peridotite","category":8,"distinct_rating":7.28,"distinct_type":"Top","rt":null,"stimulus":"Stimuli_Rocks480/I_Peridotite_13.png","response":null,"trial_type":"image-keyboard-response","trial_index":230,"plugin_version":"2.1.0","time_elapsed":484256,"subject_id":"91551","group":"Group2","condition":"3_Rep","full_date":"2026-02-10T22:22:52.776Z","date":"2026-02-10","time":"22:22:52"},{"rt":null,"stimulus":"<p style=\"font-size: 50px; margin: 0; text-align: center;\">+</p>","response":null,"trial_type":"html-keyboard-response","trial_index":231,"plugin_version":"2.1.0","time_elapsed":485262,"subject_id":"91551","group":"Group2","condition":"3_Rep","full_date":"2026-02-10T22:22:52.776Z","date":"2026-02-10","time":"22:22:52"},{"task":"memory_phase","broad_category":"M","image_png":"M_Quartzite_12.png","image_id":284,"category_name":"Quartzite","category":18,"distinct_rating":1.92,"distinct_type":"Bottom","rt":null,"stimulus":"Stimuli_Rocks480/M_Quartzite_12.png","response":null,"trial_type":"image-keyboard-response","trial_index":232,"plugin_version":"2.1.0","time_elapsed":487764,"subject_id":"91551","group":"Group2","condition":"3_Rep","full_date":"2026-02-10T22:22:52.776Z","date":"2026-02-10","time":"22:22:52"},{"rt":null,"stimulus":"<p style=\"font-size: 50px; margin: 0; text-align: center;\">+</p>","response":null,"trial_type":"html-keyboard-response","trial_index":233,"plugin_version":"2.1.0","time_elapsed":488772,"subject_id":"91551","group":"Group2","condition":"3_Rep","full_date":"2026-02-10T22:22:52.776Z","date":"2026-02-10","time":"22:22:52"},{"task":"memory_phase","broad_category":"M","image_png":"M_Slate_14.png","image_id":318,"category_name":"Slate","category":20,"distinct_rating":2.58,"distinct_type":"Bottom","rt":null,"stimulus":"Stimuli_Rocks480/M_Slate_14.png","response":null,"trial_type":"image-keyboard-response","trial_index":234,"plugin_version":"2.1.0","time_elapsed":491278,"subject_id":"91551","group":"Group2","condition":"3_Rep","full_date":"2026-02-10T22:22:52.776Z","date":"2026-02-10","time":"22:22:52"},{"rt":null,"stimulus":"<p style=\"font-size: 50px; margin: 0; text-align: center;\">+</p>","response":null,"trial_type":"html-keyboard-response","trial_index":235,"plugin_version":"2.1.0","time_elapsed":492288,"subject_id":"91551","group":"Group2","condition":"3_Rep","full_date":"2026-02-10T22:22:52.776Z","date":"2026-02-10","time":"22:22:52"},{"task":"memory_phase","broad_category":"M","image_png":"M_Gneiss_14.png","image_id":206,"category_name":"Gneiss","category":13,"distinct_rating":3.41,"distinct_type":"Bottom","rt":null,"stimulus":"St