[{"width":1470,"height":801,"webaudio":true,"browser":"chrome","browser_version":"144.0.0","mobile":false,"os":"Mac OS","fullscreen":true,"vsync_rate":60.79,"webcam":true,"microphone":true,"trial_type":"browser-check","trial_index":0,"plugin_version":"2.1.0","time_elapsed":1001,"subject_id":"90788","group":"Group2","condition":"3_Rep","full_date":"2026-02-05T16:22:32.428Z","date":"2026-02-05","time":"16:22:32"},{"success":true,"timeout":false,"failed_images":[],"failed_audio":[],"failed_video":[],"trial_type":"preload","trial_index":1,"plugin_version":"2.1.0","time_elapsed":2493,"subject_id":"90788","group":"Group2","condition":"3_Rep","full_date":"2026-02-05T16:22:32.428Z","date":"2026-02-05","time":"16:22:32"},{"rt":4490241,"url":"SONA_consent_memorability.html","trial_type":"external-html","trial_index":2,"plugin_version":"2.1.0","time_elapsed":11377965,"subject_id":"90788","group":"Group2","condition":"3_Rep","full_date":"2026-02-05T16:22:32.428Z","date":"2026-02-05","time":"16:22:32"},{"success":true,"rt":3708,"trial_type":"fullscreen","trial_index":3,"plugin_version":"2.1.0","time_elapsed":11382679,"subject_id":"90788","group":"Group2","condition":"3_Rep","full_date":"2026-02-05T16:22:32.428Z","date":"2026-02-05","time":"16:22:32"},{"rt":4778,"stimulus":"<div style=\"max-width: 760px; margin: auto; font-size: 20px; line-height: 1.5;\">\n      <h1 style=\"text-align:center; font-size: 30px;\">Instructions</h1>\n      <p>\n        Welcome to the study on <b>visual memory</b>. This experiment consists of <b>two phases</b>: \n        a <b>study phase</b> and a <b>test phase</b>.\n      </p>\n      <p>\n        In the study phase, you will see a series of rock images along with their category labels.\n        The images will appear one at a time.\n        <b>Your task</b> is to learn the categories to which the rock images belong \n        and to remember each image as accurately as possible.\n      </p> \n      <p>\n        Note that we will repeat the study phase <b>3 times</b>, \n             so you will have multiple opportunities to see and remember each image.\n      </p>\n      <p>\n        After the study phase, <b>your memory will be tested</b>. \n        Additional instructions for the test phase will be provided at that time.\n      </p>\n      <p>\n        If your computer has multiple <b>language settings</b> (e.g., English and another language),\n        please make sure it is set to English before starting.\n      </p>\n      <p>\n        You can track your progress using the <b>completion bar</b> at the top of the screen. \n        Please note that the bar will refresh when the test phase begins \n        to give you an accurate sense of your progress in both phases.\n      </p> \n      <p>\n        Press the button below when you are ready to begin.\n      </p>\n    </div>","response":0,"trial_type":"html-button-response","trial_index":4,"plugin_version":"2.1.0","time_elapsed":11387461,"subject_id":"90788","group":"Group2","condition":"3_Rep","full_date":"2026-02-05T16:22:32.428Z","date":"2026-02-05","time":"16:22:32"},{"rt":null,"stimulus":"<p style=\"font-size: 50px; margin: 0; text-align: center;\">+</p>","response":null,"trial_type":"html-keyboard-response","trial_index":5,"plugin_version":"2.1.0","time_elapsed":11388465,"subject_id":"90788","group":"Group2","condition":"3_Rep","full_date":"2026-02-05T16:22:32.428Z","date":"2026-02-05","time":"16:22:32"},{"task":"memory_phase","broad_category":"I","image_png":"I_Gabbro_14.png","image_id":62,"category_name":"Gabbro","category":4,"distinct_rating":2.95,"distinct_type":"Bottom","rt":null,"stimulus":"Stimuli_Rocks480/I_Gabbro_14.png","response":null,"trial_type":"image-keyboard-response","trial_index":6,"plugin_version":"2.1.0","time_elapsed":11390969,"subject_id":"90788","group":"Group2","condition":"3_Rep","full_date":"2026-02-05T16:22:32.428Z","date":"2026-02-05","time":"16:22:32"},{"rt":null,"stimulus":"<p style=\"font-size: 50px; margin: 0; text-align: center;\">+</p>","response":null,"trial_type":"html-keyboard-response","trial_index":7,"plugin_version":"2.1.0","time_elapsed":11391972,"subject_id":"90788","group":"Group2","condition":"3_Rep","full_date":"2026-02-05T16:22:32.428Z","date":"2026-02-05","time":"16:22:32"},{"task":"memory_phase","broad_category":"S","image_png":"S_Dolomite_16.png","image_id":400,"category_name":"Dolomite","category":25,"distinct_rating":1.71,"distinct_type":"Bottom","rt":null,"stimulus":"Stimuli_Rocks480/S_Dolomite_16.png","response":null,"trial_type":"image-keyboard-response","trial_index":8,"plugin_version":"2.1.0","time_elapsed":11394475,"subject_id":"90788","group":"Group2","condition":"3_Rep","full_date":"2026-02-05T16:22:32.428Z","date":"2026-02-05","time":"16:22:32"},{"rt":null,"stimulus":"<p style=\"font-size: 50px; margin: 0; text-align: center;\">+</p>","response":null,"trial_type":"html-keyboard-response","trial_index":9,"plugin_version":"2.1.0","time_elapsed":11395478,"subject_id":"90788","group":"Group2","condition":"3_Rep","full_date":"2026-02-05T16:22:32.428Z","date":"2026-02-05","time":"16:22:32"},{"task":"memory_phase","broad_category":"I","image_png":"I_Gabbro_12.png","image_id":60,"category_name":"Gabbro","category":4,"distinct_rating":2.6,"distinct_type":"Bottom","rt":null,"stimulus":"Stimuli_Rocks480/I_Gabbro_12.png","response":null,"trial_type":"image-keyboard-response","trial_index":10,"plugin_version":"2.1.0","time_elapsed":11397982,"subject_id":"90788","group":"Group2","condition":"3_Rep","full_date":"2026-02-05T16:22:32.428Z","date":"2026-02-05","time":"16:22:32"},{"rt":null,"stimulus":"<p style=\"font-size: 50px; margin: 0; text-align: center;\">+</p>","response":null,"trial_type":"html-keyboard-response","trial_index":11,"plugin_version":"2.1.0","time_elapsed":11398984,"subject_id":"90788","group":"Group2","condition":"3_Rep","full_date":"2026-02-05T16:22:32.428Z","date":"2026-02-05","time":"16:22:32"},{"task":"memory_phase","broad_category":"S","image_png":"S_Chert_13.png","image_id":365,"category_name":"Chert","category":23,"distinct_rating":6.57,"distinct_type":"Top","rt":null,"stimulus":"Stimuli_Rocks480/S_Chert_13.png","response":null,"trial_type":"image-keyboard-response","trial_index":12,"plugin_version":"2.1.0","time_elapsed":11401486,"subject_id":"90788","group":"Group2","condition":"3_Rep","full_date":"2026-02-05T16:22:32.428Z","date":"2026-02-05","time":"16:22:32"},{"rt":null,"stimulus":"<p style=\"font-size: 50px; margin: 0; text-align: center;\">+</p>","response":null,"trial_type":"html-keyboard-response","trial_index":13,"plugin_version":"2.1.0","time_elapsed":11402489,"subject_id":"90788","group":"Group2","condition":"3_Rep","full_date":"2026-02-05T16:22:32.428Z","date":"2026-02-05","time":"16:22:32"},{"task":"memory_phase","broad_category":"M","image_png":"M_Slate_04.png","image_id":308,"category_name":"Slate","category":20,"distinct_rating":2.2,"distinct_type":"Bottom","rt":null,"stimulus":"Stimuli_Rocks480/M_Slate_04.png","response":null,"trial_type":"image-keyboard-response","trial_index":14,"plugin_version":"2.1.0","time_elapsed":11404992,"subject_id":"90788","group":"Group2","condition":"3_Rep","full_date":"2026-02-05T16:22:32.428Z","date":"2026-02-05","time":"16:22:32"},{"rt":null,"stimulus":"<p style=\"font-size: 50px; margin: 0; text-align: center;\">+</p>","response":null,"trial_type":"html-keyboard-response","trial_index":15,"plugin_version":"2.1.0","time_elapsed":11405995,"subject_id":"90788","group":"Group2","condition":"3_Rep","full_date":"2026-02-05T16:22:32.428Z","date":"2026-02-05","time":"16:22:32"},{"task":"memory_phase","broad_category":"M","image_png":"M_Slate_10.png","image_id":314,"category_name":"Slate","category":20,"distinct_rating":1.94,"distinct_type":"Bottom","rt":null,"stimulus":"Stimuli_Rocks480/M_Slate_10.png","response":null,"trial_type":"image-keyboard-response","trial_index":16,"plugin_version":"2.1.0","time_elapsed":11408498,"subject_id":"90788","group":"Group2","condition":"3_Rep","full_date":"2026-02-05T16:22:32.428Z","date":"2026-02-05","time":"16:22:32"},{"rt":null,"stimulus":"<p style=\"font-size: 50px; margin: 0; text-align: center;\">+</p>","response":null,"trial_type":"html-keyboard-response","trial_index":17,"plugin_version":"2.1.0","time_elapsed":11409501,"subject_id":"90788","group":"Group2","condition":"3_Rep","full_date":"2026-02-05T16:22:32.428Z","date":"2026-02-05","time":"16:22:32"},{"task":"memory_phase","broad_category":"I","image_png":"I_Rhyolite_05.png","image_id":149,"category_name":"Rhyolite","category":10,"distinct_rating":3.02,"distinct_type":"Bottom","rt":null,"stimulus":"Stimuli_Rocks480/I_Rhyolite_05.png","response":null,"trial_type":"image-keyboard-response","trial_index":18,"plugin_version":"2.1.0","time_elapsed":11412004,"subject_id":"90788","group":"Group2","condition":"3_Rep","full_date":"2026-02-05T16:22:32.428Z","date":"2026-02-05","time":"16:22:32"},{"rt":null,"stimulus":"<p style=\"font-size: 50px; margin: 0; text-align: center;\">+</p>","response":null,"trial_type":"html-keyboard-response","trial_index":19,"plugin_version":"2.1.0","time_elapsed":11413007,"subject_id":"90788","group":"Group2","condition":"3_Rep","full_date":"2026-02-05T16:22:32.428Z","date":"2026-02-05","time":"16:22:32"},{"task":"memory_phase","broad_category":"M","image_png":"M_Quartzite_15.png","image_id":287,"category_name":"Quartzite","category":18,"distinct_rating":2.19,"distinct_type":"Bottom","rt":null,"stimulus":"Stimuli_Rocks480/M_Quartzite_15.png","response":null,"trial_type":"image-keyboard-response","trial_index":20,"plugin_version":"2.1.0","time_elapsed":11415510,"subject_id":"90788","group":"Group2","condition":"3_Rep","full_date":"2026-02-05T16:22:32.428Z","date":"2026-02-05","time":"16:22:32"},{"rt":null,"stimulus":"<p style=\"font-size: 50px; margin: 0; text-align: center;\">+</p>","response":null,"trial_type":"html-keyboard-response","trial_index":21,"plugin_version":"2.1.0","time_elapsed":11416512,"subject_id":"90788","group":"Group2","condition":"3_Rep","full_date":"2026-02-05T16:22:32.428Z","date":"2026-02-05","time":"16:22:32"},{"task":"memory_phase","broad_category":"S","image_png":"S_Conglomerate_14.png","image_id":382,"category_name":"Conglomerate","category":24,"distinct_rating":6.86,"distinct_type":"Top","rt":null,"stimulus":"Stimuli_Rocks480/S_Conglomerate_14.png","response":null,"trial_type":"image-keyboard-response","trial_index":22,"plugin_version":"2.1.0","time_elapsed":11419015,"subject_id":"90788","group":"Group2","condition":"3_Rep","full_date":"2026-02-05T16:22:32.428Z","date":"2026-02-05","time":"16:22:32"},{"rt":null,"stimulus":"<p style=\"font-size: 50px; margin: 0; text-align: center;\">+</p>","response":null,"trial_type":"html-keyboard-response","trial_index":23,"plugin_version":"2.1.0","time_elapsed":11420018,"subject_id":"90788","group":"Group2","condition":"3_Rep","full_date":"2026-02-05T16:22:32.428Z","date":"2026-02-05","time":"16:22:32"},{"task":"memory_phase","broad_category":"M","image_png":"M_Marble_14.png","image_id":238,"category_name":"Marble","category":15,"distinct_rating":3.31,"distinct_type":"Bottom","rt":null,"stimulus":"Stimuli_Rocks480/M_Marble_14.png","response":null,"trial_type":"image-keyboard-response","trial_index":24,"plugin_version":"2.1.0","time_elapsed":11422521,"subject_id":"90788","group":"Group2","condition":"3_Rep","full_date":"2026-02-05T16:22:32.428Z","date":"2026-02-05","time":"16:22:32"},{"rt":null,"stimulus":"<p style=\"font-size: 50px; margin: 0; text-align: center;\">+</p>","response":null,"trial_type":"html-keyboard-response","trial_index":25,"plugin_version":"2.1.0","time_elapsed":11423524,"subject_id":"90788","group":"Group2","condition":"3_Rep","full_date":"2026-02-05T16:22:32.428Z","date":"2026-02-05","time":"16:22:32"},{"task":"memory_phase","broad_category":"S","image_png":"S_Rock Salt_15.png","image_id":447,"category_name":"Rock Salt","category":28,"distinct_rating":7.79,"distinct_type":"Top","rt":null,"stimulus":"Stimuli_Rocks480/S_Rock Salt_15.png","response":null,"trial_type":"image-keyboard-response","trial_index":26,"plugin_version":"2.1.0","time_elapsed":11426027,"subject_id":"90788","group":"Group2","condition":"3_Rep","full_date":"2026-02-05T16:22:32.428Z","date":"2026-02-05","time":"16:22:32"},{"rt":null,"stimulus":"<p style=\"font-size: 50px; margin: 0; text-align: center;\">+</p>","response":null,"trial_type":"html-keyboard-response","trial_index":27,"plugin_version":"2.1.0","time_elapsed":11427029,"subject_id":"90788","group":"Group2","condition":"3_Rep","full_date":"2026-02-05T16:22:32.428Z","date":"2026-02-05","time":"16:22:32"},{"task":"memory_phase","broad_category":"M","image_png":"M_Quartzite_12.png","image_id":284,"category_name":"Quartzite","category":18,"distinct_rating":1.92,"distinct_type":"Bottom","rt":null,"stimulus":"Stimuli_Rocks480/M_Quartzite_12.png","response":null,"trial_type":"image-keyboard-response","trial_index":28,"plugin_version":"2.1.0","time_elapsed":11429532,"subject_id":"90788","group":"Group2","condition":"3_Rep","full_date":"2026-02-05T16:22:32.428Z","date":"2026-02-05","time":"16:22:32"},{"rt":null,"stimulus":"<p style=\"font-size: 50px; margin: 0; text-align: center;\">+</p>","response":null,"trial_type":"html-keyboard-response","trial_index":29,"plugin_version":"2.1.0","time_elapsed":11430535,"subject_id":"90788","group":"Group2","condition":"3_Rep","full_date":"2026-02-05T16:22:32.428Z","date":"2026-02-05","time":"16:22:32"},{"task":"memory_phase","broad_category":"S","image_png":"S_Sandstone_04.png","image_id":452,"category_name":"Sandstone","category":29,"distinct_rating":1.8,"distinct_type":"Bottom","rt":null,"stimulus":"Stimuli_Rocks480/S_Sandstone_04.png","response":null,"trial_type":"image-keyboard-response","trial_index":30,"plugin_version":"2.1.0","time_elapsed":11433038,"subject_id":"90788","group":"Group2","condition":"3_Rep","full_date":"2026-02-05T16:22:32.428Z","date":"2026-02-05","time":"16:22:32"},{"rt":null,"stimulus":"<p style=\"font-size: 50px; margin: 0; text-align: center;\">+</p>","response":null,"trial_type":"html-keyboard-response","trial_index":31,"plugin_version":"2.1.0","time_elapsed":11434040,"subject_id":"90788","group":"Group2","condition":"3_Rep","full_date":"2026-02-05T16:22:32.428Z","date":"2026-02-05","time":"16:22:32"},{"task":"memory_phase","broad_category":"I","image_png":"I_Diorite_15.png","image_id":47,"category_name":"Diorite","category":3,"distinct_rating":3.05,"distinct_type":"Bottom","rt":null,"stimulus":"Stimuli_Rocks480/I_Diorite_15.png","response":null,"trial_type":"image-keyboard-response","trial_index":32,"plugin_version":"2.1.0","time_elapsed":11436543,"subject_id":"90788","group":"Group2","condition":"3_Rep","full_date":"2026-02-05T16:22:32.428Z","date":"2026-02-05","time":"16:22:32"},{"rt":null,"stimulus":"<p style=\"font-size: 50px; margin: 0; text-align: center;\">+</p>","response":null,"trial_type":"html-keyboard-response","trial_index":33,"plugin_version":"2.1.0","time_elapsed":11437546,"subject_id":"90788","group":"Group2","condition":"3_Rep","full_date":"2026-02-05T16:22:32.428Z","date":"2026-02-05","time":"16:22:32"},{"task":"memory_phase","broad_category":"S","image_png":"S_Shale_03.png","image_id":467,"category_name":"Shale","category":30,"distinct_rating":1.95,"distinct_type":"Bottom","rt":null,"stimulus":"Stimuli_Rocks480/S_Shale_03.png","response":null,"trial_type":"image-keyboard-response","trial_index":34,"plugin_version":"2.1.0","time_elapsed":11440048,"subject_id":"90788","group":"Group2","condition":"3_Rep","full_date":"2026-02-05T16:22:32.428Z","date":"2026-02-05","time":"16:22:32"},{"rt":null,"stimulus":"<p style=\"font-size: 50px; margin: 0; text-align: center;\">+</p>","response":null,"trial_type":"html-keyboard-response","trial_index":35,"plugin_version":"2.1.0","time_elapsed":11441051,"subject_id":"90788","group":"Group2","condition":"3_Rep","full_date":"2026-02-05T16:22:32.428Z","date":"2026-02-05","time":"16:22:32"},{"task":"memory_phase","broad_category":"I","image_png":"I_Gabbro_02.png","image_id":50,"category_name":"Gabbro","category":4,"distinct_rating":2.73,"distinct_type":"Bottom","rt":null,"stimulus":"Stimuli_Rocks480/I_Gabbro_02.png","response":null,"trial_type":"image-keyboard-response","trial_index":36,"plugin_version":"2.1.0","time_elapsed":11443554,"subject_id":"90788","group":"Group2","condition":"3_Rep","full_date":"2026-02-05T16:22:32.428Z","date":"2026-02-05","time":"16:22:32"},{"rt":null,"stimulus":"<p style=\"font-size: 50px; margin: 0; text-align: center;\">+</p>","response":null,"trial_type":"html-keyboard-response","trial_index":37,"plugin_version":"2.1.0","time_elapsed":11444557,"subject_id":"90788","group":"Group2","condition":"3_Rep","full_date":"2026-02-05T16:22:32.428Z","date":"2026-02-05","time":"16:22:32"},{"task":"memory_phase","broad_category":"M","image_png":"M_Gneiss_10.png","image_id":202,"category_name":"Gneiss","category":13,"distinct_rating":3.09,"distinct_type":"Bottom","rt":null,"stimulus":"Stimuli_Rocks480/M_Gneiss_10.png","response":null,"trial_type":"image-keyboard-response","trial_index":38,"plugin_version":"2.1.0","time_elapsed":11447059,"subject_id":"90788","group":"Group2","condition":"3_Rep","full_date":"2026-02-05T16:22:32.428Z","date":"2026-02-05","time":"16:22:32"},{"rt":null,"stimulus":"<p style=\"font-size: 50px; margin: 0; text-align: center;\">+</p>","response":null,"trial_type":"html-keyboard-response","trial_index":39,"plugin_version":"2.1.0","time_elapsed":11448062,"subject_id":"90788","group":"Group2","condition":"3_Rep","full_date":"2026-02-05T16:22:32.428Z","date":"2026-02-05","time":"16:22:32"},{"task":"memory_phase","broad_category":"I","image_png":"I_Diorite_01.png","image_id":33,"category_name":"Diorite","category":3,"distinct_rating":2.97,"distinct_type":"Bottom","rt":null,"stimulus":"Stimuli_Rocks480/I_Diorite_01.png","response":null,"trial_type":"image-keyboard-response","trial_index":40,"plugin_version":"2.1.0","time_elapsed":11450565,"subject_id":"90788","group":"Group2","condition":"3_Rep","full_date":"2026-02-05T16:22:32.428Z","date":"2026-02-05","time":"16:22:32"},{"rt":null,"stimulus":"<p style=\"font-size: 50px; margin: 0; text-align: center;\">+</p>","response":null,"trial_type":"html-keyboard-response","trial_index":41,"plugin_version":"2.1.0","time_elapsed":11451567,"subject_id":"90788","group":"Group2","condition":"3_Rep","full_date":"2026-02-05T16:22:32.428Z","date":"2026-02-05","time":"16:22:32"},{"task":"memory_phase","broad_category":"I","image_png":"I_Peridotite_13.png","image_id":125,"category_name":"Peridotite","category":8,"distinct_rating":7.28,"distinct_type":"Top","rt":null,"stimulus":"Stimuli_Rocks480/I_Peridotite_13.png","response":null,"trial_type":"image-keyboard-response","trial_index":42,"plugin_version":"2.1.0","time_elapsed":11454070,"subject_id":"90788","group":"Group2","condition":"3_Rep","full_date":"2026-02-05T16:22:32.428Z","date":"2026-02-05","time":"16:22:32"},{"rt":null,"stimulus":"<p style=\"font-size: 50px; margin: 0; text-align: center;\">+</p>","response":null,"trial_type":"html-keyboard-response","trial_index":43,"plugin_version":"2.1.0","time_elapsed":11455073,"subject_id":"90788","group":"Group2","condition":"3_Rep","full_date":"2026-02-05T16:22:32.428Z","date":"2026-02-05","time":"16:22:32"},{"task":"memory_phase","broad_category":"I","image_png":"I_Pegmatite_11.png","image_id":107,"category_name":"Pegmatite","category":7,"distinct_rating":7.11,"distinct_type":"Top","rt":null,"stimulus":"Stimuli_Rocks480/I_Pegmatite_11.png","response":null,"trial_type":"image-keyboard-response","trial_index":44,"plugin_version":"2.1.0","time_elapsed":11457575,"subject_id":"90788","group":"Group2","condition":"3_Rep","full_date":"2026-02-05T16:22:32.428Z","date":"2026-02-05","time":"16:22:32"},{"rt":null,"stimulus":"<p style=\"font-size: 50px; margin: 0; text-align: center;\">+</p>","response":null,"trial_type":"html-keyboard-response","trial_index":45,"plugin_version":"2.1.0","time_elapsed":11458578,"subject_id":"90788","group":"Group2","condition":"3_Rep","full_date":"2026-02-05T16:22:32.428Z","date":"2026-02-05","time":"16:22:32"},{"task":"memory_phase","broad_category":"I","image_png":"I_Diorite_10.png","image_id":42,"category_name":"Diorite","category":3,"distinct_rating":2.84,"distinct_type":"Bottom","rt":null,"stimulus":"Stimuli_Rocks480/I_Diorite_10.png","response":null,"trial_type":"image-keyboard-response","trial_index":46,"plugin_version":"2.1.0","time_elapsed":11461081,"subject_id":"90788","group":"Group2","condition":"3_Rep","full_date":"2026-02-05T16:22:32.428Z","date":"2026-02-05","time":"16:22:32"},{"rt":null,"stimulus":"<p style=\"font-size: 50px; margin: 0; text-align: center;\">+</p>","response":null,"trial_type":"html-keyboard-response","trial_index":47,"plugin_version":"2.1.0","time_elapsed":11462084,"subject_id":"90788","group":"Group2","condition":"3_Rep","full_date":"2026-02-05T16:22:32.428Z","date":"2026-02-05","time":"16:22:32"},{"task":"memory_phase","broad_category":"I","image_png":"I_Andesite_04.png","image_id":4,"category_name":"Andesite","category":1,"distinct_rating":3.18,"distinct_type":"Bottom","rt":null,"stimulus":"Stimuli_Rocks480/I_Andesite_04.png","response":null,"trial_type":"image-keyboard-response","trial_index":48,"plugin_version":"2.1.0","time_elapsed":11464587,"subject_id":"90788","group":"Group2","condition":"3_Rep","full_date":"2026-02-05T16:22:32.428Z","date":"2026-02-05","time":"16:22:32"},{"rt":null,"stimulus":"<p style=\"font-size: 50px; margin: 0; text-align: center;\">+</p>","response":null,"trial_type":"html-keyboard-response","trial_index":49,"plugin_version":"2.1.0","time_elapsed":11465589,"subject_id":"90788","group":"Group2","condition":"3_Rep","full_date":"2026-02-05T16:22:32.428Z","date":"2026-02-05","time":"16:22:32"},{"task":"memory_phase","broad_category":"S","image_png":"S_Sandstone_11.png","image_id":459,"category_name":"Sandstone","category":29,"distinct_rating":1.82,"distinct_type":"Bottom","rt":null,"stimulus":"Stimuli_Rocks480/S_Sandstone_11.png","response":null,"trial_type":"image-keyboard-response","trial_index":50,"plugin_version":"2.1.0","time_elapsed":11468093,"subject_id":"90788","group":"Group2","condition":"3_Rep","full_date":"2026-02-05T16:22:32.428Z","date":"2026-02-05","time":"16:22:32"},{"rt":null,"stimulus":"<p style=\"font-size: 50px; margin: 0; text-align: center;\">+</p>","response":null,"trial_type":"html-keyboard-response","trial_index":51,"plugin_version":"2.1.0","time_elapsed":11469095,"subject_id":"90788","group":"Group2","condition":"3_Rep","full_date":"2026-02-05T16:22:32.428Z","date":"2026-02-05","time":"16:22:32"},{"task":"memory_phase","broad_category":"I","image_png":"I_Pumice_01.png","image_id":129,"category_name":"Pumice","category":9,"distinct_rating":3.25,"distinct_type":"Bottom","rt":null,"stimulus":"Stimuli_Rocks480/I_Pumice_01.png","response":null,"trial_type":"image-keyboard-response","trial_index":52,"plugin_version":"2.1.0","time_elapsed":11471598,"subject_id":"90788","group":"Group2","condition":"3_Rep","full_date":"2026-02-05T16:22:32.428Z","date":"2026-02-05","time":"16:22:32"},{"rt":null,"stimulus":"<p style=\"font-size: 50px; margin: 0; text-align: center;\">+</p>","response":null,"trial_type":"html-keyboard-response","trial_index":53,"plugin_version":"2.1.0","time_elapsed":11472600,"subject_id":"90788","group":"Group2","condition":"3_Rep","full_date":"2026-02-05T16:22:32.428Z","date":"2026-02-05","time":"16:22:32"},{"task":"memory_phase","broad_category":"I","image_png":"I_Rhyolite_10.png","image_id":154,"category_name":"Rhyolite","category":10,"distinct_rating":2.88,"distinct_type":"Bottom","rt":null,"stimulus":"Stimuli_Rocks480/I_Rhyolite_10.png","response":null,"trial_type":"image-keyboard-response","trial_index":54,"plugin_version":"2.1.0","time_elapsed":11475103,"subject_id":"90788","group":"Group2","condition":"3_Rep","full_date":"2026-02-05T16:22:32.428Z","date":"2026-02-05","time":"16:22:32"},{"rt":1700,"stimulus":"<p style=\"max-width: 760px; margin: auto; font-size: 35px; line-height: 1.5;\">\n                Press SPACE to continue study phase\n              </p>","response":" ","trial_type":"html-keyboard-response","trial_index":55,"plugin_version":"2.1.0","time_elapsed":11476804,"subject_id":"90788","group":"Group2","condition":"3_Rep","full_date":"2026-02-05T16:22:32.428Z","date":"2026-02-05","time":"16:22:32"},{"rt":null,"stimulus":"<p style=\"font-size: 50px; margin: 0; text-align: center;\">+</p>","response":null,"trial_type":"html-keyboard-response","trial_index":56,"plugin_version":"2.1.0","time_elapsed":11477806,"subject_id":"90788","group":"Group2","condition":"3_Rep","full_date":"2026-02-05T16:22:32.428Z","date":"2026-02-05","time":"16:22:32"},{"task":"memory_phase","broad_category":"S","image_png":"S_Shale_02.png","image_id":466,"category_name":"Shale","category":30,"distinct_rating":2.9,"distinct_type":"Bottom","rt":null,"stimulus":"Stimuli_Rocks480/S_Shale_02.png","response":null,"trial_type":"image-keyboard-response","trial_index":57,"plugin_version":"2.1.0","time_elapsed":11480309,"subject_id":"90788","group":"Group2","condition":"3_Rep","full_date":"2026-02-05T16:22:32.428Z","date":"2026-02-05","time":"16:22:32"},{"rt":null,"stimulus":"<p style=\"font-size: 50px; margin: 0; text-align: center;\">+</p>","response":null,"trial_type":"html-keyboard-response","trial_index":58,"plugin_version":"2.1.0","time_elapsed":11481312,"subject_id":"90788","group":"Group2","condition":"3_Rep","full_date":"2026-02-05T16:22:32.428Z","date":"2026-02-05","time":"16:22:32"},{"task":"memory_phase","broad_category":"I","image_png":"I_Basalt_08.png","image_id":24,"category_name":"Basalt","category":2,"distinct_rating":2.31,"distinct_type":"Bottom","rt":null,"stimulus":"Stimuli_Rocks480/I_Basalt_08.png","response":null,"trial_type":"image-keyboard-response","trial_index":59,"plugin_version":"2.1.0","time_elapsed":11483815,"subject_id":"90788","group":"Group2","condition":"3_Rep","full_date":"2026-02-05T16:22:32.428Z","date":"2026-02-05","time":"16:22:32"},{"rt":null,"stimulus":"<p style=\"font-size: 50px; margin: 0; text-align: center;\">+</p>","response":null,"trial_type":"html-keyboard-response","trial_index":60,"plugin_version":"2.1.0","time_elapsed":11484817,"subject_id":"90788","group":"Group2","condition":"3_Rep","full_date":"2026-02-05T16:22:32.428Z","date":"2026-02-05","time":"16:22:32"},{"task":"memory_phase","broad_category":"M","image_png":"M_Phyllite_02.png","image_id":258,"category_name":"Phyllite","category":17,"distinct_rating":2.89,"distinct_type":"Bottom","rt":null,"stimulus":"Stimuli_Rocks480/M_Phyllite_02.png","response":null,"trial_type":"image-keyboard-response","trial_index":61,"plugin_version":"2.1.0","time_elapsed":11487319,"subject_id":"90788","group":"Group2","condition":"3_Rep","full_date":"2026-02-05T16:22:32.428Z","date":"2026-02-05","time":"16:22:32"},{"rt":null,"stimulus":"<p style=\"font-size: 50px; margin: 0; text-align: center;\">+</p>","response":null,"trial_type":"html-keyboard-response","trial_index":62,"plugin_version":"2.1.0","time_elapsed":11488322,"subject_id":"90788","group":"Group2","condition":"3_Rep","full_date":"2026-02-05T16:22:32.428Z","date":"2026-02-05","time":"16:22:32"},{"task":"memory_phase","broad_category":"I","image_png":"I_Basalt_10.png","image_id":26,"category_name":"Basalt","category":2,"distinct_rating":2.76,"distinct_type":"Bottom","rt":null,"stimulus":"Stimuli_Rocks480/I_Basalt_10.png","response":null,"trial_type":"image-keyboard-response","trial_index":63,"plugin_version":"2.1.0","time_elapsed":11490824,"subject_id":"90788","group":"Group2","condition":"3_Rep","full_date":"2026-02-05T16:22:32.428Z","date":"2026-02-05","time":"16:22:32"},{"rt":null,"stimulus":"<p style=\"font-size: 50px; margin: 0; text-align: center;\">+</p>","response":null,"trial_type":"html-keyboard-response","trial_index":64,"plugin_version":"2.1.0","time_elapsed":11491827,"subject_id":"90788","group":"Group2","condition":"3_Rep","full_date":"2026-02-05T16:22:32.428Z","date":"2026-02-05","time":"16:22:32"},{"task":"memory_phase","broad_category":"I","image_png":"I_Obsidian_06.png","image_id":86,"category_name":"Obsidian","category":6,"distinct_rating":8.01,"distinct_type":"Top","rt":null,"stimulus":"Stimuli_Rocks480/I_Obsidian_06.png","response":null,"trial_type":"image-keyboard-response","trial_index":65,"plugin_version":"2.1.0","time_elapsed":11494329,"subject_id":"90788","group":"Group2","condition":"3_Rep","full_date":"2026-02-05T16:22:32.428Z","date":"2026-02-05","time":"16:22:32"},{"rt":null,"stimulus":"<p style=\"font-size: 50px; margin: 0; text-align: center;\">+</p>","response":null,"trial_type":"html-keyboard-response","trial_index":66,"plugin_version":"2.1.0","time_elapsed":11495332,"subject_id":"90788","group":"Group2","condition":"3_Rep","full_date":"2026-02-05T16:22:32.428Z","date":"2026-02-05","time":"16:22:32"},{"task":"memory_phase","broad_category":"S","image_png":"S_Dolomite_01.png","image_id":385,"category_name":"Dolomite","category":25,"distinct_rating":1.43,"distinct_type":"Bottom","rt":null,"stimulus":"Stimuli_Rocks480/S_Dolomite_01.png","response":null,"trial_type":"image-keyboard-response","trial_index":67,"plugin_version":"2.1.0","time_elapsed":11497834,"subject_id":"90788","group":"Group2","condition":"3_Rep","full_date":"2026-02-05T16:22:32.428Z","date":"2026-02-05","time":"16:22:32"},{"rt":null,"stimulus":"<p style=\"font-size: 50px; margin: 0; text-align: center;\">+</p>","response":null,"trial_type":"html-keyboard-response","trial_index":68,"plugin_version":"2.1.0","time_elapsed":11498836,"subject_id":"90788","group":"Group2","condition":"3_Rep","full_date":"2026-02-05T16:22:32.428Z","date":"2026-02-05","time":"16:22:32"},{"task":"memory_phase","broad_category":"M","image_png":"M_Phyllite_13.png","image_id":269,"category_name":"Phyllite","category":17,"distinct_rating":2.8,"distinct_type":"Bottom","rt":null,"stimulus":"Stimuli_Rocks480/M_Phyllite_13.png","response":null,"trial_type":"image-keyboard-response","trial_index":69,"plugin_version":"2.1.0","time_elapsed":11501339,"subject_id":"90788","group":"Group2","condition":"3_Rep","full_date":"2026-02-05T16:22:32.428Z","date":"2026-02-05","time":"16:22:32"},{"rt":null,"stimulus":"<p style=\"font-size: 50px; margin: 0; text-align: center;\">+</p>","response":null,"trial_type":"html-keyboard-response","trial_index":70,"plugin_version":"2.1.0","time_elapsed":11502342,"subject_id":"90788","group":"Group2","condition":"3_Rep","full_date":"2026-02-05T16:22:32.428Z","date":"2026-02-05","time":"16:22:32"},{"task":"memory_phase","broad_category":"M","image_png":"M_Phyllite_05.png","image_id":261,"category_name":"Phyllite","category":17,"distinct_rating":2.14,"distinct_type":"Bottom","rt":null,"stimulus":"Stimuli_Rocks480/M_Phyllite_05.png","response":null,"trial_type":"image-keyboard-response","trial_index":71,"plugin_version":"2.1.0","time_elapsed":11504846,"subject_id":"90788","group":"Group2","condition":"3_Rep","full_date":"2026-02-05T16:22:32.428Z","date":"2026-02-05","time":"16:22:32"},{"rt":null,"stimulus":"<p style=\"font-size: 50px; margin: 0; text-align: center;\">+</p>","response":null,"trial_type":"html-keyboard-response","trial_index":72,"plugin_version":"2.1.0","time_elapsed":11505848,"subject_id":"90788","group":"Group2","condition":"3_Rep","full_date":"2026-02-05T16:22:32.428Z","date":"2026-02-05","time":"16:22:32"},{"task":"memory_phase","broad_category":"M","image_png":"M_Gneiss_15.png","image_id":207,"category_name":"Gneiss","category":13,"distinct_rating":3.11,"distinct_type":"Bottom","rt":null,"stimulus":"Stimuli_Rocks480/M_Gneiss_15.png","response":null,"trial_type":"image-keyboard-response","trial_index":73,"plugin_version":"2.1.0","time_elapsed":11508351,"subject_id":"90788","group":"Group2","condition":"3_Rep","full_date":"2026-02-05T16:22:32.428Z","date":"2026-02-05","time":"16:22:32"},{"rt":null,"stimulus":"<p style=\"font-size: 50px; margin: 0; text-align: center;\">+</p>","response":null,"trial_type":"html-keyboard-response","trial_index":74,"plugin_version":"2.1.0","time_elapsed":11509354,"subject_id":"90788","group":"Group2","condition":"3_Rep","full_date":"2026-02-05T16:22:32.428Z","date":"2026-02-05","time":"16:22:32"},{"task":"memory_phase","broad_category":"S","image_png":"S_Shale_07.png","image_id":471,"category_name":"Shale","category":30,"distinct_rating":2.73,"distinct_type":"Bottom","rt":null,"stimulus":"Stimuli_Rocks480/S_Shale_07.png","response":null,"trial_type":"image-keyboard-response","trial_index":75,"plugin_version":"2.1.0","time_elapsed":11511856,"subject_id":"90788","group":"Group2","condition":"3_Rep","full_date":"2026-02-05T16:22:32.428Z","date":"2026-02-05","time":"16:22:32"},{"rt":null,"stimulus":"<p style=\"font-size: 50px; margin: 0; text-align: center;\">+</p>","response":null,"trial_type":"html-keyboard-response","trial_index":76,"plugin_version":"2.1.0","time_elapsed":11512859,"subject_id":"90788","group":"Group2","condition":"3_Rep","full_date":"2026-02-05T16:22:32.428Z","date":"2026-02-05","time":"16:22:32"},{"task":"memory_phase","broad_category":"I","image_png":"I_Pegmatite_03.png","image_id":99,"category_name":"Pegmatite","category":7,"distinct_rating":7.24,"distinct_type":"Top","rt":null,"stimulus":"Stimuli_Rocks480/I_Pegmatite_03.png","response":null,"trial_type":"image-keyboard-response","trial_index":77,"plugin_version":"2.1.0","time_elapsed":11515362,"subject_id":"90788","group":"Group2","condition":"3_Rep","full_date":"2026-02-05T16:22:32.428Z","date":"2026-02-05","time":"16:22:32"},{"rt":null,"stimulus":"<p style=\"font-size: 50px; margin: 0; text-align: center;\">+</p>","response":null,"trial_type":"html-keyboard-response","trial_index":78,"plugin_version":"2.1.0","time_elapsed":11516365,"subject_id":"90788","group":"Group2","condition":"3_Rep","full_date":"2026-02-05T16:22:32.428Z","date":"2026-02-05","time":"16:22:32"},{"task":"memory_phase","broad_category":"M","image_png":"M_Marble_03.png","image_id":227,"category_name":"Marble","category":15,"distinct_rating":2.67,"distinct_type":"Bottom","rt":null,"stimulus":"Stimuli_Rocks480/M_Marble_03.png","response":null,"trial_type":"image-keyboard-response","trial_index":79,"plugin_version":"2.1.0","time_elapsed":11518868,"subject_id":"90788","group":"Group2","condition":"3_Rep","full_date":"2026-02-05T16:22:32.428Z","date":"2026-02-05","time":"16:22:32"},{"rt":null,"stimulus":"<p style=\"font-size: 50px; margin: 0; text-align: center;\">+</p>","response":null,"trial_type":"html-keyboard-response","trial_index":80,"plugin_version":"2.1.0","time_elapsed":11519870,"subject_id":"90788","group":"Group2","condition":"3_Rep","full_date":"2026-02-05T16:22:32.428Z","date":"2026-02-05","time":"16:22:32"},{"task":"memory_phase","broad_category":"M","image_png":"M_Gneiss_14.png","image_id":206,"category_name":"Gneiss","category":13,"distinct_rating":3.41,"distinct_type":"Bottom","rt":null,"stimulus":"Stimuli_Rocks480/M_Gneiss_14.png","response":null,"trial_type":"image-keyboard-response","trial_index":81,"plugin_version":"2.1.0","time_elapsed":11522373,"subject_id":"90788","group":"Group2","condition":"3_Rep","full_date":"2026-02-05T16:22:32.428Z","date":"2026-02-05","time":"16:22:32"},{"rt":null,"stimulus":"<p style=\"font-size: 50px; margin: 0; text-align: center;\">+</p>","response":null,"trial_type":"html-keyboard-response","trial_index":82,"plugin_version":"2.1.0","time_elapsed":11523375,"subject_id":"90788","group":"Group2","condition":"3_Rep","full_date":"2026-02-05T16:22:32.428Z","date":"2026-02-05","time":"16:22:32"},{"task":"memory_phase","broad_category":"I","image_png":"I_Andesite_09.png","image_id":9,"category_name":"Andesite","category":1,"distinct_rating":2.49,"distinct_type":"Bottom","rt":null,"stimulus":"Stimuli_Rocks480/I_Andesite_09.png","response":null,"trial_type":"image-keyboard-response","trial_index":83,"plugin_version":"2.1.0","time_elapsed":11525878,"subject_id":"90788","group":"Group2","condition":"3_Rep","full_date":"2026-02-05T16:22:32.428Z","date":"2026-02-05","time":"16:22:32"},{"rt":null,"stimulus":"<p style=\"font-size: 50px; margin: 0; text-align: center;\">+</p>","response":null,"trial_type":"html-keyboard-response","trial_index":84,"plugin_version":"2.1.0","time_elapsed":11526880,"subject_id":"90788","group":"Group2","condition":"3_Rep","full_date":"2026-02-05T16:22:32.428Z","date":"2026-02-05","time":"16:22:32"},{"task":"memory_phase","broad_category":"I","image_png":"I_Rhyolite_08.png","image_id":152,"category_name":"Rhyolite","category":10,"distinct_rating":1.38,"distinct_type":"Bottom","rt":null,"stimulus":"Stimuli_Rocks480/I_Rhyolite_08.png","response":null,"trial_type":"image-keyboard-response","trial_index":85,"plugin_version":"2.1.0","time_elapsed":11529383,"subject_id":"90788","group":"Group2","condition":"3_Rep","full_date":"2026-02-05T16:22:32.428Z","date":"2026-02-05","time":"16:22:32"},{"rt":null,"stimulus":"<p style=\"font-size: 50px; margin: 0; text-align: center;\">+</p>","response":null,"trial_type":"html-keyboard-response","trial_index":86,"plugin_version":"2.1.0","time_elapsed":11530386,"subject_id":"90788","group":"Group2","condition":"3_Rep","full_date":"2026-02-05T16:22:32.428Z","date":"2026-02-05","time":"16:22:32"},{"task":"memory_phase","broad_category":"S","image_png":"S_Dolomite_07.png","image_id":391,"category_name":"Dolomite","category":25,"distinct_rating":1.73,"distinct_type":"Bottom","rt":null,"stimulus":"Stimuli_Rocks480/S_Dolomite_07.png","response":null,"trial_type":"image-keyboard-response","trial_index":87,"plugin_version":"2.1.0","time_elapsed":11532889,"subject_id":"90788","group":"Group2","condition":"3_Rep","full_date":"2026-02-05T16:22:32.428Z","date":"2026-02-05","time":"16:22:32"},{"rt":null,"stimulus":"<p style=\"font-size: 50px; margin: 0; text-align: center;\">+</p>","response":null,"trial_type":"html-keyboard-response","trial_index":88,"plugin_version":"2.1.0","time_elapsed":11533899,"subject_id":"90788","group":"Group2","condition":"3_Rep","full_date":"2026-02-05T16:22:32.428Z","date":"2026-02-05","time":"16:22:32"},{"task":"memory_phase","broad_category":"I","image_png":"I_Pumice_13.png","image_id":141,"category_name":"Pumice","category":9,"distinct_rating":3.12,"distinct_type":"Bottom","rt":null,"stimulus":"Stimuli_Rocks480/I_Pumice_13.png","response":null,"trial_type":"image-keyboard-response","trial_index":89,"plugin_version":"2.1.0","time_elapsed":11536402,"subject_id":"90788","group":"Group2","condition":"3_Rep","full_date":"2026-02-05T16:22:32.428Z","date":"2026-02-05","time":"16:22:32"},{"rt":null,"stimulus":"<p style=\"font-size: 50px; margin: 0; text-align: center;\">+</p>","response":null,"trial_type":"html-keyboard-response","trial_index":90,"plugin_version":"2.1.0","time_elapsed":11537404,"subject_id":"90788","group":"Group2","condition":"3_Rep","full_date":"2026-02-05T16:22:32.428Z","date":"2026-02-05","time":"16:22:32"},{"task":"memory_phase","broad_category":"I","image_png":"I_Pumice_14.png","image_id":142,"category_name":"Pumice","category":9,"distinct_rating":3.22,"distinct_type":"Bottom","rt":null,"stimulus":"Stimuli_Rocks480/I_Pumice_14.png","response":null,"trial_type":"image-keyboard-response","trial_index":91,"plugin_version":"2.1.0","time_elapsed":11539907,"subject_id":"90788","group":"Group2","condition":"3_Rep","full_date":"2026-02-05T16:22:32.428Z","date":"2026-02-05","time":"16:22:32"},{"rt":null,"stimulus":"<p style=\"font-size: 50px; margin: 0; text-align: center;\">+</p>","response":null,"trial_type":"html-keyboard-response","trial_index":92,"plugin_version":"2.1.0","time_elapsed":11540909,"subject_id":"90788","group":"Group2","condition":"3_Rep","full_date":"2026-02-05T16:22:32.428Z","date":"2026-02-05","time":"16:22:32"},{"task":"memory_phase","broad_category":"M","image_png":"M_Quartzite_07.png","image_id":279,"category_name":"Quartzite","category":18,"distinct_rating":1.97,"distinct_type":"Bottom","rt":null,"stimulus":"Stimuli_Rocks480/M_Quartzite_07.png","response":null,"trial_type":"image-keyboard-response","trial_index":93,"plugin_version":"2.1.0","time_elapsed":11543412,"subject_id":"90788","group":"Group2","condition":"3_Rep","full_date":"2026-02-05T16:22:32.428Z","date":"2026-02-05","time":"16:22:32"},{"rt":null,"stimulus":"<p style=\"font-size: 50px; margin: 0; text-align: center;\">+</p>","response":null,"trial_type":"html-keyboard-response","trial_index":94,"plugin_version":"2.1.0","time_elapsed":11544414,"subject_id":"90788","group":"Group2","condition":"3_Rep","full_date":"2026-02-05T16:22:32.428Z","date":"2026-02-05","time":"16:22:32"},{"task":"memory_phase","broad_category":"I","image_png":"I_Andesite_03.png","image_id":3,"category_name":"Andesite","category":1,"distinct_rating":3.17,"distinct_type":"Bottom","rt":null,"stimulus":"Stimuli_Rocks480/I_Andesite_03.png","response":null,"trial_type":"image-keyboard-response","trial_index":95,"plugin_version":"2.1.0","time_elapsed":11546917,"subject_id":"90788","group":"Group2","condition":"3_Rep","full_date":"2026-02-05T16:22:32.428Z","date":"2026-02-05","time":"16:22:32"},{"rt":null,"stimulus":"<p style=\"font-size: 50px; margin: 0; text-align: center;\">+</p>","response":null,"trial_type":"html-keyboard-response","trial_index":96,"plugin_version":"2.1.0","time_elapsed":11547919,"subject_id":"90788","group":"Group2","condition":"3_Rep","full_date":"2026-02-05T16:22:32.428Z","date":"2026-02-05","time":"16:22:32"},{"task":"memory_phase","broad_category":"I","image_png":"I_Basalt_13.png","image_id":29,"category_name":"Basalt","category":2,"distinct_rating":2.68,"distinct_type":"Bottom","rt":null,"stimulus":"Stimuli_Rocks480/I_Basalt_13.png","response":null,"trial_type":"image-keyboard-response","trial_index":97,"plugin_version":"2.1.0","time_elapsed":11550422,"subject_id":"90788","group":"Group2","condition":"3_Rep","full_date":"2026-02-05T16:22:32.428Z","date":"2026-02-05","time":"16:22:32"},{"rt":null,"stimulus":"<p style=\"font-size: 50px; margin: 0; text-align: center;\">+</p>","response":null,"trial_type":"html-keyboard-response","trial_index":98,"plugin_version":"2.1.0","time_elapsed":11551424,"subject_id":"90788","group":"Group2","condition":"3_Rep","full_date":"2026-02-05T16:22:32.428Z","date":"2026-02-05","time":"16:22:32"},{"task":"memory_phase","broad_category":"M","image_png":"M_Marble_02.png","image_id":226,"category_name":"Marble","category":15,"distinct_rating":3.2,"distinct_type":"Bottom","rt":null,"stimulus":"Stimuli_Rocks480/M_Marble_02.png","response":null,"trial_type":"image-keyboard-response","trial_index":99,"plugin_version":"2.1.0","time_elapsed":11553926,"subject_id":"90788","group":"Group2","condition":"3_Rep","full_date":"2026-02-05T16:22:32.428Z","date":"2026-02-05","time":"16:22:32"},{"rt":null,"stimulus":"<p style=\"font-size: 50px; margin: 0; text-align: center;\">+</p>","response":null,"trial_type":"html-keyboard-response","trial_index":100,"plugin_version":"2.1.0","time_elapsed":11554929,"subject_id":"90788","group":"Group2","condition":"3_Rep","full_date":"2026-02-05T16:22:32.428Z","date":"2026-02-05","time":"16:22:32"},{"task":"memory_phase","broad_category":"M","image_png":"M_Slate_14.png","image_id":318,"category_name":"Slate","category":20,"distinct_rating":2.58,"distinct_type":"Bottom","rt":null,"stimulus":"Stimuli_Rocks480/M_Slate_14.png","response":null,"trial_type":"image-keyboard-response","trial_index":101,"plugin_version":"2.1.0","time_elapsed":11557431,"subject_id":"90788","group":"Group2","condition":"3_Rep","full_date":"2026-02-05T16:22:32.428Z","date":"2026-02-05","time":"16:22:32"},{"rt":null,"stimulus":"<p style=\"font-size: 50px; margin: 0; text-align: center;\">+</p>","response":null,"trial_type":"html-keyboard-response","trial_index":102,"plugin_version":"2.1.0","time_elapsed":11558433,"subject_id":"90788","group":"Group2","condition":"3_Rep","full_date":"2026-02-05T16:22:32.428Z","date":"2026-02-05","time":"16:22:32"},{"task":"memory_phase","broad_category":"S","image_png":"S_Rock Salt_13.png","image_id":445,"category_name":"Rock Salt","category":28,"distinct_rating":7.58,"distinct_type":"Top","rt":null,"stimulus":"Stimuli_Rocks480/S_Rock Salt_13.png","response":null,"trial_type":"image-keyboard-response","trial_index":103,"plugin_version":"2.1.0","time_elapsed":11560935,"subject_id":"90788","group":"Group2","condition":"3_Rep","full_date":"2026-02-05T16:22:32.428Z","date":"2026-02-05","time":"16:22:32"},{"rt":null,"stimulus":"<p style=\"font-size: 50px; margin: 0; text-align: center;\">+</p>","response":null,"trial_type":"html-keyboard-response","trial_index":104,"plugin_version":"2.1.0","time_elapsed":11561937,"subject_id":"90788","group":"Group2","condition":"3_Rep","full_date":"2026-02-05T16:22:32.428Z","date":"2026-02-05","time":"16:22:32"},{"task":"memory_phase","broad_category":"S","image_png":"S_Sandstone_08.png","image_id":456,"category_name":"Sandstone","category":29,"distinct_rating":1.5,"distinct_type":"Bottom","rt":null,"stimulus":"Stimuli_Rocks480/S_Sandstone_08.png","response":null,"trial_type":"image-keyboard-response","trial_index":105,"plugin_version":"2.1.0","time_elapsed":11564440,"subject_id":"90788","group":"Group2","condition":"3_Rep","full_date":"2026-02-05T16:22:32.428Z","date":"2026-02-05","time":"16:22:32"},{"rt":2136,"stimulus":"<p style=\"max-width: 760px; margin: auto; font-size: 35px; line-height: 1.5;\">\n                You have completed 1 study phase. \n                Now, we'll show you all the images again 2 more times.\n                <br><br>Press SPACE to continue\n              </p>","response":" ","trial_type":"html-keyboard-response","trial_index":106,"plugin_version":"2.1.0","time_elapsed":11566577,"subject_id":"90788","group":"Group2","condition":"3_Rep","full_date":"2026-02-05T16:22:32.428Z","date":"2026-02-05","time":"16:22:32"},{"rt":null,"stimulus":"<p style=\"font-size: 50px; margin: 0; text-align: center;\">+</p>","response":null,"trial_type":"html-keyboard-response","trial_index":107,"plugin_version":"2.1.0","time_elapsed":11567579,"subject_id":"90788","group":"Group2","condition":"3_Rep","full_date":"2026-02-05T16:22:32.428Z","date":"2026-02-05","time":"16:22:32"},{"task":"memory_phase","broad_category":"S","image_png":"S_Dolomite_01.png","image_id":385,"category_name":"Dolomite","category":25,"distinct_rating":1.43,"distinct_type":"Bottom","rt":null,"stimulus":"Stimuli_Rocks480/S_Dolomite_01.png","response":null,"trial_type":"image-keyboard-response","trial_index":108,"plugin_version":"2.1.0","time_elapsed":11570082,"subject_id":"90788","group":"Group2","condition":"3_Rep","full_date":"2026-02-05T16:22:32.428Z","date":"2026-02-05","time":"16:22:32"},{"rt":null,"stimulus":"<p style=\"font-size: 50px; margin: 0; text-align: center;\">+</p>","response":null,"trial_type":"html-keyboard-response","trial_index":109,"plugin_version":"2.1.0","time_elapsed":11571084,"subject_id":"90788","group":"Group2","condition":"3_Rep","full_date":"2026-02-05T16:22:32.428Z","date":"2026-02-05","time":"16:22:32"},{"task":"memory_phase","broad_category":"I","image_png":"I_Gabbro_02.png","image_id":50,"category_name":"Gabbro","category":4,"distinct_rating":2.73,"distinct_type":"Bottom","rt":null,"stimulus":"Stimuli_Rocks480/I_Gabbro_02.png","response":null,"trial_type":"image-keyboard-response","trial_index":110,"plugin_version":"2.1.0","time_elapsed":11573587,"subject_id":"90788","group":"Group2","condition":"3_Rep","full_date":"2026-02-05T16:22:32.428Z","date":"2026-02-05","time":"16:22:32"},{"rt":null,"stimulus":"<p style=\"font-size: 50px; margin: 0; text-align: center;\">+</p>","response":null,"trial_type":"html-keyboard-response","trial_index":111,"plugin_version":"2.1.0","time_elapsed":11574590,"subject_id":"90788","group":"Group2","condition":"3_Rep","full_date":"2026-02-05T16:22:32.428Z","date":"2026-02-05","time":"16:22:32"},{"task":"memory_phase","broad_category":"M","image_png":"M_Marble_02.png","image_id":226,"category_name":"Marble","category":15,"distinct_rating":3.2,"distinct_type":"Bottom","rt":null,"stimulus":"Stimuli_Rocks480/M_Marble_02.png","response":null,"trial_type":"image-keyboard-response","trial_index":112,"plugin_version":"2.1.0","time_elapsed":11577094,"subject_id":"90788","group":"Group2","condition":"3_Rep","full_date":"2026-02-05T16:22:32.428Z","date":"2026-02-05","time":"16:22:32"},{"rt":null,"stimulus":"<p style=\"font-size: 50px; margin: 0; text-align: center;\">+</p>","response":null,"trial_type":"html-keyboard-response","trial_index":113,"plugin_version":"2.1.0","time_elapsed":11578096,"subject_id":"90788","group":"Group2","condition":"3_Rep","full_date":"2026-02-05T16:22:32.428Z","date":"2026-02-05","time":"16:22:32"},{"task":"memory_phase","broad_category":"S","image_png":"S_Sandstone_08.png","image_id":456,"category_name":"Sandstone","category":29,"distinct_rating":1.5,"distinct_type":"Bottom","rt":null,"stimulus":"Stimuli_Rocks480/S_Sandstone_08.png","response":null,"trial_type":"image-keyboard-response","trial_index":114,"plugin_version":"2.1.0","time_elapsed":11580600,"subject_id":"90788","group":"Group2","condition":"3_Rep","full_date":"2026-02-05T16:22:32.428Z","date":"2026-02-05","time":"16:22:32"},{"rt":null,"stimulus":"<p style=\"font-size: 50px; margin: 0; text-align: center;\">+</p>","response":null,"trial_type":"html-keyboard-response","trial_index":115,"plugin_version":"2.1.0","time_elapsed":11581602,"subject_id":"90788","group":"Group2","condition":"3_Rep","full_date":"2026-02-05T16:22:32.428Z","date":"2026-02-05","time":"16:22:32"},{"task":"memory_phase","broad_category":"M","image_png":"M_Quartzite_07.png","image_id":279,"category_name":"Quartzite","category":18,"distinct_rating":1.97,"distinct_type":"Bottom","rt":null,"stimulus":"Stimuli_Rocks480/M_Quartzite_07.png","response":null,"trial_type":"image-keyboard-response","trial_index":116,"plugin_version":"2.1.0","time_elapsed":11584106,"subject_id":"90788","group":"Group2","condition":"3_Rep","full_date":"2026-02-05T16:22:32.428Z","date":"2026-02-05","time":"16:22:32"},{"rt":null,"stimulus":"<p style=\"font-size: 50px; margin: 0; text-align: center;\">+</p>","response":null,"trial_type":"html-keyboard-response","trial_index":117,"plugin_version":"2.1.0","time_elapsed":11585107,"subject_id":"90788","group":"Group2","condition":"3_Rep","full_date":"2026-02-05T16:22:32.428Z","date":"2026-02-05","time":"16:22:32"},{"task":"memory_phase","broad_category":"I","image_png":"I_Andesite_03.png","image_id":3,"category_name":"Andesite","category":1,"distinct_rating":3.17,"distinct_type":"Bottom","rt":null,"stimulus":"Stimuli_Rocks480/I_Andesite_03.png","response":null,"trial_type":"image-keyboard-response","trial_index":118,"plugin_version":"2.1.0","time_elapsed":11587611,"subject_id":"90788","group":"Group2","condition":"3_Rep","full_date":"2026-02-05T16:22:32.428Z","date":"2026-02-05","time":"16:22:32"},{"rt":null,"stimulus":"<p style=\"font-size: 50px; margin: 0; text-align: center;\">+</p>","response":null,"trial_type":"html-keyboard-response","trial_index":119,"plugin_version":"2.1.0","time_elapsed":11588613,"subject_id":"90788","group":"Group2","condition":"3_Rep","full_date":"2026-02-05T16:22:32.428Z","date":"2026-02-05","time":"16:22:32"},{"task":"memory_phase","broad_category":"I","image_png":"I_Rhyolite_10.png","image_id":154,"category_name":"Rhyolite","category":10,"distinct_rating":2.88,"distinct_type":"Bottom","rt":null,"stimulus":"Stimuli_Rocks480/I_Rhyolite_10.png","response":null,"trial_type":"image-keyboard-response","trial_index":120,"plugin_version":"2.1.0","time_elapsed":11591116,"subject_id":"90788","group":"Group2","condition":"3_Rep","full_date":"2026-02-05T16:22:32.428Z","date":"2026-02-05","time":"16:22:32"},{"rt":null,"stimulus":"<p style=\"font-size: 50px; margin: 0; text-align: center;\">+</p>","response":null,"trial_type":"html-keyboard-response","trial_index":121,"plugin_version":"2.1.0","time_elapsed":11592118,"subject_id":"90788","group":"Group2","condition":"3_Rep","full_date":"2026-02-05T16:22:32.428Z","date":"2026-02-05","time":"16:22:32"},{"task":"memory_phase","broad_category":"S","image_png":"S_Rock Salt_13.png","image_id":445,"category_name":"Rock Salt","category":28,"distinct_rating":7.58,"distinct_type":"Top","rt":null,"stimulus":"Stimuli_Rocks480/S_Rock Salt_13.png","response":null,"trial_type":"image-keyboard-response","trial_index":122,"plugin_version":"2.1.0","time_elapsed":11594621,"subject_id":"90788","group":"Group2","condition":"3_Rep","full_date":"2026-02-05T16:22:32.428Z","date":"2026-02-05","time":"16:22:32"},{"rt":null,"stimulus":"<p style=\"font-size: 50px; margin: 0; text-align: center;\">+</p>","response":null,"trial_type":"html-keyboard-response","trial_index":123,"plugin_version":"2.1.0","time_elapsed":11595624,"subject_id":"90788","group":"Group2","condition":"3_Rep","full_date":"2026-02-05T16:22:32.428Z","date":"2026-02-05","time":"16:22:32"},{"task":"memory_phase","broad_category":"I","image_png":"I_Pegmatite_11.png","image_id":107,"category_name":"Pegmatite","category":7,"distinct_rating":7.11,"distinct_type":"Top","rt":null,"stimulus":"Stimuli_Rocks480/I_Pegmatite_11.png","response":null,"trial_type":"image-keyboard-response","trial_index":124,"plugin_version":"2.1.0","time_elapsed":11598127,"subject_id":"90788","group":"Group2","condition":"3_Rep","full_date":"2026-02-05T16:22:32.428Z","date":"2026-02-05","time":"16:22:32"},{"rt":null,"stimulus":"<p style=\"font-size: 50px; margin: 0; text-align: center;\">+</p>","response":null,"trial_type":"html-keyboard-response","trial_index":125,"plugin_version":"2.1.0","time_elapsed":11599130,"subject_id":"90788","group":"Group2","condition":"3_Rep","full_date":"2026-02-05T16:22:32.428Z","date":"2026-02-05","time":"16:22:32"},{"task":"memory_phase","broad_category":"M","image_png":"M_Slate_14.png","image_id":318,"category_name":"Slate","category":20,"distinct_rating":2.58,"distinct_type":"Bottom","rt":null,"stimulus":"Stimuli_Rocks480/M_Slate_14.png","response":null,"trial_type":"image-keyboard-response","trial_index":126,"plugin_version":"2.1.0","time_elapsed":11601633,"subject_id":"90788","group":"Group2","condition":"3_Rep","full_date":"2026-02-05T16:22:32.428Z","date":"2026-02-05","time":"16:22:32"},{"rt":null,"stimulus":"<p style=\"font-size: 50px; margin: 0; text-align: center;\">+</p>","response":null,"trial_type":"html-keyboard-response","trial_index":127,"plugin_version":"2.1.0","time_elapsed":11602636,"subject_id":"90788","group":"Group2","condition":"3_Rep","full_date":"2026-02-05T16:22:32.428Z","date":"2026-02-05","time":"16:22:32"},{"task":"memory_phase","broad_category":"M","image_png":"M_Phyllite_05.png","image_id":261,"category_name":"Phyllite","category":17,"distinct_rating":2.14,"distinct_type":"Bottom","rt":null,"stimulus":"Stimuli_Rocks480/M_Phyllite_05.png","response":null,"trial_type":"image-keyboard-response","trial_index":128,"plugin_version":"2.1.0","time_elapsed":11605139,"subject_id":"90788","group":"Group2","condition":"3_Rep","full_date":"2026-02-05T16:22:32.428Z","date":"2026-02-05","time":"16:22:32"},{"rt":null,"stimulus":"<p style=\"font-size: 50px; margin: 0; text-align: center;\">+</p>","response":null,"trial_type":"html-keyboard-response","trial_index":129,"plugin_version":"2.1.0","time_elapsed":11606141,"subject_id":"90788","group":"Group2","condition":"3_Rep","full_date":"2026-02-05T16:22:32.428Z","date":"2026-02-05","time":"16:22:32"},{"task":"memory_phase","broad_category":"I","image_png":"I_Basalt_13.png","image_id":29,"category_name":"Basalt","category":2,"distinct_rating":2.68,"distinct_type":"Bottom","rt":null,"stimulus":"Stimuli_Rocks480/I_Basalt_13.png","response":null,"trial_type":"image-keyboard-response","trial_index":130,"plugin_version":"2.1.0","time_elapsed":11608644,"subject_id":"90788","group":"Group2","condition":"3_Rep","full_date":"2026-02-05T16:22:32.428Z","date":"2026-02-05","time":"16:22:32"},{"rt":null,"stimulus":"<p style=\"font-size: 50px; margin: 0; text-align: center;\">+</p>","response":null,"trial_type":"html-keyboard-response","trial_index":131,"plugin_version":"2.1.0","time_elapsed":11609647,"subject_id":"90788","group":"Group2","condition":"3_Rep","full_date":"2026-02-05T16:22:32.428Z","date":"2026-02-05","time":"16:22:32"},{"task":"memory_phase","broad_category":"S","image_png":"S_Shale_07.png","image_id":471,"category_name":"Shale","category":30,"distinct_rating":2.73,"distinct_type":"Bottom","rt":null,"stimulus":"Stimuli_Rocks480/S_Shale_07.png","response":null,"trial_type":"image-keyboard-response","trial_index":132,"plugin_version":"2.1.0","time_elapsed":11612151,"subject_id":"90788","group":"Group2","condition":"3_Rep","full_date":"2026-02-05T16:22:32.428Z","date":"2026-02-05","time":"16:22:32"},{"rt":null,"stimulus":"<p style=\"font-size: 50px; margin: 0; text-align: center;\">+</p>","response":null,"trial_type":"html-keyboard-response","trial_index":133,"plugin_version":"2.1.0","time_elapsed":11613153,"subject_id":"90788","group":"Group2","condition":"3_Rep","full_date":"2026-02-05T16:22:32.428Z","date":"2026-02-05","time":"16:22:32"},{"task":"memory_phase","broad_category":"I","image_png":"I_Gabbro_12.png","image_id":60,"category_name":"Gabbro","category":4,"distinct_rating":2.6,"distinct_type":"Bottom","rt":null,"stimulus":"Stimuli_Rocks480/I_Gabbro_12.png","response":null,"trial_type":"image-keyboard-response","trial_index":134,"plugin_version":"2.1.0","time_elapsed":11615657,"subject_id":"90788","group":"Group2","condition":"3_Rep","full_date":"2026-02-05T16:22:32.428Z","date":"2026-02-05","time":"16:22:32"},{"rt":null,"stimulus":"<p style=\"font-size: 50px; margin: 0; text-align: center;\">+</p>","response":null,"trial_type":"html-keyboard-response","trial_index":135,"plugin_version":"2.1.0","time_elapsed":11616660,"subject_id":"90788","group":"Group2","condition":"3_Rep","full_date":"2026-02-05T16:22:32.428Z","date":"2026-02-05","time":"16:22:32"},{"task":"memory_phase","broad_category":"M","image_png":"M_Gneiss_10.png","image_id":202,"category_name":"Gneiss","category":13,"distinct_rating":3.09,"distinct_type":"Bottom","rt":null,"stimulus":"Stimuli_Rocks480/M_Gneiss_10.png","response":null,"trial_type":"image-keyboard-response","trial_index":136,"plugin_version":"2.1.0","time_elapsed":11619163,"subject_id":"90788","group":"Group2","condition":"3_Rep","full_date":"2026-02-05T16:22:32.428Z","date":"2026-02-05","time":"16:22:32"},{"rt":null,"stimulus":"<p style=\"font-size: 50px; margin: 0; text-align: center;\">+</p>","response":null,"trial_type":"html-keyboard-response","trial_index":137,"plugin_version":"2.1.0","time_elapsed":11620165,"subject_id":"90788","group":"Group2","condition":"3_Rep","full_date":"2026-02-05T16:22:32.428Z","date":"2026-02-05","time":"16:22:32"},{"task":"memory_phase","broad_category":"I","image_png":"I_Rhyolite_05.png","image_id":149,"category_name":"Rhyolite","category":10,"distinct_rating":3.02,"distinct_type":"Bottom","rt":null,"stimulus":"Stimuli_Rocks480/I_Rhyolite_05.png","response":null,"trial_type":"image-keyboard-response","trial_index":138,"plugin_version":"2.1.0","time_elapsed":11622668,"subject_id":"90788","group":"Group2","condition":"3_Rep","full_date":"2026-02-05T16:22:32.428Z","date":"2026-02-05","time":"16:22:32"},{"rt":null,"stimulus":"<p style=\"font-size: 50px; margin: 0; text-align: center;\">+</p>","response":null,"trial_type":"html-keyboard-response","trial_index":139,"plugin_version":"2.1.0","time_elapsed":11623670,"subject_id":"90788","group":"Group2","condition":"3_Rep","full_date":"2026-02-05T16:22:32.428Z","date":"2026-02-05","time":"16:22:32"},{"task":"memory_phase","broad_category":"M","image_png":"M_Slate_04.png","image_id":308,"category_name":"Slate","category":20,"distinct_rating":2.2,"distinct_type":"Bottom","rt":null,"stimulus":"Stimuli_Rocks480/M_Slate_04.png","response":null,"trial_type":"image-keyboard-response","trial_index":140,"plugin_version":"2.1.0","time_elapsed":11626173,"subject_id":"90788","group":"Group2","condition":"3_Rep","full_date":"2026-02-05T16:22:32.428Z","date":"2026-02-05","time":"16:22:32"},{"rt":null,"stimulus":"<p style=\"font-size: 50px; margin: 0; text-align: center;\">+</p>","response":null,"trial_type":"html-keyboard-response","trial_index":141,"plugin_version":"2.1.0","time_elapsed":11627175,"subject_id":"90788","group":"Group2","condition":"3_Rep","full_date":"2026-02-05T16:22:32.428Z","date":"2026-02-05","time":"16:22:32"},{"task":"memory_phase","broad_category":"I","image_png":"I_Rhyolite_08.png","image_id":152,"category_name":"Rhyolite","category":10,"distinct_rating":1.38,"distinct_type":"Bottom","rt":null,"stimulus":"Stimuli_Rocks480/I_Rhyolite_08.png","response":null,"trial_type":"image-keyboard-response","trial_index":142,"plugin_version":"2.1.0","time_elapsed":11629678,"subject_id":"90788","group":"Group2","condition":"3_Rep","full_date":"2026-02-05T16:22:32.428Z","date":"2026-02-05","time":"16:22:32"},{"rt":null,"stimulus":"<p style=\"font-size: 50px; margin: 0; text-align: center;\">+</p>","response":null,"trial_type":"html-keyboard-response","trial_index":143,"plugin_version":"2.1.0","time_elapsed":11630681,"subject_id":"90788","group":"Group2","condition":"3_Rep","full_date":"2026-02-05T16:22:32.428Z","date":"2026-02-05","time":"16:22:32"},{"task":"memory_phase","broad_category":"M","image_png":"M_Quartzite_15.png","image_id":287,"category_name":"Quartzite","category":18,"distinct_rating":2.19,"distinct_type":"Bottom","rt":null,"stimulus":"Stimuli_Rocks480/M_Quartzite_15.png","response":null,"trial_type":"image-keyboard-response","trial_index":144,"plugin_version":"2.1.0","time_elapsed":11633183,"subject_id":"90788","group":"Group2","condition":"3_Rep","full_date":"2026-02-05T16:22:32.428Z","date":"2026-02-05","time":"16:22:32"},{"rt":null,"stimulus":"<p style=\"font-size: 50px; margin: 0; text-align: center;\">+</p>","response":null,"trial_type":"html-keyboard-response","trial_index":145,"plugin_version":"2.1.0","time_elapsed":11634186,"subject_id":"90788","group":"Group2","condition":"3_Rep","full_date":"2026-02-05T16:22:32.428Z","date":"2026-02-05","time":"16:22:32"},{"task":"memory_phase","broad_category":"I","image_png":"I_Peridotite_13.png","image_id":125,"category_name":"Peridotite","category":8,"distinct_rating":7.28,"distinct_type":"Top","rt":null,"stimulus":"Stimuli_Rocks480/I_Peridotite_13.png","response":null,"trial_type":"image-keyboard-response","trial_index":146,"plugin_version":"2.1.0","time_elapsed":11636688,"subject_id":"90788","group":"Group2","condition":"3_Rep","full_date":"2026-02-05T16:22:32.428Z","date":"2026-02-05","time":"16:22:32"},{"rt":null,"stimulus":"<p style=\"font-size: 50px; margin: 0; text-align: center;\">+</p>","response":null,"trial_type":"html-keyboard-response","trial_index":147,"plugin_version":"2.1.0","time_elapsed":11637691,"subject_id":"90788","group":"Group2","condition":"3_Rep","full_date":"2026-02-05T16:22:32.428Z","date":"2026-02-05","time":"16:22:32"},{"task":"memory_phase","broad_category":"I","image_png":"I_Diorite_01.png","image_id":33,"category_name":"Diorite","category":3,"distinct_rating":2.97,"distinct_type":"Bottom","rt":null,"stimulus":"Stimuli_Rocks480/I_Diorite_01.png","response":null,"trial_type":"image-keyboard-response","trial_index":148,"plugin_version":"2.1.0","time_elapsed":11640194,"subject_id":"90788","group":"Group2","condition":"3_Rep","full_date":"2026-02-05T16:22:32.428Z","date":"2026-02-05","time":"16:22:32"},{"rt":null,"stimulus":"<p style=\"font-size: 50px; margin: 0; text-align: center;\">+</p>","response":null,"trial_type":"html-keyboard-response","trial_index":149,"plugin_version":"2.1.0","time_elapsed":11641196,"subject_id":"90788","group":"Group2","condition":"3_Rep","full_date":"2026-02-05T16:22:32.428Z","date":"2026-02-05","time":"16:22:32"},{"task":"memory_phase","broad_category":"I","image_png":"I_Basalt_08.png","image_id":24,"category_name":"Basalt","category":2,"distinct_rating":2.31,"distinct_type":"Bottom","rt":null,"stimulus":"Stimuli_Rocks480/I_Basalt_08.png","response":null,"trial_type":"image-keyboard-response","trial_index":150,"plugin_version":"2.1.0","time_elapsed":11643700,"subject_id":"90788","group":"Group2","condition":"3_Rep","full_date":"2026-02-05T16:22:32.428Z","date":"2026-02-05","time":"16:22:32"},{"rt":null,"stimulus":"<p style=\"font-size: 50px; margin: 0; text-align: center;\">+</p>","response":null,"trial_type":"html-keyboard-response","trial_index":151,"plugin_version":"2.1.0","time_elapsed":11644702,"subject_id":"90788","group":"Group2","condition":"3_Rep","full_date":"2026-02-05T16:22:32.428Z","date":"2026-02-05","time":"16:22:32"},{"task":"memory_phase","broad_category":"S","image_png":"S_Sandstone_11.png","image_id":459,"category_name":"Sandstone","category":29,"distinct_rating":1.82,"distinct_type":"Bottom","rt":null,"stimulus":"Stimuli_Rocks480/S_Sandstone_11.png","response":null,"trial_type":"image-keyboard-response","trial_index":152,"plugin_version":"2.1.0","time_elapsed":11647205,"subject_id":"90788","group":"Group2","condition":"3_Rep","full_date":"2026-02-05T16:22:32.428Z","date":"2026-02-05","time":"16:22:32"},{"rt":null,"stimulus":"<p style=\"font-size: 50px; margin: 0; text-align: center;\">+</p>","response":null,"trial_type":"html-keyboard-response","trial_index":153,"plugin_version":"2.1.0","time_elapsed":11648208,"subject_id":"90788","group":"Group2","condition":"3_Rep","full_date":"2026-02-05T16:22:32.428Z","date":"2026-02-05","time":"16:22:32"},{"task":"memory_phase","broad_category":"I","image_png":"I_Andesite_09.png","image_id":9,"category_name":"Andesite","category":1,"distinct_rating":2.49,"distinct_type":"Bottom","rt":null,"stimulus":"Stimuli_Rocks480/I_Andesite_09.png","response":null,"trial_type":"image-keyboard-response","trial_index":154,"plugin_version":"2.1.0","time_elapsed":11650710,"subject_id":"90788","group":"Group2","condition":"3_Rep","full_date":"2026-02-05T16:22:32.428Z","date":"2026-02-05","time":"16:22:32"},{"rt":null,"stimulus":"<p style=\"font-size: 50px; margin: 0; text-align: center;\">+</p>","response":null,"trial_type":"html-keyboard-response","trial_index":155,"plugin_version":"2.1.0","time_elapsed":11651712,"subject_id":"90788","group":"Group2","condition":"3_Rep","full_date":"2026-02-05T16:22:32.428Z","date":"2026-02-05","time":"16:22:32"},{"task":"memory_phase","broad_category":"S","image_png":"S_Dolomite_07.png","image_id":391,"category_name":"Dolomite","category":25,"distinct_rating":1.73,"distinct_type":"Bottom","rt":null,"stimulus":"Stimuli_Rocks480/S_Dolomite_07.png","response":null,"trial_type":"image-keyboard-response","trial_index":156,"plugin_version":"2.1.0","time_elapsed":11654215,"subject_id":"90788","group":"Group2","condition":"3_Rep","full_date":"2026-02-05T16:22:32.428Z","date":"2026-02-05","time":"16:22:32"},{"rt":1031,"stimulus":"<p style=\"max-width: 760px; margin: auto; font-size: 35px; line-height: 1.5;\">\n                Press SPACE to continue study phase\n              </p>","response":" ","trial_type":"html-keyboard-response","trial_index":157,"plugin_version":"2.1.0","time_elapsed":11655247,"subject_id":"90788","group":"Group2","condition":"3_Rep","full_date":"2026-02-05T16:22:32.428Z","date":"2026-02-05","time":"16:22:32"},{"rt":null,"stimulus":"<p style=\"font-size: 50px; margin: 0; text-align: center;\">+</p>","response":null,"trial_type":"html-keyboard-response","trial_index":158,"plugin_version":"2.1.0","time_elapsed":11656249,"subject_id":"90788","group":"Group2","condition":"3_Rep","full_date":"2026-02-05T16:22:32.428Z","date":"2026-02-05","time":"16:22:32"},{"task":"memory_phase","broad_category":"M","image_png":"M_Phyllite_02.png","image_id":258,"category_name":"Phyllite","category":17,"distinct_rating":2.89,"distinct_type":"Bottom","rt":null,"stimulus":"Stimuli_Rocks480/M_Phyllite_02.png","response":null,"trial_type":"image-keyboard-response","trial_index":159,"plugin_version":"2.1.0","time_elapsed":11658753,"subject_id":"90788","group":"Group2","condition":"3_Rep","full_date":"2026-02-05T16:22:32.428Z","date":"2026-02-05","time":"16:22:32"},{"rt":null,"stimulus":"<p style=\"font-size: 50px; margin: 0; text-align: center;\">+</p>","response":null,"trial_type":"html-keyboard-response","trial_index":160,"plugin_version":"2.1.0","time_elapsed":11659755,"subject_id":"90788","group":"Group2","condition":"3_Rep","full_date":"2026-02-05T16:22:32.428Z","date":"2026-02-05","time":"16:22:32"},{"task":"memory_phase","broad_category":"I","image_png":"I_Pumice_13.png","image_id":141,"category_name":"Pumice","category":9,"distinct_rating":3.12,"distinct_type":"Bottom","rt":null,"stimulus":"Stimuli_Rocks480/I_Pumice_13.png","response":null,"trial_type":"image-keyboard-response","trial_index":161,"plugin_version":"2.1.0","time_elapsed":11662258,"subject_id":"90788","group":"Group2","condition":"3_Rep","full_date":"2026-02-05T16:22:32.428Z","date":"2026-02-05","time":"16:22:32"},{"rt":null,"stimulus":"<p style=\"font-size: 50px; margin: 0; text-align: center;\">+</p>","response":null,"trial_type":"html-keyboard-response","trial_index":162,"plugin_version":"2.1.0","time_elapsed":11663260,"subject_id":"90788","group":"Group2","condition":"3_Rep","full_date":"2026-02-05T16:22:32.428Z","date":"2026-02-05","time":"16:22:32"},{"task":"memory_phase","broad_category":"M","image_png":"M_Marble_03.png","image_id":227,"category_name":"Marble","category":15,"distinct_rating":2.67,"distinct_type":"Bottom","rt":null,"stimulus":"Stimuli_Rocks480/M_Marble_03.png","response":null,"trial_type":"image-keyboard-response","trial_index":163,"plugin_version":"2.1.0","time_elapsed":11665764,"subject_id":"90788","group":"Group2","condition":"3_Rep","full_date":"2026-02-05T16:22:32.428Z","date":"2026-02-05","time":"16:22:32"},{"rt":null,"stimulus":"<p style=\"font-size: 50px; margin: 0; text-align: center;\">+</p>","response":null,"trial_type":"html-keyboard-response","trial_index":164,"plugin_version":"2.1.0","time_elapsed":11666766,"subject_id":"90788","group":"Group2","condition":"3_Rep","full_date":"2026-02-05T16:22:32.428Z","date":"2026-02-05","time":"16:22:32"},{"task":"memory_phase","broad_category":"M","image_png":"M_Phyllite_13.png","image_id":269,"category_name":"Phyllite","category":17,"distinct_rating":2.8,"distinct_type":"Bottom","rt":null,"stimulus":"Stimuli_Rocks480/M_Phyllite_13.png","response":null,"trial_type":"image-keyboard-response","trial_index":165,"plugin_version":"2.1.0","time_elapsed":11669269,"subject_id":"90788","group":"Group2","condition":"3_Rep","full_date":"2026-02-05T16:22:32.428Z","date":"2026-02-05","time":"16:22:32"},{"rt":null,"stimulus":"<p style=\"font-size: 50px; margin: 0; text-align: center;\">+</p>","response":null,"trial_type":"html-keyboard-response","trial_index":166,"plugin_version":"2.1.0","time_elapsed":11670272,"subject_id":"90788","group":"Group2","condition":"3_Rep","full_date":"2026-02-05T16:22:32.428Z","date":"2026-02-05","time":"16:22:32"},{"task":"memory_phase","broad_category":"I","image_png":"I_Pumice_01.png","image_id":129,"category_name":"Pumice","category":9,"distinct_rating":3.25,"distinct_type":"Bottom","rt":null,"stimulus":"Stimuli_Rocks480/I_Pumice_01.png","response":null,"trial_type":"image-keyboard-response","trial_index":167,"plugin_version":"2.1.0","time_elapsed":11672774,"subject_id":"90788","group":"Group2","condition":"3_Rep","full_date":"2026-02-05T16:22:32.428Z","date":"2026-02-05","time":"16:22:32"},{"rt":null,"stimulus":"<p style=\"font-size: 50px; margin: 0; text-align: center;\">+</p>","response":null,"trial_type":"html-keyboard-response","trial_index":168,"plugin_version":"2.1.0","time_elapsed":11673776,"subject_id":"90788","group":"Group2","condition":"3_Rep","full_date":"2026-02-05T16:22:32.428Z","date":"2026-02-05","time":"16:22:32"},{"task":"memory_phase","broad_category":"I","image_png":"I_Andesite_04.png","image_id":4,"category_name":"Andesite","category":1,"distinct_rating":3.18,"distinct_type":"Bottom","rt":null,"stimulus":"Stimuli_Rocks480/I_Andesite_04.png","response":null,"trial_type":"image-keyboard-response","trial_index":169,"plugin_version":"2.1.0","time_elapsed":11676279,"subject_id":"90788","group":"Group2","condition":"3_Rep","full_date":"2026-02-05T16:22:32.428Z","date":"2026-02-05","time":"16:22:32"},{"rt":null,"stimulus":"<p style=\"font-size: 50px; margin: 0; text-align: center;\">+</p>","response":null,"trial_type":"html-keyboard-response","trial_index":170,"plugin_version":"2.1.0","time_elapsed":11677281,"subject_id":"90788","group":"Group2","condition":"3_Rep","full_date":"2026-02-05T16:22:32.428Z","date":"2026-02-05","time":"16:22:32"},{"task":"memory_phase","broad_category":"S","image_png":"S_Shale_02.png","image_id":466,"category_name":"Shale","category":30,"distinct_rating":2.9,"distinct_type":"Bottom","rt":null,"stimulus":"Stimuli_Rocks480/S_Shale_02.png","response":null,"trial_type":"image-keyboard-response","trial_index":171,"plugin_version":"2.1.0","time_elapsed":11679784,"subject_id":"90788","group":"Group2","condition":"3_Rep","full_date":"2026-02-05T16:22:32.428Z","date":"2026-02-05","time":"16:22:32"},{"rt":null,"stimulus":"<p style=\"font-size: 50px; margin: 0; text-align: center;\">+</p>","response":null,"trial_type":"html-keyboard-response","trial_index":172,"plugin_version":"2.1.0","time_elapsed":11680787,"subject_id":"90788","group":"Group2","condition":"3_Rep","full_date":"2026-02-05T16:22:32.428Z","date":"2026-02-05","time":"16:22:32"},{"task":"memory_phase","broad_category":"M","image_png":"M_Quartzite_12.png","image_id":284,"category_name":"Quartzite","category":18,"distinct_rating":1.92,"distinct_type":"Bottom","rt":null,"stimulus":"Stimuli_Rocks480/M_Quartzite_12.png","response":null,"trial_type":"image-keyboard-response","trial_index":173,"plugin_version":"2.1.0","time_elapsed":11683289,"subject_id":"90788","group":"Group2","condition":"3_Rep","full_date":"2026-02-05T16:22:32.428Z","date":"2026-02-05","time":"16:22:32"},{"rt":null,"stimulus":"<p style=\"font-size: 50px; margin: 0; text-align: center;\">+</p>","response":null,"trial_type":"html-keyboard-response","trial_index":174,"plugin_version":"2.1.0","time_elapsed":11684292,"subject_id":"90788","group":"Group2","condition":"3_Rep","full_date":"2026-02-05T16:22:32.428Z","date":"2026-02-05","time":"16:22:32"},{"task":"memory_phase","broad_category":"M","image_png":"M_Gneiss_14.png","image_id":206,"category_name":"Gneiss","category":13,"distinct_rating":3.41,"distinct_type":"Bottom","rt":null,"stimulus":"Stimuli_Rocks480/M_Gneiss_14.png","response":null,"trial_type":"image-keyboard-response","trial_index":175,"plugin_version":"2.1.0","time_elapsed":11686794,"subject_id":"90788","group":"Group2","condition":"3_Rep","full_date":"2026-02-05T16:22:32.428Z","date":"2026-02-05","time":"16:22:32"},{"rt":null,"stimulus":"<p style=\"font-size: 50px; margin: 0; text-align: center;\">+</p>","response":null,"trial_type":"html-keyboard-response","trial_index":176,"plugin_version":"2.1.0","time_elapsed":11687797,"subject_id":"90788","group":"Group2","condition":"3_Rep","full_date":"2026-02-05T16:22:32.428Z","date":"2026-02-05","time":"16:22:32"},{"task":"memory_phase","broad_category":"S","image_png":"S_Chert_13.png","image_id":365,"category_name":"Chert","category":23,"distinct_rating":6.57,"distinct_type":"Top","rt":null,"stimulus":"Stimuli_Rocks480/S_Chert_13.png","response":null,"trial_type":"image-keyboard-response","trial_index":177,"plugin_version":"2.1.0","time_elapsed":11690300,"subject_id":"90788","group":"Group2","condition":"3_Rep","full_date":"2026-02-05T16:22:32.428Z","date":"2026-02-05","time":"16:22:32"},{"rt":null,"stimulus":"<p style=\"font-size: 50px; margin: 0; text-align: center;\">+</p>","response":null,"trial_type":"html-keyboard-response","trial_index":178,"plugin_version":"2.1.0","time_elapsed":11691303,"subject_id":"90788","group":"Group2","condition":"3_Rep","full_date":"2026-02-05T16:22:32.428Z","date":"2026-02-05","time":"16:22:32"},{"task":"memory_phase","broad_category":"I","image_png":"I_Pegmatite_03.png","image_id":99,"category_name":"Pegmatite","category":7,"distinct_rating":7.24,"distinct_type":"Top","rt":null,"stimulus":"Stimuli_Rocks480/I_Pegmatite_03.png","response":null,"trial_type":"image-keyboard-response","trial_index":179,"plugin_version":"2.1.0","time_elapsed":11693806,"subject_id":"90788","group":"Group2","condition":"3_Rep","full_date":"2026-02-05T16:22:32.428Z","date":"2026-02-05","time":"16:22:32"},{"rt":null,"stimulus":"<p style=\"font-size: 50px; margin: 0; text-align: center;\">+</p>","response":null,"trial_type":"html-keyboard-response","trial_index":180,"plugin_version":"2.1.0","time_elapsed":11694808,"subject_id":"90788","group":"Group2","condition":"3_Rep","full_date":"2026-02-05T16:22:32.428Z","date":"2026-02-05","time":"16:22:32"},{"task":"memory_phase","broad_category":"I","image_png":"I_Pumice_14.png","image_id":142,"category_name":"Pumice","category":9,"distinct_rating":3.22,"distinct_type":"Bottom","rt":null,"stimulus":"Stimuli_Rocks480/I_Pumice_14.png","response":null,"trial_type":"image-keyboard-response","trial_index":181,"plugin_version":"2.1.0","time_elapsed":11697311,"subject_id":"90788","group":"Group2","condition":"3_Rep","full_date":"2026-02-05T16:22:32.428Z","date":"2026-02-05","time":"16:22:32"},{"rt":null,"stimulus":"<p style=\"font-size: 50px; margin: 0; text-align: center;\">+</p>","response":null,"trial_type":"html-keyboard-response","trial_index":182,"plugin_version":"2.1.0","time_elapsed":11698313,"subject_id":"90788","group":"Group2","condition":"3_Rep","full_date":"2026-02-05T16:22:32.428Z","date":"2026-02-05","time":"16:22:32"},{"task":"memory_phase","broad_category":"S","image_png":"S_Shale_03.png","image_id":467,"category_name":"Shale","category":30,"distinct_rating":1.95,"distinct_type":"Bottom","rt":null,"stimulus":"Stimuli_Rocks480/S_Shale_03.png","response":null,"trial_type":"image-keyboard-response","trial_index":183,"plugin_version":"2.1.0","time_elapsed":11700817,"subject_id":"90788","group":"Group2","condition":"3_Rep","full_date":"2026-02-05T16:22:32.428Z","date":"2026-02-05","time":"16:22:32"},{"rt":null,"stimulus":"<p style=\"font-size: 50px; margin: 0; text-align: center;\">+</p>","response":null,"trial_type":"html-keyboard-response","trial_index":184,"plugin_version":"2.1.0","time_elapsed":11701819,"subject_id":"90788","group":"Group2","condition":"3_Rep","full_date":"2026-02-05T16:22:32.428Z","date":"2026-02-05","time":"16:22:32"},{"task":"memory_phase","broad_category":"M","image_png":"M_Gneiss_15.png","image_id":207,"category_name":"Gneiss","category":13,"distinct_rating":3.11,"distinct_type":"Bottom","rt":null,"stimulus":"Stimuli_Rocks480/M_Gneiss_15.png","response":null,"trial_type":"image-keyboard-response","trial_index":185,"plugin_version":"2.1.0","time_elapsed":11704322,"subject_id":"90788","group":"Group2","condition":"3_Rep","full_date":"2026-02-05T16:22:32.428Z","date":"2026-02-05","time":"16:22:32"},{"rt":null,"stimulus":"<p style=\"font-size: 50px; margin: 0; text-align: center;\">+</p>","response":null,"trial_type":"html-keyboard-response","trial_index":186,"plugin_version":"2.1.0","time_elapsed":11705325,"subject_id":"90788","group":"Group2","condition":"3_Rep","full_date":"2026-02-05T16:22:32.428Z","date":"2026-02-05","time":"16:22:32"},{"task":"memory_phase","broad_category":"I","image_png":"I_Basalt_10.png","image_id":26,"category_name":"Basalt","category":2,"distinct_rating":2.76,"distinct_type":"Bottom","rt":null,"stimulus":"Stimuli_Rocks480/I_Basalt_10.png","response":null,"trial_type":"image-keyboard-response","trial_index":187,"plugin_version":"2.1.0","time_elapsed":11707828,"subject_id":"90788","group":"Group2","condition":"3_Rep","full_date":"2026-02-05T16:22:32.428Z","date":"2026-02-05","time":"16:22:32"},{"rt":null,"stimulus":"<p style=\"font-size: 50px; margin: 0; text-align: center;\">+</p>","response":null,"trial_type":"html-keyboard-response","trial_index":188,"plugin_version":"2.1.0","time_elapsed":11708830,"subject_id":"90788","group":"Group2","condition":"3_Rep","full_date":"2026-02-05T16:22:32.428Z","date":"2026-02-05","time":"16:22:32"},{"task":"memory_phase","broad_category":"S","image_png":"S_Conglomerate_14.png","image_id":382,"category_name":"Conglomerate","category":24,"distinct_rating":6.86,"distinct_type":"Top","rt":null,"stimulus":"Stimuli_Rocks480/S_Conglomerate_14.png","response":null,"trial_type":"image-keyboard-response","trial_index":189,"plugin_version":"2.1.0","time_elapsed":11711333,"subject_id":"90788","group":"Group2","condition":"3_Rep","full_date":"2026-02-05T16:22:32.428Z","date":"2026-02-05","time":"16:22:32"},{"rt":null,"stimulus":"<p style=\"font-size: 50px; margin: 0; text-align: center;\">+</p>","response":null,"trial_type":"html-keyboard-response","trial_index":190,"plugin_version":"2.1.0","time_elapsed":11712336,"subject_id":"90788","group":"Group2","condition":"3_Rep","full_date":"2026-02-05T16:22:32.428Z","date":"2026-02-05","time":"16:22:32"},{"task":"memory_phase","broad_category":"M","image_png":"M_Marble_14.png","image_id":238,"category_name":"Marble","category":15,"distinct_rating":3.31,"distinct_type":"Bottom","rt":null,"stimulus":"Stimuli_Rocks480/M_Marble_14.png","response":null,"trial_type":"image-keyboard-response","trial_index":191,"plugin_version":"2.1.0","time_elapsed":11714839,"subject_id":"90788","group":"Group2","condition":"3_Rep","full_date":"2026-02-05T16:22:32.428Z","date":"2026-02-05","time":"16:22:32"},{"rt":null,"stimulus":"<p style=\"font-size: 50px; margin: 0; text-align: center;\">+</p>","response":null,"trial_type":"html-keyboard-response","trial_index":192,"plugin_version":"2.1.0","time_elapsed":11715841,"subject_id":"90788","group":"Group2","condition":"3_Rep","full_date":"2026-02-05T16:22:32.428Z","date":"2026-02-05","time":"16:22:32"},{"task":"memory_phase","broad_category":"I","image_png":"I_Diorite_15.png","image_id":47,"category_name":"Diorite","category":3,"distinct_rating":3.05,"distinct_type":"Bottom","rt":null,"stimulus":"Stimuli_Rocks480/I_Diorite_15.png","response":null,"trial_type":"image-keyboard-response","trial_index":193,"plugin_version":"2.1.0","time_elapsed":11718344,"subject_id":"90788","group":"Group2","condition":"3_Rep","full_date":"2026-02-05T16:22:32.428Z","date":"2026-02-05","time":"16:22:32"},{"rt":null,"stimulus":"<p style=\"font-size: 50px; margin: 0; text-align: center;\">+</p>","response":null,"trial_type":"html-keyboard-response","trial_index":194,"plugin_version":"2.1.0","time_elapsed":11719346,"subject_id":"90788","group":"Group2","condition":"3_Rep","full_date":"2026-02-05T16:22:32.428Z","date":"2026-02-05","time":"16:22:32"},{"task":"memory_phase","broad_category":"S","image_png":"S_Rock Salt_15.png","image_id":447,"category_name":"Rock Salt","category":28,"distinct_rating":7.79,"distinct_type":"Top","rt":null,"stimulus":"Stimuli_Rocks480/S_Rock Salt_15.png","response":null,"trial_type":"image-keyboard-response","trial_index":195,"plugin_version":"2.1.0","time_elapsed":11721849,"subject_id":"90788","group":"Group2","condition":"3_Rep","full_date":"2026-02-05T16:22:32.428Z","date":"2026-02-05","time":"16:22:32"},{"rt":null,"stimulus":"<p style=\"font-size: 50px; margin: 0; text-align: center;\">+</p>","response":null,"trial_type":"html-keyboard-response","trial_index":196,"plugin_version":"2.1.0","time_elapsed":11722852,"subject_id":"90788","group":"Group2","condition":"3_Rep","full_date":"2026-02-05T16:22:32.428Z","date":"2026-02-05","time":"16:22:32"},{"task":"memory_phase","broad_category":"S","image_png":"S_Dolomite_16.png","image_id":400,"category_name":"Dolomite","category":25,"distinct_rating":1.71,"distinct_type":"Bottom","rt":null,"stimulus":"Stimuli_Rocks480/S_Dolomite_16.png","response":null,"trial_type":"image-keyboard-response","trial_index":197,"plugin_version":"2.1.0","time_elapsed":11725355,"subject_id":"90788","group":"Group2","condition":"3_Rep","full_date":"2026-02-05T16:22:32.428Z","date":"2026-02-05","time":"16:22:32"},{"rt":null,"stimulus":"<p style=\"font-size: 50px; margin: 0; text-align: center;\">+</p>","response":null,"trial_type":"html-keyboard-response","trial_index":198,"plugin_version":"2.1.0","time_elapsed":11726358,"subject_id":"90788","group":"Group2","condition":"3_Rep","full_date":"2026-02-05T16:22:32.428Z","date":"2026-02-05","time":"16:22:32"},{"task":"memory_phase","broad_category":"I","image_png":"I_Diorite_10.png","image_id":42,"category_name":"Diorite","category":3,"distinct_rating":2.84,"distinct_type":"Bottom","rt":null,"stimulus":"Stimuli_Rocks480/I_Diorite_10.png","response":null,"trial_type":"image-keyboard-response","trial_index":199,"plugin_version":"2.1.0","time_elapsed":11728861,"subject_id":"90788","group":"Group2","condition":"3_Rep","full_date":"2026-02-05T16:22:32.428Z","date":"2026-02-05","time":"16:22:32"},{"rt":null,"stimulus":"<p style=\"font-size: 50px; margin: 0; text-align: center;\">+</p>","response":null,"trial_type":"html-keyboard-response","trial_index":200,"plugin_version":"2.1.0","time_elapsed":11729863,"subject_id":"90788","group":"Group2","condition":"3_Rep","full_date":"2026-02-05T16:22:32.428Z","date":"2026-02-05","time":"16:22:32"},{"task":"memory_phase","broad_category":"M","image_png":"M_Slate_10.png","image_id":314,"category_name":"Slate","category":20,"distinct_rating":1.94,"distinct_type":"Bottom","rt":null,"stimulus":"Stimuli_Rocks480/M_Slate_10.png","response":null,"trial_type":"image-keyboard-response","trial_index":201,"plugin_version":"2.1.0","time_elapsed":11732366,"subject_id":"90788","group":"Group2","condition":"3_Rep","full_date":"2026-02-05T16:22:32.428Z","date":"2026-02-05","time":"16:22:32"},{"rt":null,"stimulus":"<p style=\"font-size: 50px; margin: 0; text-align: center;\">+</p>","response":null,"trial_type":"html-keyboard-response","trial_index":202,"plugin_version":"2.1.0","time_elapsed":11733369,"subject_id":"90788","group":"Group2","condition":"3_Rep","full_date":"2026-02-05T16:22:32.428Z","date":"2026-02-05","time":"16:22:32"},{"task":"memory_phase","broad_category":"S","image_png":"S_Sandstone_04.png","image_id":452,"category_name":"Sandstone","category":29,"distinct_rating":1.8,"distinct_type":"Bottom","rt":null,"stimulus":"Stimuli_Rocks480/S_Sandstone_04.png","response":null,"trial_type":"image-keyboard-response","trial_index":203,"plugin_version":"2.1.0","time_elapsed":11735872,"subject_id":"90788","group":"Group2","condition":"3_Rep","full_date":"2026-02-05T16:22:32.428Z","date":"2026-02-05","time":"16:22:32"},{"rt":null,"stimulus":"<p style=\"font-size: 50px; margin: 0; text-align: center;\">+</p>","response":null,"trial_type":"html-keyboard-response","trial_index":204,"plugin_version":"2.1.0","time_elapsed":11736874,"subject_id":"90788","group":"Group2","condition":"3_Rep","full_date":"2026-02-05T16:22:32.428Z","date":"2026-02-05","time":"16:22:32"},{"task":"memory_phase","broad_category":"I","image_png":"I_Gabbro_14.png","image_id":62,"category_name":"Gabbro","category":4,"distinct_rating":2.95,"distinct_type":"Bottom","rt":null,"stimulus":"Stimuli_Rocks480/I_Gabbro_14.png","response":null,"trial_type":"image-keyboard-response","trial_index":205,"plugin_version":"2.1.0","time_elapsed":11739377,"subject_id":"90788","group":"Group2","condition":"3_Rep","full_date":"2026-02-05T16:22:32.428Z","date":"2026-02-05","time":"16:22:32"},{"rt":null,"stimulus":"<p style=\"font-size: 50px; margin: 0; text-align: center;\">+</p>","response":null,"trial_type":"html-keyboard-response","trial_index":206,"plugin_version":"2.1.0","time_elapsed":11740379,"subject_id":"90788","group":"Group2","condition":"3_Rep","full_date":"2026-02-05T16:22:32.428Z","date":"2026-02-05","time":"16:22:32"},{"task":"memory_phase","broad_category":"I","image_png":"I_Obsidian_06.png","image_id":86,"category_name":"Obsidian","category":6,"distinct_rating":8.01,"distinct_type":"Top","rt":null,"stimulus":"Stimuli_Rocks480/I_Obsidian_06.png","response":null,"trial_type":"image-keyboard-response","trial_index":207,"plugin_version":"2.1.0","time_elapsed":11742883,"subject_id":"90788","group":"Group2","condition":"3_Rep","full_date":"2026-02-05T16:22:32.428Z","date":"2026-02-05","time":"16:22:32"},{"rt":6159,"stimulus":"<p style=\"max-width: 760px; margin: auto; font-size: 35px; line-height: 1.5;\">\n                You have completed 2 study phases. \n                Now, we'll show you all the images again 1 more time.\n                <br><br>Press SPACE to continue\n              </p>","response":" ","trial_type":"html-keyboard-response","trial_index":208,"plugin_version":"2.1.0","time_elapsed":11749043,"subject_id":"90788","group":"Group2","condition":"3_Rep","full_date":"2026-02-05T16:22:32.428Z","date":"2026-02-05","time":"16:22:32"},{"rt":null,"stimulus":"<p style=\"font-size: 50px; margin: 0; text-align: center;\">+</p>","response":null,"trial_type":"html-keyboard-response","trial_index":209,"plugin_version":"2.1.0","time_elapsed":11750045,"subject_id":"90788","group":"Group2","condition":"3_Rep","full_date":"2026-02-05T16:22:32.428Z","date":"2026-02-05","time":"16:22:32"},{"task":"memory_phase","broad_category":"I","image_png":"I_Gabbro_12.png","image_id":60,"category_name":"Gabbro","category":4,"distinct_rating":2.6,"distinct_type":"Bottom","rt":null,"stimulus":"Stimuli_Rocks480/I_Gabbro_12.png","response":null,"trial_type":"image-keyboard-response","trial_index":210,"plugin_version":"2.1.0","time_elapsed":11752549,"subject_id":"90788","group":"Group2","condition":"3_Rep","full_date":"2026-02-05T16:22:32.428Z","date":"2026-02-05","time":"16:22:32"},{"rt":null,"stimulus":"<p style=\"font-size: 50px; margin: 0; text-align: center;\">+</p>","response":null,"trial_type":"html-keyboard-response","trial_index":211,"plugin_version":"2.1.0","time_elapsed":11753551,"subject_id":"90788","group":"Group2","condition":"3_Rep","full_date":"2026-02-05T16:22:32.428Z","date":"2026-02-05","time":"16:22:32"},{"task":"memory_phase","broad_category":"S","image_png":"S_Shale_07.png","image_id":471,"category_name":"Shale","category":30,"distinct_rating":2.73,"distinct_type":"Bottom","rt":null,"stimulus":"Stimuli_Rocks480/S_Shale_07.png","response":null,"trial_type":"image-keyboard-response","trial_index":212,"plugin_version":"2.1.0","time_elapsed":11756054,"subject_id":"90788","group":"Group2","condition":"3_Rep","full_date":"2026-02-05T16:22:32.428Z","date":"2026-02-05","time":"16:22:32"},{"rt":null,"stimulus":"<p style=\"font-size: 50px; margin: 0; text-align: center;\">+</p>","response":null,"trial_type":"html-keyboard-response","trial_index":213,"plugin_version":"2.1.0","time_elapsed":11757056,"subject_id":"90788","group":"Group2","condition":"3_Rep","full_date":"2026-02-05T16:22:32.428Z","date":"2026-02-05","time":"16:22:32"},{"task":"memory_phase","broad_category":"S","image_png":"S_Shale_02.png","image_id":466,"category_name":"Shale","category":30,"distinct_rating":2.9,"distinct_type":"Bottom","rt":null,"stimulus":"Stimuli_Rocks480/S_Shale_02.png","response":null,"trial_type":"image-keyboard-response","trial_index":214,"plugin_version":"2.1.0","time_elapsed":11759559,"subject_id":"90788","group":"Group2","condition":"3_Rep","full_date":"2026-02-05T16:22:32.428Z","date":"2026-02-05","time":"16:22:32"},{"rt":null,"stimulus":"<p style=\"font-size: 50px; margin: 0; text-align: center;\">+</p>","response":null,"trial_type":"html-keyboard-response","trial_index":215,"plugin_version":"2.1.0","time_elapsed":11760562,"subject_id":"90788","group":"Group2","condition":"3_Rep","full_date":"2026-02-05T16:22:32.428Z","date":"2026-02-05","time":"16:22:32"},{"task":"memory_phase","broad_category":"I","image_png":"I_Basalt_10.png","image_id":26,"category_name":"Basalt","category":2,"distinct_rating":2.76,"distinct_type":"Bottom","rt":null,"stimulus":"Stimuli_Rocks480/I_Basalt_10.png","response":null,"trial_type":"image-keyboard-response","trial_index":216,"plugin_version":"2.1.0","time_elapsed":11763063,"subject_id":"90788","group":"Group2","condition":"3_Rep","full_date":"2026-02-05T16:22:32.428Z","date":"2026-02-05","time":"16:22:32"},{"rt":null,"stimulus":"<p style=\"font-size: 50px; margin: 0; text-align: center;\">+</p>","response":null,"trial_type":"html-keyboard-response","trial_index":217,"plugin_version":"2.1.0","time_elapsed":11764066,"subject_id":"90788","group":"Group2","condition":"3_Rep","full_date":"2026-02-05T16:22:32.428Z","date":"2026-02-05","time":"16:22:32"},{"task":"memory_phase","broad_category":"S","image_png":"S_Rock Salt_13.png","image_id":445,"category_name":"Rock Salt","category":28,"distinct_rating":7.58,"distinct_type":"Top","rt":null,"stimulus":"Stimuli_Rocks480/S_Rock Salt_13.png","response":null,"trial_type":"image-keyboard-response","trial_index":218,"plugin_version":"2.1.0","time_elapsed":11766569,"subject_id":"90788","group":"Group2","condition":"3_Rep","full_date":"2026-02-05T16:22:32.428Z","date":"2026-02-05","time":"16:22:32"},{"rt":null,"stimulus":"<p style=\"font-size: 50px; margin: 0; text-align: center;\">+</p>","response":null,"trial_type":"html-keyboard-response","trial_index":219,"plugin_version":"2.1.0","time_elapsed":11767571,"subject_id":"90788","group":"Group2","condition":"3_Rep","full_date":"2026-02-05T16:22:32.428Z","date":"2026-02-05","time":"16:22:32"},{"task":"memory_phase","broad_category":"M","image_png":"M_Marble_14.png","image_id":238,"category_name":"Marble","category":15,"distinct_rating":3.31,"distinct_type":"Bottom","rt":null,"stimulus":"Stimuli_Rocks480/M_Marble_14.png","response":null,"trial_type":"image-keyboard-response","trial_index":220,"plugin_version":"2.1.0","time_elapsed":11770073,"subject_id":"90788","group":"Group2","condition":"3_Rep","full_date":"2026-02-05T16:22:32.428Z","date":"2026-02-05","time":"16:22:32"},{"rt":null,"stimulus":"<p style=\"font-size: 50px; margin: 0; text-align: center;\">+</p>","response":null,"trial_type":"html-keyboard-response","trial_index":221,"plugin_version":"2.1.0","time_elapsed":11771075,"subject_id":"90788","group":"Group2","condition":"3_Rep","full_date":"2026-02-05T16:22:32.428Z","date":"2026-02-05","time":"16:22:32"},{"task":"memory_phase","broad_category":"I","image_png":"I_Rhyolite_10.png","image_id":154,"category_name":"Rhyolite","category":10,"distinct_rating":2.88,"distinct_type":"Bottom","rt":null,"stimulus":"Stimuli_Rocks480/I_Rhyolite_10.png","response":null,"trial_type":"image-keyboard-response","trial_index":222,"plugin_version":"2.1.0","time_elapsed":11773577,"subject_id":"90788","group":"Group2","condition":"3_Rep","full_date":"2026-02-05T16:22:32.428Z","date":"2026-02-05","time":"16:22:32"},{"rt":null,"stimulus":"<p style=\"font-size: 50px; margin: 0; text-align: center;\">+</p>","response":null,"trial_type":"html-keyboard-response","trial_index":223,"plugin_version":"2.1.0","time_elapsed":11774580,"subject_id":"90788","group":"Group2","condition":"3_Rep","full_date":"2026-02-05T16:22:32.428Z","date":"2026-02-05","time":"16:22:32"},{"task":"memory_phase","broad_category":"M","image_png":"M_Gneiss_15.png","image_id":207,"category_name":"Gneiss","category":13,"distinct_rating":3.11,"distinct_type":"Bottom","rt":null,"stimulus":"Stimuli_Rocks480/M_Gneiss_15.png","response":null,"trial_type":"image-keyboard-response","trial_index":224,"plugin_version":"2.1.0","time_elapsed":11777083,"subject_id":"90788","group":"Group2","condition":"3_Rep","full_date":"2026-02-05T16:22:32.428Z","date":"2026-02-05","time":"16:22:32"},{"rt":null,"stimulus":"<p style=\"font-size: 50px; margin: 0; text-align: center;\">+</p>","response":null,"trial_type":"html-keyboard-response","trial_index":225,"plugin_version":"2.1.0","time_elapsed":11778086,"subject_id":"90788","group":"Group2","condition":"3_Rep","full_date":"2026-02-05T16:22:32.428Z","date":"2026-02-05","time":"16:22:32"},{"task":"memory_phase","broad_category":"S","image_png":"S_Chert_13.png","image_id":365,"category_name":"Chert","category":23,"distinct_rating":6.57,"distinct_type":"Top","rt":null,"stimulus":"Stimuli_Rocks480/S_Chert_13.png","response":null,"trial_type":"image-keyboard-response","trial_index":226,"plugin_version":"2.1.0","time_elapsed":11780588,"subject_id":"90788","group":"Group2","condition":"3_Rep","full_date":"2026-02-05T16:22:32.428Z","date":"2026-02-05","time":"16:22:32"},{"rt":null,"stimulus":"<p style=\"font-size: 50px; margin: 0; text-align: center;\">+</p>","response":null,"trial_type":"html-keyboard-response","trial_index":227,"plugin_version":"2.1.0","time_elapsed":11781590,"subject_id":"90788","group":"Group2","condition":"3_Rep","full_date":"2026-02-05T16:22:32.428Z","date":"2026-02-05","time":"16:22:32"},{"task":"memory_phase","broad_category":"S","image_png":"S_Rock Salt_15.png","image_id":447,"category_name":"Rock Salt","category":28,"distinct_rating":7.79,"distinct_type":"Top","rt":null,"stimulus":"Stimuli_Rocks480/S_Rock Salt_15.png","response":null,"trial_type":"image-keyboard-response","trial_index":228,"plugin_version":"2.1.0","time_elapsed":11784092,"subject_id":"90788","group":"Group2","condition":"3_Rep","full_date":"2026-02-05T16:22:32.428Z","date":"2026-02-05","time":"16:22:32"},{"rt":null,"stimulus":"<p style=\"font-size: 50px; margin: 0; text-align: center;\">+</p>","response":null,"trial_type":"html-keyboard-response","trial_index":229,"plugin_version":"2.1.0","time_elapsed":11785094,"subject_id":"90788","group":"Group2","condition":"3_Rep","full_date":"2026-02-05T16:22:32.428Z","date":"2026-02-05","time":"16:22:32"},{"task":"memory_phase","broad_category":"I","image_png":"I_Basalt_08.png","image_id":24,"category_name":"Basalt","category":2,"distinct_rating":2.31,"distinct_type":"Bottom","rt":null,"stimulus":"Stimuli_Rocks480/I_Basalt_08.png","response":null,"trial_type":"image-keyboard-response","trial_index":230,"plugin_version":"2.1.0","time_elapsed":11787597,"subject_id":"90788","group":"Group2","condition":"3_Rep","full_date":"2026-02-05T16:22:32.428Z","date":"2026-02-05","time":"16:22:32"},{"rt":null,"stimulus":"<p style=\"font-size: 50px; margin: 0; text-align: center;\">+</p>","response":null,"trial_type":"html-keyboard-response","trial_index":231,"plugin_version":"2.1.0","time_elapsed":11788600,"subject_id":"90788","group":"Group2","condition":"3_Rep","full_date":"2026-02-05T16:22:32.428Z","date":"2026-02-05","time":"16:22:32"},{"task":"memory_phase","broad_category":"M","image_png":"M_Gneiss_14.png","image_id":206,"category_name":"Gneiss","category":13,"distinct_rating":3.41,"distinct_type":"Bottom","rt":null,"stimulus":"Stimuli_Rocks480/M_Gneiss_14.png","response":null,"trial_type":"image-keyboard-response","trial_index":232,"plugin_version":"2.1.0","time_elapsed":11791103,"subject_id":"90788","group":"Group2","condition":"3_Rep","full_date":"2026-02-05T16:22:32.428Z","date":"2026-02-05","time":"16:22:32"},{"rt":null,"stimulus":"<p style=\"font-size: 50px; margin: 0; text-align: center;\">+</p>","response":null,"trial_type":"html-keyboard-response","trial_index":233,"plugin_version":"2.1.0","time_elapsed":11792106,"subject_id":"90788","group":"Group2","condition":"3_Rep","full_date":"2026-02-05T16:22:32.428Z","date":"2026-02-05","time":"16:22:32"},{"task":"memory_phase","broad_category":"M","image_png":"M_Slate_10.png","image_id":314,"category_name":"Slate","category":20,"distinct_rating":1.94,"distinct_type":"Bottom","rt":null,"stimulus":"Stimuli_Rocks480/M_Slate_10.png","response":null,"trial_type":"image-keyboard-response","trial_index":234,"plugin_version":"2.1.0","time_elapsed":11794609,"subject_id":"90788","group":"Group2","condition":"3_Rep","full_date":"2026-02-05T16:22:32.428Z","date":"2026-02-05","time":"16:22:32"},{"rt":null,"stimulus":"<p style=\"font-size: 50px; margin: 0; text-align: center;\">+</p>","response":nu