[{"width":1440,"height":812,"webaudio":true,"browser":"chrome","browser_version":"143.0.0","mobile":false,"os":"Mac OS","fullscreen":true,"vsync_rate":60.1,"webcam":true,"microphone":true,"trial_type":"browser-check","trial_index":0,"plugin_version":"2.1.0","time_elapsed":1005,"subject_id":"91991","group":"Group2","condition":"3_Rep","full_date":"2026-02-28T00:12:26.782Z","date":"2026-02-28","time":"00:12:26"},{"success":true,"timeout":false,"failed_images":[],"failed_audio":[],"failed_video":[],"trial_type":"preload","trial_index":1,"plugin_version":"2.1.0","time_elapsed":3283,"subject_id":"91991","group":"Group2","condition":"3_Rep","full_date":"2026-02-28T00:12:26.782Z","date":"2026-02-28","time":"00:12:26"},{"rt":5073,"url":"SONA_consent_memorability.html","trial_type":"external-html","trial_index":2,"plugin_version":"2.1.0","time_elapsed":8404,"subject_id":"91991","group":"Group2","condition":"3_Rep","full_date":"2026-02-28T00:12:26.782Z","date":"2026-02-28","time":"00:12:26"},{"success":true,"rt":1046,"trial_type":"fullscreen","trial_index":3,"plugin_version":"2.1.0","time_elapsed":10453,"subject_id":"91991","group":"Group2","condition":"3_Rep","full_date":"2026-02-28T00:12:26.782Z","date":"2026-02-28","time":"00:12:26"},{"rt":1345,"stimulus":"<div style=\"max-width: 760px; margin: auto; font-size: 20px; line-height: 1.5;\">\n      <h1 style=\"text-align:center; font-size: 30px;\">Instructions</h1>\n      <p>\n        Welcome to the study on <b>visual memory</b>. This experiment consists of <b>two phases</b>: \n        a <b>study phase</b> and a <b>test phase</b>.\n      </p>\n      <p>\n        In the study phase, you will see a series of rock images along with their category labels.\n        The images will appear one at a time.\n        <b>Your task</b> is to learn the categories to which the rock images belong \n        and to remember each image as accurately as possible.\n      </p> \n      <p>\n        Note that we will repeat the study phase <b>3 times</b>, \n             so you will have multiple opportunities to see and remember each image.\n      </p>\n      <p>\n        After the study phase, <b>your memory will be tested</b>. \n        Additional instructions for the test phase will be provided at that time.\n      </p>\n      <p>\n        If your computer has multiple <b>language settings</b> (e.g., English and another language),\n        please make sure it is set to English before starting.\n      </p>\n      <p>\n        You can track your progress using the <b>completion bar</b> at the top of the screen. \n        Please note that the bar will refresh when the test phase begins \n        to give you an accurate sense of your progress in both phases.\n      </p> \n      <p>\n        Press the button below when you are ready to begin.\n      </p>\n    </div>","response":0,"trial_type":"html-button-response","trial_index":4,"plugin_version":"2.1.0","time_elapsed":11801,"subject_id":"91991","group":"Group2","condition":"3_Rep","full_date":"2026-02-28T00:12:26.782Z","date":"2026-02-28","time":"00:12:26"},{"rt":null,"stimulus":"<p style=\"font-size: 50px; margin: 0; text-align: center;\">+</p>","response":null,"trial_type":"html-keyboard-response","trial_index":5,"plugin_version":"2.1.0","time_elapsed":12805,"subject_id":"91991","group":"Group2","condition":"3_Rep","full_date":"2026-02-28T00:12:26.782Z","date":"2026-02-28","time":"00:12:26"},{"task":"memory_phase","broad_category":"I","image_png":"I_Peridotite_13.png","image_id":125,"category_name":"Peridotite","category":8,"distinct_rating":7.28,"distinct_type":"Top","rt":null,"stimulus":"Stimuli_Rocks480/I_Peridotite_13.png","response":null,"trial_type":"image-keyboard-response","trial_index":6,"plugin_version":"2.1.0","time_elapsed":15314,"subject_id":"91991","group":"Group2","condition":"3_Rep","full_date":"2026-02-28T00:12:26.782Z","date":"2026-02-28","time":"00:12:26"},{"rt":null,"stimulus":"<p style=\"font-size: 50px; margin: 0; text-align: center;\">+</p>","response":null,"trial_type":"html-keyboard-response","trial_index":7,"plugin_version":"2.1.0","time_elapsed":16317,"subject_id":"91991","group":"Group2","condition":"3_Rep","full_date":"2026-02-28T00:12:26.782Z","date":"2026-02-28","time":"00:12:26"},{"task":"memory_phase","broad_category":"S","image_png":"S_Rock Salt_13.png","image_id":445,"category_name":"Rock Salt","category":28,"distinct_rating":7.58,"distinct_type":"Top","rt":null,"stimulus":"Stimuli_Rocks480/S_Rock Salt_13.png","response":null,"trial_type":"image-keyboard-response","trial_index":8,"plugin_version":"2.1.0","time_elapsed":18822,"subject_id":"91991","group":"Group2","condition":"3_Rep","full_date":"2026-02-28T00:12:26.782Z","date":"2026-02-28","time":"00:12:26"},{"rt":null,"stimulus":"<p style=\"font-size: 50px; margin: 0; text-align: center;\">+</p>","response":null,"trial_type":"html-keyboard-response","trial_index":9,"plugin_version":"2.1.0","time_elapsed":19825,"subject_id":"91991","group":"Group2","condition":"3_Rep","full_date":"2026-02-28T00:12:26.782Z","date":"2026-02-28","time":"00:12:26"},{"task":"memory_phase","broad_category":"I","image_png":"I_Diorite_10.png","image_id":42,"category_name":"Diorite","category":3,"distinct_rating":2.84,"distinct_type":"Bottom","rt":null,"stimulus":"Stimuli_Rocks480/I_Diorite_10.png","response":null,"trial_type":"image-keyboard-response","trial_index":10,"plugin_version":"2.1.0","time_elapsed":22329,"subject_id":"91991","group":"Group2","condition":"3_Rep","full_date":"2026-02-28T00:12:26.782Z","date":"2026-02-28","time":"00:12:26"},{"rt":null,"stimulus":"<p style=\"font-size: 50px; margin: 0; text-align: center;\">+</p>","response":null,"trial_type":"html-keyboard-response","trial_index":11,"plugin_version":"2.1.0","time_elapsed":23332,"subject_id":"91991","group":"Group2","condition":"3_Rep","full_date":"2026-02-28T00:12:26.782Z","date":"2026-02-28","time":"00:12:26"},{"task":"memory_phase","broad_category":"M","image_png":"M_Gneiss_10.png","image_id":202,"category_name":"Gneiss","category":13,"distinct_rating":3.09,"distinct_type":"Bottom","rt":null,"stimulus":"Stimuli_Rocks480/M_Gneiss_10.png","response":null,"trial_type":"image-keyboard-response","trial_index":12,"plugin_version":"2.1.0","time_elapsed":25836,"subject_id":"91991","group":"Group2","condition":"3_Rep","full_date":"2026-02-28T00:12:26.782Z","date":"2026-02-28","time":"00:12:26"},{"rt":null,"stimulus":"<p style=\"font-size: 50px; margin: 0; text-align: center;\">+</p>","response":null,"trial_type":"html-keyboard-response","trial_index":13,"plugin_version":"2.1.0","time_elapsed":26838,"subject_id":"91991","group":"Group2","condition":"3_Rep","full_date":"2026-02-28T00:12:26.782Z","date":"2026-02-28","time":"00:12:26"},{"task":"memory_phase","broad_category":"I","image_png":"I_Obsidian_06.png","image_id":86,"category_name":"Obsidian","category":6,"distinct_rating":8.01,"distinct_type":"Top","rt":null,"stimulus":"Stimuli_Rocks480/I_Obsidian_06.png","response":null,"trial_type":"image-keyboard-response","trial_index":14,"plugin_version":"2.1.0","time_elapsed":29343,"subject_id":"91991","group":"Group2","condition":"3_Rep","full_date":"2026-02-28T00:12:26.782Z","date":"2026-02-28","time":"00:12:26"},{"rt":null,"stimulus":"<p style=\"font-size: 50px; margin: 0; text-align: center;\">+</p>","response":null,"trial_type":"html-keyboard-response","trial_index":15,"plugin_version":"2.1.0","time_elapsed":30347,"subject_id":"91991","group":"Group2","condition":"3_Rep","full_date":"2026-02-28T00:12:26.782Z","date":"2026-02-28","time":"00:12:26"},{"task":"memory_phase","broad_category":"I","image_png":"I_Andesite_04.png","image_id":4,"category_name":"Andesite","category":1,"distinct_rating":3.18,"distinct_type":"Bottom","rt":null,"stimulus":"Stimuli_Rocks480/I_Andesite_04.png","response":null,"trial_type":"image-keyboard-response","trial_index":16,"plugin_version":"2.1.0","time_elapsed":32850,"subject_id":"91991","group":"Group2","condition":"3_Rep","full_date":"2026-02-28T00:12:26.782Z","date":"2026-02-28","time":"00:12:26"},{"rt":null,"stimulus":"<p style=\"font-size: 50px; margin: 0; text-align: center;\">+</p>","response":null,"trial_type":"html-keyboard-response","trial_index":17,"plugin_version":"2.1.0","time_elapsed":33852,"subject_id":"91991","group":"Group2","condition":"3_Rep","full_date":"2026-02-28T00:12:26.782Z","date":"2026-02-28","time":"00:12:26"},{"task":"memory_phase","broad_category":"S","image_png":"S_Shale_03.png","image_id":467,"category_name":"Shale","category":30,"distinct_rating":1.95,"distinct_type":"Bottom","rt":null,"stimulus":"Stimuli_Rocks480/S_Shale_03.png","response":null,"trial_type":"image-keyboard-response","trial_index":18,"plugin_version":"2.1.0","time_elapsed":36356,"subject_id":"91991","group":"Group2","condition":"3_Rep","full_date":"2026-02-28T00:12:26.782Z","date":"2026-02-28","time":"00:12:26"},{"rt":null,"stimulus":"<p style=\"font-size: 50px; margin: 0; text-align: center;\">+</p>","response":null,"trial_type":"html-keyboard-response","trial_index":19,"plugin_version":"2.1.0","time_elapsed":37359,"subject_id":"91991","group":"Group2","condition":"3_Rep","full_date":"2026-02-28T00:12:26.782Z","date":"2026-02-28","time":"00:12:26"},{"task":"memory_phase","broad_category":"I","image_png":"I_Rhyolite_08.png","image_id":152,"category_name":"Rhyolite","category":10,"distinct_rating":1.38,"distinct_type":"Bottom","rt":null,"stimulus":"Stimuli_Rocks480/I_Rhyolite_08.png","response":null,"trial_type":"image-keyboard-response","trial_index":20,"plugin_version":"2.1.0","time_elapsed":39863,"subject_id":"91991","group":"Group2","condition":"3_Rep","full_date":"2026-02-28T00:12:26.782Z","date":"2026-02-28","time":"00:12:26"},{"rt":null,"stimulus":"<p style=\"font-size: 50px; margin: 0; text-align: center;\">+</p>","response":null,"trial_type":"html-keyboard-response","trial_index":21,"plugin_version":"2.1.0","time_elapsed":40866,"subject_id":"91991","group":"Group2","condition":"3_Rep","full_date":"2026-02-28T00:12:26.782Z","date":"2026-02-28","time":"00:12:26"},{"task":"memory_phase","broad_category":"M","image_png":"M_Slate_10.png","image_id":314,"category_name":"Slate","category":20,"distinct_rating":1.94,"distinct_type":"Bottom","rt":null,"stimulus":"Stimuli_Rocks480/M_Slate_10.png","response":null,"trial_type":"image-keyboard-response","trial_index":22,"plugin_version":"2.1.0","time_elapsed":43371,"subject_id":"91991","group":"Group2","condition":"3_Rep","full_date":"2026-02-28T00:12:26.782Z","date":"2026-02-28","time":"00:12:26"},{"rt":null,"stimulus":"<p style=\"font-size: 50px; margin: 0; text-align: center;\">+</p>","response":null,"trial_type":"html-keyboard-response","trial_index":23,"plugin_version":"2.1.0","time_elapsed":44373,"subject_id":"91991","group":"Group2","condition":"3_Rep","full_date":"2026-02-28T00:12:26.782Z","date":"2026-02-28","time":"00:12:26"},{"task":"memory_phase","broad_category":"M","image_png":"M_Marble_03.png","image_id":227,"category_name":"Marble","category":15,"distinct_rating":2.67,"distinct_type":"Bottom","rt":null,"stimulus":"Stimuli_Rocks480/M_Marble_03.png","response":null,"trial_type":"image-keyboard-response","trial_index":24,"plugin_version":"2.1.0","time_elapsed":46877,"subject_id":"91991","group":"Group2","condition":"3_Rep","full_date":"2026-02-28T00:12:26.782Z","date":"2026-02-28","time":"00:12:26"},{"rt":null,"stimulus":"<p style=\"font-size: 50px; margin: 0; text-align: center;\">+</p>","response":null,"trial_type":"html-keyboard-response","trial_index":25,"plugin_version":"2.1.0","time_elapsed":47880,"subject_id":"91991","group":"Group2","condition":"3_Rep","full_date":"2026-02-28T00:12:26.782Z","date":"2026-02-28","time":"00:12:26"},{"task":"memory_phase","broad_category":"M","image_png":"M_Quartzite_12.png","image_id":284,"category_name":"Quartzite","category":18,"distinct_rating":1.92,"distinct_type":"Bottom","rt":null,"stimulus":"Stimuli_Rocks480/M_Quartzite_12.png","response":null,"trial_type":"image-keyboard-response","trial_index":26,"plugin_version":"2.1.0","time_elapsed":50385,"subject_id":"91991","group":"Group2","condition":"3_Rep","full_date":"2026-02-28T00:12:26.782Z","date":"2026-02-28","time":"00:12:26"},{"rt":null,"stimulus":"<p style=\"font-size: 50px; margin: 0; text-align: center;\">+</p>","response":null,"trial_type":"html-keyboard-response","trial_index":27,"plugin_version":"2.1.0","time_elapsed":51388,"subject_id":"91991","group":"Group2","condition":"3_Rep","full_date":"2026-02-28T00:12:26.782Z","date":"2026-02-28","time":"00:12:26"},{"task":"memory_phase","broad_category":"I","image_png":"I_Diorite_15.png","image_id":47,"category_name":"Diorite","category":3,"distinct_rating":3.05,"distinct_type":"Bottom","rt":null,"stimulus":"Stimuli_Rocks480/I_Diorite_15.png","response":null,"trial_type":"image-keyboard-response","trial_index":28,"plugin_version":"2.1.0","time_elapsed":53892,"subject_id":"91991","group":"Group2","condition":"3_Rep","full_date":"2026-02-28T00:12:26.782Z","date":"2026-02-28","time":"00:12:26"},{"rt":null,"stimulus":"<p style=\"font-size: 50px; margin: 0; text-align: center;\">+</p>","response":null,"trial_type":"html-keyboard-response","trial_index":29,"plugin_version":"2.1.0","time_elapsed":54895,"subject_id":"91991","group":"Group2","condition":"3_Rep","full_date":"2026-02-28T00:12:26.782Z","date":"2026-02-28","time":"00:12:26"},{"task":"memory_phase","broad_category":"I","image_png":"I_Andesite_03.png","image_id":3,"category_name":"Andesite","category":1,"distinct_rating":3.17,"distinct_type":"Bottom","rt":null,"stimulus":"Stimuli_Rocks480/I_Andesite_03.png","response":null,"trial_type":"image-keyboard-response","trial_index":30,"plugin_version":"2.1.0","time_elapsed":57399,"subject_id":"91991","group":"Group2","condition":"3_Rep","full_date":"2026-02-28T00:12:26.782Z","date":"2026-02-28","time":"00:12:26"},{"rt":null,"stimulus":"<p style=\"font-size: 50px; margin: 0; text-align: center;\">+</p>","response":null,"trial_type":"html-keyboard-response","trial_index":31,"plugin_version":"2.1.0","time_elapsed":58401,"subject_id":"91991","group":"Group2","condition":"3_Rep","full_date":"2026-02-28T00:12:26.782Z","date":"2026-02-28","time":"00:12:26"},{"task":"memory_phase","broad_category":"I","image_png":"I_Diorite_01.png","image_id":33,"category_name":"Diorite","category":3,"distinct_rating":2.97,"distinct_type":"Bottom","rt":null,"stimulus":"Stimuli_Rocks480/I_Diorite_01.png","response":null,"trial_type":"image-keyboard-response","trial_index":32,"plugin_version":"2.1.0","time_elapsed":60906,"subject_id":"91991","group":"Group2","condition":"3_Rep","full_date":"2026-02-28T00:12:26.782Z","date":"2026-02-28","time":"00:12:26"},{"rt":null,"stimulus":"<p style=\"font-size: 50px; margin: 0; text-align: center;\">+</p>","response":null,"trial_type":"html-keyboard-response","trial_index":33,"plugin_version":"2.1.0","time_elapsed":61908,"subject_id":"91991","group":"Group2","condition":"3_Rep","full_date":"2026-02-28T00:12:26.782Z","date":"2026-02-28","time":"00:12:26"},{"task":"memory_phase","broad_category":"S","image_png":"S_Sandstone_08.png","image_id":456,"category_name":"Sandstone","category":29,"distinct_rating":1.5,"distinct_type":"Bottom","rt":null,"stimulus":"Stimuli_Rocks480/S_Sandstone_08.png","response":null,"trial_type":"image-keyboard-response","trial_index":34,"plugin_version":"2.1.0","time_elapsed":64412,"subject_id":"91991","group":"Group2","condition":"3_Rep","full_date":"2026-02-28T00:12:26.782Z","date":"2026-02-28","time":"00:12:26"},{"rt":null,"stimulus":"<p style=\"font-size: 50px; margin: 0; text-align: center;\">+</p>","response":null,"trial_type":"html-keyboard-response","trial_index":35,"plugin_version":"2.1.0","time_elapsed":65415,"subject_id":"91991","group":"Group2","condition":"3_Rep","full_date":"2026-02-28T00:12:26.782Z","date":"2026-02-28","time":"00:12:26"},{"task":"memory_phase","broad_category":"M","image_png":"M_Quartzite_07.png","image_id":279,"category_name":"Quartzite","category":18,"distinct_rating":1.97,"distinct_type":"Bottom","rt":null,"stimulus":"Stimuli_Rocks480/M_Quartzite_07.png","response":null,"trial_type":"image-keyboard-response","trial_index":36,"plugin_version":"2.1.0","time_elapsed":67919,"subject_id":"91991","group":"Group2","condition":"3_Rep","full_date":"2026-02-28T00:12:26.782Z","date":"2026-02-28","time":"00:12:26"},{"rt":null,"stimulus":"<p style=\"font-size: 50px; margin: 0; text-align: center;\">+</p>","response":null,"trial_type":"html-keyboard-response","trial_index":37,"plugin_version":"2.1.0","time_elapsed":68922,"subject_id":"91991","group":"Group2","condition":"3_Rep","full_date":"2026-02-28T00:12:26.782Z","date":"2026-02-28","time":"00:12:26"},{"task":"memory_phase","broad_category":"S","image_png":"S_Conglomerate_14.png","image_id":382,"category_name":"Conglomerate","category":24,"distinct_rating":6.86,"distinct_type":"Top","rt":null,"stimulus":"Stimuli_Rocks480/S_Conglomerate_14.png","response":null,"trial_type":"image-keyboard-response","trial_index":38,"plugin_version":"2.1.0","time_elapsed":71425,"subject_id":"91991","group":"Group2","condition":"3_Rep","full_date":"2026-02-28T00:12:26.782Z","date":"2026-02-28","time":"00:12:26"},{"rt":null,"stimulus":"<p style=\"font-size: 50px; margin: 0; text-align: center;\">+</p>","response":null,"trial_type":"html-keyboard-response","trial_index":39,"plugin_version":"2.1.0","time_elapsed":72427,"subject_id":"91991","group":"Group2","condition":"3_Rep","full_date":"2026-02-28T00:12:26.782Z","date":"2026-02-28","time":"00:12:26"},{"task":"memory_phase","broad_category":"M","image_png":"M_Phyllite_13.png","image_id":269,"category_name":"Phyllite","category":17,"distinct_rating":2.8,"distinct_type":"Bottom","rt":null,"stimulus":"Stimuli_Rocks480/M_Phyllite_13.png","response":null,"trial_type":"image-keyboard-response","trial_index":40,"plugin_version":"2.1.0","time_elapsed":74929,"subject_id":"91991","group":"Group2","condition":"3_Rep","full_date":"2026-02-28T00:12:26.782Z","date":"2026-02-28","time":"00:12:26"},{"rt":null,"stimulus":"<p style=\"font-size: 50px; margin: 0; text-align: center;\">+</p>","response":null,"trial_type":"html-keyboard-response","trial_index":41,"plugin_version":"2.1.0","time_elapsed":75933,"subject_id":"91991","group":"Group2","condition":"3_Rep","full_date":"2026-02-28T00:12:26.782Z","date":"2026-02-28","time":"00:12:26"},{"task":"memory_phase","broad_category":"S","image_png":"S_Dolomite_16.png","image_id":400,"category_name":"Dolomite","category":25,"distinct_rating":1.71,"distinct_type":"Bottom","rt":null,"stimulus":"Stimuli_Rocks480/S_Dolomite_16.png","response":null,"trial_type":"image-keyboard-response","trial_index":42,"plugin_version":"2.1.0","time_elapsed":78436,"subject_id":"91991","group":"Group2","condition":"3_Rep","full_date":"2026-02-28T00:12:26.782Z","date":"2026-02-28","time":"00:12:26"},{"rt":null,"stimulus":"<p style=\"font-size: 50px; margin: 0; text-align: center;\">+</p>","response":null,"trial_type":"html-keyboard-response","trial_index":43,"plugin_version":"2.1.0","time_elapsed":79438,"subject_id":"91991","group":"Group2","condition":"3_Rep","full_date":"2026-02-28T00:12:26.782Z","date":"2026-02-28","time":"00:12:26"},{"task":"memory_phase","broad_category":"I","image_png":"I_Andesite_09.png","image_id":9,"category_name":"Andesite","category":1,"distinct_rating":2.49,"distinct_type":"Bottom","rt":null,"stimulus":"Stimuli_Rocks480/I_Andesite_09.png","response":null,"trial_type":"image-keyboard-response","trial_index":44,"plugin_version":"2.1.0","time_elapsed":81943,"subject_id":"91991","group":"Group2","condition":"3_Rep","full_date":"2026-02-28T00:12:26.782Z","date":"2026-02-28","time":"00:12:26"},{"rt":null,"stimulus":"<p style=\"font-size: 50px; margin: 0; text-align: center;\">+</p>","response":null,"trial_type":"html-keyboard-response","trial_index":45,"plugin_version":"2.1.0","time_elapsed":82945,"subject_id":"91991","group":"Group2","condition":"3_Rep","full_date":"2026-02-28T00:12:26.782Z","date":"2026-02-28","time":"00:12:26"},{"task":"memory_phase","broad_category":"M","image_png":"M_Quartzite_15.png","image_id":287,"category_name":"Quartzite","category":18,"distinct_rating":2.19,"distinct_type":"Bottom","rt":null,"stimulus":"Stimuli_Rocks480/M_Quartzite_15.png","response":null,"trial_type":"image-keyboard-response","trial_index":46,"plugin_version":"2.1.0","time_elapsed":85449,"subject_id":"91991","group":"Group2","condition":"3_Rep","full_date":"2026-02-28T00:12:26.782Z","date":"2026-02-28","time":"00:12:26"},{"rt":null,"stimulus":"<p style=\"font-size: 50px; margin: 0; text-align: center;\">+</p>","response":null,"trial_type":"html-keyboard-response","trial_index":47,"plugin_version":"2.1.0","time_elapsed":86451,"subject_id":"91991","group":"Group2","condition":"3_Rep","full_date":"2026-02-28T00:12:26.782Z","date":"2026-02-28","time":"00:12:26"},{"task":"memory_phase","broad_category":"M","image_png":"M_Marble_14.png","image_id":238,"category_name":"Marble","category":15,"distinct_rating":3.31,"distinct_type":"Bottom","rt":null,"stimulus":"Stimuli_Rocks480/M_Marble_14.png","response":null,"trial_type":"image-keyboard-response","trial_index":48,"plugin_version":"2.1.0","time_elapsed":88953,"subject_id":"91991","group":"Group2","condition":"3_Rep","full_date":"2026-02-28T00:12:26.782Z","date":"2026-02-28","time":"00:12:26"},{"rt":null,"stimulus":"<p style=\"font-size: 50px; margin: 0; text-align: center;\">+</p>","response":null,"trial_type":"html-keyboard-response","trial_index":49,"plugin_version":"2.1.0","time_elapsed":89955,"subject_id":"91991","group":"Group2","condition":"3_Rep","full_date":"2026-02-28T00:12:26.782Z","date":"2026-02-28","time":"00:12:26"},{"task":"memory_phase","broad_category":"M","image_png":"M_Slate_04.png","image_id":308,"category_name":"Slate","category":20,"distinct_rating":2.2,"distinct_type":"Bottom","rt":null,"stimulus":"Stimuli_Rocks480/M_Slate_04.png","response":null,"trial_type":"image-keyboard-response","trial_index":50,"plugin_version":"2.1.0","time_elapsed":92460,"subject_id":"91991","group":"Group2","condition":"3_Rep","full_date":"2026-02-28T00:12:26.782Z","date":"2026-02-28","time":"00:12:26"},{"rt":null,"stimulus":"<p style=\"font-size: 50px; margin: 0; text-align: center;\">+</p>","response":null,"trial_type":"html-keyboard-response","trial_index":51,"plugin_version":"2.1.0","time_elapsed":93463,"subject_id":"91991","group":"Group2","condition":"3_Rep","full_date":"2026-02-28T00:12:26.782Z","date":"2026-02-28","time":"00:12:26"},{"task":"memory_phase","broad_category":"I","image_png":"I_Basalt_13.png","image_id":29,"category_name":"Basalt","category":2,"distinct_rating":2.68,"distinct_type":"Bottom","rt":null,"stimulus":"Stimuli_Rocks480/I_Basalt_13.png","response":null,"trial_type":"image-keyboard-response","trial_index":52,"plugin_version":"2.1.0","time_elapsed":95967,"subject_id":"91991","group":"Group2","condition":"3_Rep","full_date":"2026-02-28T00:12:26.782Z","date":"2026-02-28","time":"00:12:26"},{"rt":null,"stimulus":"<p style=\"font-size: 50px; margin: 0; text-align: center;\">+</p>","response":null,"trial_type":"html-keyboard-response","trial_index":53,"plugin_version":"2.1.0","time_elapsed":96969,"subject_id":"91991","group":"Group2","condition":"3_Rep","full_date":"2026-02-28T00:12:26.782Z","date":"2026-02-28","time":"00:12:26"},{"task":"memory_phase","broad_category":"S","image_png":"S_Rock Salt_15.png","image_id":447,"category_name":"Rock Salt","category":28,"distinct_rating":7.79,"distinct_type":"Top","rt":null,"stimulus":"Stimuli_Rocks480/S_Rock Salt_15.png","response":null,"trial_type":"image-keyboard-response","trial_index":54,"plugin_version":"2.1.0","time_elapsed":99474,"subject_id":"91991","group":"Group2","condition":"3_Rep","full_date":"2026-02-28T00:12:26.782Z","date":"2026-02-28","time":"00:12:26"},{"rt":1419,"stimulus":"<p style=\"max-width: 760px; margin: auto; font-size: 35px; line-height: 1.5;\">\n                Press SPACE to continue study phase\n              </p>","response":" ","trial_type":"html-keyboard-response","trial_index":55,"plugin_version":"2.1.0","time_elapsed":100895,"subject_id":"91991","group":"Group2","condition":"3_Rep","full_date":"2026-02-28T00:12:26.782Z","date":"2026-02-28","time":"00:12:26"},{"rt":null,"stimulus":"<p style=\"font-size: 50px; margin: 0; text-align: center;\">+</p>","response":null,"trial_type":"html-keyboard-response","trial_index":56,"plugin_version":"2.1.0","time_elapsed":101897,"subject_id":"91991","group":"Group2","condition":"3_Rep","full_date":"2026-02-28T00:12:26.782Z","date":"2026-02-28","time":"00:12:26"},{"task":"memory_phase","broad_category":"S","image_png":"S_Dolomite_01.png","image_id":385,"category_name":"Dolomite","category":25,"distinct_rating":1.43,"distinct_type":"Bottom","rt":null,"stimulus":"Stimuli_Rocks480/S_Dolomite_01.png","response":null,"trial_type":"image-keyboard-response","trial_index":57,"plugin_version":"2.1.0","time_elapsed":104401,"subject_id":"91991","group":"Group2","condition":"3_Rep","full_date":"2026-02-28T00:12:26.782Z","date":"2026-02-28","time":"00:12:26"},{"rt":null,"stimulus":"<p style=\"font-size: 50px; margin: 0; text-align: center;\">+</p>","response":null,"trial_type":"html-keyboard-response","trial_index":58,"plugin_version":"2.1.0","time_elapsed":105404,"subject_id":"91991","group":"Group2","condition":"3_Rep","full_date":"2026-02-28T00:12:26.782Z","date":"2026-02-28","time":"00:12:26"},{"task":"memory_phase","broad_category":"S","image_png":"S_Chert_13.png","image_id":365,"category_name":"Chert","category":23,"distinct_rating":6.57,"distinct_type":"Top","rt":null,"stimulus":"Stimuli_Rocks480/S_Chert_13.png","response":null,"trial_type":"image-keyboard-response","trial_index":59,"plugin_version":"2.1.0","time_elapsed":107908,"subject_id":"91991","group":"Group2","condition":"3_Rep","full_date":"2026-02-28T00:12:26.782Z","date":"2026-02-28","time":"00:12:26"},{"rt":null,"stimulus":"<p style=\"font-size: 50px; margin: 0; text-align: center;\">+</p>","response":null,"trial_type":"html-keyboard-response","trial_index":60,"plugin_version":"2.1.0","time_elapsed":108911,"subject_id":"91991","group":"Group2","condition":"3_Rep","full_date":"2026-02-28T00:12:26.782Z","date":"2026-02-28","time":"00:12:26"},{"task":"memory_phase","broad_category":"S","image_png":"S_Shale_07.png","image_id":471,"category_name":"Shale","category":30,"distinct_rating":2.73,"distinct_type":"Bottom","rt":null,"stimulus":"Stimuli_Rocks480/S_Shale_07.png","response":null,"trial_type":"image-keyboard-response","trial_index":61,"plugin_version":"2.1.0","time_elapsed":111415,"subject_id":"91991","group":"Group2","condition":"3_Rep","full_date":"2026-02-28T00:12:26.782Z","date":"2026-02-28","time":"00:12:26"},{"rt":null,"stimulus":"<p style=\"font-size: 50px; margin: 0; text-align: center;\">+</p>","response":null,"trial_type":"html-keyboard-response","trial_index":62,"plugin_version":"2.1.0","time_elapsed":112418,"subject_id":"91991","group":"Group2","condition":"3_Rep","full_date":"2026-02-28T00:12:26.782Z","date":"2026-02-28","time":"00:12:26"},{"task":"memory_phase","broad_category":"M","image_png":"M_Slate_14.png","image_id":318,"category_name":"Slate","category":20,"distinct_rating":2.58,"distinct_type":"Bottom","rt":null,"stimulus":"Stimuli_Rocks480/M_Slate_14.png","response":null,"trial_type":"image-keyboard-response","trial_index":63,"plugin_version":"2.1.0","time_elapsed":114922,"subject_id":"91991","group":"Group2","condition":"3_Rep","full_date":"2026-02-28T00:12:26.782Z","date":"2026-02-28","time":"00:12:26"},{"rt":null,"stimulus":"<p style=\"font-size: 50px; margin: 0; text-align: center;\">+</p>","response":null,"trial_type":"html-keyboard-response","trial_index":64,"plugin_version":"2.1.0","time_elapsed":115925,"subject_id":"91991","group":"Group2","condition":"3_Rep","full_date":"2026-02-28T00:12:26.782Z","date":"2026-02-28","time":"00:12:26"},{"task":"memory_phase","broad_category":"I","image_png":"I_Pegmatite_11.png","image_id":107,"category_name":"Pegmatite","category":7,"distinct_rating":7.11,"distinct_type":"Top","rt":null,"stimulus":"Stimuli_Rocks480/I_Pegmatite_11.png","response":null,"trial_type":"image-keyboard-response","trial_index":65,"plugin_version":"2.1.0","time_elapsed":118429,"subject_id":"91991","group":"Group2","condition":"3_Rep","full_date":"2026-02-28T00:12:26.782Z","date":"2026-02-28","time":"00:12:26"},{"rt":null,"stimulus":"<p style=\"font-size: 50px; margin: 0; text-align: center;\">+</p>","response":null,"trial_type":"html-keyboard-response","trial_index":66,"plugin_version":"2.1.0","time_elapsed":119431,"subject_id":"91991","group":"Group2","condition":"3_Rep","full_date":"2026-02-28T00:12:26.782Z","date":"2026-02-28","time":"00:12:26"},{"task":"memory_phase","broad_category":"I","image_png":"I_Gabbro_14.png","image_id":62,"category_name":"Gabbro","category":4,"distinct_rating":2.95,"distinct_type":"Bottom","rt":null,"stimulus":"Stimuli_Rocks480/I_Gabbro_14.png","response":null,"trial_type":"image-keyboard-response","trial_index":67,"plugin_version":"2.1.0","time_elapsed":121935,"subject_id":"91991","group":"Group2","condition":"3_Rep","full_date":"2026-02-28T00:12:26.782Z","date":"2026-02-28","time":"00:12:26"},{"rt":null,"stimulus":"<p style=\"font-size: 50px; margin: 0; text-align: center;\">+</p>","response":null,"trial_type":"html-keyboard-response","trial_index":68,"plugin_version":"2.1.0","time_elapsed":122938,"subject_id":"91991","group":"Group2","condition":"3_Rep","full_date":"2026-02-28T00:12:26.782Z","date":"2026-02-28","time":"00:12:26"},{"task":"memory_phase","broad_category":"M","image_png":"M_Marble_02.png","image_id":226,"category_name":"Marble","category":15,"distinct_rating":3.2,"distinct_type":"Bottom","rt":null,"stimulus":"Stimuli_Rocks480/M_Marble_02.png","response":null,"trial_type":"image-keyboard-response","trial_index":69,"plugin_version":"2.1.0","time_elapsed":125442,"subject_id":"91991","group":"Group2","condition":"3_Rep","full_date":"2026-02-28T00:12:26.782Z","date":"2026-02-28","time":"00:12:26"},{"rt":null,"stimulus":"<p style=\"font-size: 50px; margin: 0; text-align: center;\">+</p>","response":null,"trial_type":"html-keyboard-response","trial_index":70,"plugin_version":"2.1.0","time_elapsed":126444,"subject_id":"91991","group":"Group2","condition":"3_Rep","full_date":"2026-02-28T00:12:26.782Z","date":"2026-02-28","time":"00:12:26"},{"task":"memory_phase","broad_category":"M","image_png":"M_Gneiss_14.png","image_id":206,"category_name":"Gneiss","category":13,"distinct_rating":3.41,"distinct_type":"Bottom","rt":null,"stimulus":"Stimuli_Rocks480/M_Gneiss_14.png","response":null,"trial_type":"image-keyboard-response","trial_index":71,"plugin_version":"2.1.0","time_elapsed":128948,"subject_id":"91991","group":"Group2","condition":"3_Rep","full_date":"2026-02-28T00:12:26.782Z","date":"2026-02-28","time":"00:12:26"},{"rt":null,"stimulus":"<p style=\"font-size: 50px; margin: 0; text-align: center;\">+</p>","response":null,"trial_type":"html-keyboard-response","trial_index":72,"plugin_version":"2.1.0","time_elapsed":129950,"subject_id":"91991","group":"Group2","condition":"3_Rep","full_date":"2026-02-28T00:12:26.782Z","date":"2026-02-28","time":"00:12:26"},{"task":"memory_phase","broad_category":"I","image_png":"I_Basalt_08.png","image_id":24,"category_name":"Basalt","category":2,"distinct_rating":2.31,"distinct_type":"Bottom","rt":null,"stimulus":"Stimuli_Rocks480/I_Basalt_08.png","response":null,"trial_type":"image-keyboard-response","trial_index":73,"plugin_version":"2.1.0","time_elapsed":132453,"subject_id":"91991","group":"Group2","condition":"3_Rep","full_date":"2026-02-28T00:12:26.782Z","date":"2026-02-28","time":"00:12:26"},{"rt":null,"stimulus":"<p style=\"font-size: 50px; margin: 0; text-align: center;\">+</p>","response":null,"trial_type":"html-keyboard-response","trial_index":74,"plugin_version":"2.1.0","time_elapsed":133455,"subject_id":"91991","group":"Group2","condition":"3_Rep","full_date":"2026-02-28T00:12:26.782Z","date":"2026-02-28","time":"00:12:26"},{"task":"memory_phase","broad_category":"S","image_png":"S_Sandstone_04.png","image_id":452,"category_name":"Sandstone","category":29,"distinct_rating":1.8,"distinct_type":"Bottom","rt":null,"stimulus":"Stimuli_Rocks480/S_Sandstone_04.png","response":null,"trial_type":"image-keyboard-response","trial_index":75,"plugin_version":"2.1.0","time_elapsed":135959,"subject_id":"91991","group":"Group2","condition":"3_Rep","full_date":"2026-02-28T00:12:26.782Z","date":"2026-02-28","time":"00:12:26"},{"rt":null,"stimulus":"<p style=\"font-size: 50px; margin: 0; text-align: center;\">+</p>","response":null,"trial_type":"html-keyboard-response","trial_index":76,"plugin_version":"2.1.0","time_elapsed":136962,"subject_id":"91991","group":"Group2","condition":"3_Rep","full_date":"2026-02-28T00:12:26.782Z","date":"2026-02-28","time":"00:12:26"},{"task":"memory_phase","broad_category":"I","image_png":"I_Pumice_01.png","image_id":129,"category_name":"Pumice","category":9,"distinct_rating":3.25,"distinct_type":"Bottom","rt":null,"stimulus":"Stimuli_Rocks480/I_Pumice_01.png","response":null,"trial_type":"image-keyboard-response","trial_index":77,"plugin_version":"2.1.0","time_elapsed":139465,"subject_id":"91991","group":"Group2","condition":"3_Rep","full_date":"2026-02-28T00:12:26.782Z","date":"2026-02-28","time":"00:12:26"},{"rt":null,"stimulus":"<p style=\"font-size: 50px; margin: 0; text-align: center;\">+</p>","response":null,"trial_type":"html-keyboard-response","trial_index":78,"plugin_version":"2.1.0","time_elapsed":140468,"subject_id":"91991","group":"Group2","condition":"3_Rep","full_date":"2026-02-28T00:12:26.782Z","date":"2026-02-28","time":"00:12:26"},{"task":"memory_phase","broad_category":"I","image_png":"I_Basalt_10.png","image_id":26,"category_name":"Basalt","category":2,"distinct_rating":2.76,"distinct_type":"Bottom","rt":null,"stimulus":"Stimuli_Rocks480/I_Basalt_10.png","response":null,"trial_type":"image-keyboard-response","trial_index":79,"plugin_version":"2.1.0","time_elapsed":142971,"subject_id":"91991","group":"Group2","condition":"3_Rep","full_date":"2026-02-28T00:12:26.782Z","date":"2026-02-28","time":"00:12:26"},{"rt":null,"stimulus":"<p style=\"font-size: 50px; margin: 0; text-align: center;\">+</p>","response":null,"trial_type":"html-keyboard-response","trial_index":80,"plugin_version":"2.1.0","time_elapsed":143974,"subject_id":"91991","group":"Group2","condition":"3_Rep","full_date":"2026-02-28T00:12:26.782Z","date":"2026-02-28","time":"00:12:26"},{"task":"memory_phase","broad_category":"I","image_png":"I_Rhyolite_05.png","image_id":149,"category_name":"Rhyolite","category":10,"distinct_rating":3.02,"distinct_type":"Bottom","rt":null,"stimulus":"Stimuli_Rocks480/I_Rhyolite_05.png","response":null,"trial_type":"image-keyboard-response","trial_index":81,"plugin_version":"2.1.0","time_elapsed":146477,"subject_id":"91991","group":"Group2","condition":"3_Rep","full_date":"2026-02-28T00:12:26.782Z","date":"2026-02-28","time":"00:12:26"},{"rt":null,"stimulus":"<p style=\"font-size: 50px; margin: 0; text-align: center;\">+</p>","response":null,"trial_type":"html-keyboard-response","trial_index":82,"plugin_version":"2.1.0","time_elapsed":147480,"subject_id":"91991","group":"Group2","condition":"3_Rep","full_date":"2026-02-28T00:12:26.782Z","date":"2026-02-28","time":"00:12:26"},{"task":"memory_phase","broad_category":"I","image_png":"I_Rhyolite_10.png","image_id":154,"category_name":"Rhyolite","category":10,"distinct_rating":2.88,"distinct_type":"Bottom","rt":null,"stimulus":"Stimuli_Rocks480/I_Rhyolite_10.png","response":null,"trial_type":"image-keyboard-response","trial_index":83,"plugin_version":"2.1.0","time_elapsed":149983,"subject_id":"91991","group":"Group2","condition":"3_Rep","full_date":"2026-02-28T00:12:26.782Z","date":"2026-02-28","time":"00:12:26"},{"rt":null,"stimulus":"<p style=\"font-size: 50px; margin: 0; text-align: center;\">+</p>","response":null,"trial_type":"html-keyboard-response","trial_index":84,"plugin_version":"2.1.0","time_elapsed":150986,"subject_id":"91991","group":"Group2","condition":"3_Rep","full_date":"2026-02-28T00:12:26.782Z","date":"2026-02-28","time":"00:12:26"},{"task":"memory_phase","broad_category":"M","image_png":"M_Gneiss_15.png","image_id":207,"category_name":"Gneiss","category":13,"distinct_rating":3.11,"distinct_type":"Bottom","rt":null,"stimulus":"Stimuli_Rocks480/M_Gneiss_15.png","response":null,"trial_type":"image-keyboard-response","trial_index":85,"plugin_version":"2.1.0","time_elapsed":153488,"subject_id":"91991","group":"Group2","condition":"3_Rep","full_date":"2026-02-28T00:12:26.782Z","date":"2026-02-28","time":"00:12:26"},{"rt":null,"stimulus":"<p style=\"font-size: 50px; margin: 0; text-align: center;\">+</p>","response":null,"trial_type":"html-keyboard-response","trial_index":86,"plugin_version":"2.1.0","time_elapsed":154491,"subject_id":"91991","group":"Group2","condition":"3_Rep","full_date":"2026-02-28T00:12:26.782Z","date":"2026-02-28","time":"00:12:26"},{"task":"memory_phase","broad_category":"S","image_png":"S_Shale_02.png","image_id":466,"category_name":"Shale","category":30,"distinct_rating":2.9,"distinct_type":"Bottom","rt":null,"stimulus":"Stimuli_Rocks480/S_Shale_02.png","response":null,"trial_type":"image-keyboard-response","trial_index":87,"plugin_version":"2.1.0","time_elapsed":156995,"subject_id":"91991","group":"Group2","condition":"3_Rep","full_date":"2026-02-28T00:12:26.782Z","date":"2026-02-28","time":"00:12:26"},{"rt":null,"stimulus":"<p style=\"font-size: 50px; margin: 0; text-align: center;\">+</p>","response":null,"trial_type":"html-keyboard-response","trial_index":88,"plugin_version":"2.1.0","time_elapsed":157998,"subject_id":"91991","group":"Group2","condition":"3_Rep","full_date":"2026-02-28T00:12:26.782Z","date":"2026-02-28","time":"00:12:26"},{"task":"memory_phase","broad_category":"I","image_png":"I_Gabbro_02.png","image_id":50,"category_name":"Gabbro","category":4,"distinct_rating":2.73,"distinct_type":"Bottom","rt":null,"stimulus":"Stimuli_Rocks480/I_Gabbro_02.png","response":null,"trial_type":"image-keyboard-response","trial_index":89,"plugin_version":"2.1.0","time_elapsed":160501,"subject_id":"91991","group":"Group2","condition":"3_Rep","full_date":"2026-02-28T00:12:26.782Z","date":"2026-02-28","time":"00:12:26"},{"rt":null,"stimulus":"<p style=\"font-size: 50px; margin: 0; text-align: center;\">+</p>","response":null,"trial_type":"html-keyboard-response","trial_index":90,"plugin_version":"2.1.0","time_elapsed":161508,"subject_id":"91991","group":"Group2","condition":"3_Rep","full_date":"2026-02-28T00:12:26.782Z","date":"2026-02-28","time":"00:12:26"},{"task":"memory_phase","broad_category":"I","image_png":"I_Pegmatite_03.png","image_id":99,"category_name":"Pegmatite","category":7,"distinct_rating":7.24,"distinct_type":"Top","rt":null,"stimulus":"Stimuli_Rocks480/I_Pegmatite_03.png","response":null,"trial_type":"image-keyboard-response","trial_index":91,"plugin_version":"2.1.0","time_elapsed":164012,"subject_id":"91991","group":"Group2","condition":"3_Rep","full_date":"2026-02-28T00:12:26.782Z","date":"2026-02-28","time":"00:12:26"},{"rt":null,"stimulus":"<p style=\"font-size: 50px; margin: 0; text-align: center;\">+</p>","response":null,"trial_type":"html-keyboard-response","trial_index":92,"plugin_version":"2.1.0","time_elapsed":165015,"subject_id":"91991","group":"Group2","condition":"3_Rep","full_date":"2026-02-28T00:12:26.782Z","date":"2026-02-28","time":"00:12:26"},{"task":"memory_phase","broad_category":"I","image_png":"I_Pumice_13.png","image_id":141,"category_name":"Pumice","category":9,"distinct_rating":3.12,"distinct_type":"Bottom","rt":null,"stimulus":"Stimuli_Rocks480/I_Pumice_13.png","response":null,"trial_type":"image-keyboard-response","trial_index":93,"plugin_version":"2.1.0","time_elapsed":167520,"subject_id":"91991","group":"Group2","condition":"3_Rep","full_date":"2026-02-28T00:12:26.782Z","date":"2026-02-28","time":"00:12:26"},{"rt":null,"stimulus":"<p style=\"font-size: 50px; margin: 0; text-align: center;\">+</p>","response":null,"trial_type":"html-keyboard-response","trial_index":94,"plugin_version":"2.1.0","time_elapsed":168522,"subject_id":"91991","group":"Group2","condition":"3_Rep","full_date":"2026-02-28T00:12:26.782Z","date":"2026-02-28","time":"00:12:26"},{"task":"memory_phase","broad_category":"I","image_png":"I_Gabbro_12.png","image_id":60,"category_name":"Gabbro","category":4,"distinct_rating":2.6,"distinct_type":"Bottom","rt":null,"stimulus":"Stimuli_Rocks480/I_Gabbro_12.png","response":null,"trial_type":"image-keyboard-response","trial_index":95,"plugin_version":"2.1.0","time_elapsed":171026,"subject_id":"91991","group":"Group2","condition":"3_Rep","full_date":"2026-02-28T00:12:26.782Z","date":"2026-02-28","time":"00:12:26"},{"rt":null,"stimulus":"<p style=\"font-size: 50px; margin: 0; text-align: center;\">+</p>","response":null,"trial_type":"html-keyboard-response","trial_index":96,"plugin_version":"2.1.0","time_elapsed":172028,"subject_id":"91991","group":"Group2","condition":"3_Rep","full_date":"2026-02-28T00:12:26.782Z","date":"2026-02-28","time":"00:12:26"},{"task":"memory_phase","broad_category":"M","image_png":"M_Phyllite_02.png","image_id":258,"category_name":"Phyllite","category":17,"distinct_rating":2.89,"distinct_type":"Bottom","rt":null,"stimulus":"Stimuli_Rocks480/M_Phyllite_02.png","response":null,"trial_type":"image-keyboard-response","trial_index":97,"plugin_version":"2.1.0","time_elapsed":174532,"subject_id":"91991","group":"Group2","condition":"3_Rep","full_date":"2026-02-28T00:12:26.782Z","date":"2026-02-28","time":"00:12:26"},{"rt":null,"stimulus":"<p style=\"font-size: 50px; margin: 0; text-align: center;\">+</p>","response":null,"trial_type":"html-keyboard-response","trial_index":98,"plugin_version":"2.1.0","time_elapsed":175534,"subject_id":"91991","group":"Group2","condition":"3_Rep","full_date":"2026-02-28T00:12:26.782Z","date":"2026-02-28","time":"00:12:26"},{"task":"memory_phase","broad_category":"S","image_png":"S_Dolomite_07.png","image_id":391,"category_name":"Dolomite","category":25,"distinct_rating":1.73,"distinct_type":"Bottom","rt":null,"stimulus":"Stimuli_Rocks480/S_Dolomite_07.png","response":null,"trial_type":"image-keyboard-response","trial_index":99,"plugin_version":"2.1.0","time_elapsed":178036,"subject_id":"91991","group":"Group2","condition":"3_Rep","full_date":"2026-02-28T00:12:26.782Z","date":"2026-02-28","time":"00:12:26"},{"rt":null,"stimulus":"<p style=\"font-size: 50px; margin: 0; text-align: center;\">+</p>","response":null,"trial_type":"html-keyboard-response","trial_index":100,"plugin_version":"2.1.0","time_elapsed":179039,"subject_id":"91991","group":"Group2","condition":"3_Rep","full_date":"2026-02-28T00:12:26.782Z","date":"2026-02-28","time":"00:12:26"},{"task":"memory_phase","broad_category":"I","image_png":"I_Pumice_14.png","image_id":142,"category_name":"Pumice","category":9,"distinct_rating":3.22,"distinct_type":"Bottom","rt":null,"stimulus":"Stimuli_Rocks480/I_Pumice_14.png","response":null,"trial_type":"image-keyboard-response","trial_index":101,"plugin_version":"2.1.0","time_elapsed":181543,"subject_id":"91991","group":"Group2","condition":"3_Rep","full_date":"2026-02-28T00:12:26.782Z","date":"2026-02-28","time":"00:12:26"},{"rt":null,"stimulus":"<p style=\"font-size: 50px; margin: 0; text-align: center;\">+</p>","response":null,"trial_type":"html-keyboard-response","trial_index":102,"plugin_version":"2.1.0","time_elapsed":182545,"subject_id":"91991","group":"Group2","condition":"3_Rep","full_date":"2026-02-28T00:12:26.782Z","date":"2026-02-28","time":"00:12:26"},{"task":"memory_phase","broad_category":"M","image_png":"M_Phyllite_05.png","image_id":261,"category_name":"Phyllite","category":17,"distinct_rating":2.14,"distinct_type":"Bottom","rt":null,"stimulus":"Stimuli_Rocks480/M_Phyllite_05.png","response":null,"trial_type":"image-keyboard-response","trial_index":103,"plugin_version":"2.1.0","time_elapsed":185049,"subject_id":"91991","group":"Group2","condition":"3_Rep","full_date":"2026-02-28T00:12:26.782Z","date":"2026-02-28","time":"00:12:26"},{"rt":null,"stimulus":"<p style=\"font-size: 50px; margin: 0; text-align: center;\">+</p>","response":null,"trial_type":"html-keyboard-response","trial_index":104,"plugin_version":"2.1.0","time_elapsed":186051,"subject_id":"91991","group":"Group2","condition":"3_Rep","full_date":"2026-02-28T00:12:26.782Z","date":"2026-02-28","time":"00:12:26"},{"task":"memory_phase","broad_category":"S","image_png":"S_Sandstone_11.png","image_id":459,"category_name":"Sandstone","category":29,"distinct_rating":1.82,"distinct_type":"Bottom","rt":null,"stimulus":"Stimuli_Rocks480/S_Sandstone_11.png","response":null,"trial_type":"image-keyboard-response","trial_index":105,"plugin_version":"2.1.0","time_elapsed":188555,"subject_id":"91991","group":"Group2","condition":"3_Rep","full_date":"2026-02-28T00:12:26.782Z","date":"2026-02-28","time":"00:12:26"},{"rt":2597,"stimulus":"<p style=\"max-width: 760px; margin: auto; font-size: 35px; line-height: 1.5;\">\n                You have completed 1 study phase. \n                Now, we'll show you all the images again 2 more times.\n                <br><br>Press SPACE to continue\n              </p>","response":" ","trial_type":"html-keyboard-response","trial_index":106,"plugin_version":"2.1.0","time_elapsed":191153,"subject_id":"91991","group":"Group2","condition":"3_Rep","full_date":"2026-02-28T00:12:26.782Z","date":"2026-02-28","time":"00:12:26"},{"rt":null,"stimulus":"<p style=\"font-size: 50px; margin: 0; text-align: center;\">+</p>","response":null,"trial_type":"html-keyboard-response","trial_index":107,"plugin_version":"2.1.0","time_elapsed":192156,"subject_id":"91991","group":"Group2","condition":"3_Rep","full_date":"2026-02-28T00:12:26.782Z","date":"2026-02-28","time":"00:12:26"},{"task":"memory_phase","broad_category":"S","image_png":"S_Rock Salt_13.png","image_id":445,"category_name":"Rock Salt","category":28,"distinct_rating":7.58,"distinct_type":"Top","rt":null,"stimulus":"Stimuli_Rocks480/S_Rock Salt_13.png","response":null,"trial_type":"image-keyboard-response","trial_index":108,"plugin_version":"2.1.0","time_elapsed":194660,"subject_id":"91991","group":"Group2","condition":"3_Rep","full_date":"2026-02-28T00:12:26.782Z","date":"2026-02-28","time":"00:12:26"},{"rt":null,"stimulus":"<p style=\"font-size: 50px; margin: 0; text-align: center;\">+</p>","response":null,"trial_type":"html-keyboard-response","trial_index":109,"plugin_version":"2.1.0","time_elapsed":195662,"subject_id":"91991","group":"Group2","condition":"3_Rep","full_date":"2026-02-28T00:12:26.782Z","date":"2026-02-28","time":"00:12:26"},{"task":"memory_phase","broad_category":"I","image_png":"I_Pegmatite_11.png","image_id":107,"category_name":"Pegmatite","category":7,"distinct_rating":7.11,"distinct_type":"Top","rt":null,"stimulus":"Stimuli_Rocks480/I_Pegmatite_11.png","response":null,"trial_type":"image-keyboard-response","trial_index":110,"plugin_version":"2.1.0","time_elapsed":198166,"subject_id":"91991","group":"Group2","condition":"3_Rep","full_date":"2026-02-28T00:12:26.782Z","date":"2026-02-28","time":"00:12:26"},{"rt":null,"stimulus":"<p style=\"font-size: 50px; margin: 0; text-align: center;\">+</p>","response":null,"trial_type":"html-keyboard-response","trial_index":111,"plugin_version":"2.1.0","time_elapsed":199169,"subject_id":"91991","group":"Group2","condition":"3_Rep","full_date":"2026-02-28T00:12:26.782Z","date":"2026-02-28","time":"00:12:26"},{"task":"memory_phase","broad_category":"I","image_png":"I_Basalt_13.png","image_id":29,"category_name":"Basalt","category":2,"distinct_rating":2.68,"distinct_type":"Bottom","rt":null,"stimulus":"Stimuli_Rocks480/I_Basalt_13.png","response":null,"trial_type":"image-keyboard-response","trial_index":112,"plugin_version":"2.1.0","time_elapsed":201673,"subject_id":"91991","group":"Group2","condition":"3_Rep","full_date":"2026-02-28T00:12:26.782Z","date":"2026-02-28","time":"00:12:26"},{"rt":null,"stimulus":"<p style=\"font-size: 50px; margin: 0; text-align: center;\">+</p>","response":null,"trial_type":"html-keyboard-response","trial_index":113,"plugin_version":"2.1.0","time_elapsed":202675,"subject_id":"91991","group":"Group2","condition":"3_Rep","full_date":"2026-02-28T00:12:26.782Z","date":"2026-02-28","time":"00:12:26"},{"task":"memory_phase","broad_category":"I","image_png":"I_Rhyolite_10.png","image_id":154,"category_name":"Rhyolite","category":10,"distinct_rating":2.88,"distinct_type":"Bottom","rt":null,"stimulus":"Stimuli_Rocks480/I_Rhyolite_10.png","response":null,"trial_type":"image-keyboard-response","trial_index":114,"plugin_version":"2.1.0","time_elapsed":205179,"subject_id":"91991","group":"Group2","condition":"3_Rep","full_date":"2026-02-28T00:12:26.782Z","date":"2026-02-28","time":"00:12:26"},{"rt":null,"stimulus":"<p style=\"font-size: 50px; margin: 0; text-align: center;\">+</p>","response":null,"trial_type":"html-keyboard-response","trial_index":115,"plugin_version":"2.1.0","time_elapsed":206182,"subject_id":"91991","group":"Group2","condition":"3_Rep","full_date":"2026-02-28T00:12:26.782Z","date":"2026-02-28","time":"00:12:26"},{"task":"memory_phase","broad_category":"I","image_png":"I_Rhyolite_05.png","image_id":149,"category_name":"Rhyolite","category":10,"distinct_rating":3.02,"distinct_type":"Bottom","rt":null,"stimulus":"Stimuli_Rocks480/I_Rhyolite_05.png","response":null,"trial_type":"image-keyboard-response","trial_index":116,"plugin_version":"2.1.0","time_elapsed":208685,"subject_id":"91991","group":"Group2","condition":"3_Rep","full_date":"2026-02-28T00:12:26.782Z","date":"2026-02-28","time":"00:12:26"},{"rt":null,"stimulus":"<p style=\"font-size: 50px; margin: 0; text-align: center;\">+</p>","response":null,"trial_type":"html-keyboard-response","trial_index":117,"plugin_version":"2.1.0","time_elapsed":209689,"subject_id":"91991","group":"Group2","condition":"3_Rep","full_date":"2026-02-28T00:12:26.782Z","date":"2026-02-28","time":"00:12:26"},{"task":"memory_phase","broad_category":"M","image_png":"M_Marble_14.png","image_id":238,"category_name":"Marble","category":15,"distinct_rating":3.31,"distinct_type":"Bottom","rt":null,"stimulus":"Stimuli_Rocks480/M_Marble_14.png","response":null,"trial_type":"image-keyboard-response","trial_index":118,"plugin_version":"2.1.0","time_elapsed":212192,"subject_id":"91991","group":"Group2","condition":"3_Rep","full_date":"2026-02-28T00:12:26.782Z","date":"2026-02-28","time":"00:12:26"},{"rt":null,"stimulus":"<p style=\"font-size: 50px; margin: 0; text-align: center;\">+</p>","response":null,"trial_type":"html-keyboard-response","trial_index":119,"plugin_version":"2.1.0","time_elapsed":213195,"subject_id":"91991","group":"Group2","condition":"3_Rep","full_date":"2026-02-28T00:12:26.782Z","date":"2026-02-28","time":"00:12:26"},{"task":"memory_phase","broad_category":"M","image_png":"M_Phyllite_02.png","image_id":258,"category_name":"Phyllite","category":17,"distinct_rating":2.89,"distinct_type":"Bottom","rt":null,"stimulus":"Stimuli_Rocks480/M_Phyllite_02.png","response":null,"trial_type":"image-keyboard-response","trial_index":120,"plugin_version":"2.1.0","time_elapsed":215699,"subject_id":"91991","group":"Group2","condition":"3_Rep","full_date":"2026-02-28T00:12:26.782Z","date":"2026-02-28","time":"00:12:26"},{"rt":null,"stimulus":"<p style=\"font-size: 50px; margin: 0; text-align: center;\">+</p>","response":null,"trial_type":"html-keyboard-response","trial_index":121,"plugin_version":"2.1.0","time_elapsed":216702,"subject_id":"91991","group":"Group2","condition":"3_Rep","full_date":"2026-02-28T00:12:26.782Z","date":"2026-02-28","time":"00:12:26"},{"task":"memory_phase","broad_category":"M","image_png":"M_Quartzite_15.png","image_id":287,"category_name":"Quartzite","category":18,"distinct_rating":2.19,"distinct_type":"Bottom","rt":null,"stimulus":"Stimuli_Rocks480/M_Quartzite_15.png","response":null,"trial_type":"image-keyboard-response","trial_index":122,"plugin_version":"2.1.0","time_elapsed":219207,"subject_id":"91991","group":"Group2","condition":"3_Rep","full_date":"2026-02-28T00:12:26.782Z","date":"2026-02-28","time":"00:12:26"},{"rt":null,"stimulus":"<p style=\"font-size: 50px; margin: 0; text-align: center;\">+</p>","response":null,"trial_type":"html-keyboard-response","trial_index":123,"plugin_version":"2.1.0","time_elapsed":220210,"subject_id":"91991","group":"Group2","condition":"3_Rep","full_date":"2026-02-28T00:12:26.782Z","date":"2026-02-28","time":"00:12:26"},{"task":"memory_phase","broad_category":"M","image_png":"M_Gneiss_14.png","image_id":206,"category_name":"Gneiss","category":13,"distinct_rating":3.41,"distinct_type":"Bottom","rt":null,"stimulus":"Stimuli_Rocks480/M_Gneiss_14.png","response":null,"trial_type":"image-keyboard-response","trial_index":124,"plugin_version":"2.1.0","time_elapsed":222714,"subject_id":"91991","group":"Group2","condition":"3_Rep","full_date":"2026-02-28T00:12:26.782Z","date":"2026-02-28","time":"00:12:26"},{"rt":null,"stimulus":"<p style=\"font-size: 50px; margin: 0; text-align: center;\">+</p>","response":null,"trial_type":"html-keyboard-response","trial_index":125,"plugin_version":"2.1.0","time_elapsed":223716,"subject_id":"91991","group":"Group2","condition":"3_Rep","full_date":"2026-02-28T00:12:26.782Z","date":"2026-02-28","time":"00:12:26"},{"task":"memory_phase","broad_category":"M","image_png":"M_Slate_04.png","image_id":308,"category_name":"Slate","category":20,"distinct_rating":2.2,"distinct_type":"Bottom","rt":null,"stimulus":"Stimuli_Rocks480/M_Slate_04.png","response":null,"trial_type":"image-keyboard-response","trial_index":126,"plugin_version":"2.1.0","time_elapsed":226220,"subject_id":"91991","group":"Group2","condition":"3_Rep","full_date":"2026-02-28T00:12:26.782Z","date":"2026-02-28","time":"00:12:26"},{"rt":null,"stimulus":"<p style=\"font-size: 50px; margin: 0; text-align: center;\">+</p>","response":null,"trial_type":"html-keyboard-response","trial_index":127,"plugin_version":"2.1.0","time_elapsed":227223,"subject_id":"91991","group":"Group2","condition":"3_Rep","full_date":"2026-02-28T00:12:26.782Z","date":"2026-02-28","time":"00:12:26"},{"task":"memory_phase","broad_category":"S","image_png":"S_Sandstone_08.png","image_id":456,"category_name":"Sandstone","category":29,"distinct_rating":1.5,"distinct_type":"Bottom","rt":null,"stimulus":"Stimuli_Rocks480/S_Sandstone_08.png","response":null,"trial_type":"image-keyboard-response","trial_index":128,"plugin_version":"2.1.0","time_elapsed":229727,"subject_id":"91991","group":"Group2","condition":"3_Rep","full_date":"2026-02-28T00:12:26.782Z","date":"2026-02-28","time":"00:12:26"},{"rt":null,"stimulus":"<p style=\"font-size: 50px; margin: 0; text-align: center;\">+</p>","response":null,"trial_type":"html-keyboard-response","trial_index":129,"plugin_version":"2.1.0","time_elapsed":230729,"subject_id":"91991","group":"Group2","condition":"3_Rep","full_date":"2026-02-28T00:12:26.782Z","date":"2026-02-28","time":"00:12:26"},{"task":"memory_phase","broad_category":"I","image_png":"I_Andesite_03.png","image_id":3,"category_name":"Andesite","category":1,"distinct_rating":3.17,"distinct_type":"Bottom","rt":null,"stimulus":"Stimuli_Rocks480/I_Andesite_03.png","response":null,"trial_type":"image-keyboard-response","trial_index":130,"plugin_version":"2.1.0","time_elapsed":233233,"subject_id":"91991","group":"Group2","condition":"3_Rep","full_date":"2026-02-28T00:12:26.782Z","date":"2026-02-28","time":"00:12:26"},{"rt":null,"stimulus":"<p style=\"font-size: 50px; margin: 0; text-align: center;\">+</p>","response":null,"trial_type":"html-keyboard-response","trial_index":131,"plugin_version":"2.1.0","time_elapsed":234236,"subject_id":"91991","group":"Group2","condition":"3_Rep","full_date":"2026-02-28T00:12:26.782Z","date":"2026-02-28","time":"00:12:26"},{"task":"memory_phase","broad_category":"I","image_png":"I_Basalt_08.png","image_id":24,"category_name":"Basalt","category":2,"distinct_rating":2.31,"distinct_type":"Bottom","rt":null,"stimulus":"Stimuli_Rocks480/I_Basalt_08.png","response":null,"trial_type":"image-keyboard-response","trial_index":132,"plugin_version":"2.1.0","time_elapsed":236741,"subject_id":"91991","group":"Group2","condition":"3_Rep","full_date":"2026-02-28T00:12:26.782Z","date":"2026-02-28","time":"00:12:26"},{"rt":null,"stimulus":"<p style=\"font-size: 50px; margin: 0; text-align: center;\">+</p>","response":null,"trial_type":"html-keyboard-response","trial_index":133,"plugin_version":"2.1.0","time_elapsed":237743,"subject_id":"91991","group":"Group2","condition":"3_Rep","full_date":"2026-02-28T00:12:26.782Z","date":"2026-02-28","time":"00:12:26"},{"task":"memory_phase","broad_category":"M","image_png":"M_Marble_03.png","image_id":227,"category_name":"Marble","category":15,"distinct_rating":2.67,"distinct_type":"Bottom","rt":null,"stimulus":"Stimuli_Rocks480/M_Marble_03.png","response":null,"trial_type":"image-keyboard-response","trial_index":134,"plugin_version":"2.1.0","time_elapsed":240247,"subject_id":"91991","group":"Group2","condition":"3_Rep","full_date":"2026-02-28T00:12:26.782Z","date":"2026-02-28","time":"00:12:26"},{"rt":null,"stimulus":"<p style=\"font-size: 50px; margin: 0; text-align: center;\">+</p>","response":null,"trial_type":"html-keyboard-response","trial_index":135,"plugin_version":"2.1.0","time_elapsed":241252,"subject_id":"91991","group":"Group2","condition":"3_Rep","full_date":"2026-02-28T00:12:26.782Z","date":"2026-02-28","time":"00:12:26"},{"task":"memory_phase","broad_category":"I","image_png":"I_Pumice_01.png","image_id":129,"category_name":"Pumice","category":9,"distinct_rating":3.25,"distinct_type":"Bottom","rt":null,"stimulus":"Stimuli_Rocks480/I_Pumice_01.png","response":null,"trial_type":"image-keyboard-response","trial_index":136,"plugin_version":"2.1.0","time_elapsed":243754,"subject_id":"91991","group":"Group2","condition":"3_Rep","full_date":"2026-02-28T00:12:26.782Z","date":"2026-02-28","time":"00:12:26"},{"rt":null,"stimulus":"<p style=\"font-size: 50px; margin: 0; text-align: center;\">+</p>","response":null,"trial_type":"html-keyboard-response","trial_index":137,"plugin_version":"2.1.0","time_elapsed":244757,"subject_id":"91991","group":"Group2","condition":"3_Rep","full_date":"2026-02-28T00:12:26.782Z","date":"2026-02-28","time":"00:12:26"},{"task":"memory_phase","broad_category":"S","image_png":"S_Sandstone_04.png","image_id":452,"category_name":"Sandstone","category":29,"distinct_rating":1.8,"distinct_type":"Bottom","rt":null,"stimulus":"Stimuli_Rocks480/S_Sandstone_04.png","response":null,"trial_type":"image-keyboard-response","trial_index":138,"plugin_version":"2.1.0","time_elapsed":247262,"subject_id":"91991","group":"Group2","condition":"3_Rep","full_date":"2026-02-28T00:12:26.782Z","date":"2026-02-28","time":"00:12:26"},{"rt":null,"stimulus":"<p style=\"font-size: 50px; margin: 0; text-align: center;\">+</p>","response":null,"trial_type":"html-keyboard-response","trial_index":139,"plugin_version":"2.1.0","time_elapsed":248265,"subject_id":"91991","group":"Group2","condition":"3_Rep","full_date":"2026-02-28T00:12:26.782Z","date":"2026-02-28","time":"00:12:26"},{"task":"memory_phase","broad_category":"I","image_png":"I_Diorite_10.png","image_id":42,"category_name":"Diorite","category":3,"distinct_rating":2.84,"distinct_type":"Bottom","rt":null,"stimulus":"Stimuli_Rocks480/I_Diorite_10.png","response":null,"trial_type":"image-keyboard-response","trial_index":140,"plugin_version":"2.1.0","time_elapsed":250768,"subject_id":"91991","group":"Group2","condition":"3_Rep","full_date":"2026-02-28T00:12:26.782Z","date":"2026-02-28","time":"00:12:26"},{"rt":null,"stimulus":"<p style=\"font-size: 50px; margin: 0; text-align: center;\">+</p>","response":null,"trial_type":"html-keyboard-response","trial_index":141,"plugin_version":"2.1.0","time_elapsed":251771,"subject_id":"91991","group":"Group2","condition":"3_Rep","full_date":"2026-02-28T00:12:26.782Z","date":"2026-02-28","time":"00:12:26"},{"task":"memory_phase","broad_category":"M","image_png":"M_Gneiss_15.png","image_id":207,"category_name":"Gneiss","category":13,"distinct_rating":3.11,"distinct_type":"Bottom","rt":null,"stimulus":"Stimuli_Rocks480/M_Gneiss_15.png","response":null,"trial_type":"image-keyboard-response","trial_index":142,"plugin_version":"2.1.0","time_elapsed":254275,"subject_id":"91991","group":"Group2","condition":"3_Rep","full_date":"2026-02-28T00:12:26.782Z","date":"2026-02-28","time":"00:12:26"},{"rt":null,"stimulus":"<p style=\"font-size: 50px; margin: 0; text-align: center;\">+</p>","response":null,"trial_type":"html-keyboard-response","trial_index":143,"plugin_version":"2.1.0","time_elapsed":255278,"subject_id":"91991","group":"Group2","condition":"3_Rep","full_date":"2026-02-28T00:12:26.782Z","date":"2026-02-28","time":"00:12:26"},{"task":"memory_phase","broad_category":"I","image_png":"I_Gabbro_14.png","image_id":62,"category_name":"Gabbro","category":4,"distinct_rating":2.95,"distinct_type":"Bottom","rt":null,"stimulus":"Stimuli_Rocks480/I_Gabbro_14.png","response":null,"trial_type":"image-keyboard-response","trial_index":144,"plugin_version":"2.1.0","time_elapsed":257782,"subject_id":"91991","group":"Group2","condition":"3_Rep","full_date":"2026-02-28T00:12:26.782Z","date":"2026-02-28","time":"00:12:26"},{"rt":null,"stimulus":"<p style=\"font-size: 50px; margin: 0; text-align: center;\">+</p>","response":null,"trial_type":"html-keyboard-response","trial_index":145,"plugin_version":"2.1.0","time_elapsed":258784,"subject_id":"91991","group":"Group2","condition":"3_Rep","full_date":"2026-02-28T00:12:26.782Z","date":"2026-02-28","time":"00:12:26"},{"task":"memory_phase","broad_category":"M","image_png":"M_Marble_02.png","image_id":226,"category_name":"Marble","category":15,"distinct_rating":3.2,"distinct_type":"Bottom","rt":null,"stimulus":"Stimuli_Rocks480/M_Marble_02.png","response":null,"trial_type":"image-keyboard-response","trial_index":146,"plugin_version":"2.1.0","time_elapsed":261287,"subject_id":"91991","group":"Group2","condition":"3_Rep","full_date":"2026-02-28T00:12:26.782Z","date":"2026-02-28","time":"00:12:26"},{"rt":null,"stimulus":"<p style=\"font-size: 50px; margin: 0; text-align: center;\">+</p>","response":null,"trial_type":"html-keyboard-response","trial_index":147,"plugin_version":"2.1.0","time_elapsed":262290,"subject_id":"91991","group":"Group2","condition":"3_Rep","full_date":"2026-02-28T00:12:26.782Z","date":"2026-02-28","time":"00:12:26"},{"task":"memory_phase","broad_category":"I","image_png":"I_Gabbro_12.png","image_id":60,"category_name":"Gabbro","category":4,"distinct_rating":2.6,"distinct_type":"Bottom","rt":null,"stimulus":"Stimuli_Rocks480/I_Gabbro_12.png","response":null,"trial_type":"image-keyboard-response","trial_index":148,"plugin_version":"2.1.0","time_elapsed":264794,"subject_id":"91991","group":"Group2","condition":"3_Rep","full_date":"2026-02-28T00:12:26.782Z","date":"2026-02-28","time":"00:12:26"},{"rt":null,"stimulus":"<p style=\"font-size: 50px; margin: 0; text-align: center;\">+</p>","response":null,"trial_type":"html-keyboard-response","trial_index":149,"plugin_version":"2.1.0","time_elapsed":265797,"subject_id":"91991","group":"Group2","condition":"3_Rep","full_date":"2026-02-28T00:12:26.782Z","date":"2026-02-28","time":"00:12:26"},{"task":"memory_phase","broad_category":"I","image_png":"I_Basalt_10.png","image_id":26,"category_name":"Basalt","category":2,"distinct_rating":2.76,"distinct_type":"Bottom","rt":null,"stimulus":"Stimuli_Rocks480/I_Basalt_10.png","response":null,"trial_type":"image-keyboard-response","trial_index":150,"plugin_version":"2.1.0","time_elapsed":268302,"subject_id":"91991","group":"Group2","condition":"3_Rep","full_date":"2026-02-28T00:12:26.782Z","date":"2026-02-28","time":"00:12:26"},{"rt":null,"stimulus":"<p style=\"font-size: 50px; margin: 0; text-align: center;\">+</p>","response":null,"trial_type":"html-keyboard-response","trial_index":151,"plugin_version":"2.1.0","time_elapsed":269304,"subject_id":"91991","group":"Group2","condition":"3_Rep","full_date":"2026-02-28T00:12:26.782Z","date":"2026-02-28","time":"00:12:26"},{"task":"memory_phase","broad_category":"M","image_png":"M_Quartzite_12.png","image_id":284,"category_name":"Quartzite","category":18,"distinct_rating":1.92,"distinct_type":"Bottom","rt":null,"stimulus":"Stimuli_Rocks480/M_Quartzite_12.png","response":null,"trial_type":"image-keyboard-response","trial_index":152,"plugin_version":"2.1.0","time_elapsed":271809,"subject_id":"91991","group":"Group2","condition":"3_Rep","full_date":"2026-02-28T00:12:26.782Z","date":"2026-02-28","time":"00:12:26"},{"rt":null,"stimulus":"<p style=\"font-size: 50px; margin: 0; text-align: center;\">+</p>","response":null,"trial_type":"html-keyboard-response","trial_index":153,"plugin_version":"2.1.0","time_elapsed":272811,"subject_id":"91991","group":"Group2","condition":"3_Rep","full_date":"2026-02-28T00:12:26.782Z","date":"2026-02-28","time":"00:12:26"},{"task":"memory_phase","broad_category":"M","image_png":"M_Gneiss_10.png","image_id":202,"category_name":"Gneiss","category":13,"distinct_rating":3.09,"distinct_type":"Bottom","rt":null,"stimulus":"Stimuli_Rocks480/M_Gneiss_10.png","response":null,"trial_type":"image-keyboard-response","trial_index":154,"plugin_version":"2.1.0","time_elapsed":275315,"subject_id":"91991","group":"Group2","condition":"3_Rep","full_date":"2026-02-28T00:12:26.782Z","date":"2026-02-28","time":"00:12:26"},{"rt":null,"stimulus":"<p style=\"font-size: 50px; margin: 0; text-align: center;\">+</p>","response":null,"trial_type":"html-keyboard-response","trial_index":155,"plugin_version":"2.1.0","time_elapsed":276318,"subject_id":"91991","group":"Group2","condition":"3_Rep","full_date":"2026-02-28T00:12:26.782Z","date":"2026-02-28","time":"00:12:26"},{"task":"memory_phase","broad_category":"S","image_png":"S_Sandstone_11.png","image_id":459,"category_name":"Sandstone","category":29,"distinct_rating":1.82,"distinct_type":"Bottom","rt":null,"stimulus":"Stimuli_Rocks480/S_Sandstone_11.png","response":null,"trial_type":"image-keyboard-response","trial_index":156,"plugin_version":"2.1.0","time_elapsed":278822,"subject_id":"91991","group":"Group2","condition":"3_Rep","full_date":"2026-02-28T00:12:26.782Z","date":"2026-02-28","time":"00:12:26"},{"rt":3080,"stimulus":"<p style=\"max-width: 760px; margin: auto; font-size: 35px; line-height: 1.5;\">\n                Press SPACE to continue study phase\n              </p>","response":" ","trial_type":"html-keyboard-response","trial_index":157,"plugin_version":"2.1.0","time_elapsed":281903,"subject_id":"91991","group":"Group2","condition":"3_Rep","full_date":"2026-02-28T00:12:26.782Z","date":"2026-02-28","time":"00:12:26"},{"rt":null,"stimulus":"<p style=\"font-size: 50px; margin: 0; text-align: center;\">+</p>","response":null,"trial_type":"html-keyboard-response","trial_index":158,"plugin_version":"2.1.0","time_elapsed":282906,"subject_id":"91991","group":"Group2","condition":"3_Rep","full_date":"2026-02-28T00:12:26.782Z","date":"2026-02-28","time":"00:12:26"},{"task":"memory_phase","broad_category":"S","image_png":"S_Rock Salt_15.png","image_id":447,"category_name":"Rock Salt","category":28,"distinct_rating":7.79,"distinct_type":"Top","rt":null,"stimulus":"Stimuli_Rocks480/S_Rock Salt_15.png","response":null,"trial_type":"image-keyboard-response","trial_index":159,"plugin_version":"2.1.0","time_elapsed":285409,"subject_id":"91991","group":"Group2","condition":"3_Rep","full_date":"2026-02-28T00:12:26.782Z","date":"2026-02-28","time":"00:12:26"},{"rt":null,"stimulus":"<p style=\"font-size: 50px; margin: 0; text-align: center;\">+</p>","response":null,"trial_type":"html-keyboard-response","trial_index":160,"plugin_version":"2.1.0","time_elapsed":286412,"subject_id":"91991","group":"Group2","condition":"3_Rep","full_date":"2026-02-28T00:12:26.782Z","date":"2026-02-28","time":"00:12:26"},{"task":"memory_phase","broad_category":"S","image_png":"S_Shale_03.png","image_id":467,"category_name":"Shale","category":30,"distinct_rating":1.95,"distinct_type":"Bottom","rt":null,"stimulus":"Stimuli_Rocks480/S_Shale_03.png","response":null,"trial_type":"image-keyboard-response","trial_index":161,"plugin_version":"2.1.0","time_elapsed":288916,"subject_id":"91991","group":"Group2","condition":"3_Rep","full_date":"2026-02-28T00:12:26.782Z","date":"2026-02-28","time":"00:12:26"},{"rt":null,"stimulus":"<p style=\"font-size: 50px; margin: 0; text-align: center;\">+</p>","response":null,"trial_type":"html-keyboard-response","trial_index":162,"plugin_version":"2.1.0","time_elapsed":289918,"subject_id":"91991","group":"Group2","condition":"3_Rep","full_date":"2026-02-28T00:12:26.782Z","date":"2026-02-28","time":"00:12:26"},{"task":"memory_phase","broad_category":"S","image_png":"S_Shale_02.png","image_id":466,"category_name":"Shale","category":30,"distinct_rating":2.9,"distinct_type":"Bottom","rt":null,"stimulus":"Stimuli_Rocks480/S_Shale_02.png","response":null,"trial_type":"image-keyboard-response","trial_index":163,"plugin_version":"2.1.0","time_elapsed":292424,"subject_id":"91991","group":"Group2","condition":"3_Rep","full_date":"2026-02-28T00:12:26.782Z","date":"2026-02-28","time":"00:12:26"},{"rt":null,"stimulus":"<p style=\"font-size: 50px; margin: 0; text-align: center;\">+</p>","response":null,"trial_type":"html-keyboard-response","trial_index":164,"plugin_version":"2.1.0","time_elapsed":293427,"subject_id":"91991","group":"Group2","condition":"3_Rep","full_date":"2026-02-28T00:12:26.782Z","date":"2026-02-28","time":"00:12:26"},{"task":"memory_phase","broad_category":"M","image_png":"M_Slate_14.png","image_id":318,"category_name":"Slate","category":20,"distinct_rating":2.58,"distinct_type":"Bottom","rt":null,"stimulus":"Stimuli_Rocks480/M_Slate_14.png","response":null,"trial_type":"image-keyboard-response","trial_index":165,"plugin_version":"2.1.0","time_elapsed":295932,"subject_id":"91991","group":"Group2","condition":"3_Rep","full_date":"2026-02-28T00:12:26.782Z","date":"2026-02-28","time":"00:12:26"},{"rt":null,"stimulus":"<p style=\"font-size: 50px; margin: 0; text-align: center;\">+</p>","response":null,"trial_type":"html-keyboard-response","trial_index":166,"plugin_version":"2.1.0","time_elapsed":296934,"subject_id":"91991","group":"Group2","condition":"3_Rep","full_date":"2026-02-28T00:12:26.782Z","date":"2026-02-28","time":"00:12:26"},{"task":"memory_phase","broad_category":"S","image_png":"S_Conglomerate_14.png","image_id":382,"category_name":"Conglomerate","category":24,"distinct_rating":6.86,"distinct_type":"Top","rt":null,"stimulus":"Stimuli_Rocks480/S_Conglomerate_14.png","response":null,"trial_type":"image-keyboard-response","trial_index":167,"plugin_version":"2.1.0","time_elapsed":299438,"subject_id":"91991","group":"Group2","condition":"3_Rep","full_date":"2026-02-28T00:12:26.782Z","date":"2026-02-28","time":"00:12:26"},{"rt":null,"stimulus":"<p style=\"font-size: 50px; margin: 0; text-align: center;\">+</p>","response":null,"trial_type":"html-keyboard-response","trial_index":168,"plugin_version":"2.1.0","time_elapsed":300441,"subject_id":"91991","group":"Group2","condition":"3_Rep","full_date":"2026-02-28T00:12:26.782Z","date":"2026-02-28","time":"00:12:26"},{"task":"memory_phase","broad_category":"I","image_png":"I_Andesite_04.png","image_id":4,"category_name":"Andesite","category":1,"distinct_rating":3.18,"distinct_type":"Bottom","rt":null,"stimulus":"Stimuli_Rocks480/I_Andesite_04.png","response":null,"trial_type":"image-keyboard-response","trial_index":169,"plugin_version":"2.1.0","time_elapsed":302945,"subject_id":"91991","group":"Group2","condition":"3_Rep","full_date":"2026-02-28T00:12:26.782Z","date":"2026-02-28","time":"00:12:26"},{"rt":null,"stimulus":"<p style=\"font-size: 50px; margin: 0; text-align: center;\">+</p>","response":null,"trial_type":"html-keyboard-response","trial_index":170,"plugin_version":"2.1.0","time_elapsed":303948,"subject_id":"91991","group":"Group2","condition":"3_Rep","full_date":"2026-02-28T00:12:26.782Z","date":"2026-02-28","time":"00:12:26"},{"task":"memory_phase","broad_category":"I","image_png":"I_Diorite_01.png","image_id":33,"category_name":"Diorite","category":3,"distinct_rating":2.97,"distinct_type":"Bottom","rt":null,"stimulus":"Stimuli_Rocks480/I_Diorite_01.png","response":null,"trial_type":"image-keyboard-response","trial_index":171,"plugin_version":"2.1.0","time_elapsed":306452,"subject_id":"91991","group":"Group2","condition":"3_Rep","full_date":"2026-02-28T00:12:26.782Z","date":"2026-02-28","time":"00:12:26"},{"rt":null,"stimulus":"<p style=\"font-size: 50px; margin: 0; text-align: center;\">+</p>","response":null,"trial_type":"html-keyboard-response","trial_index":172,"plugin_version":"2.1.0","time_elapsed":307455,"subject_id":"91991","group":"Group2","condition":"3_Rep","full_date":"2026-02-28T00:12:26.782Z","date":"2026-02-28","time":"00:12:26"},{"task":"memory_phase","broad_category":"S","image_png":"S_Shale_07.png","image_id":471,"category_name":"Shale","category":30,"distinct_rating":2.73,"distinct_type":"Bottom","rt":null,"stimulus":"Stimuli_Rocks480/S_Shale_07.png","response":null,"trial_type":"image-keyboard-response","trial_index":173,"plugin_version":"2.1.0","time_elapsed":309959,"subject_id":"91991","group":"Group2","condition":"3_Rep","full_date":"2026-02-28T00:12:26.782Z","date":"2026-02-28","time":"00:12:26"},{"rt":null,"stimulus":"<p style=\"font-size: 50px; margin: 0; text-align: center;\">+</p>","response":null,"trial_type":"html-keyboard-response","trial_index":174,"plugin_version":"2.1.0","time_elapsed":310963,"subject_id":"91991","group":"Group2","condition":"3_Rep","full_date":"2026-02-28T00:12:26.782Z","date":"2026-02-28","time":"00:12:26"},{"task":"memory_phase","broad_category":"I","image_png":"I_Gabbro_02.png","image_id":50,"category_name":"Gabbro","category":4,"distinct_rating":2.73,"distinct_type":"Bottom","rt":null,"stimulus":"Stimuli_Rocks480/I_Gabbro_02.png","response":null,"trial_type":"image-keyboard-response","trial_index":175,"plugin_version":"2.1.0","time_elapsed":313466,"subject_id":"91991","group":"Group2","condition":"3_Rep","full_date":"2026-02-28T00:12:26.782Z","date":"2026-02-28","time":"00:12:26"},{"rt":null,"stimulus":"<p style=\"font-size: 50px; margin: 0; text-align: center;\">+</p>","response":null,"trial_type":"html-keyboard-response","trial_index":176,"plugin_version":"2.1.0","time_elapsed":314470,"subject_id":"91991","group":"Group2","condition":"3_Rep","full_date":"2026-02-28T00:12:26.782Z","date":"2026-02-28","time":"00:12:26"},{"task":"memory_phase","broad_category":"I","image_png":"I_Peridotite_13.png","image_id":125,"category_name":"Peridotite","category":8,"distinct_rating":7.28,"distinct_type":"Top","rt":null,"stimulus":"Stimuli_Rocks480/I_Peridotite_13.png","response":null,"trial_type":"image-keyboard-response","trial_index":177,"plugin_version":"2.1.0","time_elapsed":316975,"subject_id":"91991","group":"Group2","condition":"3_Rep","full_date":"2026-02-28T00:12:26.782Z","date":"2026-02-28","time":"00:12:26"},{"rt":null,"stimulus":"<p style=\"font-size: 50px; margin: 0; text-align: center;\">+</p>","response":null,"trial_type":"html-keyboard-response","trial_index":178,"plugin_version":"2.1.0","time_elapsed":317977,"subject_id":"91991","group":"Group2","condition":"3_Rep","full_date":"2026-02-28T00:12:26.782Z","date":"2026-02-28","time":"00:12:26"},{"task":"memory_phase","broad_category":"S","image_png":"S_Dolomite_07.png","image_id":391,"category_name":"Dolomite","category":25,"distinct_rating":1.73,"distinct_type":"Bottom","rt":null,"stimulus":"Stimuli_Rocks480/S_Dolomite_07.png","response":null,"trial_type":"image-keyboard-response","trial_index":179,"plugin_version":"2.1.0","time_elapsed":320481,"subject_id":"91991","group":"Group2","condition":"3_Rep","full_date":"2026-02-28T00:12:26.782Z","date":"2026-02-28","time":"00:12:26"},{"rt":null,"stimulus":"<p style=\"font-size: 50px; margin: 0; text-align: center;\">+</p>","response":null,"trial_type":"html-keyboard-response","trial_index":180,"plugin_version":"2.1.0","time_elapsed":321483,"subject_id":"91991","group":"Group2","condition":"3_Rep","full_date":"2026-02-28T00:12:26.782Z","date":"2026-02-28","time":"00:12:26"},{"task":"memory_phase","broad_category":"I","image_png":"I_Pegmatite_03.png","image_id":99,"category_name":"Pegmatite","category":7,"distinct_rating":7.24,"distinct_type":"Top","rt":null,"stimulus":"Stimuli_Rocks480/I_Pegmatite_03.png","response":null,"trial_type":"image-keyboard-response","trial_index":181,"plugin_version":"2.1.0","time_elapsed":323987,"subject_id":"91991","group":"Group2","condition":"3_Rep","full_date":"2026-02-28T00:12:26.782Z","date":"2026-02-28","time":"00:12:26"},{"rt":null,"stimulus":"<p style=\"font-size: 50px; margin: 0; text-align: center;\">+</p>","response":null,"trial_type":"html-keyboard-response","trial_index":182,"plugin_version":"2.1.0","time_elapsed":324990,"subject_id":"91991","group":"Group2","condition":"3_Rep","full_date":"2026-02-28T00:12:26.782Z","date":"2026-02-28","time":"00:12:26"},{"task":"memory_phase","broad_category":"S","image_png":"S_Dolomite_16.png","image_id":400,"category_name":"Dolomite","category":25,"distinct_rating":1.71,"distinct_type":"Bottom","rt":null,"stimulus":"Stimuli_Rocks480/S_Dolomite_16.png","response":null,"trial_type":"image-keyboard-response","trial_index":183,"plugin_version":"2.1.0","time_elapsed":327494,"subject_id":"91991","group":"Group2","condition":"3_Rep","full_date":"2026-02-28T00:12:26.782Z","date":"2026-02-28","time":"00:12:26"},{"rt":null,"stimulus":"<p style=\"font-size: 50px; margin: 0; text-align: center;\">+</p>","response":null,"trial_type":"html-keyboard-response","trial_index":184,"plugin_version":"2.1.0","time_elapsed":328498,"subject_id":"91991","group":"Group2","condition":"3_Rep","full_date":"2026-02-28T00:12:26.782Z","date":"2026-02-28","time":"00:12:26"},{"task":"memory_phase","broad_category":"I","image_png":"I_Rhyolite_08.png","image_id":152,"category_name":"Rhyolite","category":10,"distinct_rating":1.38,"distinct_type":"Bottom","rt":null,"stimulus":"Stimuli_Rocks480/I_Rhyolite_08.png","response":null,"trial_type":"image-keyboard-response","trial_index":185,"plugin_version":"2.1.0","time_elapsed":331002,"subject_id":"91991","group":"Group2","condition":"3_Rep","full_date":"2026-02-28T00:12:26.782Z","date":"2026-02-28","time":"00:12:26"},{"rt":null,"stimulus":"<p style=\"font-size: 50px; margin: 0; text-align: center;\">+</p>","response":null,"trial_type":"html-keyboard-response","trial_index":186,"plugin_version":"2.1.0","time_elapsed":332005,"subject_id":"91991","group":"Group2","condition":"3_Rep","full_date":"2026-02-28T00:12:26.782Z","date":"2026-02-28","time":"00:12:26"},{"task":"memory_phase","broad_category":"M","image_png":"M_Phyllite_05.png","image_id":261,"category_name":"Phyllite","category":17,"distinct_rating":2.14,"distinct_type":"Bottom","rt":null,"stimulus":"Stimuli_Rocks480/M_Phyllite_05.png","response":null,"trial_type":"image-keyboard-response","trial_index":187,"plugin_version":"2.1.0","time_elapsed":334509,"subject_id":"91991","group":"Group2","condition":"3_Rep","full_date":"2026-02-28T00:12:26.782Z","date":"2026-02-28","time":"00:12:26"},{"rt":null,"stimulus":"<p style=\"font-size: 50px; margin: 0; text-align: center;\">+</p>","response":null,"trial_type":"html-keyboard-response","trial_index":188,"plugin_version":"2.1.0","time_elapsed":335512,"subject_id":"91991","group":"Group2","condition":"3_Rep","full_date":"2026-02-28T00:12:26.782Z","date":"2026-02-28","time":"00:12:26"},{"task":"memory_phase","broad_category":"S","image_png":"S_Chert_13.png","image_id":365,"category_name":"Chert","category":23,"distinct_rating":6.57,"distinct_type":"Top","rt":null,"stimulus":"Stimuli_Rocks480/S_Chert_13.png","response":null,"trial_type":"image-keyboard-response","trial_index":189,"plugin_version":"2.1.0","time_elapsed":338016,"subject_id":"91991","group":"Group2","condition":"3_Rep","full_date":"2026-02-28T00:12:26.782Z","date":"2026-02-28","time":"00:12:26"},{"rt":null,"stimulus":"<p style=\"font-size: 50px; margin: 0; text-align: center;\">+</p>","response":null,"trial_type":"html-keyboard-response","trial_index":190,"plugin_version":"2.1.0","time_elapsed":339020,"subject_id":"91991","group":"Group2","condition":"3_Rep","full_date":"2026-02-28T00:12:26.782Z","date":"2026-02-28","time":"00:12:26"},{"task":"memory_phase","broad_category":"M","image_png":"M_Phyllite_13.png","image_id":269,"category_name":"Phyllite","category":17,"distinct_rating":2.8,"distinct_type":"Bottom","rt":null,"stimulus":"Stimuli_Rocks480/M_Phyllite_13.png","response":null,"trial_type":"image-keyboard-response","trial_index":191,"plugin_version":"2.1.0","time_elapsed":341523,"subject_id":"91991","group":"Group2","condition":"3_Rep","full_date":"2026-02-28T00:12:26.782Z","date":"2026-02-28","time":"00:12:26"},{"rt":null,"stimulus":"<p style=\"font-size: 50px; margin: 0; text-align: center;\">+</p>","response":null,"trial_type":"html-keyboard-response","trial_index":192,"plugin_version":"2.1.0","time_elapsed":342527,"subject_id":"91991","group":"Group2","condition":"3_Rep","full_date":"2026-02-28T00:12:26.782Z","date":"2026-02-28","time":"00:12:26"},{"task":"memory_phase","broad_category":"S","image_png":"S_Dolomite_01.png","image_id":385,"category_name":"Dolomite","category":25,"distinct_rating":1.43,"distinct_type":"Bottom","rt":null,"stimulus":"Stimuli_Rocks480/S_Dolomite_01.png","response":null,"trial_type":"image-keyboard-response","trial_index":193,"plugin_version":"2.1.0","time_elapsed":345031,"subject_id":"91991","group":"Group2","condition":"3_Rep","full_date":"2026-02-28T00:12:26.782Z","date":"2026-02-28","time":"00:12:26"},{"rt":null,"stimulus":"<p style=\"font-size: 50px; margin: 0; text-align: center;\">+</p>","response":null,"trial_type":"html-keyboard-response","trial_index":194,"plugin_version":"2.1.0","time_elapsed":346033,"subject_id":"91991","group":"Group2","condition":"3_Rep","full_date":"2026-02-28T00:12:26.782Z","date":"2026-02-28","time":"00:12:26"},{"task":"memory_phase","broad_category":"M","image_png":"M_Slate_10.png","image_id":314,"category_name":"Slate","category":20,"distinct_rating":1.94,"distinct_type":"Bottom","rt":null,"stimulus":"Stimuli_Rocks480/M_Slate_10.png","response":null,"trial_type":"image-keyboard-response","trial_index":195,"plugin_version":"2.1.0","time_elapsed":348537,"subject_id":"91991","group":"Group2","condition":"3_Rep","full_date":"2026-02-28T00:12:26.782Z","date":"2026-02-28","time":"00:12:26"},{"rt":null,"stimulus":"<p style=\"font-size: 50px; margin: 0; text-align: center;\">+</p>","response":null,"trial_type":"html-keyboard-response","trial_index":196,"plugin_version":"2.1.0","time_elapsed":349540,"subject_id":"91991","group":"Group2","condition":"3_Rep","full_date":"2026-02-28T00:12:26.782Z","date":"2026-02-28","time":"00:12:26"},{"task":"memory_phase","broad_category":"I","image_png":"I_Andesite_09.png","image_id":9,"category_name":"Andesite","category":1,"distinct_rating":2.49,"distinct_type":"Bottom","rt":null,"stimulus":"Stimuli_Rocks480/I_Andesite_09.png","response":null,"trial_type":"image-keyboard-response","trial_index":197,"plugin_version":"2.1.0","time_elapsed":352043,"subject_id":"91991","group":"Group2","condition":"3_Rep","full_date":"2026-02-28T00:12:26.782Z","date":"2026-02-28","time":"00:12:26"},{"rt":null,"stimulus":"<p style=\"font-size: 50px; margin: 0; text-align: center;\">+</p>","response":null,"trial_type":"html-keyboard-response","trial_index":198,"plugin_version":"2.1.0","time_elapsed":353047,"subject_id":"91991","group":"Group2","condition":"3_Rep","full_date":"2026-02-28T00:12:26.782Z","date":"2026-02-28","time":"00:12:26"},{"task":"memory_phase","broad_category":"I","image_png":"I_Pumice_14.png","image_id":142,"category_name":"Pumice","category":9,"distinct_rating":3.22,"distinct_type":"Bottom","rt":null,"stimulus":"Stimuli_Rocks480/I_Pumice_14.png","response":null,"trial_type":"image-keyboard-response","trial_index":199,"plugin_version":"2.1.0","time_elapsed":355550,"subject_id":"91991","group":"Group2","condition":"3_Rep","full_date":"2026-02-28T00:12:26.782Z","date":"2026-02-28","time":"00:12:26"},{"rt":null,"stimulus":"<p style=\"font-size: 50px; margin: 0; text-align: center;\">+</p>","response":null,"trial_type":"html-keyboard-response","trial_index":200,"plugin_version":"2.1.0","time_elapsed":356552,"subject_id":"91991","group":"Group2","condition":"3_Rep","full_date":"2026-02-28T00:12:26.782Z","date":"2026-02-28","time":"00:12:26"},{"task":"memory_phase","broad_category":"M","image_png":"M_Quartzite_07.png","image_id":279,"category_name":"Quartzite","category":18,"distinct_rating":1.97,"distinct_type":"Bottom","rt":null,"stimulus":"Stimuli_Rocks480/M_Quartzite_07.png","response":null,"trial_type":"image-keyboard-response","trial_index":201,"plugin_version":"2.1.0","time_elapsed":359056,"subject_id":"91991","group":"Group2","condition":"3_Rep","full_date":"2026-02-28T00:12:26.782Z","date":"2026-02-28","time":"00:12:26"},{"rt":null,"stimulus":"<p style=\"font-size: 50px; margin: 0; text-align: center;\">+</p>","response":null,"trial_type":"html-keyboard-response","trial_index":202,"plugin_version":"2.1.0","time_elapsed":360058,"subject_id":"91991","group":"Group2","condition":"3_Rep","full_date":"2026-02-28T00:12:26.782Z","date":"2026-02-28","time":"00:12:26"},{"task":"memory_phase","broad_category":"I","image_png":"I_Diorite_15.png","image_id":47,"category_name":"Diorite","category":3,"distinct_rating":3.05,"distinct_type":"Bottom","rt":null,"stimulus":"Stimuli_Rocks480/I_Diorite_15.png","response":null,"trial_type":"image-keyboard-response","trial_index":203,"plugin_version":"2.1.0","time_elapsed":362561,"subject_id":"91991","group":"Group2","condition":"3_Rep","full_date":"2026-02-28T00:12:26.782Z","date":"2026-02-28","time":"00:12:26"},{"rt":null,"stimulus":"<p style=\"font-size: 50px; margin: 0; text-align: center;\">+</p>","response":null,"trial_type":"html-keyboard-response","trial_index":204,"plugin_version":"2.1.0","time_elapsed":363564,"subject_id":"91991","group":"Group2","condition":"3_Rep","full_date":"2026-02-28T00:12:26.782Z","date":"2026-02-28","time":"00:12:26"},{"task":"memory_phase","broad_category":"I","image_png":"I_Pumice_13.png","image_id":141,"category_name":"Pumice","category":9,"distinct_rating":3.12,"distinct_type":"Bottom","rt":null,"stimulus":"Stimuli_Rocks480/I_Pumice_13.png","response":null,"trial_type":"image-keyboard-response","trial_index":205,"plugin_version":"2.1.0","time_elapsed":366067,"subject_id":"91991","group":"Group2","condition":"3_Rep","full_date":"2026-02-28T00:12:26.782Z","date":"2026-02-28","time":"00:12:26"},{"rt":null,"stimulus":"<p style=\"font-size: 50px; margin: 0; text-align: center;\">+</p>","response":null,"trial_type":"html-keyboard-response","trial_index":206,"plugin_version":"2.1.0","time_elapsed":367069,"subject_id":"91991","group":"Group2","condition":"3_Rep","full_date":"2026-02-28T00:12:26.782Z","date":"2026-02-28","time":"00:12:26"},{"task":"memory_phase","broad_category":"I","image_png":"I_Obsidian_06.png","image_id":86,"category_name":"Obsidian","category":6,"distinct_rating":8.01,"distinct_type":"Top","rt":null,"stimulus":"Stimuli_Rocks480/I_Obsidian_06.png","response":null,"trial_type":"image-keyboard-response","trial_index":207,"plugin_version":"2.1.0","time_elapsed":369572,"subject_id":"91991","group":"Group2","condition":"3_Rep","full_date":"2026-02-28T00:12:26.782Z","date":"2026-02-28","time":"00:12:26"},{"rt":9870,"stimulus":"<p style=\"max-width: 760px; margin: auto; font-size: 35px; line-height: 1.5;\">\n                You have completed 2 study phases. \n                Now, we'll show you all the images again 1 more time.\n                <br><br>Press SPACE to continue\n              </p>","response":" ","trial_type":"html-keyboard-response","trial_index":208,"plugin_version":"2.1.0","time_elapsed":379443,"subject_id":"91991","group":"Group2","condition":"3_Rep","full_date":"2026-02-28T00:12:26.782Z","date":"2026-02-28","time":"00:12:26"},{"rt":null,"stimulus":"<p style=\"font-size: 50px; margin: 0; text-align: center;\">+</p>","response":null,"trial_type":"html-keyboard-response","trial_index":209,"plugin_version":"2.1.0","time_elapsed":380445,"subject_id":"91991","group":"Group2","condition":"3_Rep","full_date":"2026-02-28T00:12:26.782Z","date":"2026-02-28","time":"00:12:26"},{"task":"memory_phase","broad_category":"S","image_png":"S_Shale_03.png","image_id":467,"category_name":"Shale","category":30,"distinct_rating":1.95,"distinct_type":"Bottom","rt":null,"stimulus":"Stimuli_Rocks480/S_Shale_03.png","response":null,"trial_type":"image-keyboard-response","trial_index":210,"plugin_version":"2.1.0","time_elapsed":382950,"subject_id":"91991","group":"Group2","condition":"3_Rep","full_date":"2026-02-28T00:12:26.782Z","date":"2026-02-28","time":"00:12:26"},{"rt":null,"stimulus":"<p style=\"font-size: 50px; margin: 0; text-align: center;\">+</p>","response":null,"trial_type":"html-keyboard-response","trial_index":211,"plugin_version":"2.1.0","time_elapsed":383952,"subject_id":"91991","group":"Group2","condition":"3_Rep","full_date":"2026-02-28T00:12:26.782Z","date":"2026-02-28","time":"00:12:26"},{"task":"memory_phase","broad_category":"M","image_png":"M_Slate_04.png","image_id":308,"category_name":"Slate","category":20,"distinct_rating":2.2,"distinct_type":"Bottom","rt":null,"stimulus":"Stimuli_Rocks480/M_Slate_04.png","response":null,"trial_type":"image-keyboard-response","trial_index":212,"plugin_version":"2.1.0","time_elapsed":386456,"subject_id":"91991","group":"Group2","condition":"3_Rep","full_date":"2026-02-28T00:12:26.782Z","date":"2026-02-28","time":"00:12:26"},{"rt":null,"stimulus":"<p style=\"font-size: 50px; margin: 0; text-align: center;\">+</p>","response":null,"trial_type":"html-keyboard-response","trial_index":213,"plugin_version":"2.1.0","time_elapsed":387460,"subject_id":"91991","group":"Group2","condition":"3_Rep","full_date":"2026-02-28T00:12:26.782Z","date":"2026-02-28","time":"00:12:26"},{"task":"memory_phase","broad_category":"I","image_png":"I_Diorite_10.png","image_id":42,"category_name":"Diorite","category":3,"distinct_rating":2.84,"distinct_type":"Bottom","rt":null,"stimulus":"Stimuli_Rocks480/I_Diorite_10.png","response":null,"trial_type":"image-keyboard-response","trial_index":214,"plugin_version":"2.1.0","time_elapsed":389964,"subject_id":"91991","group":"Group2","condition":"3_Rep","full_date":"2026-02-28T00:12:26.782Z","date":"2026-02-28","time":"00:12:26"},{"rt":null,"stimulus":"<p style=\"font-size: 50px; margin: 0; text-align: center;\">+</p>","response":null,"trial_type":"html-keyboard-response","trial_index":215,"plugin_version":"2.1.0","time_elapsed":390967,"subject_id":"91991","group":"Group2","condition":"3_Rep","full_date":"2026-02-28T00:12:26.782Z","date":"2026-02-28","time":"00:12:26"},{"task":"memory_phase","broad_category":"I","image_png":"I_Basalt_08.png","image_id":24,"category_name":"Basalt","category":2,"distinct_rating":2.31,"distinct_type":"Bottom","rt":null,"stimulus":"Stimuli_Rocks480/I_Basalt_08.png","response":null,"trial_type":"image-keyboard-response","trial_index":216,"plugin_version":"2.1.0","time_elapsed":393471,"subject_id":"91991","group":"Group2","condition":"3_Rep","full_date":"2026-02-28T00:12:26.782Z","date":"2026-02-28","time":"00:12:26"},{"rt":null,"stimulus":"<p style=\"font-size: 50px; margin: 0; text-align: center;\">+</p>","response":null,"trial_type":"html-keyboard-response","trial_index":217,"plugin_version":"2.1.0","time_elapsed":394474,"subject_id":"91991","group":"Group2","condition":"3_Rep","full_date":"2026-02-28T00:12:26.782Z","date":"2026-02-28","time":"00:12:26"},{"task":"memory_phase","broad_category":"M","image_png":"M_Gneiss_10.png","image_id":202,"category_name":"Gneiss","category":13,"distinct_rating":3.09,"distinct_type":"Bottom","rt":null,"stimulus":"Stimuli_Rocks480/M_Gneiss_10.png","response":null,"trial_type":"image-keyboard-response","trial_index":218,"plugin_version":"2.1.0","time_elapsed":396978,"subject_id":"91991","group":"Group2","condition":"3_Rep","full_date":"2026-02-28T00:12:26.782Z","date":"2026-02-28","time":"00:12:26"},{"rt":null,"stimulus":"<p style=\"font-size: 50px; margin: 0; text-align: center;\">+</p>","response":null,"trial_type":"html-keyboard-response","trial_index":219,"plugin_version":"2.1.0","time_elapsed":397981,"subject_id":"91991","group":"Group2","condition":"3_Rep","full_date":"2026-02-28T00:12:26.782Z","date":"2026-02-28","time":"00:12:26"},{"task":"memory_phase","broad_category":"S","image_png":"S_Shale_07.png","image_id":471,"category_name":"Shale","category":30,"distinct_rating":2.73,"distinct_type":"Bottom","rt":null,"stimulus":"Stimuli_Rocks480/S_Shale_07.png","response":null,"trial_type":"image-keyboard-response","trial_index":220,"plugin_version":"2.1.0","time_elapsed":400486,"subject_id":"91991","group":"Group2","condition":"3_Rep","full_date":"2026-02-28T00:12:26.782Z","date":"2026-02-28","time":"00:12:26"},{"rt":null,"stimulus":"<p style=\"font-size: 50px; margin: 0; text-align: center;\">+</p>","response":null,"trial_type":"html-keyboard-response","trial_index":221,"plugin_version":"2.1.0","time_elapsed":401489,"subject_id":"91991","group":"Group2","condition":"3_Rep","full_date":"2026-02-28T00:12:26.782Z","date":"2026-02-28","time":"00:12:26"},{"task":"memory_phase","broad_category":"I","image_png":"I_Gabbro_02.png","image_id":50,"category_name":"Gabbro","category":4,"distinct_rating":2.73,"distinct_type":"Bottom","rt":null,"stimulus":"Stimuli_Rocks480/I_Gabbro_02.png","response":null,"trial_type":"image-keyboard-response","trial_index":222,"plugin_version":"2.1.0","time_elapsed":403996,"subject_id":"91991","group":"Group2","condition":"3_Rep","full_date":"2026-02-28T00:12:26.782Z","date":"2026-02-28","time":"00:12:26"},{"rt":null,"stimulus":"<p style=\"font-size: 50px; margin: 0; text-align: center;\">+</p>","response":null,"trial_type":"html-keyboard-response","trial_index":223,"plugin_version":"2.1.0","time_elapsed":405000,"subject_id":"91991","group":"Group2","condition":"3_Rep","full_date":"2026-02-28T00:12:26.782Z","date":"2026-02-28","time":"00:12:26"},{"task":"memory_phase","broad_category":"M","image_png":"M_Slate_10.png","image_id":314,"category_name":"Slate","category":20,"distinct_rating":1.94,"distinct_type":"Bottom","rt":null,"stimulus":"Stimuli_Rocks480/M_Slate_10.png","response":null,"trial_type":"image-keyboard-response","trial_index":224,"plugin_version":"2.1.0","time_elapsed":407505,"subject_id":"91991","group":"Group2","condition":"3_Rep","full_date":"2026-02-28T00:12:26.782Z","date":"2026-02-28","time":"00:12:26"},{"rt":null,"stimulus":"<p style=\"font-size: 50px; margin: 0; text-align: center;\">+</p>","response":null,"trial_type":"html-keyboard-response","trial_index":225,"plugin_version":"2.1.0","time_elapsed":408507,"subject_id":"91991","group":"Group2","condition":"3_Rep","full_date":"2026-02-28T00:12:26.782Z","date":"2026-02-28","time":"00:12:26"},{"task":"memory_phase","broad_category":"M","image_png":"M_Marble_03.png","image_id":227,"category_name":"Marble","category":15,"distinct_rating":2.67,"distinct_type":"Bottom","rt":null,"stimulus":"Stimuli_Rocks480/M_Marble_03.png","response":null,"trial_type":"image-keyboard-response","trial_index":226,"plugin_version":"2.1.0","time_elapsed":411012,"subject_id":"91991","group":"Group2","condition":"3_Rep","full_date":"2026-02-28T00:12:26.782Z","date":"2026-02-28","time":"00:12:26"},{"rt":null,"stimulus":"<p style=\"font-size: 50px; margin: 0; text-align: center;\">+</p>","response":null,"trial_type":"html-keyboard-response","trial_index":227,"plugin_version":"2.1.0","time_elapsed":412014,"subject_id":"91991","group":"Group2","condition":"3_Rep","full_date":"2026-02-28T00:12:26.782Z","date":"2026-02-28","time":"00:12:26"},{"task":"memory_phase","broad_category":"M","image_png":"M_Marble_14.png","image_id":238,"category_name":"Marble","category":15,"distinct_rating":3.31,"distinct_type":"Bottom","rt":null,"stimulus":"Stimuli_Rocks480/M_Marble_14.png","response":null,"trial_type":"image-keyboard-response","trial_index":228,"plugin_version":"2.1.0","time_elapsed":414518,"subject_id":"91991","group":"Group2","condition":"3_Rep","full_date":"2026-02-28T00:12:26.782Z","date":"2026-02-28","time":"00:12:26"},{"rt":null,"stimulus":"<p style=\"font-size: 50px; margin: 0; text-align: center;\">+</p>","response":null,"trial_type":"html-keyboard-response","trial_index":229,"plugin_version":"2.1.0","time_elapsed":415522,"subject_id":"91991","group":"Group2","condition":"3_Rep","full_date":"2026-02-28T00:12:26.782Z","date":"2026-02-28","time":"00:12:26"},{"task":"memory_phase","broad_category":"I","image_png":"I_Pegmatite_11.png","image_id":107,"category_name":"Pegmatite","category":7,"distinct_rating":7.11,"distinct_type":"Top","rt":null,"stimulus":"Stimuli_Rocks480/I_Pegmatite_11.png","response":null,"trial_type":"image-keyboard-response","trial_index":230,"plugin_version":"2.1.0","time_elapsed":418027,"subject_id":"91991","group":"Group2","condition":"3_Rep","full_date":"2026-02-28T00:12:26.782Z","date":"2026-02-28","time":"00:12:26"},{"rt":null,"stimulus":"<p style=\"font-size: 50px; margin: 0; text-align: center;\">+</p>","response":null,"trial_type":"html-keyboard-response","trial_index":231,"plugin_version":"2.1.0","time_elapsed":419029,"subject_id":"91991","group":"Group2","condition":"3_Rep","full_date":"2026-02-28T00:12:26.782Z","date":"2026-02-28","time":"00:12:26"},{"task":"memory_phase","broad_category":"M","image_png":"M_Phyllite_02.png","image_id":258,"category_name":"Phyllite","category":17,"distinct_rating":2.89,"distinct_type":"Bottom","rt":null,"stimulus":"Stimuli_Rocks480/M_Phyllite_02.png","response":null,"trial_type":"image-keyboard-response","trial_index":232,"plugin_version":"2.1.0","time_elapsed":421531,"subject_id":"91991","group":"Group2","condition":"3_Rep","full_date":"2026-02-28T00:12:26.782Z","date":"2026-02-28","time":"00:12:26"},{"rt":null,"stimulus":"<p style=\"font-size: 50px; margin: 0; text-align: center;\">+</p>","response":null,"trial_type":"html-keyboard-response","trial_index":233,"plugin_version":"2.1.0","time_elapsed":422534,"subject_id":"91991","group":"Group2","condition":"3_Rep","full_date":"2026-02-28T00:12:26.782Z","date":"2026-02-28","time":"00:12:26"},{"task":"memory_phase","broad_category":"M","image_png":"M_Gneiss_15.png","image_id":207,"category_name":"Gneiss","category":13,"distinct_rating":3.11,"distinct_type":"Bottom","rt":null,"stimulus":"Stimuli_Rocks480/M_Gneiss_15.png","response":null,"trial_type":"image-keyboard-response","trial_index":234,"plugin_version":"2.1.0","time_elapsed":425037,"subject_id":"91991","group":"Group2","condition":"3_Rep","full_date":"2026-02-28T00:12:26.782Z","date":"2026-02-28","time":"00:12:26"},{"rt":null,"stimulus":"<p style=\"font-size: 50px; margin: 0; text-align: center;\">+</p>","response":null,"trial_type":"html-keyboard-response","trial_index":235,"plugin_version":"2.1.0","time_elapsed":426039,"subject_id":"91991","group":"Group2","condition":"3_Rep","full_date":"2026-02-28T00:12:26.782Z","date":"2026-02-28","time":"00:12:26"},{"task":"memory_phase","broad_category":"I","image_png":"I_Andesite_03.png","image_id":3,"category_name":"Andesite","category":1,"distinct_rating":3.17,"distinct_type":"Bottom","rt":null,"stimulus":"Stimuli_Rocks480/I_Andesite_03.png","response":null,"trial_type":"image-keyboard-re