[{"width":1912,"height":954,"webaudio":true,"browser":"edge-chromium","browser_version":"144.0.0","mobile":false,"os":"Windows 10","fullscreen":true,"vsync_rate":60.4,"webcam":false,"microphone":false,"trial_type":"browser-check","trial_index":0,"plugin_version":"2.1.0","time_elapsed":1002,"subject_id":"91376","group":"Group1","condition":"1_Rep","full_date":"2026-02-14T21:34:01.241Z","date":"2026-02-14","time":"21:34:01"},{"success":true,"timeout":false,"failed_images":[],"failed_audio":[],"failed_video":[],"trial_type":"preload","trial_index":1,"plugin_version":"2.1.0","time_elapsed":18880,"subject_id":"91376","group":"Group1","condition":"1_Rep","full_date":"2026-02-14T21:34:01.241Z","date":"2026-02-14","time":"21:34:01"},{"rt":4528,"url":"SONA_consent_memorability.html","trial_type":"external-html","trial_index":2,"plugin_version":"2.1.0","time_elapsed":23462,"subject_id":"91376","group":"Group1","condition":"1_Rep","full_date":"2026-02-14T21:34:01.241Z","date":"2026-02-14","time":"21:34:01"},{"success":true,"rt":1223,"trial_type":"fullscreen","trial_index":3,"plugin_version":"2.1.0","time_elapsed":25690,"subject_id":"91376","group":"Group1","condition":"1_Rep","full_date":"2026-02-14T21:34:01.241Z","date":"2026-02-14","time":"21:34:01"},{"rt":2275,"stimulus":"<div style=\"max-width: 760px; margin: auto; font-size: 20px; line-height: 1.5;\">\n      <h1 style=\"text-align:center; font-size: 30px;\">Instructions</h1>\n      <p>\n        Welcome to the study on <b>visual memory</b>. This experiment consists of <b>two phases</b>: \n        a <b>study phase</b> and a <b>test phase</b>.\n      </p>\n      <p>\n        In the study phase, you will see a series of rock images along with their category labels.\n        The images will appear one at a time.\n        <b>Your task</b> is to learn the categories to which the rock images belong \n        and to remember each image as accurately as possible.\n      </p> \n      <p>\n        Note that you will see each image only <b>once</b> during the study phase. \n          So, please pay close attention and try to remember each image carefully.\n      </p>\n      <p>\n        After the study phase, <b>your memory will be tested</b>. \n        Additional instructions for the test phase will be provided at that time.\n      </p>\n      <p>\n        If your computer has multiple <b>language settings</b> (e.g., English and another language),\n        please make sure it is set to English before starting.\n      </p>\n      <p>\n        You can track your progress using the <b>completion bar</b> at the top of the screen. \n        Please note that the bar will refresh when the test phase begins \n        to give you an accurate sense of your progress in both phases.\n      </p> \n      <p>\n        Press the button below when you are ready to begin.\n      </p>\n    </div>","response":0,"trial_type":"html-button-response","trial_index":4,"plugin_version":"2.1.0","time_elapsed":27967,"subject_id":"91376","group":"Group1","condition":"1_Rep","full_date":"2026-02-14T21:34:01.241Z","date":"2026-02-14","time":"21:34:01"},{"rt":null,"stimulus":"<p style=\"font-size: 50px; margin: 0; text-align: center;\">+</p>","response":null,"trial_type":"html-keyboard-response","trial_index":5,"plugin_version":"2.1.0","time_elapsed":28983,"subject_id":"91376","group":"Group1","condition":"1_Rep","full_date":"2026-02-14T21:34:01.241Z","date":"2026-02-14","time":"21:34:01"},{"task":"memory_phase","broad_category":"I","image_png":"I_Basalt_02.png","image_id":18,"category_name":"Basalt","category":2,"distinct_rating":1.84,"distinct_type":"Bottom","rt":null,"stimulus":"Stimuli_Rocks480/I_Basalt_02.png","response":null,"trial_type":"image-keyboard-response","trial_index":6,"plugin_version":"2.1.0","time_elapsed":31494,"subject_id":"91376","group":"Group1","condition":"1_Rep","full_date":"2026-02-14T21:34:01.241Z","date":"2026-02-14","time":"21:34:01"},{"rt":null,"stimulus":"<p style=\"font-size: 50px; margin: 0; text-align: center;\">+</p>","response":null,"trial_type":"html-keyboard-response","trial_index":7,"plugin_version":"2.1.0","time_elapsed":32504,"subject_id":"91376","group":"Group1","condition":"1_Rep","full_date":"2026-02-14T21:34:01.241Z","date":"2026-02-14","time":"21:34:01"},{"task":"memory_phase","broad_category":"M","image_png":"M_Gneiss_06.png","image_id":198,"category_name":"Gneiss","category":13,"distinct_rating":2.65,"distinct_type":"Bottom","rt":null,"stimulus":"Stimuli_Rocks480/M_Gneiss_06.png","response":null,"trial_type":"image-keyboard-response","trial_index":8,"plugin_version":"2.1.0","time_elapsed":35017,"subject_id":"91376","group":"Group1","condition":"1_Rep","full_date":"2026-02-14T21:34:01.241Z","date":"2026-02-14","time":"21:34:01"},{"rt":null,"stimulus":"<p style=\"font-size: 50px; margin: 0; text-align: center;\">+</p>","response":null,"trial_type":"html-keyboard-response","trial_index":9,"plugin_version":"2.1.0","time_elapsed":36023,"subject_id":"91376","group":"Group1","condition":"1_Rep","full_date":"2026-02-14T21:34:01.241Z","date":"2026-02-14","time":"21:34:01"},{"task":"memory_phase","broad_category":"S","image_png":"S_Sandstone_16.png","image_id":464,"category_name":"Sandstone","category":29,"distinct_rating":1.93,"distinct_type":"Bottom","rt":null,"stimulus":"Stimuli_Rocks480/S_Sandstone_16.png","response":null,"trial_type":"image-keyboard-response","trial_index":10,"plugin_version":"2.1.0","time_elapsed":38533,"subject_id":"91376","group":"Group1","condition":"1_Rep","full_date":"2026-02-14T21:34:01.241Z","date":"2026-02-14","time":"21:34:01"},{"rt":null,"stimulus":"<p style=\"font-size: 50px; margin: 0; text-align: center;\">+</p>","response":null,"trial_type":"html-keyboard-response","trial_index":11,"plugin_version":"2.1.0","time_elapsed":39537,"subject_id":"91376","group":"Group1","condition":"1_Rep","full_date":"2026-02-14T21:34:01.241Z","date":"2026-02-14","time":"21:34:01"},{"task":"memory_phase","broad_category":"M","image_png":"M_Phyllite_10.png","image_id":266,"category_name":"Phyllite","category":17,"distinct_rating":2.6,"distinct_type":"Bottom","rt":null,"stimulus":"Stimuli_Rocks480/M_Phyllite_10.png","response":null,"trial_type":"image-keyboard-response","trial_index":12,"plugin_version":"2.1.0","time_elapsed":42049,"subject_id":"91376","group":"Group1","condition":"1_Rep","full_date":"2026-02-14T21:34:01.241Z","date":"2026-02-14","time":"21:34:01"},{"rt":null,"stimulus":"<p style=\"font-size: 50px; margin: 0; text-align: center;\">+</p>","response":null,"trial_type":"html-keyboard-response","trial_index":13,"plugin_version":"2.1.0","time_elapsed":43066,"subject_id":"91376","group":"Group1","condition":"1_Rep","full_date":"2026-02-14T21:34:01.241Z","date":"2026-02-14","time":"21:34:01"},{"task":"memory_phase","broad_category":"M","image_png":"M_Marble_04.png","image_id":228,"category_name":"Marble","category":15,"distinct_rating":3.15,"distinct_type":"Bottom","rt":null,"stimulus":"Stimuli_Rocks480/M_Marble_04.png","response":null,"trial_type":"image-keyboard-response","trial_index":14,"plugin_version":"2.1.0","time_elapsed":45572,"subject_id":"91376","group":"Group1","condition":"1_Rep","full_date":"2026-02-14T21:34:01.241Z","date":"2026-02-14","time":"21:34:01"},{"rt":null,"stimulus":"<p style=\"font-size: 50px; margin: 0; text-align: center;\">+</p>","response":null,"trial_type":"html-keyboard-response","trial_index":15,"plugin_version":"2.1.0","time_elapsed":46587,"subject_id":"91376","group":"Group1","condition":"1_Rep","full_date":"2026-02-14T21:34:01.241Z","date":"2026-02-14","time":"21:34:01"},{"task":"memory_phase","broad_category":"M","image_png":"M_Quartzite_13.png","image_id":285,"category_name":"Quartzite","category":18,"distinct_rating":2.27,"distinct_type":"Bottom","rt":null,"stimulus":"Stimuli_Rocks480/M_Quartzite_13.png","response":null,"trial_type":"image-keyboard-response","trial_index":16,"plugin_version":"2.1.0","time_elapsed":49100,"subject_id":"91376","group":"Group1","condition":"1_Rep","full_date":"2026-02-14T21:34:01.241Z","date":"2026-02-14","time":"21:34:01"},{"rt":null,"stimulus":"<p style=\"font-size: 50px; margin: 0; text-align: center;\">+</p>","response":null,"trial_type":"html-keyboard-response","trial_index":17,"plugin_version":"2.1.0","time_elapsed":50104,"subject_id":"91376","group":"Group1","condition":"1_Rep","full_date":"2026-02-14T21:34:01.241Z","date":"2026-02-14","time":"21:34:01"},{"task":"memory_phase","broad_category":"S","image_png":"S_Rock Salt_01.png","image_id":433,"category_name":"Rock Salt","category":28,"distinct_rating":7.18,"distinct_type":"Top","rt":null,"stimulus":"Stimuli_Rocks480/S_Rock Salt_01.png","response":null,"trial_type":"image-keyboard-response","trial_index":18,"plugin_version":"2.1.0","time_elapsed":52618,"subject_id":"91376","group":"Group1","condition":"1_Rep","full_date":"2026-02-14T21:34:01.241Z","date":"2026-02-14","time":"21:34:01"},{"rt":null,"stimulus":"<p style=\"font-size: 50px; margin: 0; text-align: center;\">+</p>","response":null,"trial_type":"html-keyboard-response","trial_index":19,"plugin_version":"2.1.0","time_elapsed":53627,"subject_id":"91376","group":"Group1","condition":"1_Rep","full_date":"2026-02-14T21:34:01.241Z","date":"2026-02-14","time":"21:34:01"},{"task":"memory_phase","broad_category":"M","image_png":"M_Phyllite_07.png","image_id":263,"category_name":"Phyllite","category":17,"distinct_rating":2.59,"distinct_type":"Bottom","rt":null,"stimulus":"Stimuli_Rocks480/M_Phyllite_07.png","response":null,"trial_type":"image-keyboard-response","trial_index":20,"plugin_version":"2.1.0","time_elapsed":56133,"subject_id":"91376","group":"Group1","condition":"1_Rep","full_date":"2026-02-14T21:34:01.241Z","date":"2026-02-14","time":"21:34:01"},{"rt":null,"stimulus":"<p style=\"font-size: 50px; margin: 0; text-align: center;\">+</p>","response":null,"trial_type":"html-keyboard-response","trial_index":21,"plugin_version":"2.1.0","time_elapsed":57134,"subject_id":"91376","group":"Group1","condition":"1_Rep","full_date":"2026-02-14T21:34:01.241Z","date":"2026-02-14","time":"21:34:01"},{"task":"memory_phase","broad_category":"I","image_png":"I_Pegmatite_16.png","image_id":112,"category_name":"Pegmatite","category":7,"distinct_rating":7.03,"distinct_type":"Top","rt":null,"stimulus":"Stimuli_Rocks480/I_Pegmatite_16.png","response":null,"trial_type":"image-keyboard-response","trial_index":22,"plugin_version":"2.1.0","time_elapsed":59649,"subject_id":"91376","group":"Group1","condition":"1_Rep","full_date":"2026-02-14T21:34:01.241Z","date":"2026-02-14","time":"21:34:01"},{"rt":null,"stimulus":"<p style=\"font-size: 50px; margin: 0; text-align: center;\">+</p>","response":null,"trial_type":"html-keyboard-response","trial_index":23,"plugin_version":"2.1.0","time_elapsed":60653,"subject_id":"91376","group":"Group1","condition":"1_Rep","full_date":"2026-02-14T21:34:01.241Z","date":"2026-02-14","time":"21:34:01"},{"task":"memory_phase","broad_category":"I","image_png":"I_Rhyolite_16.png","image_id":160,"category_name":"Rhyolite","category":10,"distinct_rating":2.19,"distinct_type":"Bottom","rt":null,"stimulus":"Stimuli_Rocks480/I_Rhyolite_16.png","response":null,"trial_type":"image-keyboard-response","trial_index":24,"plugin_version":"2.1.0","time_elapsed":63162,"subject_id":"91376","group":"Group1","condition":"1_Rep","full_date":"2026-02-14T21:34:01.241Z","date":"2026-02-14","time":"21:34:01"},{"rt":null,"stimulus":"<p style=\"font-size: 50px; margin: 0; text-align: center;\">+</p>","response":null,"trial_type":"html-keyboard-response","trial_index":25,"plugin_version":"2.1.0","time_elapsed":64165,"subject_id":"91376","group":"Group1","condition":"1_Rep","full_date":"2026-02-14T21:34:01.241Z","date":"2026-02-14","time":"21:34:01"},{"task":"memory_phase","broad_category":"I","image_png":"I_Diorite_05.png","image_id":37,"category_name":"Diorite","category":3,"distinct_rating":3.08,"distinct_type":"Bottom","rt":null,"stimulus":"Stimuli_Rocks480/I_Diorite_05.png","response":null,"trial_type":"image-keyboard-response","trial_index":26,"plugin_version":"2.1.0","time_elapsed":66672,"subject_id":"91376","group":"Group1","condition":"1_Rep","full_date":"2026-02-14T21:34:01.241Z","date":"2026-02-14","time":"21:34:01"},{"rt":null,"stimulus":"<p style=\"font-size: 50px; margin: 0; text-align: center;\">+</p>","response":null,"trial_type":"html-keyboard-response","trial_index":27,"plugin_version":"2.1.0","time_elapsed":67688,"subject_id":"91376","group":"Group1","condition":"1_Rep","full_date":"2026-02-14T21:34:01.241Z","date":"2026-02-14","time":"21:34:01"},{"task":"memory_phase","broad_category":"M","image_png":"M_Slate_03.png","image_id":307,"category_name":"Slate","category":20,"distinct_rating":1.87,"distinct_type":"Bottom","rt":null,"stimulus":"Stimuli_Rocks480/M_Slate_03.png","response":null,"trial_type":"image-keyboard-response","trial_index":28,"plugin_version":"2.1.0","time_elapsed":70191,"subject_id":"91376","group":"Group1","condition":"1_Rep","full_date":"2026-02-14T21:34:01.241Z","date":"2026-02-14","time":"21:34:01"},{"rt":null,"stimulus":"<p style=\"font-size: 50px; margin: 0; text-align: center;\">+</p>","response":null,"trial_type":"html-keyboard-response","trial_index":29,"plugin_version":"2.1.0","time_elapsed":71198,"subject_id":"91376","group":"Group1","condition":"1_Rep","full_date":"2026-02-14T21:34:01.241Z","date":"2026-02-14","time":"21:34:01"},{"task":"memory_phase","broad_category":"M","image_png":"M_Phyllite_03.png","image_id":259,"category_name":"Phyllite","category":17,"distinct_rating":2.5,"distinct_type":"Bottom","rt":null,"stimulus":"Stimuli_Rocks480/M_Phyllite_03.png","response":null,"trial_type":"image-keyboard-response","trial_index":30,"plugin_version":"2.1.0","time_elapsed":73709,"subject_id":"91376","group":"Group1","condition":"1_Rep","full_date":"2026-02-14T21:34:01.241Z","date":"2026-02-14","time":"21:34:01"},{"rt":null,"stimulus":"<p style=\"font-size: 50px; margin: 0; text-align: center;\">+</p>","response":null,"trial_type":"html-keyboard-response","trial_index":31,"plugin_version":"2.1.0","time_elapsed":74717,"subject_id":"91376","group":"Group1","condition":"1_Rep","full_date":"2026-02-14T21:34:01.241Z","date":"2026-02-14","time":"21:34:01"},{"task":"memory_phase","broad_category":"I","image_png":"I_Pumice_11.png","image_id":139,"category_name":"Pumice","category":9,"distinct_rating":1.74,"distinct_type":"Bottom","rt":null,"stimulus":"Stimuli_Rocks480/I_Pumice_11.png","response":null,"trial_type":"image-keyboard-response","trial_index":32,"plugin_version":"2.1.0","time_elapsed":77225,"subject_id":"91376","group":"Group1","condition":"1_Rep","full_date":"2026-02-14T21:34:01.241Z","date":"2026-02-14","time":"21:34:01"},{"rt":null,"stimulus":"<p style=\"font-size: 50px; margin: 0; text-align: center;\">+</p>","response":null,"trial_type":"html-keyboard-response","trial_index":33,"plugin_version":"2.1.0","time_elapsed":78235,"subject_id":"91376","group":"Group1","condition":"1_Rep","full_date":"2026-02-14T21:34:01.241Z","date":"2026-02-14","time":"21:34:01"},{"task":"memory_phase","broad_category":"M","image_png":"M_Quartzite_05.png","image_id":277,"category_name":"Quartzite","category":18,"distinct_rating":2.23,"distinct_type":"Bottom","rt":null,"stimulus":"Stimuli_Rocks480/M_Quartzite_05.png","response":null,"trial_type":"image-keyboard-response","trial_index":34,"plugin_version":"2.1.0","time_elapsed":80749,"subject_id":"91376","group":"Group1","condition":"1_Rep","full_date":"2026-02-14T21:34:01.241Z","date":"2026-02-14","time":"21:34:01"},{"rt":null,"stimulus":"<p style=\"font-size: 50px; margin: 0; text-align: center;\">+</p>","response":null,"trial_type":"html-keyboard-response","trial_index":35,"plugin_version":"2.1.0","time_elapsed":81754,"subject_id":"91376","group":"Group1","condition":"1_Rep","full_date":"2026-02-14T21:34:01.241Z","date":"2026-02-14","time":"21:34:01"},{"task":"memory_phase","broad_category":"S","image_png":"S_Dolomite_12.png","image_id":396,"category_name":"Dolomite","category":25,"distinct_rating":1.85,"distinct_type":"Bottom","rt":null,"stimulus":"Stimuli_Rocks480/S_Dolomite_12.png","response":null,"trial_type":"image-keyboard-response","trial_index":36,"plugin_version":"2.1.0","time_elapsed":84265,"subject_id":"91376","group":"Group1","condition":"1_Rep","full_date":"2026-02-14T21:34:01.241Z","date":"2026-02-14","time":"21:34:01"},{"rt":null,"stimulus":"<p style=\"font-size: 50px; margin: 0; text-align: center;\">+</p>","response":null,"trial_type":"html-keyboard-response","trial_index":37,"plugin_version":"2.1.0","time_elapsed":85267,"subject_id":"91376","group":"Group1","condition":"1_Rep","full_date":"2026-02-14T21:34:01.241Z","date":"2026-02-14","time":"21:34:01"},{"task":"memory_phase","broad_category":"I","image_png":"I_Rhyolite_11.png","image_id":155,"category_name":"Rhyolite","category":10,"distinct_rating":1.73,"distinct_type":"Bottom","rt":null,"stimulus":"Stimuli_Rocks480/I_Rhyolite_11.png","response":null,"trial_type":"image-keyboard-response","trial_index":38,"plugin_version":"2.1.0","time_elapsed":87781,"subject_id":"91376","group":"Group1","condition":"1_Rep","full_date":"2026-02-14T21:34:01.241Z","date":"2026-02-14","time":"21:34:01"},{"rt":null,"stimulus":"<p style=\"font-size: 50px; margin: 0; text-align: center;\">+</p>","response":null,"trial_type":"html-keyboard-response","trial_index":39,"plugin_version":"2.1.0","time_elapsed":88788,"subject_id":"91376","group":"Group1","condition":"1_Rep","full_date":"2026-02-14T21:34:01.241Z","date":"2026-02-14","time":"21:34:01"},{"task":"memory_phase","broad_category":"S","image_png":"S_Shale_12.png","image_id":476,"category_name":"Shale","category":30,"distinct_rating":2.48,"distinct_type":"Bottom","rt":null,"stimulus":"Stimuli_Rocks480/S_Shale_12.png","response":null,"trial_type":"image-keyboard-response","trial_index":40,"plugin_version":"2.1.0","time_elapsed":91293,"subject_id":"91376","group":"Group1","condition":"1_Rep","full_date":"2026-02-14T21:34:01.241Z","date":"2026-02-14","time":"21:34:01"},{"rt":null,"stimulus":"<p style=\"font-size: 50px; margin: 0; text-align: center;\">+</p>","response":null,"trial_type":"html-keyboard-response","trial_index":41,"plugin_version":"2.1.0","time_elapsed":92297,"subject_id":"91376","group":"Group1","condition":"1_Rep","full_date":"2026-02-14T21:34:01.241Z","date":"2026-02-14","time":"21:34:01"},{"task":"memory_phase","broad_category":"I","image_png":"I_Pumice_12.png","image_id":140,"category_name":"Pumice","category":9,"distinct_rating":2.97,"distinct_type":"Bottom","rt":null,"stimulus":"Stimuli_Rocks480/I_Pumice_12.png","response":null,"trial_type":"image-keyboard-response","trial_index":42,"plugin_version":"2.1.0","time_elapsed":94804,"subject_id":"91376","group":"Group1","condition":"1_Rep","full_date":"2026-02-14T21:34:01.241Z","date":"2026-02-14","time":"21:34:01"},{"rt":null,"stimulus":"<p style=\"font-size: 50px; margin: 0; text-align: center;\">+</p>","response":null,"trial_type":"html-keyboard-response","trial_index":43,"plugin_version":"2.1.0","time_elapsed":95817,"subject_id":"91376","group":"Group1","condition":"1_Rep","full_date":"2026-02-14T21:34:01.241Z","date":"2026-02-14","time":"21:34:01"},{"task":"memory_phase","broad_category":"S","image_png":"S_Dolomite_14.png","image_id":398,"category_name":"Dolomite","category":25,"distinct_rating":1.43,"distinct_type":"Bottom","rt":null,"stimulus":"Stimuli_Rocks480/S_Dolomite_14.png","response":null,"trial_type":"image-keyboard-response","trial_index":44,"plugin_version":"2.1.0","time_elapsed":98326,"subject_id":"91376","group":"Group1","condition":"1_Rep","full_date":"2026-02-14T21:34:01.241Z","date":"2026-02-14","time":"21:34:01"},{"rt":null,"stimulus":"<p style=\"font-size: 50px; margin: 0; text-align: center;\">+</p>","response":null,"trial_type":"html-keyboard-response","trial_index":45,"plugin_version":"2.1.0","time_elapsed":99339,"subject_id":"91376","group":"Group1","condition":"1_Rep","full_date":"2026-02-14T21:34:01.241Z","date":"2026-02-14","time":"21:34:01"},{"task":"memory_phase","broad_category":"M","image_png":"M_Slate_15.png","image_id":319,"category_name":"Slate","category":20,"distinct_rating":2.13,"distinct_type":"Bottom","rt":null,"stimulus":"Stimuli_Rocks480/M_Slate_15.png","response":null,"trial_type":"image-keyboard-response","trial_index":46,"plugin_version":"2.1.0","time_elapsed":101844,"subject_id":"91376","group":"Group1","condition":"1_Rep","full_date":"2026-02-14T21:34:01.241Z","date":"2026-02-14","time":"21:34:01"},{"rt":null,"stimulus":"<p style=\"font-size: 50px; margin: 0; text-align: center;\">+</p>","response":null,"trial_type":"html-keyboard-response","trial_index":47,"plugin_version":"2.1.0","time_elapsed":102857,"subject_id":"91376","group":"Group1","condition":"1_Rep","full_date":"2026-02-14T21:34:01.241Z","date":"2026-02-14","time":"21:34:01"},{"task":"memory_phase","broad_category":"S","image_png":"S_Shale_08.png","image_id":472,"category_name":"Shale","category":30,"distinct_rating":2.55,"distinct_type":"Bottom","rt":null,"stimulus":"Stimuli_Rocks480/S_Shale_08.png","response":null,"trial_type":"image-keyboard-response","trial_index":48,"plugin_version":"2.1.0","time_elapsed":105370,"subject_id":"91376","group":"Group1","condition":"1_Rep","full_date":"2026-02-14T21:34:01.241Z","date":"2026-02-14","time":"21:34:01"},{"rt":null,"stimulus":"<p style=\"font-size: 50px; margin: 0; text-align: center;\">+</p>","response":null,"trial_type":"html-keyboard-response","trial_index":49,"plugin_version":"2.1.0","time_elapsed":106377,"subject_id":"91376","group":"Group1","condition":"1_Rep","full_date":"2026-02-14T21:34:01.241Z","date":"2026-02-14","time":"21:34:01"},{"task":"memory_phase","broad_category":"I","image_png":"I_Rhyolite_14.png","image_id":158,"category_name":"Rhyolite","category":10,"distinct_rating":2.59,"distinct_type":"Bottom","rt":null,"stimulus":"Stimuli_Rocks480/I_Rhyolite_14.png","response":null,"trial_type":"image-keyboard-response","trial_index":50,"plugin_version":"2.1.0","time_elapsed":108888,"subject_id":"91376","group":"Group1","condition":"1_Rep","full_date":"2026-02-14T21:34:01.241Z","date":"2026-02-14","time":"21:34:01"},{"rt":null,"stimulus":"<p style=\"font-size: 50px; margin: 0; text-align: center;\">+</p>","response":null,"trial_type":"html-keyboard-response","trial_index":51,"plugin_version":"2.1.0","time_elapsed":109899,"subject_id":"91376","group":"Group1","condition":"1_Rep","full_date":"2026-02-14T21:34:01.241Z","date":"2026-02-14","time":"21:34:01"},{"task":"memory_phase","broad_category":"M","image_png":"M_Slate_11.png","image_id":315,"category_name":"Slate","category":20,"distinct_rating":2.75,"distinct_type":"Bottom","rt":null,"stimulus":"Stimuli_Rocks480/M_Slate_11.png","response":null,"trial_type":"image-keyboard-response","trial_index":52,"plugin_version":"2.1.0","time_elapsed":112410,"subject_id":"91376","group":"Group1","condition":"1_Rep","full_date":"2026-02-14T21:34:01.241Z","date":"2026-02-14","time":"21:34:01"},{"rt":null,"stimulus":"<p style=\"font-size: 50px; margin: 0; text-align: center;\">+</p>","response":null,"trial_type":"html-keyboard-response","trial_index":53,"plugin_version":"2.1.0","time_elapsed":113417,"subject_id":"91376","group":"Group1","condition":"1_Rep","full_date":"2026-02-14T21:34:01.241Z","date":"2026-02-14","time":"21:34:01"},{"task":"memory_phase","broad_category":"I","image_png":"I_Gabbro_08.png","image_id":56,"category_name":"Gabbro","category":4,"distinct_rating":3.02,"distinct_type":"Bottom","rt":null,"stimulus":"Stimuli_Rocks480/I_Gabbro_08.png","response":null,"trial_type":"image-keyboard-response","trial_index":54,"plugin_version":"2.1.0","time_elapsed":115922,"subject_id":"91376","group":"Group1","condition":"1_Rep","full_date":"2026-02-14T21:34:01.241Z","date":"2026-02-14","time":"21:34:01"},{"rt":667,"stimulus":"<p style=\"max-width: 760px; margin: auto; font-size: 35px; line-height: 1.5;\">\n                Press SPACE to continue study phase\n              </p>","response":" ","trial_type":"html-keyboard-response","trial_index":55,"plugin_version":"2.1.0","time_elapsed":116590,"subject_id":"91376","group":"Group1","condition":"1_Rep","full_date":"2026-02-14T21:34:01.241Z","date":"2026-02-14","time":"21:34:01"},{"rt":null,"stimulus":"<p style=\"font-size: 50px; margin: 0; text-align: center;\">+</p>","response":null,"trial_type":"html-keyboard-response","trial_index":56,"plugin_version":"2.1.0","time_elapsed":117596,"subject_id":"91376","group":"Group1","condition":"1_Rep","full_date":"2026-02-14T21:34:01.241Z","date":"2026-02-14","time":"21:34:01"},{"task":"memory_phase","broad_category":"M","image_png":"M_Gneiss_05.png","image_id":197,"category_name":"Gneiss","category":13,"distinct_rating":2.97,"distinct_type":"Bottom","rt":null,"stimulus":"Stimuli_Rocks480/M_Gneiss_05.png","response":null,"trial_type":"image-keyboard-response","trial_index":57,"plugin_version":"2.1.0","time_elapsed":120111,"subject_id":"91376","group":"Group1","condition":"1_Rep","full_date":"2026-02-14T21:34:01.241Z","date":"2026-02-14","time":"21:34:01"},{"rt":null,"stimulus":"<p style=\"font-size: 50px; margin: 0; text-align: center;\">+</p>","response":null,"trial_type":"html-keyboard-response","trial_index":58,"plugin_version":"2.1.0","time_elapsed":121115,"subject_id":"91376","group":"Group1","condition":"1_Rep","full_date":"2026-02-14T21:34:01.241Z","date":"2026-02-14","time":"21:34:01"},{"task":"memory_phase","broad_category":"S","image_png":"S_Shale_01.png","image_id":465,"category_name":"Shale","category":30,"distinct_rating":2.7,"distinct_type":"Bottom","rt":null,"stimulus":"Stimuli_Rocks480/S_Shale_01.png","response":null,"trial_type":"image-keyboard-response","trial_index":59,"plugin_version":"2.1.0","time_elapsed":123628,"subject_id":"91376","group":"Group1","condition":"1_Rep","full_date":"2026-02-14T21:34:01.241Z","date":"2026-02-14","time":"21:34:01"},{"rt":null,"stimulus":"<p style=\"font-size: 50px; margin: 0; text-align: center;\">+</p>","response":null,"trial_type":"html-keyboard-response","trial_index":60,"plugin_version":"2.1.0","time_elapsed":124637,"subject_id":"91376","group":"Group1","condition":"1_Rep","full_date":"2026-02-14T21:34:01.241Z","date":"2026-02-14","time":"21:34:01"},{"task":"memory_phase","broad_category":"S","image_png":"S_Dolomite_13.png","image_id":397,"category_name":"Dolomite","category":25,"distinct_rating":1.77,"distinct_type":"Bottom","rt":null,"stimulus":"Stimuli_Rocks480/S_Dolomite_13.png","response":null,"trial_type":"image-keyboard-response","trial_index":61,"plugin_version":"2.1.0","time_elapsed":127141,"subject_id":"91376","group":"Group1","condition":"1_Rep","full_date":"2026-02-14T21:34:01.241Z","date":"2026-02-14","time":"21:34:01"},{"rt":null,"stimulus":"<p style=\"font-size: 50px; margin: 0; text-align: center;\">+</p>","response":null,"trial_type":"html-keyboard-response","trial_index":62,"plugin_version":"2.1.0","time_elapsed":128145,"subject_id":"91376","group":"Group1","condition":"1_Rep","full_date":"2026-02-14T21:34:01.241Z","date":"2026-02-14","time":"21:34:01"},{"task":"memory_phase","broad_category":"I","image_png":"I_Andesite_08.png","image_id":8,"category_name":"Andesite","category":1,"distinct_rating":1.95,"distinct_type":"Bottom","rt":null,"stimulus":"Stimuli_Rocks480/I_Andesite_08.png","response":null,"trial_type":"image-keyboard-response","trial_index":63,"plugin_version":"2.1.0","time_elapsed":130650,"subject_id":"91376","group":"Group1","condition":"1_Rep","full_date":"2026-02-14T21:34:01.241Z","date":"2026-02-14","time":"21:34:01"},{"rt":null,"stimulus":"<p style=\"font-size: 50px; margin: 0; text-align: center;\">+</p>","response":null,"trial_type":"html-keyboard-response","trial_index":64,"plugin_version":"2.1.0","time_elapsed":131658,"subject_id":"91376","group":"Group1","condition":"1_Rep","full_date":"2026-02-14T21:34:01.241Z","date":"2026-02-14","time":"21:34:01"},{"task":"memory_phase","broad_category":"I","image_png":"I_Diorite_03.png","image_id":35,"category_name":"Diorite","category":3,"distinct_rating":3.14,"distinct_type":"Bottom","rt":null,"stimulus":"Stimuli_Rocks480/I_Diorite_03.png","response":null,"trial_type":"image-keyboard-response","trial_index":65,"plugin_version":"2.1.0","time_elapsed":134167,"subject_id":"91376","group":"Group1","condition":"1_Rep","full_date":"2026-02-14T21:34:01.241Z","date":"2026-02-14","time":"21:34:01"},{"rt":null,"stimulus":"<p style=\"font-size: 50px; margin: 0; text-align: center;\">+</p>","response":null,"trial_type":"html-keyboard-response","trial_index":66,"plugin_version":"2.1.0","time_elapsed":135181,"subject_id":"91376","group":"Group1","condition":"1_Rep","full_date":"2026-02-14T21:34:01.241Z","date":"2026-02-14","time":"21:34:01"},{"task":"memory_phase","broad_category":"I","image_png":"I_Obsidian_05.png","image_id":85,"category_name":"Obsidian","category":6,"distinct_rating":7.32,"distinct_type":"Top","rt":null,"stimulus":"Stimuli_Rocks480/I_Obsidian_05.png","response":null,"trial_type":"image-keyboard-response","trial_index":67,"plugin_version":"2.1.0","time_elapsed":137695,"subject_id":"91376","group":"Group1","condition":"1_Rep","full_date":"2026-02-14T21:34:01.241Z","date":"2026-02-14","time":"21:34:01"},{"rt":null,"stimulus":"<p style=\"font-size: 50px; margin: 0; text-align: center;\">+</p>","response":null,"trial_type":"html-keyboard-response","trial_index":68,"plugin_version":"2.1.0","time_elapsed":138699,"subject_id":"91376","group":"Group1","condition":"1_Rep","full_date":"2026-02-14T21:34:01.241Z","date":"2026-02-14","time":"21:34:01"},{"task":"memory_phase","broad_category":"I","image_png":"I_Andesite_06.png","image_id":6,"category_name":"Andesite","category":1,"distinct_rating":3.17,"distinct_type":"Bottom","rt":null,"stimulus":"Stimuli_Rocks480/I_Andesite_06.png","response":null,"trial_type":"image-keyboard-response","trial_index":69,"plugin_version":"2.1.0","time_elapsed":141205,"subject_id":"91376","group":"Group1","condition":"1_Rep","full_date":"2026-02-14T21:34:01.241Z","date":"2026-02-14","time":"21:34:01"},{"rt":null,"stimulus":"<p style=\"font-size: 50px; margin: 0; text-align: center;\">+</p>","response":null,"trial_type":"html-keyboard-response","trial_index":70,"plugin_version":"2.1.0","time_elapsed":142217,"subject_id":"91376","group":"Group1","condition":"1_Rep","full_date":"2026-02-14T21:34:01.241Z","date":"2026-02-14","time":"21:34:01"},{"task":"memory_phase","broad_category":"S","image_png":"S_Chert_10.png","image_id":362,"category_name":"Chert","category":23,"distinct_rating":7.17,"distinct_type":"Top","rt":null,"stimulus":"Stimuli_Rocks480/S_Chert_10.png","response":null,"trial_type":"image-keyboard-response","trial_index":71,"plugin_version":"2.1.0","time_elapsed":144725,"subject_id":"91376","group":"Group1","condition":"1_Rep","full_date":"2026-02-14T21:34:01.241Z","date":"2026-02-14","time":"21:34:01"},{"rt":null,"stimulus":"<p style=\"font-size: 50px; margin: 0; text-align: center;\">+</p>","response":null,"trial_type":"html-keyboard-response","trial_index":72,"plugin_version":"2.1.0","time_elapsed":145736,"subject_id":"91376","group":"Group1","condition":"1_Rep","full_date":"2026-02-14T21:34:01.241Z","date":"2026-02-14","time":"21:34:01"},{"task":"memory_phase","broad_category":"M","image_png":"M_Quartzite_08.png","image_id":280,"category_name":"Quartzite","category":18,"distinct_rating":2.15,"distinct_type":"Bottom","rt":null,"stimulus":"Stimuli_Rocks480/M_Quartzite_08.png","response":null,"trial_type":"image-keyboard-response","trial_index":73,"plugin_version":"2.1.0","time_elapsed":148241,"subject_id":"91376","group":"Group1","condition":"1_Rep","full_date":"2026-02-14T21:34:01.241Z","date":"2026-02-14","time":"21:34:01"},{"rt":null,"stimulus":"<p style=\"font-size: 50px; margin: 0; text-align: center;\">+</p>","response":null,"trial_type":"html-keyboard-response","trial_index":74,"plugin_version":"2.1.0","time_elapsed":149247,"subject_id":"91376","group":"Group1","condition":"1_Rep","full_date":"2026-02-14T21:34:01.241Z","date":"2026-02-14","time":"21:34:01"},{"task":"memory_phase","broad_category":"I","image_png":"I_Diorite_04.png","image_id":36,"category_name":"Diorite","category":3,"distinct_rating":2.98,"distinct_type":"Bottom","rt":null,"stimulus":"Stimuli_Rocks480/I_Diorite_04.png","response":null,"trial_type":"image-keyboard-response","trial_index":75,"plugin_version":"2.1.0","time_elapsed":151749,"subject_id":"91376","group":"Group1","condition":"1_Rep","full_date":"2026-02-14T21:34:01.241Z","date":"2026-02-14","time":"21:34:01"},{"rt":null,"stimulus":"<p style=\"font-size: 50px; margin: 0; text-align: center;\">+</p>","response":null,"trial_type":"html-keyboard-response","trial_index":76,"plugin_version":"2.1.0","time_elapsed":152763,"subject_id":"91376","group":"Group1","condition":"1_Rep","full_date":"2026-02-14T21:34:01.241Z","date":"2026-02-14","time":"21:34:01"},{"task":"memory_phase","broad_category":"S","image_png":"S_Sandstone_15.png","image_id":463,"category_name":"Sandstone","category":29,"distinct_rating":2,"distinct_type":"Bottom","rt":null,"stimulus":"Stimuli_Rocks480/S_Sandstone_15.png","response":null,"trial_type":"image-keyboard-response","trial_index":77,"plugin_version":"2.1.0","time_elapsed":155265,"subject_id":"91376","group":"Group1","condition":"1_Rep","full_date":"2026-02-14T21:34:01.241Z","date":"2026-02-14","time":"21:34:01"},{"rt":null,"stimulus":"<p style=\"font-size: 50px; margin: 0; text-align: center;\">+</p>","response":null,"trial_type":"html-keyboard-response","trial_index":78,"plugin_version":"2.1.0","time_elapsed":156272,"subject_id":"91376","group":"Group1","condition":"1_Rep","full_date":"2026-02-14T21:34:01.241Z","date":"2026-02-14","time":"21:34:01"},{"task":"memory_phase","broad_category":"I","image_png":"I_Gabbro_11.png","image_id":59,"category_name":"Gabbro","category":4,"distinct_rating":1.99,"distinct_type":"Bottom","rt":null,"stimulus":"Stimuli_Rocks480/I_Gabbro_11.png","response":null,"trial_type":"image-keyboard-response","trial_index":79,"plugin_version":"2.1.0","time_elapsed":158783,"subject_id":"91376","group":"Group1","condition":"1_Rep","full_date":"2026-02-14T21:34:01.241Z","date":"2026-02-14","time":"21:34:01"},{"rt":null,"stimulus":"<p style=\"font-size: 50px; margin: 0; text-align: center;\">+</p>","response":null,"trial_type":"html-keyboard-response","trial_index":80,"plugin_version":"2.1.0","time_elapsed":159786,"subject_id":"91376","group":"Group1","condition":"1_Rep","full_date":"2026-02-14T21:34:01.241Z","date":"2026-02-14","time":"21:34:01"},{"task":"memory_phase","broad_category":"I","image_png":"I_Andesite_10.png","image_id":10,"category_name":"Andesite","category":1,"distinct_rating":3.15,"distinct_type":"Bottom","rt":null,"stimulus":"Stimuli_Rocks480/I_Andesite_10.png","response":null,"trial_type":"image-keyboard-response","trial_index":81,"plugin_version":"2.1.0","time_elapsed":162302,"subject_id":"91376","group":"Group1","condition":"1_Rep","full_date":"2026-02-14T21:34:01.241Z","date":"2026-02-14","time":"21:34:01"},{"rt":null,"stimulus":"<p style=\"font-size: 50px; margin: 0; text-align: center;\">+</p>","response":null,"trial_type":"html-keyboard-response","trial_index":82,"plugin_version":"2.1.0","time_elapsed":163318,"subject_id":"91376","group":"Group1","condition":"1_Rep","full_date":"2026-02-14T21:34:01.241Z","date":"2026-02-14","time":"21:34:01"},{"task":"memory_phase","broad_category":"S","image_png":"S_Conglomerate_05.png","image_id":373,"category_name":"Conglomerate","category":24,"distinct_rating":7.32,"distinct_type":"Top","rt":null,"stimulus":"Stimuli_Rocks480/S_Conglomerate_05.png","response":null,"trial_type":"image-keyboard-response","trial_index":83,"plugin_version":"2.1.0","time_elapsed":165833,"subject_id":"91376","group":"Group1","condition":"1_Rep","full_date":"2026-02-14T21:34:01.241Z","date":"2026-02-14","time":"21:34:01"},{"rt":null,"stimulus":"<p style=\"font-size: 50px; margin: 0; text-align: center;\">+</p>","response":null,"trial_type":"html-keyboard-response","trial_index":84,"plugin_version":"2.1.0","time_elapsed":166849,"subject_id":"91376","group":"Group1","condition":"1_Rep","full_date":"2026-02-14T21:34:01.241Z","date":"2026-02-14","time":"21:34:01"},{"task":"memory_phase","broad_category":"I","image_png":"I_Basalt_09.png","image_id":25,"category_name":"Basalt","category":2,"distinct_rating":1.89,"distinct_type":"Bottom","rt":null,"stimulus":"Stimuli_Rocks480/I_Basalt_09.png","response":null,"trial_type":"image-keyboard-response","trial_index":85,"plugin_version":"2.1.0","time_elapsed":169359,"subject_id":"91376","group":"Group1","condition":"1_Rep","full_date":"2026-02-14T21:34:01.241Z","date":"2026-02-14","time":"21:34:01"},{"rt":null,"stimulus":"<p style=\"font-size: 50px; margin: 0; text-align: center;\">+</p>","response":null,"trial_type":"html-keyboard-response","trial_index":86,"plugin_version":"2.1.0","time_elapsed":170371,"subject_id":"91376","group":"Group1","condition":"1_Rep","full_date":"2026-02-14T21:34:01.241Z","date":"2026-02-14","time":"21:34:01"},{"task":"memory_phase","broad_category":"I","image_png":"I_Basalt_01.png","image_id":17,"category_name":"Basalt","category":2,"distinct_rating":1.92,"distinct_type":"Bottom","rt":null,"stimulus":"Stimuli_Rocks480/I_Basalt_01.png","response":null,"trial_type":"image-keyboard-response","trial_index":87,"plugin_version":"2.1.0","time_elapsed":172876,"subject_id":"91376","group":"Group1","condition":"1_Rep","full_date":"2026-02-14T21:34:01.241Z","date":"2026-02-14","time":"21:34:01"},{"rt":null,"stimulus":"<p style=\"font-size: 50px; margin: 0; text-align: center;\">+</p>","response":null,"trial_type":"html-keyboard-response","trial_index":88,"plugin_version":"2.1.0","time_elapsed":173885,"subject_id":"91376","group":"Group1","condition":"1_Rep","full_date":"2026-02-14T21:34:01.241Z","date":"2026-02-14","time":"21:34:01"},{"task":"memory_phase","broad_category":"I","image_png":"I_Pumice_08.png","image_id":136,"category_name":"Pumice","category":9,"distinct_rating":3.1,"distinct_type":"Bottom","rt":null,"stimulus":"Stimuli_Rocks480/I_Pumice_08.png","response":null,"trial_type":"image-keyboard-response","trial_index":89,"plugin_version":"2.1.0","time_elapsed":176401,"subject_id":"91376","group":"Group1","condition":"1_Rep","full_date":"2026-02-14T21:34:01.241Z","date":"2026-02-14","time":"21:34:01"},{"rt":null,"stimulus":"<p style=\"font-size: 50px; margin: 0; text-align: center;\">+</p>","response":null,"trial_type":"html-keyboard-response","trial_index":90,"plugin_version":"2.1.0","time_elapsed":177404,"subject_id":"91376","group":"Group1","condition":"1_Rep","full_date":"2026-02-14T21:34:01.241Z","date":"2026-02-14","time":"21:34:01"},{"task":"memory_phase","broad_category":"S","image_png":"S_Rock Gypsum_04.png","image_id":420,"category_name":"Rock Gypsum","category":27,"distinct_rating":7.61,"distinct_type":"Top","rt":null,"stimulus":"Stimuli_Rocks480/S_Rock Gypsum_04.png","response":null,"trial_type":"image-keyboard-response","trial_index":91,"plugin_version":"2.1.0","time_elapsed":179918,"subject_id":"91376","group":"Group1","condition":"1_Rep","full_date":"2026-02-14T21:34:01.241Z","date":"2026-02-14","time":"21:34:01"},{"rt":null,"stimulus":"<p style=\"font-size: 50px; margin: 0; text-align: center;\">+</p>","response":null,"trial_type":"html-keyboard-response","trial_index":92,"plugin_version":"2.1.0","time_elapsed":180931,"subject_id":"91376","group":"Group1","condition":"1_Rep","full_date":"2026-02-14T21:34:01.241Z","date":"2026-02-14","time":"21:34:01"},{"task":"memory_phase","broad_category":"I","image_png":"I_Pegmatite_10.png","image_id":106,"category_name":"Pegmatite","category":7,"distinct_rating":7.66,"distinct_type":"Top","rt":null,"stimulus":"Stimuli_Rocks480/I_Pegmatite_10.png","response":null,"trial_type":"image-keyboard-response","trial_index":93,"plugin_version":"2.1.0","time_elapsed":183441,"subject_id":"91376","group":"Group1","condition":"1_Rep","full_date":"2026-02-14T21:34:01.241Z","date":"2026-02-14","time":"21:34:01"},{"rt":null,"stimulus":"<p style=\"font-size: 50px; margin: 0; text-align: center;\">+</p>","response":null,"trial_type":"html-keyboard-response","trial_index":94,"plugin_version":"2.1.0","time_elapsed":184451,"subject_id":"91376","group":"Group1","condition":"1_Rep","full_date":"2026-02-14T21:34:01.241Z","date":"2026-02-14","time":"21:34:01"},{"task":"memory_phase","broad_category":"S","image_png":"S_Breccia_11.png","image_id":347,"category_name":"Breccia","category":22,"distinct_rating":6.7,"distinct_type":"Top","rt":null,"stimulus":"Stimuli_Rocks480/S_Breccia_11.png","response":null,"trial_type":"image-keyboard-response","trial_index":95,"plugin_version":"2.1.0","time_elapsed":186955,"subject_id":"91376","group":"Group1","condition":"1_Rep","full_date":"2026-02-14T21:34:01.241Z","date":"2026-02-14","time":"21:34:01"},{"rt":null,"stimulus":"<p style=\"font-size: 50px; margin: 0; text-align: center;\">+</p>","response":null,"trial_type":"html-keyboard-response","trial_index":96,"plugin_version":"2.1.0","time_elapsed":187970,"subject_id":"91376","group":"Group1","condition":"1_Rep","full_date":"2026-02-14T21:34:01.241Z","date":"2026-02-14","time":"21:34:01"},{"task":"memory_phase","broad_category":"M","image_png":"M_Marble_06.png","image_id":230,"category_name":"Marble","category":15,"distinct_rating":3.4,"distinct_type":"Bottom","rt":null,"stimulus":"Stimuli_Rocks480/M_Marble_06.png","response":null,"trial_type":"image-keyboard-response","trial_index":97,"plugin_version":"2.1.0","time_elapsed":190483,"subject_id":"91376","group":"Group1","condition":"1_Rep","full_date":"2026-02-14T21:34:01.241Z","date":"2026-02-14","time":"21:34:01"},{"rt":null,"stimulus":"<p style=\"font-size: 50px; margin: 0; text-align: center;\">+</p>","response":null,"trial_type":"html-keyboard-response","trial_index":98,"plugin_version":"2.1.0","time_elapsed":191499,"subject_id":"91376","group":"Group1","condition":"1_Rep","full_date":"2026-02-14T21:34:01.241Z","date":"2026-02-14","time":"21:34:01"},{"task":"memory_phase","broad_category":"S","image_png":"S_Sandstone_03.png","image_id":451,"category_name":"Sandstone","category":29,"distinct_rating":1.86,"distinct_type":"Bottom","rt":null,"stimulus":"Stimuli_Rocks480/S_Sandstone_03.png","response":null,"trial_type":"image-keyboard-response","trial_index":99,"plugin_version":"2.1.0","time_elapsed":194013,"subject_id":"91376","group":"Group1","condition":"1_Rep","full_date":"2026-02-14T21:34:01.241Z","date":"2026-02-14","time":"21:34:01"},{"rt":null,"stimulus":"<p style=\"font-size: 50px; margin: 0; text-align: center;\">+</p>","response":null,"trial_type":"html-keyboard-response","trial_index":100,"plugin_version":"2.1.0","time_elapsed":195019,"subject_id":"91376","group":"Group1","condition":"1_Rep","full_date":"2026-02-14T21:34:01.241Z","date":"2026-02-14","time":"21:34:01"},{"task":"memory_phase","broad_category":"M","image_png":"M_Gneiss_13.png","image_id":205,"category_name":"Gneiss","category":13,"distinct_rating":3.26,"distinct_type":"Bottom","rt":null,"stimulus":"Stimuli_Rocks480/M_Gneiss_13.png","response":null,"trial_type":"image-keyboard-response","trial_index":101,"plugin_version":"2.1.0","time_elapsed":197529,"subject_id":"91376","group":"Group1","condition":"1_Rep","full_date":"2026-02-14T21:34:01.241Z","date":"2026-02-14","time":"21:34:01"},{"rt":null,"stimulus":"<p style=\"font-size: 50px; margin: 0; text-align: center;\">+</p>","response":null,"trial_type":"html-keyboard-response","trial_index":102,"plugin_version":"2.1.0","time_elapsed":198546,"subject_id":"91376","group":"Group1","condition":"1_Rep","full_date":"2026-02-14T21:34:01.241Z","date":"2026-02-14","time":"21:34:01"},{"task":"memory_phase","broad_category":"M","image_png":"M_Marble_16.png","image_id":240,"category_name":"Marble","category":15,"distinct_rating":2.57,"distinct_type":"Bottom","rt":null,"stimulus":"Stimuli_Rocks480/M_Marble_16.png","response":null,"trial_type":"image-keyboard-response","trial_index":103,"plugin_version":"2.1.0","time_elapsed":201064,"subject_id":"91376","group":"Group1","condition":"1_Rep","full_date":"2026-02-14T21:34:01.241Z","date":"2026-02-14","time":"21:34:01"},{"rt":null,"stimulus":"<p style=\"font-size: 50px; margin: 0; text-align: center;\">+</p>","response":null,"trial_type":"html-keyboard-response","trial_index":104,"plugin_version":"2.1.0","time_elapsed":202068,"subject_id":"91376","group":"Group1","condition":"1_Rep","full_date":"2026-02-14T21:34:01.241Z","date":"2026-02-14","time":"21:34:01"},{"task":"memory_phase","broad_category":"I","image_png":"I_Gabbro_16.png","image_id":64,"category_name":"Gabbro","category":4,"distinct_rating":2.52,"distinct_type":"Bottom","rt":null,"stimulus":"Stimuli_Rocks480/I_Gabbro_16.png","response":null,"trial_type":"image-keyboard-response","trial_index":105,"plugin_version":"2.1.0","time_elapsed":204584,"subject_id":"91376","group":"Group1","condition":"1_Rep","full_date":"2026-02-14T21:34:01.241Z","date":"2026-02-14","time":"21:34:01"},{"rt":24717,"stimulus":"<div style=\"max-width: 760px; margin: auto; font-size: 20px; line-height: 1.5;\">\n      <h1 style=\"text-align:center; font-size: 30px;\">Instructions for the Test Phase</h1>\n      <p>\n        The study phase is now complete.\n      </p>\n      <p>\n        In the test phase, you will again see a series of rock images. \n        Some will be ones you saw before - during the study phase, while others will be new.  \n        <b>Your task</b> is to decide whether you have seen each image before by pressing the corresponding key on your keyboard:<br><br>\n          <b>A</b> - NO (you did not see this image before)<br>\n          <b>L</b> - YES (you saw this image before)<br><br>\n        The test will proceed at your own pace. You will receive feedback after each response.  \n        Please try to respond <b>as accurately as possible</b>.\n      </p>\n      <p>\n        <b>Reminder:</b> If your computer has multiple language settings (e.g., English and another language),\n        please ensure it is set to English during the test phase.\n      </p>\n      <p>\n        You can track your progress using the <b>completion bar</b> at the top of the screen.  \n        Note that it has been refreshed to reflect your progress during this final phase.\n      </p>\n      <p>\n        Press the button below when you are ready to continue.\n      </p>\n    </div>","response":0,"trial_type":"html-button-response","trial_index":106,"plugin_version":"2.1.0","time_elapsed":229303,"subject_id":"91376","group":"Group1","condition":"1_Rep","full_date":"2026-02-14T21:34:01.241Z","date":"2026-02-14","time":"21:34:01"},{"correct_response":"a","task":"test_phase","broad_category":"I","image_png":"I_Diorite_01.png","image_id":33,"category_name":"Diorite","category":3,"distinct_rating":2.97,"distinct_type":"Bottom","item_type":"Foil","rt":5648,"stimulus":"Stimuli_Rocks480/I_Diorite_01.png","response":"a","trial_type":"image-keyboard-response","trial_index":107,"plugin_version":"2.1.0","time_elapsed":234952,"subject_id":"91376","group":"Group1","condition":"1_Rep","full_date":"2026-02-14T21:34:01.241Z","date":"2026-02-14","time":"21:34:01","cor_ans":true},{"trial_type":"html-keyboard-response","rt":null,"stimulus":"<p style=\"color: green; font-size: 50px; font-weight: bold;\">Correct</p>","response":null,"trial_index":108,"plugin_version":"2.1.0","time_elapsed":235458,"subject_id":"91376","group":"Group1","condition":"1_Rep","full_date":"2026-02-14T21:34:01.241Z","date":"2026-02-14","time":"21:34:01"},{"correct_response":"l","task":"test_phase","broad_category":"M","image_png":"M_Marble_06.png","image_id":230,"category_name":"Marble","category":15,"distinct_rating":3.4,"distinct_type":"Bottom","item_type":"Target","rt":1204,"stimulus":"Stimuli_Rocks480/M_Marble_06.png","response":"l","trial_type":"image-keyboard-response","trial_index":109,"plugin_version":"2.1.0","time_elapsed":236664,"subject_id":"91376","group":"Group1","condition":"1_Rep","full_date":"2026-02-14T21:34:01.241Z","date":"2026-02-14","time":"21:34:01","cor_ans":true},{"trial_type":"html-keyboard-response","rt":null,"stimulus":"<p style=\"color: green; font-size: 50px; font-weight: bold;\">Correct</p>","response":null,"trial_index":110,"plugin_version":"2.1.0","time_elapsed":237178,"subject_id":"91376","group":"Group1","condition":"1_Rep","full_date":"2026-02-14T21:34:01.241Z","date":"2026-02-14","time":"21:34:01"},{"correct_response":"l","task":"test_phase","broad_category":"S","image_png":"S_Conglomerate_05.png","image_id":373,"category_name":"Conglomerate","category":24,"distinct_rating":7.32,"distinct_type":"Top","item_type":"Target","rt":924,"stimulus":"Stimuli_Rocks480/S_Conglomerate_05.png","response":"l","trial_type":"image-keyboard-response","trial_index":111,"plugin_version":"2.1.0","time_elapsed":238103,"subject_id":"91376","group":"Group1","condition":"1_Rep","full_date":"2026-02-14T21:34:01.241Z","date":"2026-02-14","time":"21:34:01","cor_ans":true},{"trial_type":"html-keyboard-response","rt":null,"stimulus":"<p style=\"color: green; font-size: 50px; font-weight: bold;\">Correct</p>","response":null,"trial_index":112,"plugin_version":"2.1.0","time_elapsed":238612,"subject_id":"91376","group":"Group1","condition":"1_Rep","full_date":"2026-02-14T21:34:01.241Z","date":"2026-02-14","time":"21:34:01"},{"correct_response":"l","task":"test_phase","broad_category":"I","image_png":"I_Rhyolite_11.png","image_id":155,"category_name":"Rhyolite","category":10,"distinct_rating":1.73,"distinct_type":"Bottom","item_type":"Target","rt":881,"stimulus":"Stimuli_Rocks480/I_Rhyolite_11.png","response":"l","trial_type":"image-keyboard-response","trial_index":113,"plugin_version":"2.1.0","time_elapsed":239495,"subject_id":"91376","group":"Group1","condition":"1_Rep","full_date":"2026-02-14T21:34:01.241Z","date":"2026-02-14","time":"21:34:01","cor_ans":true},{"trial_type":"html-keyboard-response","rt":null,"stimulus":"<p style=\"color: green; font-size: 50px; font-weight: bold;\">Correct</p>","response":null,"trial_index":114,"plugin_version":"2.1.0","time_elapsed":239996,"subject_id":"91376","group":"Group1","condition":"1_Rep","full_date":"2026-02-14T21:34:01.241Z","date":"2026-02-14","time":"21:34:01"},{"correct_response":"l","task":"test_phase","broad_category":"M","image_png":"M_Slate_15.png","image_id":319,"category_name":"Slate","category":20,"distinct_rating":2.13,"distinct_type":"Bottom","item_type":"Target","rt":1001,"stimulus":"Stimuli_Rocks480/M_Slate_15.png","response":"l","trial_type":"image-keyboard-response","trial_index":115,"plugin_version":"2.1.0","time_elapsed":240999,"subject_id":"91376","group":"Group1","condition":"1_Rep","full_date":"2026-02-14T21:34:01.241Z","date":"2026-02-14","time":"21:34:01","cor_ans":true},{"trial_type":"html-keyboard-response","rt":null,"stimulus":"<p style=\"color: green; font-size: 50px; font-weight: bold;\">Correct</p>","response":null,"trial_index":116,"plugin_version":"2.1.0","time_elapsed":241507,"subject_id":"91376","group":"Group1","condition":"1_Rep","full_date":"2026-02-14T21:34:01.241Z","date":"2026-02-14","time":"21:34:01"},{"correct_response":"a","task":"test_phase","broad_category":"S","image_png":"S_Rock Salt_15.png","image_id":447,"category_name":"Rock Salt","category":28,"distinct_rating":7.79,"distinct_type":"Top","item_type":"Foil","rt":915,"stimulus":"Stimuli_Rocks480/S_Rock Salt_15.png","response":"a","trial_type":"image-keyboard-response","trial_index":117,"plugin_version":"2.1.0","time_elapsed":242424,"subject_id":"91376","group":"Group1","condition":"1_Rep","full_date":"2026-02-14T21:34:01.241Z","date":"2026-02-14","time":"21:34:01","cor_ans":true},{"trial_type":"html-keyboard-response","rt":null,"stimulus":"<p style=\"color: green; font-size: 50px; font-weight: bold;\">Correct</p>","response":null,"trial_index":118,"plugin_version":"2.1.0","time_elapsed":242932,"subject_id":"91376","group":"Group1","condition":"1_Rep","full_date":"2026-02-14T21:34:01.241Z","date":"2026-02-14","time":"21:34:01"},{"correct_response":"a","task":"test_phase","broad_category":"M","image_png":"M_Gneiss_14.png","image_id":206,"category_name":"Gneiss","category":13,"distinct_rating":3.41,"distinct_type":"Bottom","item_type":"Foil","rt":962,"stimulus":"Stimuli_Rocks480/M_Gneiss_14.png","response":"a","trial_type":"image-keyboard-response","trial_index":119,"plugin_version":"2.1.0","time_elapsed":243896,"subject_id":"91376","group":"Group1","condition":"1_Rep","full_date":"2026-02-14T21:34:01.241Z","date":"2026-02-14","time":"21:34:01","cor_ans":true},{"trial_type":"html-keyboard-response","rt":null,"stimulus":"<p style=\"color: green; font-size: 50px; font-weight: bold;\">Correct</p>","response":null,"trial_index":120,"plugin_version":"2.1.0","time_elapsed":244409,"subject_id":"91376","group":"Group1","condition":"1_Rep","full_date":"2026-02-14T21:34:01.241Z","date":"2026-02-14","time":"21:34:01"},{"correct_response":"a","task":"test_phase","broad_category":"S","image_png":"S_Shale_07.png","image_id":471,"category_name":"Shale","category":30,"distinct_rating":2.73,"distinct_type":"Bottom","item_type":"Foil","rt":861,"stimulus":"Stimuli_Rocks480/S_Shale_07.png","response":"l","trial_type":"image-keyboard-response","trial_index":121,"plugin_version":"2.1.0","time_elapsed":245272,"subject_id":"91376","group":"Group1","condition":"1_Rep","full_date":"2026-02-14T21:34:01.241Z","date":"2026-02-14","time":"21:34:01","cor_ans":false},{"trial_type":"html-keyboard-response","rt":null,"stimulus":"<p style=\"color: red; font-size: 50px; font-weight: bold;\">Incorrect</p>","response":null,"trial_index":122,"plugin_version":"2.1.0","time_elapsed":245787,"subject_id":"91376","group":"Group1","condition":"1_Rep","full_date":"2026-02-14T21:34:01.241Z","date":"2026-02-14","time":"21:34:01"},{"correct_response":"l","task":"test_phase","broad_category":"M","image_png":"M_Quartzite_08.png","image_id":280,"category_name":"Quartzite","category":18,"distinct_rating":2.15,"distinct_type":"Bottom","item_type":"Target","rt":875,"stimulus":"Stimuli_Rocks480/M_Quartzite_08.png","response":"l","trial_type":"image-keyboard-response","trial_index":123,"plugin_version":"2.1.0","time_elapsed":246664,"subject_id":"91376","group":"Group1","condition":"1_Rep","full_date":"2026-02-14T21:34:01.241Z","date":"2026-02-14","time":"21:34:01","cor_ans":true},{"trial_type":"html-keyboard-response","rt":null,"stimulus":"<p style=\"color: green; font-size: 50px; font-weight: bold;\">Correct</p>","response":null,"trial_index":124,"plugin_version":"2.1.0","time_elapsed":247176,"subject_id":"91376","group":"Group1","condition":"1_Rep","full_date":"2026-02-14T21:34:01.241Z","date":"2026-02-14","time":"21:34:01"},{"correct_response":"l","task":"test_phase","broad_category":"M","image_png":"M_Gneiss_06.png","image_id":198,"category_name":"Gneiss","category":13,"distinct_rating":2.65,"distinct_type":"Bottom","item_type":"Target","rt":1261,"stimulus":"Stimuli_Rocks480/M_Gneiss_06.png","response":"l","trial_type":"image-keyboard-response","trial_index":125,"plugin_version":"2.1.0","time_elapsed":248439,"subject_id":"91376","group":"Group1","condition":"1_Rep","full_date":"2026-02-14T21:34:01.241Z","date":"2026-02-14","time":"21:34:01","cor_ans":true},{"trial_type":"html-keyboard-response","rt":null,"stimulus":"<p style=\"color: green; font-size: 50px; font-weight: bold;\">Correct</p>","response":null,"trial_index":126,"plugin_version":"2.1.0","time_elapsed":248941,"subject_id":"91376","group":"Group1","condition":"1_Rep","full_date":"2026-02-14T21:34:01.241Z","date":"2026-02-14","time":"21:34:01"},{"correct_response":"l","task":"test_phase","broad_category":"I","image_png":"I_Basalt_09.png","image_id":25,"category_name":"Basalt","category":2,"distinct_rating":1.89,"distinct_type":"Bottom","item_type":"Target","rt":1177,"stimulus":"Stimuli_Rocks480/I_Basalt_09.png","response":"l","trial_type":"image-keyboard-response","trial_index":127,"plugin_version":"2.1.0","time_elapsed":250120,"subject_id":"91376","group":"Group1","condition":"1_Rep","full_date":"2026-02-14T21:34:01.241Z","date":"2026-02-14","time":"21:34:01","cor_ans":true},{"trial_type":"html-keyboard-response","rt":null,"stimulus":"<p style=\"color: green; font-size: 50px; font-weight: bold;\">Correct</p>","response":null,"trial_index":128,"plugin_version":"2.1.0","time_elapsed":250636,"subject_id":"91376","group":"Group1","condition":"1_Rep","full_date":"2026-02-14T21:34:01.241Z","date":"2026-02-14","time":"21:34:01"},{"correct_response":"a","task":"test_phase","broad_category":"I","image_png":"I_Peridotite_13.png","image_id":125,"category_name":"Peridotite","category":8,"distinct_rating":7.28,"distinct_type":"Top","item_type":"Foil","rt":713,"stimulus":"Stimuli_Rocks480/I_Peridotite_13.png","response":"a","trial_type":"image-keyboard-response","trial_index":129,"plugin_version":"2.1.0","time_elapsed":251351,"subject_id":"91376","group":"Group1","condition":"1_Rep","full_date":"2026-02-14T21:34:01.241Z","date":"2026-02-14","time":"21:34:01","cor_ans":true},{"trial_type":"html-keyboard-response","rt":null,"stimulus":"<p style=\"color: green; font-size: 50px; font-weight: bold;\">Correct</p>","response":null,"trial_index":130,"plugin_version":"2.1.0","time_elapsed":251858,"subject_id":"91376","group":"Group1","condition":"1_Rep","full_date":"2026-02-14T21:34:01.241Z","date":"2026-02-14","time":"21:34:01"},{"correct_response":"l","task":"test_phase","broad_category":"I","image_png":"I_Pumice_11.png","image_id":139,"category_name":"Pumice","category":9,"distinct_rating":1.74,"distinct_type":"Bottom","item_type":"Target","rt":1125,"stimulus":"Stimuli_Rocks480/I_Pumice_11.png","response":"l","trial_type":"image-keyboard-response","trial_index":131,"plugin_version":"2.1.0","time_elapsed":252984,"subject_id":"91376","group":"Group1","condition":"1_Rep","full_date":"2026-02-14T21:34:01.241Z","date":"2026-02-14","time":"21:34:01","cor_ans":true},{"trial_type":"html-keyboard-response","rt":null,"stimulus":"<p style=\"color: green; font-size: 50px; font-weight: bold;\">Correct</p>","response":null,"trial_index":132,"plugin_version":"2.1.0","time_elapsed":253488,"subject_id":"91376","group":"Group1","condition":"1_Rep","full_date":"2026-02-14T21:34:01.241Z","date":"2026-02-14","time":"21:34:01"},{"correct_response":"a","task":"test_phase","broad_category":"I","image_png":"I_Pumice_14.png","image_id":142,"category_name":"Pumice","category":9,"distinct_rating":3.22,"distinct_type":"Bottom","item_type":"Foil","rt":2694,"stimulus":"Stimuli_Rocks480/I_Pumice_14.png","response":"a","trial_type":"image-keyboard-response","trial_index":133,"plugin_version":"2.1.0","time_elapsed":256183,"subject_id":"91376","group":"Group1","condition":"1_Rep","full_date":"2026-02-14T21:34:01.241Z","date":"2026-02-14","time":"21:34:01","cor_ans":true},{"trial_type":"html-keyboard-response","rt":null,"stimulus":"<p style=\"color: green; font-size: 50px; font-weight: bold;\">Correct</p>","response":null,"trial_index":134,"plugin_version":"2.1.0","time_elapsed":256690,"subject_id":"91376","group":"Group1","condition":"1_Rep","full_date":"2026-02-14T21:34:01.241Z","date":"2026-02-14","time":"21:34:01"},{"correct_response":"l","task":"test_phase","broad_category":"S","image_png":"S_Shale_01.png","image_id":465,"category_name":"Shale","category":30,"distinct_rating":2.7,"distinct_type":"Bottom","item_type":"Target","rt":803,"stimulus":"Stimuli_Rocks480/S_Shale_01.png","response":"l","trial_type":"image-keyboard-response","trial_index":135,"plugin_version":"2.1.0","time_elapsed":257495,"subject_id":"91376","group":"Group1","condition":"1_Rep","full_date":"2026-02-14T21:34:01.241Z","date":"2026-02-14","time":"21:34:01","cor_ans":true},{"trial_type":"html-keyboard-response","rt":null,"stimulus":"<p style=\"color: green; font-size: 50px; font-weight: bold;\">Correct</p>","response":null,"trial_index":136,"plugin_version":"2.1.0","time_elapsed":258011,"subject_id":"91376","group":"Group1","condition":"1_Rep","full_date":"2026-02-14T21:34:01.241Z","date":"2026-02-14","time":"21:34:01"},{"correct_response":"a","task":"test_phase","broad_category":"M","image_png":"M_Slate_10.png","image_id":314,"category_name":"Slate","category":20,"distinct_rating":1.94,"distinct_type":"Bottom","item_type":"Foil","rt":716,"stimulus":"Stimuli_Rocks480/M_Slate_10.png","response":"l","trial_type":"image-keyboard-response","trial_index":137,"plugin_version":"2.1.0","time_elapsed":258728,"subject_id":"91376","group":"Group1","condition":"1_Rep","full_date":"2026-02-14T21:34:01.241Z","date":"2026-02-14","time":"21:34:01","cor_ans":false},{"trial_type":"html-keyboard-response","rt":null,"stimulus":"<p style=\"color: red; font-size: 50px; font-weight: bold;\">Incorrect</p>","response":null,"trial_index":138,"plugin_version":"2.1.0","time_elapsed":259229,"subject_id":"91376","group":"Group1","condition":"1_Rep","full_date":"2026-02-14T21:34:01.241Z","date":"2026-02-14","time":"21:34:01"},{"correct_response":"l","task":"test_phase","broad_category":"I","image_png":"I_Gabbro_11.png","image_id":59,"category_name":"Gabbro","category":4,"distinct_rating":1.99,"distinct_type":"Bottom","item_type":"Target","rt":1305,"stimulus":"Stimuli_Rocks480/I_Gabbro_11.png","response":"l","trial_type":"image-keyboard-response","trial_index":139,"plugin_version":"2.1.0","time_elapsed":260536,"subject_id":"91376","group":"Group1","condition":"1_Rep","full_date":"2026-02-14T21:34:01.241Z","date":"2026-02-14","time":"21:34:01","cor_ans":true},{"trial_type":"html-keyboard-response","rt":null,"stimulus":"<p style=\"color: green; font-size: 50px; font-weight: bold;\">Correct</p>","response":null,"trial_index":140,"plugin_version":"2.1.0","time_elapsed":261042,"subject_id":"91376","group":"Group1","condition":"1_Rep","full_date":"2026-02-14T21:34:01.241Z","date":"2026-02-14","time":"21:34:01"},{"correct_response":"a","task":"test_phase","broad_category":"S","image_png":"S_Sandstone_08.png","image_id":456,"category_name":"Sandstone","category":29,"distinct_rating":1.5,"distinct_type":"Bottom","item_type":"Foil","rt":804,"stimulus":"Stimuli_Rocks480/S_Sandstone_08.png","response":"a","trial_type":"image-keyboard-response","trial_index":141,"plugin_version":"2.1.0","time_elapsed":261848,"subject_id":"91376","group":"Group1","condition":"1_Rep","full_date":"2026-02-14T21:34:01.241Z","date":"2026-02-14","time":"21:34:01","cor_ans":true},{"trial_type":"html-keyboard-response","rt":null,"stimulus":"<p style=\"color: green; font-size: 50px; font-weight: bold;\">Correct</p>","response":null,"trial_index":142,"plugin_version":"2.1.0","time_elapsed":262357,"subject_id":"91376","group":"Group1","condition":"1_Rep","full_date":"2026-02-14T21:34:01.241Z","date":"2026-02-14","time":"21:34:01"},{"correct_response":"a","task":"test_phase","broad_category":"I","image_png":"I_Rhyolite_10.png","image_id":154,"category_name":"Rhyolite","category":10,"distinct_rating":2.88,"distinct_type":"Bottom","item_type":"Foil","rt":1073,"stimulus":"Stimuli_Rocks480/I_Rhyolite_10.png","response":"l","trial_type":"image-keyboard-response","trial_index":143,"plugin_version":"2.1.0","time_elapsed":263432,"subject_id":"91376","group":"Group1","condition":"1_Rep","full_date":"2026-02-14T21:34:01.241Z","date":"2026-02-14","time":"21:34:01","cor_ans":false},{"trial_type":"html-keyboard-response","rt":null,"stimulus":"<p style=\"color: red; font-size: 50px; font-weight: bold;\">Incorrect</p>","response":null,"trial_index":144,"plugin_version":"2.1.0","time_elapsed":263943,"subject_id":"91376","group":"Group1","condition":"1_Rep","full_date":"2026-02-14T21:34:01.241Z","date":"2026-02-14","time":"21:34:01"},{"correct_response":"l","task":"test_phase","broad_category":"I","image_png":"I_Diorite_03.png","image_id":35,"category_name":"Diorite","category":3,"distinct_rating":3.14,"distinct_type":"Bottom","item_type":"Target","rt":911,"stimulus":"Stimuli_Rocks480/I_Diorite_03.png","response":"l","trial_type":"image-keyboard-response","trial_index":145,"plugin_version":"2.1.0","time_elapsed":264856,"subject_id":"91376","group":"Group1","condition":"1_Rep","full_date":"2026-02-14T21:34:01.241Z","date":"2026-02-14","time":"21:34:01","cor_ans":true},{"trial_type":"html-keyboard-response","rt":null,"stimulus":"<p style=\"color: green; font-size: 50px; font-weight: bold;\">Correct</p>","response":null,"trial_index":146,"plugin_version":"2.1.0","time_elapsed":265360,"subject_id":"91376","group":"Group1","condition":"1_Rep","full_date":"2026-02-14T21:34:01.241Z","date":"2026-02-14","time":"21:34:01"},{"correct_response":"l","task":"test_phase","broad_category":"I","image_png":"I_Diorite_04.png","image_id":36,"category_name":"Diorite","category":3,"distinct_rating":2.98,"distinct_type":"Bottom","item_type":"Target","rt":1046,"stimulus":"Stimuli_Rocks480/I_Diorite_04.png","response":"l","trial_type":"image-keyboard-response","trial_index":147,"plugin_version":"2.1.0","time_elapsed":266408,"subject_id":"91376","group":"Group1","condition":"1_Rep","full_date":"2026-02-14T21:34:01.241Z","date":"2026-02-14","time":"21:34:01","cor_ans":true},{"trial_type":"html-keyboard-response","rt":null,"stimulus":"<p style=\"color: green; font-size: 50px; font-weight: bold;\">Correct</p>","response":null,"trial_index":148,"plugin_version":"2.1.0","time_elapsed":266917,"subject_id":"91376","group":"Group1","condition":"1_Rep","full_date":"2026-02-14T21:34:01.241Z","date":"2026-02-14","time":"21:34:01"},{"correct_response":"l","task":"test_phase","broad_category":"M","image_png":"M_Gneiss_05.png","image_id":197,"category_name":"Gneiss","category":13,"distinct_rating":2.97,"distinct_type":"Bottom","item_type":"Target","rt":753,"stimulus":"Stimuli_Rocks480/M_Gneiss_05.png","response":"l","trial_type":"image-keyboard-response","trial_index":149,"plugin_version":"2.1.0","time_elapsed":267671,"subject_id":"91376","group":"Group1","condition":"1_Rep","full_date":"2026-02-14T21:34:01.241Z","date":"2026-02-14","time":"21:34:01","cor_ans":true},{"trial_type":"html-keyboard-response","rt":null,"stimulus":"<p style=\"color: green; font-size: 50px; font-weight: bold;\">Correct</p>","response":null,"trial_index":150,"plugin_version":"2.1.0","time_elapsed":268173,"subject_id":"91376","group":"Group1","condition":"1_Rep","full_date":"2026-02-14T21:34:01.241Z","date":"2026-02-14","time":"21:34:01"},{"correct_response":"a","task":"test_phase","broad_category":"M","image_png":"M_Quartzite_12.png","image_id":284,"category_name":"Quartzite","category":18,"distinct_rating":1.92,"distinct_type":"Bottom","item_type":"Foil","rt":937,"stimulus":"Stimuli_Rocks480/M_Quartzite_12.png","response":"l","trial_type":"image-keyboard-response","trial_index":151,"plugin_version":"2.1.0","time_elapsed":269112,"subject_id":"91376","group":"Group1","condition":"1_Rep","full_date":"2026-02-14T21:34:01.241Z","date":"2026-02-14","time":"21:34:01","cor_ans":false},{"trial_type":"html-keyboard-response","rt":null,"stimulus":"<p style=\"color: red; font-size: 50px; font-weight: bold;\">Incorrect</p>","response":null,"trial_index":152,"plugin_version":"2.1.0","time_elapsed":269624,"subject_id":"91376","group":"Group1","condition":"1_Rep","full_date":"2026-02-14T21:34:01.241Z","date":"2026-02-14","time":"21:34:01"},{"correct_response":"a","task":"test_phase","broad_category":"I","image_png":"I_Pumice_13.png","image_id":141,"category_name":"Pumice","category":9,"distinct_rating":3.12,"distinct_type":"Bottom","item_type":"Foil","rt":909,"stimulus":"Stimuli_Rocks480/I_Pumice_13.png","response":"l","trial_type":"image-keyboard-response","trial_index":153,"plugin_version":"2.1.0","time_elapsed":270535,"subject_id":"91376","group":"Group1","condition":"1_Rep","full_date":"2026-02-14T21:34:01.241Z","date":"2026-02-14","time":"21:34:01","cor_ans":false},{"trial_type":"html-keyboard-response","rt":null,"stimulus":"<p style=\"color: red; font-size: 50px; font-weight: bold;\">Incorrect</p>","response":null,"trial_index":154,"plugin_version":"2.1.0","time_elapsed":271042,"subject_id":"91376","group":"Group1","condition":"1_Rep","full_date":"2026-02-14T21:34:01.241Z","date":"2026-02-14","time":"21:34:01"},{"correct_response":"a","task":"test_phase","broad_category":"I","image_png":"I_Basalt_13.png","image_id":29,"category_name":"Basalt","category":2,"distinct_rating":2.68,"distinct_type":"Bottom","item_type":"Foil","rt":1363,"stimulus":"Stimuli_Rocks480/I_Basalt_13.png","response":"l","trial_type":"image-keyboard-response","trial_index":155,"plugin_version":"2.1.0","time_elapsed":272407,"subject_id":"91376","group":"Group1","condition":"1_Rep","full_date":"2026-02-14T21:34:01.241Z","date":"2026-02-14","time":"21:34:01","cor_ans":false},{"trial_type":"html-keyboard-response","rt":null,"stimulus":"<p style=\"color: red; font-size: 50px; font-weight: bold;\">Incorrect</p>","response":null,"trial_index":156,"plugin_version":"2.1.0","time_elapsed":272909,"subject_id":"91376","group":"Group1","condition":"1_Rep","full_date":"2026-02-14T21:34:01.241Z","date":"2026-02-14","time":"21:34:01"},{"correct_response":"a","task":"test_phase","broad_category":"M","image_png":"M_Quartzite_15.png","image_id":287,"category_name":"Quartzite","category":18,"distinct_rating":2.19,"distinct_type":"Bottom","item_type":"Foil","rt":1049,"stimulus":"Stimuli_Rocks480/M_Quartzite_15.png","response":"l","trial_type":"image-keyboard-response","trial_index":157,"plugin_version":"2.1.0","time_elapsed":273959,"subject_id":"91376","group":"Group1","condition":"1_Rep","full_date":"2026-02-14T21:34:01.241Z","date":"2026-02-14","time":"21:34:01","cor_ans":false},{"trial_type":"html-keyboard-response","rt":null,"stimulus":"<p style=\"color: red; font-size: 50px; font-weight: bold;\">Incorrect</p>","response":null,"trial_index":158,"plugin_version":"2.1.0","time_elapsed":274473,"subject_id":"91376","group":"Group1","condition":"1_Rep","full_date":"2026-02-14T21:34:01.241Z","date":"2026-02-14","time":"21:34:01"},{"correct_response":"a","task":"test_phase","broad_category":"I","image_png":"I_Basalt_08.png","image_id":24,"category_name":"Basalt","category":2,"distinct_rating":2.31,"distinct_type":"Bottom","item_type":"Foil","rt":1005,"stimulus":"Stimuli_Rocks480/I_Basalt_08.png","response":"a","trial_type":"image-keyboard-response","trial_index":159,"plugin_version":"2.1.0","time_elapsed":275478,"subject_id":"91376","group":"Group1","condition":"1_Rep","full_date":"2026-02-14T21:34:01.241Z","date":"2026-02-14","time":"21:34:01","cor_ans":true},{"trial_type":"html-keyboard-response","rt":null,"stimulus":"<p style=\"color: green; font-size: 50px; font-weight: bold;\">Correct</p>","response":null,"trial_index":160,"plugin_version":"2.1.0","time_elapsed":275989,"subject_id":"91376","group":"Group1","condition":"1_Rep","full_date":"2026-02-14T21:34:01.241Z","date":"2026-02-14","time":"21:34:01"},{"correct_response":"a","task":"test_phase","broad_category":"I","image_png":"I_Gabbro_14.png","image_id":62,"category_name":"Gabbro","category":4,"distinct_rating":2.95,"distinct_type":"Bottom","item_type":"Foil","rt":1056,"stimulus":"Stimuli_Rocks480/I_Gabbro_14.png","response":"a","trial_type":"image-keyboard-response","trial_index":161,"plugin_version":"2.1.0","time_elapsed":277046,"subject_id":"91376","group":"Group1","condition":"1_Rep","full_date":"2026-02-14T21:34:01.241Z","date":"2026-02-14","time":"21:34:01","cor_ans":true},{"trial_type":"html-keyboard-response","rt":null,"stimulus":"<p style=\"color: green; font-size: 50px; font-weight: bold;\">Correct</p>","response":null,"trial_index":162,"plugin_version":"2.1.0","time_elapsed":277562,"subject_id":"91376","group":"Group1","condition":"1_Rep","full_date":"2026-02-14T21:34:01.241Z","date":"2026-02-14","time":"21:34:01"},{"correct_response":"a","task":"test_phase","broad_category":"I","image_png":"I_Andesite_04.png","image_id":4,"category_name":"Andesite","category":1,"distinct_rating":3.18,"distinct_type":"Bottom","item_type":"Foil","rt":1213,"stimulus":"Stimuli_Rocks480/I_Andesite_04.png","response":"a","trial_type":"image-keyboard-response","trial_index":163,"plugin_version":"2.1.0","time_elapsed":278776,"subject_id":"91376","group":"Group1","condition":"1_Rep","full_date":"2026-02-14T21:34:01.241Z","date":"2026-02-14","time":"21:34:01","cor_ans":true},{"trial_type":"html-keyboard-response","rt":null,"stimulus":"<p style=\"color: green; font-size: 50px; font-weight: bold;\">Correct</p>","response":null,"trial_index":164,"plugin_version":"2.1.0","time_elapsed":279277,"subject_id":"91376","group":"Group1","condition":"1_Rep","full_date":"2026-02-14T21:34:01.241Z","date":"2026-02-14","time":"21:34:01"},{"correct_response":"l","task":"test_phase","broad_category":"I","image_png":"I_Diorite_05.png","image_id":37,"category_name":"Diorite","category":3,"distinct_rating":3.08,"distinct_type":"Bottom","item_type":"Target","rt":650,"stimulus":"Stimuli_Rocks480/I_Diorite_05.png","response":"l","trial_type":"image-keyboard-response","trial_index":165,"plugin_version":"2.1.0","time_elapsed":279928,"subject_id":"91376","group":"Group1","condition":"1_Rep","full_date":"2026-02-14T21:34:01.241Z","date":"2026-02-14","time":"21:34:01","cor_ans":true},{"trial_type":"html-keyboard-response","rt":null,"stimulus":"<p style=\"color: green; font-size: 50px; font-weight: bold;\">Correct</p>","response":null,"trial_index":166,"plugin_version":"2.1.0","time_elapsed":280439,"subject_id":"91376","group":"Group1","condition":"1_Rep","full_date":"2026-02-14T21:34:01.241Z","date":"2026-02-14","time":"21:34:01"},{"correct_response":"l","task":"test_phase","broad_category":"M","image_png":"M_Slate_03.png","image_id":307,"category_name":"Slate","category":20,"distinct_rating":1.87,"distinct_type":"Bottom","item_type":"Target","rt":670,"stimulus":"Stimuli_Rocks480/M_Slate_03.png","response":"l","trial_type":"image-keyboard-response","trial_index":167,"plugin_version":"2.1.0","time_elapsed":281110,"subject_id":"91376","group":"Group1","condition":"1_Rep","full_date":"2026-02-14T21:34:01.241Z","date":"2026-02-14","time":"21:34:01","cor_ans":true},{"trial_type":"html-keyboard-response","rt":null,"stimulus":"<p style=\"color: green; font-size: 50px; font-weight: bold;\">Correct</p>","response":null,"trial_index":168,"plugin_version":"2.1.0","time_elapsed":281613,"subject_id":"91376","group":"Group1","condition":"1_Rep","full_date":"2026-02-14T21:34:01.241Z","date":"2026-02-14","time":"21:34:01"},{"correct_response":"l","task":"test_phase","broad_category":"I","image_png":"I_Basalt_02.png","image_id":18,"category_name":"Basalt","category":2,"distinct_rating":1.84,"distinct_type":"Bottom","item_type":"Target","rt":794,"stimulus":"Stimuli_Rocks480/I_Basalt_02.png","response":"l","trial_type":"image-keyboard-response","trial_index":169,"plugin_version":"2.1.0","time_elapsed":282408,"subject_id":"91376","group":"Group1","condition":"1_Rep","full_date":"2026-02-14T21:34:01.241Z","date":"2026-02-14","time":"21:34:01","cor_ans":true},{"trial_type":"html-keyboard-response","rt":null,"stimulus":"<p style=\"color: green; font-size: 50px; font-weight: bold;\">Correct</p>","response":null,"trial_index":170,"plugin_version":"2.1.0","time_elapsed":282924,"subject_id":"91376","group":"Group1","condition":"1_Rep","full_date":"2026-02-14T21:34:01.241Z","date":"2026-02-14","time":"21:34:01"},{"correct_response":"a","task":"test_phase","broad_category":"M","image_png":"M_Phyllite_13.png","image_id":269,"category_name":"Phyllite","category":17,"distinct_rating":2.8,"distinct_type":"Bottom","item_type":"Foil","rt":1003,"stimulus":"Stimuli_Rocks480/M_Phyllite_13.png","response":"l","trial_type":"image-keyboard-response","trial_index":171,"plugin_version":"2.1.0","time_elapsed":283928,"subject_id":"91376","group":"Group1","condition":"1_Rep","full_date":"2026-02-14T21:34:01.241Z","date":"2026-02-14","time":"21:34:01","cor_ans":false},{"trial_type":"html-keyboard-response","rt":null,"stimulus":"<p style=\"color: red; font-size: 50px; font-weight: bold;\">Incorrect</p>","response":null,"trial_index":172,"plugin_version":"2.1.0","time_elapsed":284441,"subject_id":"91376","group":"Group1","condition":"1_Rep","full_date":"2026-02-14T21:34:01.241Z","date":"2026-02-14","time":"21:34:01"},{"correct_response":"a","task":"test_phase","broad_category":"S","image_png":"S_Chert_13.png","image_id":365,"category_name":"Chert","category":23,"distinct_rating":6.57,"distinct_type":"Top","item_type":"Foil","rt":764,"stimulus":"Stimuli_Rocks480/S_Chert_13.png","response":"a","trial_type":"image-keyboard-response","trial_index":173,"plugin_version":"2.1.0","time_elapsed":285208,"subject_id":"91376","group":"Group1","condition":"1_Rep","full_date":"2026-02-14T21:34:01.241Z","date":"2026-02-14","time":"21:34:01","cor_ans":true},{"trial_type":"html-keyboard-response","rt":null,"stimulus":"<p style=\"color: green; font-size: 50px; font-weight: bold;\">Correct</p>","response":null,"trial_index":174,"plugin_version":"2.1.0","time_elapsed":285710,"subject_id":"91376","group":"Group1","condition":"1_Rep","full_date":"2026-02-14T21:34:01.241Z","date":"2026-02-14","time":"21:34:01"},{"correct_response":"a","task":"test_phase","broad_category":"S","image_png":"S_Conglomerate_14.png","image_id":382,"category_name":"Conglomerate","category":24,"distinct_rating":6.86,"distinct_type":"Top","item_type":"Foil","rt":680,"stimulus":"Stimuli_Rocks480/S_Conglomerate_14.png","response":"a","trial_type":"image-keyboard-response","trial_index":175,"plugin_version":"2.1.0","time_elapsed":286392,"subject_id":"91376","group":"Group1","condition":"1_Rep","full_date":"2026-02-14T21:34:01.241Z","date":"2026-02-14","time":"21:34:01","cor_ans":true},{"trial_type":"html-keyboard-response","rt":null,"stimulus":"<p style=\"color: green; font-size: 50px; font-weight: bold;\">Correct</p>","response":null,"trial_index":176,"plugin_version":"2.1.0","time_elapsed":286905,"subject_id":"91376","group":"Group1","condition":"1_Rep","full_date":"2026-02-14T21:34:01.241Z","date":"2026-02-14","time":"21:34:01"},{"correct_response":"l","task":"test_phase","broad_category":"M","image_png":"M_Gneiss_13.png","image_id":205,"category_name":"Gneiss","category":13,"distinct_rating":3.26,"distinct_type":"Bottom","item_type":"Target","rt":973,"stimulus":"Stimuli_Rocks480/M_Gneiss_13.png","response":"l","trial_type":"image-keyboard-response","trial_index":177,"plugin_version":"2.1.0","time_elapsed":287879,"subject_id":"91376","group":"Group1","condition":"1_Rep","full_date":"2026-02-14T21:34:01.241Z","date":"2026-02-14","time":"21:34:01","cor_ans":true},{"trial_type":"html-keyboard-response","rt":null,"stimulus":"<p style=\"color: green; font-size: 50px; font-weight: bold;\">Correct</p>","response":null,"trial_index":178,"plugin_version":"2.1.0","time_elapsed":288389,"subject_id":"91376","group":"Group1","condition":"1_Rep","full_date":"2026-02-14T21:34:01.241Z","date":"2026-02-14","time":"21:34:01"},{"correct_response":"a","task":"test_phase","broad_category":"I","image_png":"I_Diorite_15.png","image_id":47,"category_name":"Diorite","category":3,"distinct_rating":3.05,"distinct_type":"Bottom","item_type":"Foil","rt":721,"stimulus":"Stimuli_Rocks480/I_Diorite_15.png","response":"l","trial_type":"image-keyboard-response","trial_index":179,"plugin_version":"2.1.0","time_elapsed":289111,"subject_id":"91376","group":"Group1","condition":"1_Rep","full_date":"2026-02-14T21:34:01.241Z","date":"2026-02-14","time":"21:34:01","cor_ans":false},{"trial_type":"html-keyboard-response","rt":null,"stimulus":"<p style=\"color: red; font-size: 50px; font-weight: bold;\">Incorrect</p>","response":null,"trial_index":180,"plugin_version":"2.1.0","time_elapsed":289628,"subject_id":"91376","group":"Group1","condition":"1_Rep","full_date":"2026-02-14T21:34:01.241Z","date":"2026-02-14","time":"21:34:01"},{"correct_response":"a","task":"test_phase","broad_category":"M","image_png":"M_Marble_14.png","image_id":238,"category_name":"Marble","category":15,"distinct_rating":3.31,"distinct_type":"Bottom","item_type":"Foil","rt":1241,"stimulus":"Stimuli_Rocks480/M_Marble_14.png","response":"l","trial_type":"image-keyboard-response","trial_index":181,"plugin_version":"2.1.0","time_elapsed":290871,"subject_id":"91376","group":"Group1","condition":"1_Rep","full_date":"2026-02-14T21:34:01.241Z","date":"2026-02-14","time":"21:34:01","cor_ans":false},{"trial_type":"html-keyboard-response","rt":null,"stimulus":"<p style=\"color: red; font-size: 50px; font-weight: bold;\">Incorrect</p>","response":null,"trial_index":182,"plugin_version":"2.1.0","time_elapsed":291381,"subject_id":"91376","group":"Group1","condition":"1_Rep","full_date":"2026-02-14T21:34:01.241Z","date":"2026-02-14","time":"21:34:01"},{"correct_response":"a","task":"test_phase","broad_category":"I","image_png":"I_Rhyolite_08.png","image_id":152,"category_name":"Rhyolite","category":10,"distinct_rating":1.38,"distinct_type":"Bottom","item_type":"Foil","rt":818,"stimulus":"Stimuli_Rocks480/I_Rhyolite_08.png","response":"a","trial_type":"image-keyboard-response","trial_index":183,"plugin_version":"2.1.0","time_elapsed":292200,"subject_id":"91376","group":"Group1","condition":"1_Rep","full_date":"2026-02-14T21:34:01.241Z","date":"2026-02-14","time":"21:34:01","cor_ans":true},{"trial_type":"html-keyboard-response","rt":null,"stimulus":"<p style=\"color: green; font-size: 50px; font-weight: bold;\">Correct</p>","response":null,"trial_index":184,"plugin_version":"2.1.0","time_elapsed":292713,"subject_id":"91376","group":"Group1","condition":"1_Rep","full_date":"2026-02-14T21:34:01.241Z","date":"2026-02-14","time":"21:34:01"},{"correct_response":"l","task":"test_phase","broad_category":"S","image_png":"S_Sandstone_15.png","image_id":463,"category_name":"Sandstone","category":29,"distinct_rating":2,"distinct_type":"Bottom","item_type":"Target","rt":1565,"stimulus":"Stimuli_Rocks480/S_Sandstone_15.png","response":"a","trial_type":"image-keyboard-response","trial_index":185,"plugin_version":"2.1.0","time_elapsed":294280,"subject_id":"91376","group":"Group1","condition":"1_Rep","full_date":"2026-02-14T21:34:01.241Z","date":"2026-02-14","time":"21:34:01","cor_ans":false},{"trial_type":"html-keyboard-response","rt":null,"stimulus":"<p style=\"color: red; font-size: 50px; font-weight: bold;\">Incorrect</p>","response":null,"trial_index":186,"plugin_version":"2.1.0","time_elapsed":294796,"subject_id":"91376","group":"Group1","condition":"1_Rep","full_date":"2026-02-14T21:34:01.241Z","date":"2026-02-14","time":"21:34:01"},{"correct_response":"a","task":"test_phase","broad_category":"I","image_png":"I_Pumice_01.png","image_id":129,"category_name":"Pumice","category":9,"distinct_rating":3.25,"distinct_type":"Bottom","item_type":"Foil","rt":1018,"stimulus":"Stimuli_Rocks480/I_Pumice_01.png","response":"a","trial_type":"image-keyboard-response","trial_index":187,"plugin_version":"2.1.0","time_elapsed":295816,"subject_id":"91376","group":"Group1","condition":"1_Rep","full_date":"2026-02-14T21:34:01.241Z","date":"2026-02-14","time":"21:34:01","cor_ans":true},{"trial_type":"html-keyboard-response","rt":null,"stimulus":"<p style=\"color: green; font-size: 50px; font-weight: bold;\">Correct</p>","response":null,"trial_index":188,"plugin_version":"2.1.0","time_elapsed":296325,"subject_id":"91376","group":"Group1","condition":"1_Rep","full_date":"2026-02-14T21:34:01.241Z","date":"2026-02-14","time":"21:34:01"},{"correct_response":"l","task":"test_phase","broad_category":"M","image_png":"M_Slate_11.png","image_id":315,"category_name":"Slate","category":20,"distinct_rating":2.75,"distinct_type":"Bottom","item_type":"Target","rt":705,"stimulus":"Stimuli_Rocks480/M_Slate_11.png","response":"l","trial_type":"image-keyboard-response","trial_index":189,"plugin_version":"2.1.0","time_elapsed":297032,"subject_id":"91376","group":"Group1","condition":"1_Rep","full_date":"2026-02-14T21:34:01.241Z","date":"2026-02-14","time":"21:34:01","cor_ans":true},{"trial_type":"html-keyboard-response","rt":null,"stimulus":"<p style=\"color: green; font-size: 50px; font-weight: bold;\">Correct</p>","response":null,"trial_index":190,"plugin_version":"2.1.0","time_elapsed":297539,"subject_id":"91376","group":"Group1","condition":"1_Rep","full_date":"2026-02-14T21:34:01.241Z","date":"2026-02-14","time":"21:34:01"},{"correct_response":"l","task":"test_phase","broad_category":"I","image_png":"I_Obsidian_05.png","image_id":85,"category_name":"Obsidian","category":6,"distinct_rating":7.32,"distinct_type":"Top","item_type":"Target","rt":770,"stimulus":"Stimuli_Rocks480/I_Obsidian_05.png","response":"l","trial_type":"image-keyboard-response","trial_index":191,"plugin_version":"2.1.0","time_elapsed":298311,"subject_id":"91376","group":"Group1","condition":"1_Rep","full_date":"2026-02-14T21:34:01.241Z","date":"2026-02-14","time":"21:34:01","cor_ans":true},{"trial_type":"html-keyboard-response","rt":null,"stimulus":"<p style=\"color: green; font-size: 50px; font-weight: bold;\">Correct</p>","response":null,"trial_index":192,"plugin_version":"2.1.0","time_elapsed":298825,"subject_id":"91376","group":"Group1","condition":"1_Rep","full_date":"2026-02-14T21:34:01.241Z","date":"2026-02-14","time":"21:34:01"},{"correct_response":"a","task":"test_phase","broad_category":"S","image_png":"S_Rock Salt_13.png","image_id":445,"category_name":"Rock Salt","category":28,"distinct_rating":7.58,"distinct_type":"Top","item_type":"Foil","rt":685,"stimulus":"Stimuli_Rocks480/S_Rock Salt_13.png","response":"a","trial_type":"image-keyboard-response","trial_index":193,"plugin_version":"2.1.0","time_elapsed":299512,"subject_id":"91376","group":"Group1","condition":"1_Rep","full_date":"2026-02-14T21:34:01.241Z","date":"2026-02-14","time":"21:34:01","cor_ans":true},{"trial_type":"html-keyboard-response","rt":null,"stimulus":"<p style=\"color: green; font-size: 50px; font-weight: bold;\">Correct</p>","response":null,"trial_index":194,"plugin_version":"2.1.0","time_elapsed":300029,"subject_id":"91376","group":"Group1","condition":"1_Rep","full_date":"2026-02-14T21:34:01.241Z","date":"2026-02-14","time":"21:34:01"},{"correct_response":"l","task":"test_phase","broad_category":"M","image_png":"M_Marble_04.png","image_id":228,"category_name":"Marble","category":15,"distinct_rating":3.15,"distinct_type":"Bottom","item_type":"Target","rt":1209,"stimulus":"Stimuli_Rocks480/M_Marble_04.png","response":"l","trial_type":"image-keyboard-response","trial_index":195,"plugin_version":"2.1.0","time_elapsed":301239,"subject_id":"91376","group":"Group1","condition":"1_Rep","full_date":"2026-02-14T21:34:01.241Z","date":"2026-02-14","time":"21:34:01","cor_ans":true},{"trial_type":"html-keyboard-response","rt":null,"stimulus":"<p style=\"color: green; font-size: 50px; font-weight: bold;\">Correct</p>","response":null,"trial_index":196,"plugin_version":"2.1.0","time_elapsed":301743,"subject_id":"91376","group":"Group1","condition":"1_Rep","full_date":"2026-02-14T21:34:01.241Z","date":"2026-02-14","time":"21:34:01"},{"correct_response":"a","task":"test_phase","broad_category":"I","image_png":"I_Obsidian_06.png","image_id":86,"category_name":"Obsidian","category":6,"distinct_rating":8.01,"distinct_type":"Top","item_type":"Foil","rt":664,"stimulus":"Stimuli_Rocks480/I_Obsidian_06.png","response":"a","trial_type":"image-keyboard-response","trial_index":197,"plugin_version":"2.1.0","time_elapsed":302408,"subject_id":"91376","group":"Group1","condition":"1_Rep","full_date":"2026-02-14T21:34:01.241Z","date":"2026-02-14","time":"21:34:01","cor_ans":true},{"trial_type":"html-keyboard-response","rt":null,"stimulus":"<p style=\"color: green; font-size: 50px; font-weight: bold;\">Correct</p>","response":null,"trial_index":198,"plugin_version":"2.1.0","time_elapsed":302910,"subject_id":"91376","group":"Group1","condition":"1_Rep","full_date":"2026-02-14T21:34:01.241Z","date":"2026-02-14","time":"21:34:01"},{"correct_response":"a","task":"test_phase","broad_category":"M","image_png":"M_Slate_04.png","image_id":308,"category_name":"Slate","category":20,"distinct_rating":2.2,"distinct_type":"Bottom","item_type":"Foil","rt":840,"stimulus":"Stimuli_Rocks480/M_Slate_04.png","response":"l","trial_type":"image-keyboard-response","trial_index":199,"plugin_version":"2.1.0","time_elapsed":303752,"subject_id":"91376","group":"Group1","condition":"1_Rep","full_date":"2026-02-14T21:34:01.241Z","date":"2026-02-14","time":"21:34:01","cor_ans":false},{"trial_type":"html-keyboard-response","rt":null,"stimulus":"<p style=\"color: red; font-size: 50px; font-weight: bold;\">Incorrect</p>","response":null,"trial_index":200,"plugin_version":"2.1.0","time_elapsed":304263,"subject_id":"91376","group":"Group1","condition":"1_Rep","full_date":"2026-02-14T21:34:01.241Z","date":"2026-02-14","time":"21:34:01"},{"correct_response":"a","task":"test_phase","broad_category":"S","image_png":"S_Shale_02.png","image_id":466,"category_name":"Shale","category":30,"distinct_rating":2.9,"distinct_type":"Bottom","item_type":"Foil","rt":975,"stimulus":"Stimuli_Rocks480/S_Shale_02.png","response":"a","trial_type":"image-keyboard-response","trial_index":201,"plugin_version":"2.1.0","time_elapsed":305240,"subject_id":"91376","group":"Group1","condition":"1_Rep","full_date":"2026-02-14T21:34:01.241Z","date":"2026-02-14","time":"21:34:01","cor_ans":true},{"trial_type":"html-keyboard-response","rt":null,"stimulus":"<p style=\"color: green; font-size: 50px; font-weight: bold;\">Correct</p>","response":null,"trial_index":202,"plugin_version":"2.1.0","time_elapsed":305744,"subject_id":"91376","group":"Group1","condition":"1_Rep","full_date":"2026-02-14T21:34:01.241Z","date":"2026-02-14","time":"21:34:01"},{"correct_response":"l","task":"test_phase","broad_category":"I","image_png":"I_Pumice_08.png","image_id":136,"category_name":"Pumice","category":9,"distinct_rating":3.1,"distinct_type":"Bottom","item_type":"Target","rt":1094,"stimulus":"Stimuli_Rocks480/I_Pumice_08.png","response":"l","trial_type":"image-keyboard-response","trial_index":203,"plugin_version":"2.1.0","time_elapsed":306840,"subject_id":"91376","group":"Group1","condition":"1_Rep","full_date":"2026-02-14T21:34:01.241Z","date":"2026-02-14","time":"21:34:01","cor_ans":true},{"trial_type":"html-keyboard-response","rt":null,"stimulus":"<p style=\"color: green; font-size: 50px; font-weight: bold;\">Correct</p>","response":null,"trial_index":204,"plugin_version":"2.1.0","time_elapsed":307353,"subject_id":"91376","group":"Group1","condition":"1_Rep","full_date":"2026-02-14T21:34:01.241Z","date":"2026-02-14","time":"21:34:01"},{"correct_response":"l","task":"test_phase","broad_category":"I","image_png":"I_Gabbro_16.png","image_id":64,"category_name":"Gabbro","category":4,"distinct_rating":2.52,"distinct_type":"Bottom","item_type":"Target","rt":798,"stimulus":"Stimuli_Rocks480/I_Gabbro_16.png","response":"a","trial_type":"image-keyboard-response","trial_index":205,"plugin_version":"2.1.0","time_elapsed":308152,"subject_id":"91376","group":"Group1","condition":"1_Rep","full_date":"2026-02-14T21:34:01.241Z","date":"2026-02-14","time":"21:34:01","cor_ans":false},{"trial_type":"html-keyboard-response","rt":null,"stimulus":"<p style=\"color: red; font-size: 50px; font-weight: bold;\">Incorrect</p>","response":null,"trial_index":206,"plugin_version":"2.1.0","time_elapsed":308669,"subject_id":"91376","group":"Group1","condition":"1_Rep","full_date":"2026-02-14T21:34:01.241Z","date":"2026-02-14","time":"21:34:01"},{"correct_response":"l","task":"test_phase","broad_category":"I","image_png":"I_Basalt_01.png","image_id":17,"category_name":"Basalt","category":2,"distinct_rating":1.92,"distinct_type":"Bottom","item_type":"Target","rt":1369,"stimulus":"Stimuli_Rocks480/I_Basalt_01.png","response":"l","trial_type":"image-keyboard-response","trial_index":207,"plugin_version":"2.1.0","time_elapsed":310040,"subject_id":"91376","group":"Group1","condition":"1_Rep","full_date":"2026-02-14T21:34:01.241Z","date":"2026-02-14","time":"21:34:01","cor_ans":true},{"trial_type":"html-keyboard-response","rt":null,"stimulus":"<p style=\"color: green; font-size: 50px; font-weight: bold;\">Correct</p>","response":null,"trial_index":208,"plugin_version":"2.1.0","time_elapsed":310545,"subject_id":"91376","group":"Group1","condition":"1_Rep","full_date":"2026-02-14T21:34:01.241Z","date":"2026-02-14","time":"21:34:01"},{"correct_response":"l","task":"test_phase","broad_category":"I","image_png":"I_Gabbro_08.png","image_id":56,"category_name":"Gabbro","category":4,"distinct_rating":3.02,"distinct_type":"Bottom","item_type":"Target","rt":1125,"stimulus":"Stimuli_Rocks480/I_Gabbro_08.png","response":"l","trial_type":"image-keyboard-response","trial_index":209,"plugin_version":"2.1.0","time_elapsed":311672,"subject_id":"91376","group":"Group1","condition":"1_Rep","full_date":"2026-02-14T21:34:01.241Z","date":"2026-02-14","time":"21:34:01","cor_ans":true},{"trial_type":"html-keyboard-response","rt":null,"stimulus":"<p style=\"color: green; font-size: 50px; font-weight: bold;\">Correct</p>","response":null,"trial_index":210,"plugin_version":"2.1.0","time_elapsed":312178,"subject_id":"91376","group":"Group1","condition":"1_Rep","full_date":"2026-02-14T21:34:01.241Z","date":"2026-02-14","time":"21:34:01"},{"correct_response":"l","task":"test_phase","broad_category":"S","image_png":"S_Dolomite_14.png","image_id":398,"category_name":"Dolomite","category":25,"distinct_rating":1.43,"distinct_type":"Bottom","item_type":"Target","rt":1493,"stimulus":"Stimuli_Rocks480/S_Dolomite_14.png","response":"a","trial_type":"image-keyboard-response","trial_index":211,"plugin_version":"2.1.0","time_elapsed":313672,"subject_id":"91376","group":"Group1","condition":"1_Rep","full_date":"2026-02-14T21:34:01.241Z","date":"2026-02-14","time":"21:34:01","cor_ans":false},{"trial_type":"html-keyboard-response","rt":null,"stimulus":"<p style=\"color: red; font-size: 50px; font-weight: bold;\">Incorrect</p>","response":null,"trial_index":212,"plugin_version":"2.1.0","time_elapsed":314180,"subject_id":"91376","group":"Group1","condition":"1_Rep","full_date":"2026-02-14T21:34:01.241Z","date":"2026-02-14","time":"21:34:01"},{"correct_response":"a","task":"test_phase","broad_category":"M","image_png":"M_Marble_02.png","image_id":226,"category_name":"Marble","category":15,"distinct_rating":3.2,"distinct_type":"Bottom","item_type":"Foil","rt":1300,"stimulus":"Stimuli_Rocks480/M_Marble_02.png","response":"l","trial_type":"image-keyboard-response","trial_index":213,"plugin_version":"2.1.0","time_elapsed":315480,"subject_id":"91376","group":"Group1","condition":"1_Rep","full_date":"2026-02-14T21:34:01.241Z","date":"2026-02-14","time":"21:34:01","cor_ans":false},{"trial_type":"html-keyboard-response","rt":null,"stimulus":"<p style=\"color: red; font-size: 50px; font-weight: bold;\">Incorrect</p>","response":null,"trial_index":214,"plugin_version":"2.1.0","time_elapsed":315991,"subject_id":"91376","group":"Group1","condition":"1_Rep","full_date":"2026-02-14T21:34:01.241Z","date":"2026-02-14","time":"21:34:01"},{"correct_response":"a","task":"test_phase","broad_category":"M","image_png":"M_Phyllite_05.png","image_id":261,"category_name":"Phyllite","category":17,"distinct_rating":2.14,"distinct_type":"Bottom","item_type":"Foil","rt":1151,"stimulus":"Stimuli_Rocks480/M_Phyllite_05.png","response":"l","trial_type":"image-keyboard-response","trial_index":215,"plugin_version":"2.1.0","time_elapsed":317143,"subject_id":"91376","group":"Group1","condition":"1_Rep","full_date":"2026-02-14T21:34:01.241Z","date":"2026-02-14","time":"21:34:01","cor_ans":false},{"trial_type":"html-keyboard-response","rt":null,"stimulus":"<p style=\"color: red; font-size: 50px; font-weight: bold;\">Incorrect</p>","response":null,"trial_index":216,"plugin_version":"2.1.0","time_elapsed":317646,"subject_id":"91376","group":"Group1","condition":"1_Rep","full_date":"2026-02-14T21:34:01.241Z","date":"2026-02-14","time":"21:34:01"},{"correct_response":"a","task":"test_phase","broad_category":"S","image_png":"S_Sandstone_11.png","image_id":459,"category_name":"Sandstone","category":29,"distinct_rating":1.82,"distinct_type":"Bottom","item_type":"Foil","rt":1912,"stimulus":"Stimuli_Rocks480/S_Sandstone_11.png","response":"a","trial_type":"image-keyboard-response","trial_index":217,"plugin_version":"2.1.0","time_elapsed":319560,"subject_id":"91376","group":"Group1","condition":"1_Rep","full_date":"2026-02-14T21:34:01.241Z","date":"2026-02-14","time":"21:34:01","cor_ans":true},{"trial_type":"html-keyboard-response","rt":null,"stimulus":"<p style=\"color: green; font-size: 50px; font-weight: bold;\">Correct</p>","response":null,"trial_index":218,"plugin_version":"2.1.0","time_elapsed":320062,"subject_id":"91376","group":"Group1","condition":"1_Rep","full_date":"2026-02-14T21:34:01.241Z","date":"2026-02-14","time":"21:34:01"},{"correct_response":"l","task":"test_phase","broad_category":"S","image_png":"S_Dolomite_13.png","image_id":397,"category_name":"Dolomite","category":25,"distinct_rating":1.77,"distinct_type":"Bottom","item_type":"Target","rt":1368,"stimulus":"Stimuli_Rocks480/S_Dolomite_13.png","response":"l","trial_type":"image-keyboard-response","trial_index":219,"plugin_version":"2.1.0","time_elapsed":321432,"subject_id":"91376","group":"Group1","condition":"1_Rep","full_date":"2026-02-14T21:34:01.241Z","date":"2026-02-14","time":"21:34:01","cor_ans":true},{"trial_type":"html-keyboard-response","rt":null,"stimulus":"<p style=\"color: green; font-size: 50px; font-weight: bold;\">Correct</p>","response":null,"trial_index":220,"plugin_version":"2.1.0","time_elapsed":321939,"subject_id":"91376","group":"Group1","condition":"1_Rep","full_date":"2026-02-14T21:34:01.241Z","date":"2026-02-14","time":"21:34:01"},{"correct_response":"a","task":"test_phase","broad_category":"I","image_png":"I_Diorite_10.png","image_id":42,"category_name":"Diorite","category":3,"distinct_rating":2.84,"distinct_type":"Bottom","item_type":"Foil","rt":963,"stimulus":"Stimuli_Rocks480/I_Diorite_10.png","response":"a","trial_type":"image-keyboard-response","trial_index":221,"plugin_version":"2.1.0","time_elapsed":322904,"subject_id":"91376","group":"Group1","condition":"1_Rep","full_date":"2026-02-14T21:34:01.241Z","date":"2026-02-14","time":"21:34:01","cor_ans":true},{"trial_type":"html-keyboard-response","rt":null,"stimulus":"<p style=\"color: green; font-size: 50px; font-weight: bold;\">Correct</p>","response":null,"trial_index":222,"plugin_version":"2.1.0","time_elapsed":323413,"subject_id":"91376","group":"Group1","condition":"1_Rep","full_date":"2026-02-14T21:34:01.241Z","date":"2026-02-14","time":"21:34:01"},{"correct_response":"a","task":"test_phase","broad_category":"I","image_png":"I_Pegmatite_11.png","image_id":107,"category_name":"Pegmatite","category":7,"distinct_rating":7.11,"distinct_type":"Top","item_type":"Foil","rt":593,"stimulus":"Stimuli_Rocks480/I_Pegmatite_11.png","response":"a","trial_type":"image-keyboard-response","trial_index":223,"plugin_version":"2.1.0","time_elapsed":324008,"subject_id":"91376","group":"Group1","condition":"1_Rep","full_date":"2026-02-14T21:34:01.241Z","date":"2026-02-14","time":"21:34:01","cor_ans":true},{"trial_type":"html-keyboard-response","rt":null,"stimulus":"<p style=\"color: green; font-size: 50px; font-weight: bold;\">Correct</p>","response":null,"trial_index":224,"plugin_version":"2.1.0","time_elapsed":324509,"subject_id":"91376","group":"Group1","condition":"1_Rep","full_date":"2026-02-14T21:34:01.241Z","date":"2026-02-14","time":"21:34:01"},{"correct_response":"l","task":"test_phase","broad_category":"M","image_png":"M_Phyllite_10.png","image_id":266,"category_name":"Phy