[{"width":1440,"height":812,"webaudio":true,"browser":"chrome","browser_version":"145.0.0","mobile":false,"os":"Mac OS","fullscreen":true,"vsync_rate":61.33,"webcam":true,"microphone":true,"trial_type":"browser-check","trial_index":0,"plugin_version":"2.1.0","time_elapsed":999,"subject_id":"91370","group":"Group1","condition":"1_Rep","full_date":"2026-03-06T14:17:04.765Z","date":"2026-03-06","time":"14:17:04"},{"success":true,"timeout":false,"failed_images":[],"failed_audio":[],"failed_video":[],"trial_type":"preload","trial_index":1,"plugin_version":"2.1.0","time_elapsed":2670,"subject_id":"91370","group":"Group1","condition":"1_Rep","full_date":"2026-03-06T14:17:04.765Z","date":"2026-03-06","time":"14:17:04"},{"rt":7035,"url":"SONA_consent_memorability.html","trial_type":"external-html","trial_index":2,"plugin_version":"2.1.0","time_elapsed":9811,"subject_id":"91370","group":"Group1","condition":"1_Rep","full_date":"2026-03-06T14:17:04.765Z","date":"2026-03-06","time":"14:17:04"},{"success":true,"rt":1394,"trial_type":"fullscreen","trial_index":3,"plugin_version":"2.1.0","time_elapsed":12209,"subject_id":"91370","group":"Group1","condition":"1_Rep","full_date":"2026-03-06T14:17:04.765Z","date":"2026-03-06","time":"14:17:04"},{"rt":1966,"stimulus":"<div style=\"max-width: 760px; margin: auto; font-size: 20px; line-height: 1.5;\">\n      <h1 style=\"text-align:center; font-size: 30px;\">Instructions</h1>\n      <p>\n        Welcome to the study on <b>visual memory</b>. This experiment consists of <b>two phases</b>: \n        a <b>study phase</b> and a <b>test phase</b>.\n      </p>\n      <p>\n        In the study phase, you will see a series of rock images along with their category labels.\n        The images will appear one at a time.\n        <b>Your task</b> is to learn the categories to which the rock images belong \n        and to remember each image as accurately as possible.\n      </p> \n      <p>\n        Note that you will see each image only <b>once</b> during the study phase. \n          So, please pay close attention and try to remember each image carefully.\n      </p>\n      <p>\n        After the study phase, <b>your memory will be tested</b>. \n        Additional instructions for the test phase will be provided at that time.\n      </p>\n      <p>\n        If your computer has multiple <b>language settings</b> (e.g., English and another language),\n        please make sure it is set to English before starting.\n      </p>\n      <p>\n        You can track your progress using the <b>completion bar</b> at the top of the screen. \n        Please note that the bar will refresh when the test phase begins \n        to give you an accurate sense of your progress in both phases.\n      </p> \n      <p>\n        Press the button below when you are ready to begin.\n      </p>\n    </div>","response":0,"trial_type":"html-button-response","trial_index":4,"plugin_version":"2.1.0","time_elapsed":14177,"subject_id":"91370","group":"Group1","condition":"1_Rep","full_date":"2026-03-06T14:17:04.765Z","date":"2026-03-06","time":"14:17:04"},{"rt":null,"stimulus":"<p style=\"font-size: 50px; margin: 0; text-align: center;\">+</p>","response":null,"trial_type":"html-keyboard-response","trial_index":5,"plugin_version":"2.1.0","time_elapsed":15181,"subject_id":"91370","group":"Group1","condition":"1_Rep","full_date":"2026-03-06T14:17:04.765Z","date":"2026-03-06","time":"14:17:04"},{"task":"memory_phase","broad_category":"M","image_png":"M_Phyllite_03.png","image_id":259,"category_name":"Phyllite","category":17,"distinct_rating":2.5,"distinct_type":"Bottom","rt":null,"stimulus":"Stimuli_Rocks480/M_Phyllite_03.png","response":null,"trial_type":"image-keyboard-response","trial_index":6,"plugin_version":"2.1.0","time_elapsed":17686,"subject_id":"91370","group":"Group1","condition":"1_Rep","full_date":"2026-03-06T14:17:04.765Z","date":"2026-03-06","time":"14:17:04"},{"rt":null,"stimulus":"<p style=\"font-size: 50px; margin: 0; text-align: center;\">+</p>","response":null,"trial_type":"html-keyboard-response","trial_index":7,"plugin_version":"2.1.0","time_elapsed":18686,"subject_id":"91370","group":"Group1","condition":"1_Rep","full_date":"2026-03-06T14:17:04.765Z","date":"2026-03-06","time":"14:17:04"},{"task":"memory_phase","broad_category":"M","image_png":"M_Marble_16.png","image_id":240,"category_name":"Marble","category":15,"distinct_rating":2.57,"distinct_type":"Bottom","rt":null,"stimulus":"Stimuli_Rocks480/M_Marble_16.png","response":null,"trial_type":"image-keyboard-response","trial_index":8,"plugin_version":"2.1.0","time_elapsed":21190,"subject_id":"91370","group":"Group1","condition":"1_Rep","full_date":"2026-03-06T14:17:04.765Z","date":"2026-03-06","time":"14:17:04"},{"rt":null,"stimulus":"<p style=\"font-size: 50px; margin: 0; text-align: center;\">+</p>","response":null,"trial_type":"html-keyboard-response","trial_index":9,"plugin_version":"2.1.0","time_elapsed":22194,"subject_id":"91370","group":"Group1","condition":"1_Rep","full_date":"2026-03-06T14:17:04.765Z","date":"2026-03-06","time":"14:17:04"},{"task":"memory_phase","broad_category":"M","image_png":"M_Slate_03.png","image_id":307,"category_name":"Slate","category":20,"distinct_rating":1.87,"distinct_type":"Bottom","rt":null,"stimulus":"Stimuli_Rocks480/M_Slate_03.png","response":null,"trial_type":"image-keyboard-response","trial_index":10,"plugin_version":"2.1.0","time_elapsed":24697,"subject_id":"91370","group":"Group1","condition":"1_Rep","full_date":"2026-03-06T14:17:04.765Z","date":"2026-03-06","time":"14:17:04"},{"rt":null,"stimulus":"<p style=\"font-size: 50px; margin: 0; text-align: center;\">+</p>","response":null,"trial_type":"html-keyboard-response","trial_index":11,"plugin_version":"2.1.0","time_elapsed":25700,"subject_id":"91370","group":"Group1","condition":"1_Rep","full_date":"2026-03-06T14:17:04.765Z","date":"2026-03-06","time":"14:17:04"},{"task":"memory_phase","broad_category":"M","image_png":"M_Phyllite_10.png","image_id":266,"category_name":"Phyllite","category":17,"distinct_rating":2.6,"distinct_type":"Bottom","rt":null,"stimulus":"Stimuli_Rocks480/M_Phyllite_10.png","response":null,"trial_type":"image-keyboard-response","trial_index":12,"plugin_version":"2.1.0","time_elapsed":28203,"subject_id":"91370","group":"Group1","condition":"1_Rep","full_date":"2026-03-06T14:17:04.765Z","date":"2026-03-06","time":"14:17:04"},{"rt":null,"stimulus":"<p style=\"font-size: 50px; margin: 0; text-align: center;\">+</p>","response":null,"trial_type":"html-keyboard-response","trial_index":13,"plugin_version":"2.1.0","time_elapsed":29206,"subject_id":"91370","group":"Group1","condition":"1_Rep","full_date":"2026-03-06T14:17:04.765Z","date":"2026-03-06","time":"14:17:04"},{"task":"memory_phase","broad_category":"S","image_png":"S_Chert_10.png","image_id":362,"category_name":"Chert","category":23,"distinct_rating":7.17,"distinct_type":"Top","rt":null,"stimulus":"Stimuli_Rocks480/S_Chert_10.png","response":null,"trial_type":"image-keyboard-response","trial_index":14,"plugin_version":"2.1.0","time_elapsed":31709,"subject_id":"91370","group":"Group1","condition":"1_Rep","full_date":"2026-03-06T14:17:04.765Z","date":"2026-03-06","time":"14:17:04"},{"rt":null,"stimulus":"<p style=\"font-size: 50px; margin: 0; text-align: center;\">+</p>","response":null,"trial_type":"html-keyboard-response","trial_index":15,"plugin_version":"2.1.0","time_elapsed":32711,"subject_id":"91370","group":"Group1","condition":"1_Rep","full_date":"2026-03-06T14:17:04.765Z","date":"2026-03-06","time":"14:17:04"},{"task":"memory_phase","broad_category":"I","image_png":"I_Diorite_03.png","image_id":35,"category_name":"Diorite","category":3,"distinct_rating":3.14,"distinct_type":"Bottom","rt":null,"stimulus":"Stimuli_Rocks480/I_Diorite_03.png","response":null,"trial_type":"image-keyboard-response","trial_index":16,"plugin_version":"2.1.0","time_elapsed":35214,"subject_id":"91370","group":"Group1","condition":"1_Rep","full_date":"2026-03-06T14:17:04.765Z","date":"2026-03-06","time":"14:17:04"},{"rt":null,"stimulus":"<p style=\"font-size: 50px; margin: 0; text-align: center;\">+</p>","response":null,"trial_type":"html-keyboard-response","trial_index":17,"plugin_version":"2.1.0","time_elapsed":36216,"subject_id":"91370","group":"Group1","condition":"1_Rep","full_date":"2026-03-06T14:17:04.765Z","date":"2026-03-06","time":"14:17:04"},{"task":"memory_phase","broad_category":"I","image_png":"I_Rhyolite_16.png","image_id":160,"category_name":"Rhyolite","category":10,"distinct_rating":2.19,"distinct_type":"Bottom","rt":null,"stimulus":"Stimuli_Rocks480/I_Rhyolite_16.png","response":null,"trial_type":"image-keyboard-response","trial_index":18,"plugin_version":"2.1.0","time_elapsed":38719,"subject_id":"91370","group":"Group1","condition":"1_Rep","full_date":"2026-03-06T14:17:04.765Z","date":"2026-03-06","time":"14:17:04"},{"rt":null,"stimulus":"<p style=\"font-size: 50px; margin: 0; text-align: center;\">+</p>","response":null,"trial_type":"html-keyboard-response","trial_index":19,"plugin_version":"2.1.0","time_elapsed":39722,"subject_id":"91370","group":"Group1","condition":"1_Rep","full_date":"2026-03-06T14:17:04.765Z","date":"2026-03-06","time":"14:17:04"},{"task":"memory_phase","broad_category":"I","image_png":"I_Diorite_05.png","image_id":37,"category_name":"Diorite","category":3,"distinct_rating":3.08,"distinct_type":"Bottom","rt":null,"stimulus":"Stimuli_Rocks480/I_Diorite_05.png","response":null,"trial_type":"image-keyboard-response","trial_index":20,"plugin_version":"2.1.0","time_elapsed":42226,"subject_id":"91370","group":"Group1","condition":"1_Rep","full_date":"2026-03-06T14:17:04.765Z","date":"2026-03-06","time":"14:17:04"},{"rt":null,"stimulus":"<p style=\"font-size: 50px; margin: 0; text-align: center;\">+</p>","response":null,"trial_type":"html-keyboard-response","trial_index":21,"plugin_version":"2.1.0","time_elapsed":43227,"subject_id":"91370","group":"Group1","condition":"1_Rep","full_date":"2026-03-06T14:17:04.765Z","date":"2026-03-06","time":"14:17:04"},{"task":"memory_phase","broad_category":"M","image_png":"M_Gneiss_06.png","image_id":198,"category_name":"Gneiss","category":13,"distinct_rating":2.65,"distinct_type":"Bottom","rt":null,"stimulus":"Stimuli_Rocks480/M_Gneiss_06.png","response":null,"trial_type":"image-keyboard-response","trial_index":22,"plugin_version":"2.1.0","time_elapsed":45729,"subject_id":"91370","group":"Group1","condition":"1_Rep","full_date":"2026-03-06T14:17:04.765Z","date":"2026-03-06","time":"14:17:04"},{"rt":null,"stimulus":"<p style=\"font-size: 50px; margin: 0; text-align: center;\">+</p>","response":null,"trial_type":"html-keyboard-response","trial_index":23,"plugin_version":"2.1.0","time_elapsed":46732,"subject_id":"91370","group":"Group1","condition":"1_Rep","full_date":"2026-03-06T14:17:04.765Z","date":"2026-03-06","time":"14:17:04"},{"task":"memory_phase","broad_category":"M","image_png":"M_Quartzite_13.png","image_id":285,"category_name":"Quartzite","category":18,"distinct_rating":2.27,"distinct_type":"Bottom","rt":null,"stimulus":"Stimuli_Rocks480/M_Quartzite_13.png","response":null,"trial_type":"image-keyboard-response","trial_index":24,"plugin_version":"2.1.0","time_elapsed":49234,"subject_id":"91370","group":"Group1","condition":"1_Rep","full_date":"2026-03-06T14:17:04.765Z","date":"2026-03-06","time":"14:17:04"},{"rt":null,"stimulus":"<p style=\"font-size: 50px; margin: 0; text-align: center;\">+</p>","response":null,"trial_type":"html-keyboard-response","trial_index":25,"plugin_version":"2.1.0","time_elapsed":50236,"subject_id":"91370","group":"Group1","condition":"1_Rep","full_date":"2026-03-06T14:17:04.765Z","date":"2026-03-06","time":"14:17:04"},{"task":"memory_phase","broad_category":"S","image_png":"S_Shale_12.png","image_id":476,"category_name":"Shale","category":30,"distinct_rating":2.48,"distinct_type":"Bottom","rt":null,"stimulus":"Stimuli_Rocks480/S_Shale_12.png","response":null,"trial_type":"image-keyboard-response","trial_index":26,"plugin_version":"2.1.0","time_elapsed":52739,"subject_id":"91370","group":"Group1","condition":"1_Rep","full_date":"2026-03-06T14:17:04.765Z","date":"2026-03-06","time":"14:17:04"},{"rt":null,"stimulus":"<p style=\"font-size: 50px; margin: 0; text-align: center;\">+</p>","response":null,"trial_type":"html-keyboard-response","trial_index":27,"plugin_version":"2.1.0","time_elapsed":53741,"subject_id":"91370","group":"Group1","condition":"1_Rep","full_date":"2026-03-06T14:17:04.765Z","date":"2026-03-06","time":"14:17:04"},{"task":"memory_phase","broad_category":"S","image_png":"S_Sandstone_16.png","image_id":464,"category_name":"Sandstone","category":29,"distinct_rating":1.93,"distinct_type":"Bottom","rt":null,"stimulus":"Stimuli_Rocks480/S_Sandstone_16.png","response":null,"trial_type":"image-keyboard-response","trial_index":28,"plugin_version":"2.1.0","time_elapsed":56243,"subject_id":"91370","group":"Group1","condition":"1_Rep","full_date":"2026-03-06T14:17:04.765Z","date":"2026-03-06","time":"14:17:04"},{"rt":null,"stimulus":"<p style=\"font-size: 50px; margin: 0; text-align: center;\">+</p>","response":null,"trial_type":"html-keyboard-response","trial_index":29,"plugin_version":"2.1.0","time_elapsed":57245,"subject_id":"91370","group":"Group1","condition":"1_Rep","full_date":"2026-03-06T14:17:04.765Z","date":"2026-03-06","time":"14:17:04"},{"task":"memory_phase","broad_category":"I","image_png":"I_Gabbro_08.png","image_id":56,"category_name":"Gabbro","category":4,"distinct_rating":3.02,"distinct_type":"Bottom","rt":null,"stimulus":"Stimuli_Rocks480/I_Gabbro_08.png","response":null,"trial_type":"image-keyboard-response","trial_index":30,"plugin_version":"2.1.0","time_elapsed":59749,"subject_id":"91370","group":"Group1","condition":"1_Rep","full_date":"2026-03-06T14:17:04.765Z","date":"2026-03-06","time":"14:17:04"},{"rt":null,"stimulus":"<p style=\"font-size: 50px; margin: 0; text-align: center;\">+</p>","response":null,"trial_type":"html-keyboard-response","trial_index":31,"plugin_version":"2.1.0","time_elapsed":60752,"subject_id":"91370","group":"Group1","condition":"1_Rep","full_date":"2026-03-06T14:17:04.765Z","date":"2026-03-06","time":"14:17:04"},{"task":"memory_phase","broad_category":"M","image_png":"M_Gneiss_05.png","image_id":197,"category_name":"Gneiss","category":13,"distinct_rating":2.97,"distinct_type":"Bottom","rt":null,"stimulus":"Stimuli_Rocks480/M_Gneiss_05.png","response":null,"trial_type":"image-keyboard-response","trial_index":32,"plugin_version":"2.1.0","time_elapsed":63256,"subject_id":"91370","group":"Group1","condition":"1_Rep","full_date":"2026-03-06T14:17:04.765Z","date":"2026-03-06","time":"14:17:04"},{"rt":null,"stimulus":"<p style=\"font-size: 50px; margin: 0; text-align: center;\">+</p>","response":null,"trial_type":"html-keyboard-response","trial_index":33,"plugin_version":"2.1.0","time_elapsed":64258,"subject_id":"91370","group":"Group1","condition":"1_Rep","full_date":"2026-03-06T14:17:04.765Z","date":"2026-03-06","time":"14:17:04"},{"task":"memory_phase","broad_category":"I","image_png":"I_Rhyolite_14.png","image_id":158,"category_name":"Rhyolite","category":10,"distinct_rating":2.59,"distinct_type":"Bottom","rt":null,"stimulus":"Stimuli_Rocks480/I_Rhyolite_14.png","response":null,"trial_type":"image-keyboard-response","trial_index":34,"plugin_version":"2.1.0","time_elapsed":66761,"subject_id":"91370","group":"Group1","condition":"1_Rep","full_date":"2026-03-06T14:17:04.765Z","date":"2026-03-06","time":"14:17:04"},{"rt":null,"stimulus":"<p style=\"font-size: 50px; margin: 0; text-align: center;\">+</p>","response":null,"trial_type":"html-keyboard-response","trial_index":35,"plugin_version":"2.1.0","time_elapsed":67763,"subject_id":"91370","group":"Group1","condition":"1_Rep","full_date":"2026-03-06T14:17:04.765Z","date":"2026-03-06","time":"14:17:04"},{"task":"memory_phase","broad_category":"I","image_png":"I_Andesite_06.png","image_id":6,"category_name":"Andesite","category":1,"distinct_rating":3.17,"distinct_type":"Bottom","rt":null,"stimulus":"Stimuli_Rocks480/I_Andesite_06.png","response":null,"trial_type":"image-keyboard-response","trial_index":36,"plugin_version":"2.1.0","time_elapsed":70267,"subject_id":"91370","group":"Group1","condition":"1_Rep","full_date":"2026-03-06T14:17:04.765Z","date":"2026-03-06","time":"14:17:04"},{"rt":null,"stimulus":"<p style=\"font-size: 50px; margin: 0; text-align: center;\">+</p>","response":null,"trial_type":"html-keyboard-response","trial_index":37,"plugin_version":"2.1.0","time_elapsed":71269,"subject_id":"91370","group":"Group1","condition":"1_Rep","full_date":"2026-03-06T14:17:04.765Z","date":"2026-03-06","time":"14:17:04"},{"task":"memory_phase","broad_category":"S","image_png":"S_Conglomerate_05.png","image_id":373,"category_name":"Conglomerate","category":24,"distinct_rating":7.32,"distinct_type":"Top","rt":null,"stimulus":"Stimuli_Rocks480/S_Conglomerate_05.png","response":null,"trial_type":"image-keyboard-response","trial_index":38,"plugin_version":"2.1.0","time_elapsed":73773,"subject_id":"91370","group":"Group1","condition":"1_Rep","full_date":"2026-03-06T14:17:04.765Z","date":"2026-03-06","time":"14:17:04"},{"rt":null,"stimulus":"<p style=\"font-size: 50px; margin: 0; text-align: center;\">+</p>","response":null,"trial_type":"html-keyboard-response","trial_index":39,"plugin_version":"2.1.0","time_elapsed":74774,"subject_id":"91370","group":"Group1","condition":"1_Rep","full_date":"2026-03-06T14:17:04.765Z","date":"2026-03-06","time":"14:17:04"},{"task":"memory_phase","broad_category":"S","image_png":"S_Sandstone_15.png","image_id":463,"category_name":"Sandstone","category":29,"distinct_rating":2,"distinct_type":"Bottom","rt":null,"stimulus":"Stimuli_Rocks480/S_Sandstone_15.png","response":null,"trial_type":"image-keyboard-response","trial_index":40,"plugin_version":"2.1.0","time_elapsed":77276,"subject_id":"91370","group":"Group1","condition":"1_Rep","full_date":"2026-03-06T14:17:04.765Z","date":"2026-03-06","time":"14:17:04"},{"rt":null,"stimulus":"<p style=\"font-size: 50px; margin: 0; text-align: center;\">+</p>","response":null,"trial_type":"html-keyboard-response","trial_index":41,"plugin_version":"2.1.0","time_elapsed":78277,"subject_id":"91370","group":"Group1","condition":"1_Rep","full_date":"2026-03-06T14:17:04.765Z","date":"2026-03-06","time":"14:17:04"},{"task":"memory_phase","broad_category":"I","image_png":"I_Pegmatite_16.png","image_id":112,"category_name":"Pegmatite","category":7,"distinct_rating":7.03,"distinct_type":"Top","rt":null,"stimulus":"Stimuli_Rocks480/I_Pegmatite_16.png","response":null,"trial_type":"image-keyboard-response","trial_index":42,"plugin_version":"2.1.0","time_elapsed":80779,"subject_id":"91370","group":"Group1","condition":"1_Rep","full_date":"2026-03-06T14:17:04.765Z","date":"2026-03-06","time":"14:17:04"},{"rt":null,"stimulus":"<p style=\"font-size: 50px; margin: 0; text-align: center;\">+</p>","response":null,"trial_type":"html-keyboard-response","trial_index":43,"plugin_version":"2.1.0","time_elapsed":81781,"subject_id":"91370","group":"Group1","condition":"1_Rep","full_date":"2026-03-06T14:17:04.765Z","date":"2026-03-06","time":"14:17:04"},{"task":"memory_phase","broad_category":"I","image_png":"I_Andesite_10.png","image_id":10,"category_name":"Andesite","category":1,"distinct_rating":3.15,"distinct_type":"Bottom","rt":null,"stimulus":"Stimuli_Rocks480/I_Andesite_10.png","response":null,"trial_type":"image-keyboard-response","trial_index":44,"plugin_version":"2.1.0","time_elapsed":84283,"subject_id":"91370","group":"Group1","condition":"1_Rep","full_date":"2026-03-06T14:17:04.765Z","date":"2026-03-06","time":"14:17:04"},{"rt":null,"stimulus":"<p style=\"font-size: 50px; margin: 0; text-align: center;\">+</p>","response":null,"trial_type":"html-keyboard-response","trial_index":45,"plugin_version":"2.1.0","time_elapsed":85284,"subject_id":"91370","group":"Group1","condition":"1_Rep","full_date":"2026-03-06T14:17:04.765Z","date":"2026-03-06","time":"14:17:04"},{"task":"memory_phase","broad_category":"I","image_png":"I_Gabbro_11.png","image_id":59,"category_name":"Gabbro","category":4,"distinct_rating":1.99,"distinct_type":"Bottom","rt":null,"stimulus":"Stimuli_Rocks480/I_Gabbro_11.png","response":null,"trial_type":"image-keyboard-response","trial_index":46,"plugin_version":"2.1.0","time_elapsed":87787,"subject_id":"91370","group":"Group1","condition":"1_Rep","full_date":"2026-03-06T14:17:04.765Z","date":"2026-03-06","time":"14:17:04"},{"rt":null,"stimulus":"<p style=\"font-size: 50px; margin: 0; text-align: center;\">+</p>","response":null,"trial_type":"html-keyboard-response","trial_index":47,"plugin_version":"2.1.0","time_elapsed":88790,"subject_id":"91370","group":"Group1","condition":"1_Rep","full_date":"2026-03-06T14:17:04.765Z","date":"2026-03-06","time":"14:17:04"},{"task":"memory_phase","broad_category":"M","image_png":"M_Slate_15.png","image_id":319,"category_name":"Slate","category":20,"distinct_rating":2.13,"distinct_type":"Bottom","rt":null,"stimulus":"Stimuli_Rocks480/M_Slate_15.png","response":null,"trial_type":"image-keyboard-response","trial_index":48,"plugin_version":"2.1.0","time_elapsed":91293,"subject_id":"91370","group":"Group1","condition":"1_Rep","full_date":"2026-03-06T14:17:04.765Z","date":"2026-03-06","time":"14:17:04"},{"rt":null,"stimulus":"<p style=\"font-size: 50px; margin: 0; text-align: center;\">+</p>","response":null,"trial_type":"html-keyboard-response","trial_index":49,"plugin_version":"2.1.0","time_elapsed":92294,"subject_id":"91370","group":"Group1","condition":"1_Rep","full_date":"2026-03-06T14:17:04.765Z","date":"2026-03-06","time":"14:17:04"},{"task":"memory_phase","broad_category":"I","image_png":"I_Basalt_09.png","image_id":25,"category_name":"Basalt","category":2,"distinct_rating":1.89,"distinct_type":"Bottom","rt":null,"stimulus":"Stimuli_Rocks480/I_Basalt_09.png","response":null,"trial_type":"image-keyboard-response","trial_index":50,"plugin_version":"2.1.0","time_elapsed":94797,"subject_id":"91370","group":"Group1","condition":"1_Rep","full_date":"2026-03-06T14:17:04.765Z","date":"2026-03-06","time":"14:17:04"},{"rt":null,"stimulus":"<p style=\"font-size: 50px; margin: 0; text-align: center;\">+</p>","response":null,"trial_type":"html-keyboard-response","trial_index":51,"plugin_version":"2.1.0","time_elapsed":95799,"subject_id":"91370","group":"Group1","condition":"1_Rep","full_date":"2026-03-06T14:17:04.765Z","date":"2026-03-06","time":"14:17:04"},{"task":"memory_phase","broad_category":"M","image_png":"M_Slate_11.png","image_id":315,"category_name":"Slate","category":20,"distinct_rating":2.75,"distinct_type":"Bottom","rt":null,"stimulus":"Stimuli_Rocks480/M_Slate_11.png","response":null,"trial_type":"image-keyboard-response","trial_index":52,"plugin_version":"2.1.0","time_elapsed":98302,"subject_id":"91370","group":"Group1","condition":"1_Rep","full_date":"2026-03-06T14:17:04.765Z","date":"2026-03-06","time":"14:17:04"},{"rt":null,"stimulus":"<p style=\"font-size: 50px; margin: 0; text-align: center;\">+</p>","response":null,"trial_type":"html-keyboard-response","trial_index":53,"plugin_version":"2.1.0","time_elapsed":99304,"subject_id":"91370","group":"Group1","condition":"1_Rep","full_date":"2026-03-06T14:17:04.765Z","date":"2026-03-06","time":"14:17:04"},{"task":"memory_phase","broad_category":"I","image_png":"I_Pumice_12.png","image_id":140,"category_name":"Pumice","category":9,"distinct_rating":2.97,"distinct_type":"Bottom","rt":null,"stimulus":"Stimuli_Rocks480/I_Pumice_12.png","response":null,"trial_type":"image-keyboard-response","trial_index":54,"plugin_version":"2.1.0","time_elapsed":101808,"subject_id":"91370","group":"Group1","condition":"1_Rep","full_date":"2026-03-06T14:17:04.765Z","date":"2026-03-06","time":"14:17:04"},{"rt":2882,"stimulus":"<p style=\"max-width: 760px; margin: auto; font-size: 35px; line-height: 1.5;\">\n                Press SPACE to continue study phase\n              </p>","response":" ","trial_type":"html-keyboard-response","trial_index":55,"plugin_version":"2.1.0","time_elapsed":104692,"subject_id":"91370","group":"Group1","condition":"1_Rep","full_date":"2026-03-06T14:17:04.765Z","date":"2026-03-06","time":"14:17:04"},{"rt":null,"stimulus":"<p style=\"font-size: 50px; margin: 0; text-align: center;\">+</p>","response":null,"trial_type":"html-keyboard-response","trial_index":56,"plugin_version":"2.1.0","time_elapsed":105693,"subject_id":"91370","group":"Group1","condition":"1_Rep","full_date":"2026-03-06T14:17:04.765Z","date":"2026-03-06","time":"14:17:04"},{"task":"memory_phase","broad_category":"I","image_png":"I_Basalt_01.png","image_id":17,"category_name":"Basalt","category":2,"distinct_rating":1.92,"distinct_type":"Bottom","rt":null,"stimulus":"Stimuli_Rocks480/I_Basalt_01.png","response":null,"trial_type":"image-keyboard-response","trial_index":57,"plugin_version":"2.1.0","time_elapsed":108196,"subject_id":"91370","group":"Group1","condition":"1_Rep","full_date":"2026-03-06T14:17:04.765Z","date":"2026-03-06","time":"14:17:04"},{"rt":null,"stimulus":"<p style=\"font-size: 50px; margin: 0; text-align: center;\">+</p>","response":null,"trial_type":"html-keyboard-response","trial_index":58,"plugin_version":"2.1.0","time_elapsed":109198,"subject_id":"91370","group":"Group1","condition":"1_Rep","full_date":"2026-03-06T14:17:04.765Z","date":"2026-03-06","time":"14:17:04"},{"task":"memory_phase","broad_category":"S","image_png":"S_Sandstone_03.png","image_id":451,"category_name":"Sandstone","category":29,"distinct_rating":1.86,"distinct_type":"Bottom","rt":null,"stimulus":"Stimuli_Rocks480/S_Sandstone_03.png","response":null,"trial_type":"image-keyboard-response","trial_index":59,"plugin_version":"2.1.0","time_elapsed":111701,"subject_id":"91370","group":"Group1","condition":"1_Rep","full_date":"2026-03-06T14:17:04.765Z","date":"2026-03-06","time":"14:17:04"},{"rt":null,"stimulus":"<p style=\"font-size: 50px; margin: 0; text-align: center;\">+</p>","response":null,"trial_type":"html-keyboard-response","trial_index":60,"plugin_version":"2.1.0","time_elapsed":112704,"subject_id":"91370","group":"Group1","condition":"1_Rep","full_date":"2026-03-06T14:17:04.765Z","date":"2026-03-06","time":"14:17:04"},{"task":"memory_phase","broad_category":"M","image_png":"M_Marble_04.png","image_id":228,"category_name":"Marble","category":15,"distinct_rating":3.15,"distinct_type":"Bottom","rt":null,"stimulus":"Stimuli_Rocks480/M_Marble_04.png","response":null,"trial_type":"image-keyboard-response","trial_index":61,"plugin_version":"2.1.0","time_elapsed":115207,"subject_id":"91370","group":"Group1","condition":"1_Rep","full_date":"2026-03-06T14:17:04.765Z","date":"2026-03-06","time":"14:17:04"},{"rt":null,"stimulus":"<p style=\"font-size: 50px; margin: 0; text-align: center;\">+</p>","response":null,"trial_type":"html-keyboard-response","trial_index":62,"plugin_version":"2.1.0","time_elapsed":116210,"subject_id":"91370","group":"Group1","condition":"1_Rep","full_date":"2026-03-06T14:17:04.765Z","date":"2026-03-06","time":"14:17:04"},{"task":"memory_phase","broad_category":"I","image_png":"I_Rhyolite_11.png","image_id":155,"category_name":"Rhyolite","category":10,"distinct_rating":1.73,"distinct_type":"Bottom","rt":null,"stimulus":"Stimuli_Rocks480/I_Rhyolite_11.png","response":null,"trial_type":"image-keyboard-response","trial_index":63,"plugin_version":"2.1.0","time_elapsed":118712,"subject_id":"91370","group":"Group1","condition":"1_Rep","full_date":"2026-03-06T14:17:04.765Z","date":"2026-03-06","time":"14:17:04"},{"rt":null,"stimulus":"<p style=\"font-size: 50px; margin: 0; text-align: center;\">+</p>","response":null,"trial_type":"html-keyboard-response","trial_index":64,"plugin_version":"2.1.0","time_elapsed":119714,"subject_id":"91370","group":"Group1","condition":"1_Rep","full_date":"2026-03-06T14:17:04.765Z","date":"2026-03-06","time":"14:17:04"},{"task":"memory_phase","broad_category":"M","image_png":"M_Quartzite_05.png","image_id":277,"category_name":"Quartzite","category":18,"distinct_rating":2.23,"distinct_type":"Bottom","rt":null,"stimulus":"Stimuli_Rocks480/M_Quartzite_05.png","response":null,"trial_type":"image-keyboard-response","trial_index":65,"plugin_version":"2.1.0","time_elapsed":122218,"subject_id":"91370","group":"Group1","condition":"1_Rep","full_date":"2026-03-06T14:17:04.765Z","date":"2026-03-06","time":"14:17:04"},{"rt":null,"stimulus":"<p style=\"font-size: 50px; margin: 0; text-align: center;\">+</p>","response":null,"trial_type":"html-keyboard-response","trial_index":66,"plugin_version":"2.1.0","time_elapsed":123220,"subject_id":"91370","group":"Group1","condition":"1_Rep","full_date":"2026-03-06T14:17:04.765Z","date":"2026-03-06","time":"14:17:04"},{"task":"memory_phase","broad_category":"S","image_png":"S_Dolomite_13.png","image_id":397,"category_name":"Dolomite","category":25,"distinct_rating":1.77,"distinct_type":"Bottom","rt":null,"stimulus":"Stimuli_Rocks480/S_Dolomite_13.png","response":null,"trial_type":"image-keyboard-response","trial_index":67,"plugin_version":"2.1.0","time_elapsed":125723,"subject_id":"91370","group":"Group1","condition":"1_Rep","full_date":"2026-03-06T14:17:04.765Z","date":"2026-03-06","time":"14:17:04"},{"rt":null,"stimulus":"<p style=\"font-size: 50px; margin: 0; text-align: center;\">+</p>","response":null,"trial_type":"html-keyboard-response","trial_index":68,"plugin_version":"2.1.0","time_elapsed":126725,"subject_id":"91370","group":"Group1","condition":"1_Rep","full_date":"2026-03-06T14:17:04.765Z","date":"2026-03-06","time":"14:17:04"},{"task":"memory_phase","broad_category":"I","image_png":"I_Pumice_11.png","image_id":139,"category_name":"Pumice","category":9,"distinct_rating":1.74,"distinct_type":"Bottom","rt":null,"stimulus":"Stimuli_Rocks480/I_Pumice_11.png","response":null,"trial_type":"image-keyboard-response","trial_index":69,"plugin_version":"2.1.0","time_elapsed":129229,"subject_id":"91370","group":"Group1","condition":"1_Rep","full_date":"2026-03-06T14:17:04.765Z","date":"2026-03-06","time":"14:17:04"},{"rt":null,"stimulus":"<p style=\"font-size: 50px; margin: 0; text-align: center;\">+</p>","response":null,"trial_type":"html-keyboard-response","trial_index":70,"plugin_version":"2.1.0","time_elapsed":130231,"subject_id":"91370","group":"Group1","condition":"1_Rep","full_date":"2026-03-06T14:17:04.765Z","date":"2026-03-06","time":"14:17:04"},{"task":"memory_phase","broad_category":"S","image_png":"S_Shale_08.png","image_id":472,"category_name":"Shale","category":30,"distinct_rating":2.55,"distinct_type":"Bottom","rt":null,"stimulus":"Stimuli_Rocks480/S_Shale_08.png","response":null,"trial_type":"image-keyboard-response","trial_index":71,"plugin_version":"2.1.0","time_elapsed":132733,"subject_id":"91370","group":"Group1","condition":"1_Rep","full_date":"2026-03-06T14:17:04.765Z","date":"2026-03-06","time":"14:17:04"},{"rt":null,"stimulus":"<p style=\"font-size: 50px; margin: 0; text-align: center;\">+</p>","response":null,"trial_type":"html-keyboard-response","trial_index":72,"plugin_version":"2.1.0","time_elapsed":133735,"subject_id":"91370","group":"Group1","condition":"1_Rep","full_date":"2026-03-06T14:17:04.765Z","date":"2026-03-06","time":"14:17:04"},{"task":"memory_phase","broad_category":"M","image_png":"M_Marble_06.png","image_id":230,"category_name":"Marble","category":15,"distinct_rating":3.4,"distinct_type":"Bottom","rt":null,"stimulus":"Stimuli_Rocks480/M_Marble_06.png","response":null,"trial_type":"image-keyboard-response","trial_index":73,"plugin_version":"2.1.0","time_elapsed":136237,"subject_id":"91370","group":"Group1","condition":"1_Rep","full_date":"2026-03-06T14:17:04.765Z","date":"2026-03-06","time":"14:17:04"},{"rt":null,"stimulus":"<p style=\"font-size: 50px; margin: 0; text-align: center;\">+</p>","response":null,"trial_type":"html-keyboard-response","trial_index":74,"plugin_version":"2.1.0","time_elapsed":137239,"subject_id":"91370","group":"Group1","condition":"1_Rep","full_date":"2026-03-06T14:17:04.765Z","date":"2026-03-06","time":"14:17:04"},{"task":"memory_phase","broad_category":"M","image_png":"M_Gneiss_13.png","image_id":205,"category_name":"Gneiss","category":13,"distinct_rating":3.26,"distinct_type":"Bottom","rt":null,"stimulus":"Stimuli_Rocks480/M_Gneiss_13.png","response":null,"trial_type":"image-keyboard-response","trial_index":75,"plugin_version":"2.1.0","time_elapsed":139741,"subject_id":"91370","group":"Group1","condition":"1_Rep","full_date":"2026-03-06T14:17:04.765Z","date":"2026-03-06","time":"14:17:04"},{"rt":null,"stimulus":"<p style=\"font-size: 50px; margin: 0; text-align: center;\">+</p>","response":null,"trial_type":"html-keyboard-response","trial_index":76,"plugin_version":"2.1.0","time_elapsed":140743,"subject_id":"91370","group":"Group1","condition":"1_Rep","full_date":"2026-03-06T14:17:04.765Z","date":"2026-03-06","time":"14:17:04"},{"task":"memory_phase","broad_category":"S","image_png":"S_Rock Salt_01.png","image_id":433,"category_name":"Rock Salt","category":28,"distinct_rating":7.18,"distinct_type":"Top","rt":null,"stimulus":"Stimuli_Rocks480/S_Rock Salt_01.png","response":null,"trial_type":"image-keyboard-response","trial_index":77,"plugin_version":"2.1.0","time_elapsed":143246,"subject_id":"91370","group":"Group1","condition":"1_Rep","full_date":"2026-03-06T14:17:04.765Z","date":"2026-03-06","time":"14:17:04"},{"rt":null,"stimulus":"<p style=\"font-size: 50px; margin: 0; text-align: center;\">+</p>","response":null,"trial_type":"html-keyboard-response","trial_index":78,"plugin_version":"2.1.0","time_elapsed":144248,"subject_id":"91370","group":"Group1","condition":"1_Rep","full_date":"2026-03-06T14:17:04.765Z","date":"2026-03-06","time":"14:17:04"},{"task":"memory_phase","broad_category":"S","image_png":"S_Dolomite_12.png","image_id":396,"category_name":"Dolomite","category":25,"distinct_rating":1.85,"distinct_type":"Bottom","rt":null,"stimulus":"Stimuli_Rocks480/S_Dolomite_12.png","response":null,"trial_type":"image-keyboard-response","trial_index":79,"plugin_version":"2.1.0","time_elapsed":146750,"subject_id":"91370","group":"Group1","condition":"1_Rep","full_date":"2026-03-06T14:17:04.765Z","date":"2026-03-06","time":"14:17:04"},{"rt":null,"stimulus":"<p style=\"font-size: 50px; margin: 0; text-align: center;\">+</p>","response":null,"trial_type":"html-keyboard-response","trial_index":80,"plugin_version":"2.1.0","time_elapsed":147752,"subject_id":"91370","group":"Group1","condition":"1_Rep","full_date":"2026-03-06T14:17:04.765Z","date":"2026-03-06","time":"14:17:04"},{"task":"memory_phase","broad_category":"I","image_png":"I_Pumice_08.png","image_id":136,"category_name":"Pumice","category":9,"distinct_rating":3.1,"distinct_type":"Bottom","rt":null,"stimulus":"Stimuli_Rocks480/I_Pumice_08.png","response":null,"trial_type":"image-keyboard-response","trial_index":81,"plugin_version":"2.1.0","time_elapsed":150254,"subject_id":"91370","group":"Group1","condition":"1_Rep","full_date":"2026-03-06T14:17:04.765Z","date":"2026-03-06","time":"14:17:04"},{"rt":null,"stimulus":"<p style=\"font-size: 50px; margin: 0; text-align: center;\">+</p>","response":null,"trial_type":"html-keyboard-response","trial_index":82,"plugin_version":"2.1.0","time_elapsed":151255,"subject_id":"91370","group":"Group1","condition":"1_Rep","full_date":"2026-03-06T14:17:04.765Z","date":"2026-03-06","time":"14:17:04"},{"task":"memory_phase","broad_category":"I","image_png":"I_Basalt_02.png","image_id":18,"category_name":"Basalt","category":2,"distinct_rating":1.84,"distinct_type":"Bottom","rt":null,"stimulus":"Stimuli_Rocks480/I_Basalt_02.png","response":null,"trial_type":"image-keyboard-response","trial_index":83,"plugin_version":"2.1.0","time_elapsed":153757,"subject_id":"91370","group":"Group1","condition":"1_Rep","full_date":"2026-03-06T14:17:04.765Z","date":"2026-03-06","time":"14:17:04"},{"rt":null,"stimulus":"<p style=\"font-size: 50px; margin: 0; text-align: center;\">+</p>","response":null,"trial_type":"html-keyboard-response","trial_index":84,"plugin_version":"2.1.0","time_elapsed":154759,"subject_id":"91370","group":"Group1","condition":"1_Rep","full_date":"2026-03-06T14:17:04.765Z","date":"2026-03-06","time":"14:17:04"},{"task":"memory_phase","broad_category":"S","image_png":"S_Breccia_11.png","image_id":347,"category_name":"Breccia","category":22,"distinct_rating":6.7,"distinct_type":"Top","rt":null,"stimulus":"Stimuli_Rocks480/S_Breccia_11.png","response":null,"trial_type":"image-keyboard-response","trial_index":85,"plugin_version":"2.1.0","time_elapsed":157261,"subject_id":"91370","group":"Group1","condition":"1_Rep","full_date":"2026-03-06T14:17:04.765Z","date":"2026-03-06","time":"14:17:04"},{"rt":null,"stimulus":"<p style=\"font-size: 50px; margin: 0; text-align: center;\">+</p>","response":null,"trial_type":"html-keyboard-response","trial_index":86,"plugin_version":"2.1.0","time_elapsed":158263,"subject_id":"91370","group":"Group1","condition":"1_Rep","full_date":"2026-03-06T14:17:04.765Z","date":"2026-03-06","time":"14:17:04"},{"task":"memory_phase","broad_category":"I","image_png":"I_Obsidian_05.png","image_id":85,"category_name":"Obsidian","category":6,"distinct_rating":7.32,"distinct_type":"Top","rt":null,"stimulus":"Stimuli_Rocks480/I_Obsidian_05.png","response":null,"trial_type":"image-keyboard-response","trial_index":87,"plugin_version":"2.1.0","time_elapsed":160766,"subject_id":"91370","group":"Group1","condition":"1_Rep","full_date":"2026-03-06T14:17:04.765Z","date":"2026-03-06","time":"14:17:04"},{"rt":null,"stimulus":"<p style=\"font-size: 50px; margin: 0; text-align: center;\">+</p>","response":null,"trial_type":"html-keyboard-response","trial_index":88,"plugin_version":"2.1.0","time_elapsed":161769,"subject_id":"91370","group":"Group1","condition":"1_Rep","full_date":"2026-03-06T14:17:04.765Z","date":"2026-03-06","time":"14:17:04"},{"task":"memory_phase","broad_category":"I","image_png":"I_Andesite_08.png","image_id":8,"category_name":"Andesite","category":1,"distinct_rating":1.95,"distinct_type":"Bottom","rt":null,"stimulus":"Stimuli_Rocks480/I_Andesite_08.png","response":null,"trial_type":"image-keyboard-response","trial_index":89,"plugin_version":"2.1.0","time_elapsed":164272,"subject_id":"91370","group":"Group1","condition":"1_Rep","full_date":"2026-03-06T14:17:04.765Z","date":"2026-03-06","time":"14:17:04"},{"rt":null,"stimulus":"<p style=\"font-size: 50px; margin: 0; text-align: center;\">+</p>","response":null,"trial_type":"html-keyboard-response","trial_index":90,"plugin_version":"2.1.0","time_elapsed":165273,"subject_id":"91370","group":"Group1","condition":"1_Rep","full_date":"2026-03-06T14:17:04.765Z","date":"2026-03-06","time":"14:17:04"},{"task":"memory_phase","broad_category":"S","image_png":"S_Shale_01.png","image_id":465,"category_name":"Shale","category":30,"distinct_rating":2.7,"distinct_type":"Bottom","rt":null,"stimulus":"Stimuli_Rocks480/S_Shale_01.png","response":null,"trial_type":"image-keyboard-response","trial_index":91,"plugin_version":"2.1.0","time_elapsed":167775,"subject_id":"91370","group":"Group1","condition":"1_Rep","full_date":"2026-03-06T14:17:04.765Z","date":"2026-03-06","time":"14:17:04"},{"rt":null,"stimulus":"<p style=\"font-size: 50px; margin: 0; text-align: center;\">+</p>","response":null,"trial_type":"html-keyboard-response","trial_index":92,"plugin_version":"2.1.0","time_elapsed":168776,"subject_id":"91370","group":"Group1","condition":"1_Rep","full_date":"2026-03-06T14:17:04.765Z","date":"2026-03-06","time":"14:17:04"},{"task":"memory_phase","broad_category":"I","image_png":"I_Pegmatite_10.png","image_id":106,"category_name":"Pegmatite","category":7,"distinct_rating":7.66,"distinct_type":"Top","rt":null,"stimulus":"Stimuli_Rocks480/I_Pegmatite_10.png","response":null,"trial_type":"image-keyboard-response","trial_index":93,"plugin_version":"2.1.0","time_elapsed":171278,"subject_id":"91370","group":"Group1","condition":"1_Rep","full_date":"2026-03-06T14:17:04.765Z","date":"2026-03-06","time":"14:17:04"},{"rt":null,"stimulus":"<p style=\"font-size: 50px; margin: 0; text-align: center;\">+</p>","response":null,"trial_type":"html-keyboard-response","trial_index":94,"plugin_version":"2.1.0","time_elapsed":172280,"subject_id":"91370","group":"Group1","condition":"1_Rep","full_date":"2026-03-06T14:17:04.765Z","date":"2026-03-06","time":"14:17:04"},{"task":"memory_phase","broad_category":"I","image_png":"I_Gabbro_16.png","image_id":64,"category_name":"Gabbro","category":4,"distinct_rating":2.52,"distinct_type":"Bottom","rt":null,"stimulus":"Stimuli_Rocks480/I_Gabbro_16.png","response":null,"trial_type":"image-keyboard-response","trial_index":95,"plugin_version":"2.1.0","time_elapsed":174783,"subject_id":"91370","group":"Group1","condition":"1_Rep","full_date":"2026-03-06T14:17:04.765Z","date":"2026-03-06","time":"14:17:04"},{"rt":null,"stimulus":"<p style=\"font-size: 50px; margin: 0; text-align: center;\">+</p>","response":null,"trial_type":"html-keyboard-response","trial_index":96,"plugin_version":"2.1.0","time_elapsed":175784,"subject_id":"91370","group":"Group1","condition":"1_Rep","full_date":"2026-03-06T14:17:04.765Z","date":"2026-03-06","time":"14:17:04"},{"task":"memory_phase","broad_category":"S","image_png":"S_Dolomite_14.png","image_id":398,"category_name":"Dolomite","category":25,"distinct_rating":1.43,"distinct_type":"Bottom","rt":null,"stimulus":"Stimuli_Rocks480/S_Dolomite_14.png","response":null,"trial_type":"image-keyboard-response","trial_index":97,"plugin_version":"2.1.0","time_elapsed":178288,"subject_id":"91370","group":"Group1","condition":"1_Rep","full_date":"2026-03-06T14:17:04.765Z","date":"2026-03-06","time":"14:17:04"},{"rt":null,"stimulus":"<p style=\"font-size: 50px; margin: 0; text-align: center;\">+</p>","response":null,"trial_type":"html-keyboard-response","trial_index":98,"plugin_version":"2.1.0","time_elapsed":179290,"subject_id":"91370","group":"Group1","condition":"1_Rep","full_date":"2026-03-06T14:17:04.765Z","date":"2026-03-06","time":"14:17:04"},{"task":"memory_phase","broad_category":"M","image_png":"M_Quartzite_08.png","image_id":280,"category_name":"Quartzite","category":18,"distinct_rating":2.15,"distinct_type":"Bottom","rt":null,"stimulus":"Stimuli_Rocks480/M_Quartzite_08.png","response":null,"trial_type":"image-keyboard-response","trial_index":99,"plugin_version":"2.1.0","time_elapsed":181793,"subject_id":"91370","group":"Group1","condition":"1_Rep","full_date":"2026-03-06T14:17:04.765Z","date":"2026-03-06","time":"14:17:04"},{"rt":null,"stimulus":"<p style=\"font-size: 50px; margin: 0; text-align: center;\">+</p>","response":null,"trial_type":"html-keyboard-response","trial_index":100,"plugin_version":"2.1.0","time_elapsed":182795,"subject_id":"91370","group":"Group1","condition":"1_Rep","full_date":"2026-03-06T14:17:04.765Z","date":"2026-03-06","time":"14:17:04"},{"task":"memory_phase","broad_category":"S","image_png":"S_Rock Gypsum_04.png","image_id":420,"category_name":"Rock Gypsum","category":27,"distinct_rating":7.61,"distinct_type":"Top","rt":null,"stimulus":"Stimuli_Rocks480/S_Rock Gypsum_04.png","response":null,"trial_type":"image-keyboard-response","trial_index":101,"plugin_version":"2.1.0","time_elapsed":185297,"subject_id":"91370","group":"Group1","condition":"1_Rep","full_date":"2026-03-06T14:17:04.765Z","date":"2026-03-06","time":"14:17:04"},{"rt":null,"stimulus":"<p style=\"font-size: 50px; margin: 0; text-align: center;\">+</p>","response":null,"trial_type":"html-keyboard-response","trial_index":102,"plugin_version":"2.1.0","time_elapsed":186299,"subject_id":"91370","group":"Group1","condition":"1_Rep","full_date":"2026-03-06T14:17:04.765Z","date":"2026-03-06","time":"14:17:04"},{"task":"memory_phase","broad_category":"M","image_png":"M_Phyllite_07.png","image_id":263,"category_name":"Phyllite","category":17,"distinct_rating":2.59,"distinct_type":"Bottom","rt":null,"stimulus":"Stimuli_Rocks480/M_Phyllite_07.png","response":null,"trial_type":"image-keyboard-response","trial_index":103,"plugin_version":"2.1.0","time_elapsed":188802,"subject_id":"91370","group":"Group1","condition":"1_Rep","full_date":"2026-03-06T14:17:04.765Z","date":"2026-03-06","time":"14:17:04"},{"rt":null,"stimulus":"<p style=\"font-size: 50px; margin: 0; text-align: center;\">+</p>","response":null,"trial_type":"html-keyboard-response","trial_index":104,"plugin_version":"2.1.0","time_elapsed":189805,"subject_id":"91370","group":"Group1","condition":"1_Rep","full_date":"2026-03-06T14:17:04.765Z","date":"2026-03-06","time":"14:17:04"},{"task":"memory_phase","broad_category":"I","image_png":"I_Diorite_04.png","image_id":36,"category_name":"Diorite","category":3,"distinct_rating":2.98,"distinct_type":"Bottom","rt":null,"stimulus":"Stimuli_Rocks480/I_Diorite_04.png","response":null,"trial_type":"image-keyboard-response","trial_index":105,"plugin_version":"2.1.0","time_elapsed":192308,"subject_id":"91370","group":"Group1","condition":"1_Rep","full_date":"2026-03-06T14:17:04.765Z","date":"2026-03-06","time":"14:17:04"},{"rt":15592,"stimulus":"<div style=\"max-width: 760px; margin: auto; font-size: 20px; line-height: 1.5;\">\n      <h1 style=\"text-align:center; font-size: 30px;\">Instructions for the Test Phase</h1>\n      <p>\n        The study phase is now complete.\n      </p>\n      <p>\n        In the test phase, you will again see a series of rock images. \n        Some will be ones you saw before - during the study phase, while others will be new.  \n        <b>Your task</b> is to decide whether you have seen each image before by pressing the corresponding key on your keyboard:<br><br>\n          <b>A</b> - NO (you did not see this image before)<br>\n          <b>L</b> - YES (you saw this image before)<br><br>\n        The test will proceed at your own pace. You will receive feedback after each response.  \n        Please try to respond <b>as accurately as possible</b>.\n      </p>\n      <p>\n        <b>Reminder:</b> If your computer has multiple language settings (e.g., English and another language),\n        please ensure it is set to English during the test phase.\n      </p>\n      <p>\n        You can track your progress using the <b>completion bar</b> at the top of the screen.  \n        Note that it has been refreshed to reflect your progress during this final phase.\n      </p>\n      <p>\n        Press the button below when you are ready to continue.\n      </p>\n    </div>","response":0,"trial_type":"html-button-response","trial_index":106,"plugin_version":"2.1.0","time_elapsed":207903,"subject_id":"91370","group":"Group1","condition":"1_Rep","full_date":"2026-03-06T14:17:04.765Z","date":"2026-03-06","time":"14:17:04"},{"correct_response":"l","task":"test_phase","broad_category":"S","image_png":"S_Rock Salt_01.png","image_id":433,"category_name":"Rock Salt","category":28,"distinct_rating":7.18,"distinct_type":"Top","item_type":"Target","rt":2569,"stimulus":"Stimuli_Rocks480/S_Rock Salt_01.png","response":"l","trial_type":"image-keyboard-response","trial_index":107,"plugin_version":"2.1.0","time_elapsed":210475,"subject_id":"91370","group":"Group1","condition":"1_Rep","full_date":"2026-03-06T14:17:04.765Z","date":"2026-03-06","time":"14:17:04","cor_ans":true},{"trial_type":"html-keyboard-response","rt":null,"stimulus":"<p style=\"color: green; font-size: 50px; font-weight: bold;\">Correct</p>","response":null,"trial_index":108,"plugin_version":"2.1.0","time_elapsed":210977,"subject_id":"91370","group":"Group1","condition":"1_Rep","full_date":"2026-03-06T14:17:04.765Z","date":"2026-03-06","time":"14:17:04"},{"correct_response":"a","task":"test_phase","broad_category":"I","image_png":"I_Pumice_01.png","image_id":129,"category_name":"Pumice","category":9,"distinct_rating":3.25,"distinct_type":"Bottom","item_type":"Foil","rt":2066,"stimulus":"Stimuli_Rocks480/I_Pumice_01.png","response":"a","trial_type":"image-keyboard-response","trial_index":109,"plugin_version":"2.1.0","time_elapsed":213044,"subject_id":"91370","group":"Group1","condition":"1_Rep","full_date":"2026-03-06T14:17:04.765Z","date":"2026-03-06","time":"14:17:04","cor_ans":true},{"trial_type":"html-keyboard-response","rt":null,"stimulus":"<p style=\"color: green; font-size: 50px; font-weight: bold;\">Correct</p>","response":null,"trial_index":110,"plugin_version":"2.1.0","time_elapsed":213545,"subject_id":"91370","group":"Group1","condition":"1_Rep","full_date":"2026-03-06T14:17:04.765Z","date":"2026-03-06","time":"14:17:04"},{"correct_response":"a","task":"test_phase","broad_category":"I","image_png":"I_Diorite_15.png","image_id":47,"category_name":"Diorite","category":3,"distinct_rating":3.05,"distinct_type":"Bottom","item_type":"Foil","rt":2536,"stimulus":"Stimuli_Rocks480/I_Diorite_15.png","response":"l","trial_type":"image-keyboard-response","trial_index":111,"plugin_version":"2.1.0","time_elapsed":216082,"subject_id":"91370","group":"Group1","condition":"1_Rep","full_date":"2026-03-06T14:17:04.765Z","date":"2026-03-06","time":"14:17:04","cor_ans":false},{"trial_type":"html-keyboard-response","rt":null,"stimulus":"<p style=\"color: red; font-size: 50px; font-weight: bold;\">Incorrect</p>","response":null,"trial_index":112,"plugin_version":"2.1.0","time_elapsed":216584,"subject_id":"91370","group":"Group1","condition":"1_Rep","full_date":"2026-03-06T14:17:04.765Z","date":"2026-03-06","time":"14:17:04"},{"correct_response":"l","task":"test_phase","broad_category":"S","image_png":"S_Shale_08.png","image_id":472,"category_name":"Shale","category":30,"distinct_rating":2.55,"distinct_type":"Bottom","item_type":"Target","rt":1563,"stimulus":"Stimuli_Rocks480/S_Shale_08.png","response":"l","trial_type":"image-keyboard-response","trial_index":113,"plugin_version":"2.1.0","time_elapsed":218149,"subject_id":"91370","group":"Group1","condition":"1_Rep","full_date":"2026-03-06T14:17:04.765Z","date":"2026-03-06","time":"14:17:04","cor_ans":true},{"trial_type":"html-keyboard-response","rt":null,"stimulus":"<p style=\"color: green; font-size: 50px; font-weight: bold;\">Correct</p>","response":null,"trial_index":114,"plugin_version":"2.1.0","time_elapsed":218651,"subject_id":"91370","group":"Group1","condition":"1_Rep","full_date":"2026-03-06T14:17:04.765Z","date":"2026-03-06","time":"14:17:04"},{"correct_response":"a","task":"test_phase","broad_category":"S","image_png":"S_Sandstone_08.png","image_id":456,"category_name":"Sandstone","category":29,"distinct_rating":1.5,"distinct_type":"Bottom","item_type":"Foil","rt":996,"stimulus":"Stimuli_Rocks480/S_Sandstone_08.png","response":"a","trial_type":"image-keyboard-response","trial_index":115,"plugin_version":"2.1.0","time_elapsed":219648,"subject_id":"91370","group":"Group1","condition":"1_Rep","full_date":"2026-03-06T14:17:04.765Z","date":"2026-03-06","time":"14:17:04","cor_ans":true},{"trial_type":"html-keyboard-response","rt":null,"stimulus":"<p style=\"color: green; font-size: 50px; font-weight: bold;\">Correct</p>","response":null,"trial_index":116,"plugin_version":"2.1.0","time_elapsed":220150,"subject_id":"91370","group":"Group1","condition":"1_Rep","full_date":"2026-03-06T14:17:04.765Z","date":"2026-03-06","time":"14:17:04"},{"correct_response":"l","task":"test_phase","broad_category":"S","image_png":"S_Dolomite_14.png","image_id":398,"category_name":"Dolomite","category":25,"distinct_rating":1.43,"distinct_type":"Bottom","item_type":"Target","rt":899,"stimulus":"Stimuli_Rocks480/S_Dolomite_14.png","response":"a","trial_type":"image-keyboard-response","trial_index":117,"plugin_version":"2.1.0","time_elapsed":221050,"subject_id":"91370","group":"Group1","condition":"1_Rep","full_date":"2026-03-06T14:17:04.765Z","date":"2026-03-06","time":"14:17:04","cor_ans":false},{"trial_type":"html-keyboard-response","rt":null,"stimulus":"<p style=\"color: red; font-size: 50px; font-weight: bold;\">Incorrect</p>","response":null,"trial_index":118,"plugin_version":"2.1.0","time_elapsed":221552,"subject_id":"91370","group":"Group1","condition":"1_Rep","full_date":"2026-03-06T14:17:04.765Z","date":"2026-03-06","time":"14:17:04"},{"correct_response":"a","task":"test_phase","broad_category":"M","image_png":"M_Marble_03.png","image_id":227,"category_name":"Marble","category":15,"distinct_rating":2.67,"distinct_type":"Bottom","item_type":"Foil","rt":1483,"stimulus":"Stimuli_Rocks480/M_Marble_03.png","response":"a","trial_type":"image-keyboard-response","trial_index":119,"plugin_version":"2.1.0","time_elapsed":223036,"subject_id":"91370","group":"Group1","condition":"1_Rep","full_date":"2026-03-06T14:17:04.765Z","date":"2026-03-06","time":"14:17:04","cor_ans":true},{"trial_type":"html-keyboard-response","rt":null,"stimulus":"<p style=\"color: green; font-size: 50px; font-weight: bold;\">Correct</p>","response":null,"trial_index":120,"plugin_version":"2.1.0","time_elapsed":223537,"subject_id":"91370","group":"Group1","condition":"1_Rep","full_date":"2026-03-06T14:17:04.765Z","date":"2026-03-06","time":"14:17:04"},{"correct_response":"a","task":"test_phase","broad_category":"I","image_png":"I_Gabbro_02.png","image_id":50,"category_name":"Gabbro","category":4,"distinct_rating":2.73,"distinct_type":"Bottom","item_type":"Foil","rt":1074,"stimulus":"Stimuli_Rocks480/I_Gabbro_02.png","response":"l","trial_type":"image-keyboard-response","trial_index":121,"plugin_version":"2.1.0","time_elapsed":224613,"subject_id":"91370","group":"Group1","condition":"1_Rep","full_date":"2026-03-06T14:17:04.765Z","date":"2026-03-06","time":"14:17:04","cor_ans":false},{"trial_type":"html-keyboard-response","rt":null,"stimulus":"<p style=\"color: red; font-size: 50px; font-weight: bold;\">Incorrect</p>","response":null,"trial_index":122,"plugin_version":"2.1.0","time_elapsed":225114,"subject_id":"91370","group":"Group1","condition":"1_Rep","full_date":"2026-03-06T14:17:04.765Z","date":"2026-03-06","time":"14:17:04"},{"correct_response":"a","task":"test_phase","broad_category":"S","image_png":"S_Dolomite_16.png","image_id":400,"category_name":"Dolomite","category":25,"distinct_rating":1.71,"distinct_type":"Bottom","item_type":"Foil","rt":1026,"stimulus":"Stimuli_Rocks480/S_Dolomite_16.png","response":"a","trial_type":"image-keyboard-response","trial_index":123,"plugin_version":"2.1.0","time_elapsed":226142,"subject_id":"91370","group":"Group1","condition":"1_Rep","full_date":"2026-03-06T14:17:04.765Z","date":"2026-03-06","time":"14:17:04","cor_ans":true},{"trial_type":"html-keyboard-response","rt":null,"stimulus":"<p style=\"color: green; font-size: 50px; font-weight: bold;\">Correct</p>","response":null,"trial_index":124,"plugin_version":"2.1.0","time_elapsed":226643,"subject_id":"91370","group":"Group1","condition":"1_Rep","full_date":"2026-03-06T14:17:04.765Z","date":"2026-03-06","time":"14:17:04"},{"correct_response":"a","task":"test_phase","broad_category":"M","image_png":"M_Phyllite_13.png","image_id":269,"category_name":"Phyllite","category":17,"distinct_rating":2.8,"distinct_type":"Bottom","item_type":"Foil","rt":979,"stimulus":"Stimuli_Rocks480/M_Phyllite_13.png","response":"a","trial_type":"image-keyboard-response","trial_index":125,"plugin_version":"2.1.0","time_elapsed":227623,"subject_id":"91370","group":"Group1","condition":"1_Rep","full_date":"2026-03-06T14:17:04.765Z","date":"2026-03-06","time":"14:17:04","cor_ans":true},{"trial_type":"html-keyboard-response","rt":null,"stimulus":"<p style=\"color: green; font-size: 50px; font-weight: bold;\">Correct</p>","response":null,"trial_index":126,"plugin_version":"2.1.0","time_elapsed":228124,"subject_id":"91370","group":"Group1","condition":"1_Rep","full_date":"2026-03-06T14:17:04.765Z","date":"2026-03-06","time":"14:17:04"},{"correct_response":"l","task":"test_phase","broad_category":"S","image_png":"S_Breccia_11.png","image_id":347,"category_name":"Breccia","category":22,"distinct_rating":6.7,"distinct_type":"Top","item_type":"Target","rt":765,"stimulus":"Stimuli_Rocks480/S_Breccia_11.png","response":"l","trial_type":"image-keyboard-response","trial_index":127,"plugin_version":"2.1.0","time_elapsed":228890,"subject_id":"91370","group":"Group1","condition":"1_Rep","full_date":"2026-03-06T14:17:04.765Z","date":"2026-03-06","time":"14:17:04","cor_ans":true},{"trial_type":"html-keyboard-response","rt":null,"stimulus":"<p style=\"color: green; font-size: 50px; font-weight: bold;\">Correct</p>","response":null,"trial_index":128,"plugin_version":"2.1.0","time_elapsed":229392,"subject_id":"91370","group":"Group1","condition":"1_Rep","full_date":"2026-03-06T14:17:04.765Z","date":"2026-03-06","time":"14:17:04"},{"correct_response":"a","task":"test_phase","broad_category":"I","image_png":"I_Gabbro_12.png","image_id":60,"category_name":"Gabbro","category":4,"distinct_rating":2.6,"distinct_type":"Bottom","item_type":"Foil","rt":791,"stimulus":"Stimuli_Rocks480/I_Gabbro_12.png","response":"a","trial_type":"image-keyboard-response","trial_index":129,"plugin_version":"2.1.0","time_elapsed":230183,"subject_id":"91370","group":"Group1","condition":"1_Rep","full_date":"2026-03-06T14:17:04.765Z","date":"2026-03-06","time":"14:17:04","cor_ans":true},{"trial_type":"html-keyboard-response","rt":null,"stimulus":"<p style=\"color: green; font-size: 50px; font-weight: bold;\">Correct</p>","response":null,"trial_index":130,"plugin_version":"2.1.0","time_elapsed":230685,"subject_id":"91370","group":"Group1","condition":"1_Rep","full_date":"2026-03-06T14:17:04.765Z","date":"2026-03-06","time":"14:17:04"},{"correct_response":"a","task":"test_phase","broad_category":"M","image_png":"M_Phyllite_05.png","image_id":261,"category_name":"Phyllite","category":17,"distinct_rating":2.14,"distinct_type":"Bottom","item_type":"Foil","rt":746,"stimulus":"Stimuli_Rocks480/M_Phyllite_05.png","response":"l","trial_type":"image-keyboard-response","trial_index":131,"plugin_version":"2.1.0","time_elapsed":231432,"subject_id":"91370","group":"Group1","condition":"1_Rep","full_date":"2026-03-06T14:17:04.765Z","date":"2026-03-06","time":"14:17:04","cor_ans":false},{"trial_type":"html-keyboard-response","rt":null,"stimulus":"<p style=\"color: red; font-size: 50px; font-weight: bold;\">Incorrect</p>","response":null,"trial_index":132,"plugin_version":"2.1.0","time_elapsed":231934,"subject_id":"91370","group":"Group1","condition":"1_Rep","full_date":"2026-03-06T14:17:04.765Z","date":"2026-03-06","time":"14:17:04"},{"correct_response":"a","task":"test_phase","broad_category":"I","image_png":"I_Andesite_09.png","image_id":9,"category_name":"Andesite","category":1,"distinct_rating":2.49,"distinct_type":"Bottom","item_type":"Foil","rt":834,"stimulus":"Stimuli_Rocks480/I_Andesite_09.png","response":"a","trial_type":"image-keyboard-response","trial_index":133,"plugin_version":"2.1.0","time_elapsed":232769,"subject_id":"91370","group":"Group1","condition":"1_Rep","full_date":"2026-03-06T14:17:04.765Z","date":"2026-03-06","time":"14:17:04","cor_ans":true},{"trial_type":"html-keyboard-response","rt":null,"stimulus":"<p style=\"color: green; font-size: 50px; font-weight: bold;\">Correct</p>","response":null,"trial_index":134,"plugin_version":"2.1.0","time_elapsed":233271,"subject_id":"91370","group":"Group1","condition":"1_Rep","full_date":"2026-03-06T14:17:04.765Z","date":"2026-03-06","time":"14:17:04"},{"correct_response":"a","task":"test_phase","broad_category":"I","image_png":"I_Basalt_08.png","image_id":24,"category_name":"Basalt","category":2,"distinct_rating":2.31,"distinct_type":"Bottom","item_type":"Foil","rt":861,"stimulus":"Stimuli_Rocks480/I_Basalt_08.png","response":"l","trial_type":"image-keyboard-response","trial_index":135,"plugin_version":"2.1.0","time_elapsed":234133,"subject_id":"91370","group":"Group1","condition":"1_Rep","full_date":"2026-03-06T14:17:04.765Z","date":"2026-03-06","time":"14:17:04","cor_ans":false},{"trial_type":"html-keyboard-response","rt":null,"stimulus":"<p style=\"color: red; font-size: 50px; font-weight: bold;\">Incorrect</p>","response":null,"trial_index":136,"plugin_version":"2.1.0","time_elapsed":234634,"subject_id":"91370","group":"Group1","condition":"1_Rep","full_date":"2026-03-06T14:17:04.765Z","date":"2026-03-06","time":"14:17:04"},{"correct_response":"a","task":"test_phase","broad_category":"S","image_png":"S_Rock Salt_15.png","image_id":447,"category_name":"Rock Salt","category":28,"distinct_rating":7.79,"distinct_type":"Top","item_type":"Foil","rt":969,"stimulus":"Stimuli_Rocks480/S_Rock Salt_15.png","response":"l","trial_type":"image-keyboard-response","trial_index":137,"plugin_version":"2.1.0","time_elapsed":235604,"subject_id":"91370","group":"Group1","condition":"1_Rep","full_date":"2026-03-06T14:17:04.765Z","date":"2026-03-06","time":"14:17:04","cor_ans":false},{"trial_type":"html-keyboard-response","rt":null,"stimulus":"<p style=\"color: red; font-size: 50px; font-weight: bold;\">Incorrect</p>","response":null,"trial_index":138,"plugin_version":"2.1.0","time_elapsed":236106,"subject_id":"91370","group":"Group1","condition":"1_Rep","full_date":"2026-03-06T14:17:04.765Z","date":"2026-03-06","time":"14:17:04"},{"correct_response":"a","task":"test_phase","broad_category":"S","image_png":"S_Dolomite_01.png","image_id":385,"category_name":"Dolomite","category":25,"distinct_rating":1.43,"distinct_type":"Bottom","item_type":"Foil","rt":585,"stimulus":"Stimuli_Rocks480/S_Dolomite_01.png","response":"a","trial_type":"image-keyboard-response","trial_index":139,"plugin_version":"2.1.0","time_elapsed":236692,"subject_id":"91370","group":"Group1","condition":"1_Rep","full_date":"2026-03-06T14:17:04.765Z","date":"2026-03-06","time":"14:17:04","cor_ans":true},{"trial_type":"html-keyboard-response","rt":null,"stimulus":"<p style=\"color: green; font-size: 50px; font-weight: bold;\">Correct</p>","response":null,"trial_index":140,"plugin_version":"2.1.0","time_elapsed":237193,"subject_id":"91370","group":"Group1","condition":"1_Rep","full_date":"2026-03-06T14:17:04.765Z","date":"2026-03-06","time":"14:17:04"},{"correct_response":"l","task":"test_phase","broad_category":"M","image_png":"M_Gneiss_05.png","image_id":197,"category_name":"Gneiss","category":13,"distinct_rating":2.97,"distinct_type":"Bottom","item_type":"Target","rt":990,"stimulus":"Stimuli_Rocks480/M_Gneiss_05.png","response":"a","trial_type":"image-keyboard-response","trial_index":141,"plugin_version":"2.1.0","time_elapsed":238184,"subject_id":"91370","group":"Group1","condition":"1_Rep","full_date":"2026-03-06T14:17:04.765Z","date":"2026-03-06","time":"14:17:04","cor_ans":false},{"trial_type":"html-keyboard-response","rt":null,"stimulus":"<p style=\"color: red; font-size: 50px; font-weight: bold;\">Incorrect</p>","response":null,"trial_index":142,"plugin_version":"2.1.0","time_elapsed":238686,"subject_id":"91370","group":"Group1","condition":"1_Rep","full_date":"2026-03-06T14:17:04.765Z","date":"2026-03-06","time":"14:17:04"},{"correct_response":"l","task":"test_phase","broad_category":"S","image_png":"S_Sandstone_16.png","image_id":464,"category_name":"Sandstone","category":29,"distinct_rating":1.93,"distinct_type":"Bottom","item_type":"Target","rt":917,"stimulus":"Stimuli_Rocks480/S_Sandstone_16.png","response":"l","trial_type":"image-keyboard-response","trial_index":143,"plugin_version":"2.1.0","time_elapsed":239604,"subject_id":"91370","group":"Group1","condition":"1_Rep","full_date":"2026-03-06T14:17:04.765Z","date":"2026-03-06","time":"14:17:04","cor_ans":true},{"trial_type":"html-keyboard-response","rt":null,"stimulus":"<p style=\"color: green; font-size: 50px; font-weight: bold;\">Correct</p>","response":null,"trial_index":144,"plugin_version":"2.1.0","time_elapsed":240106,"subject_id":"91370","group":"Group1","condition":"1_Rep","full_date":"2026-03-06T14:17:04.765Z","date":"2026-03-06","time":"14:17:04"},{"correct_response":"a","task":"test_phase","broad_category":"I","image_png":"I_Pumice_13.png","image_id":141,"category_name":"Pumice","category":9,"distinct_rating":3.12,"distinct_type":"Bottom","item_type":"Foil","rt":579,"stimulus":"Stimuli_Rocks480/I_Pumice_13.png","response":"l","trial_type":"image-keyboard-response","trial_index":145,"plugin_version":"2.1.0","time_elapsed":240687,"subject_id":"91370","group":"Group1","condition":"1_Rep","full_date":"2026-03-06T14:17:04.765Z","date":"2026-03-06","time":"14:17:04","cor_ans":false},{"trial_type":"html-keyboard-response","rt":null,"stimulus":"<p style=\"color: red; font-size: 50px; font-weight: bold;\">Incorrect</p>","response":null,"trial_index":146,"plugin_version":"2.1.0","time_elapsed":241187,"subject_id":"91370","group":"Group1","condition":"1_Rep","full_date":"2026-03-06T14:17:04.765Z","date":"2026-03-06","time":"14:17:04"},{"correct_response":"l","task":"test_phase","broad_category":"M","image_png":"M_Quartzite_08.png","image_id":280,"category_name":"Quartzite","category":18,"distinct_rating":2.15,"distinct_type":"Bottom","item_type":"Target","rt":745,"stimulus":"Stimuli_Rocks480/M_Quartzite_08.png","response":"l","trial_type":"image-keyboard-response","trial_index":147,"plugin_version":"2.1.0","time_elapsed":241933,"subject_id":"91370","group":"Group1","condition":"1_Rep","full_date":"2026-03-06T14:17:04.765Z","date":"2026-03-06","time":"14:17:04","cor_ans":true},{"trial_type":"html-keyboard-response","rt":null,"stimulus":"<p style=\"color: green; font-size: 50px; font-weight: bold;\">Correct</p>","response":null,"trial_index":148,"plugin_version":"2.1.0","time_elapsed":242435,"subject_id":"91370","group":"Group1","condition":"1_Rep","full_date":"2026-03-06T14:17:04.765Z","date":"2026-03-06","time":"14:17:04"},{"correct_response":"l","task":"test_phase","broad_category":"M","image_png":"M_Slate_03.png","image_id":307,"category_name":"Slate","category":20,"distinct_rating":1.87,"distinct_type":"Bottom","item_type":"Target","rt":772,"stimulus":"Stimuli_Rocks480/M_Slate_03.png","response":"l","trial_type":"image-keyboard-response","trial_index":149,"plugin_version":"2.1.0","time_elapsed":243208,"subject_id":"91370","group":"Group1","condition":"1_Rep","full_date":"2026-03-06T14:17:04.765Z","date":"2026-03-06","time":"14:17:04","cor_ans":true},{"trial_type":"html-keyboard-response","rt":null,"stimulus":"<p style=\"color: green; font-size: 50px; font-weight: bold;\">Correct</p>","response":null,"trial_index":150,"plugin_version":"2.1.0","time_elapsed":243709,"subject_id":"91370","group":"Group1","condition":"1_Rep","full_date":"2026-03-06T14:17:04.765Z","date":"2026-03-06","time":"14:17:04"},{"correct_response":"l","task":"test_phase","broad_category":"I","image_png":"I_Gabbro_11.png","image_id":59,"category_name":"Gabbro","category":4,"distinct_rating":1.99,"distinct_type":"Bottom","item_type":"Target","rt":696,"stimulus":"Stimuli_Rocks480/I_Gabbro_11.png","response":"l","trial_type":"image-keyboard-response","trial_index":151,"plugin_version":"2.1.0","time_elapsed":244406,"subject_id":"91370","group":"Group1","condition":"1_Rep","full_date":"2026-03-06T14:17:04.765Z","date":"2026-03-06","time":"14:17:04","cor_ans":true},{"trial_type":"html-keyboard-response","rt":null,"stimulus":"<p style=\"color: green; font-size: 50px; font-weight: bold;\">Correct</p>","response":null,"trial_index":152,"plugin_version":"2.1.0","time_elapsed":244908,"subject_id":"91370","group":"Group1","condition":"1_Rep","full_date":"2026-03-06T14:17:04.765Z","date":"2026-03-06","time":"14:17:04"},{"correct_response":"l","task":"test_phase","broad_category":"I","image_png":"I_Pumice_11.png","image_id":139,"category_name":"Pumice","category":9,"distinct_rating":1.74,"distinct_type":"Bottom","item_type":"Target","rt":922,"stimulus":"Stimuli_Rocks480/I_Pumice_11.png","response":"l","trial_type":"image-keyboard-response","trial_index":153,"plugin_version":"2.1.0","time_elapsed":245830,"subject_id":"91370","group":"Group1","condition":"1_Rep","full_date":"2026-03-06T14:17:04.765Z","date":"2026-03-06","time":"14:17:04","cor_ans":true},{"trial_type":"html-keyboard-response","rt":null,"stimulus":"<p style=\"color: green; font-size: 50px; font-weight: bold;\">Correct</p>","response":null,"trial_index":154,"plugin_version":"2.1.0","time_elapsed":246332,"subject_id":"91370","group":"Group1","condition":"1_Rep","full_date":"2026-03-06T14:17:04.765Z","date":"2026-03-06","time":"14:17:04"},{"correct_response":"a","task":"test_phase","broad_category":"I","image_png":"I_Basalt_13.png","image_id":29,"category_name":"Basalt","category":2,"distinct_rating":2.68,"distinct_type":"Bottom","item_type":"Foil","rt":696,"stimulus":"Stimuli_Rocks480/I_Basalt_13.png","response":"l","trial_type":"image-keyboard-response","trial_index":155,"plugin_version":"2.1.0","time_elapsed":247028,"subject_id":"91370","group":"Group1","condition":"1_Rep","full_date":"2026-03-06T14:17:04.765Z","date":"2026-03-06","time":"14:17:04","cor_ans":false},{"trial_type":"html-keyboard-response","rt":null,"stimulus":"<p style=\"color: red; font-size: 50px; font-weight: bold;\">Incorrect</p>","response":null,"trial_index":156,"plugin_version":"2.1.0","time_elapsed":247530,"subject_id":"91370","group":"Group1","condition":"1_Rep","full_date":"2026-03-06T14:17:04.765Z","date":"2026-03-06","time":"14:17:04"},{"correct_response":"l","task":"test_phase","broad_category":"M","image_png":"M_Phyllite_03.png","image_id":259,"category_name":"Phyllite","category":17,"distinct_rating":2.5,"distinct_type":"Bottom","item_type":"Target","rt":851,"stimulus":"Stimuli_Rocks480/M_Phyllite_03.png","response":"l","trial_type":"image-keyboard-response","trial_index":157,"plugin_version":"2.1.0","time_elapsed":248382,"subject_id":"91370","group":"Group1","condition":"1_Rep","full_date":"2026-03-06T14:17:04.765Z","date":"2026-03-06","time":"14:17:04","cor_ans":true},{"trial_type":"html-keyboard-response","rt":null,"stimulus":"<p style=\"color: green; font-size: 50px; font-weight: bold;\">Correct</p>","response":null,"trial_index":158,"plugin_version":"2.1.0","time_elapsed":248884,"subject_id":"91370","group":"Group1","condition":"1_Rep","full_date":"2026-03-06T14:17:04.765Z","date":"2026-03-06","time":"14:17:04"},{"correct_response":"a","task":"test_phase","broad_category":"S","image_png":"S_Sandstone_04.png","image_id":452,"category_name":"Sandstone","category":29,"distinct_rating":1.8,"distinct_type":"Bottom","item_type":"Foil","rt":585,"stimulus":"Stimuli_Rocks480/S_Sandstone_04.png","response":"a","trial_type":"image-keyboard-response","trial_index":159,"plugin_version":"2.1.0","time_elapsed":249470,"subject_id":"91370","group":"Group1","condition":"1_Rep","full_date":"2026-03-06T14:17:04.765Z","date":"2026-03-06","time":"14:17:04","cor_ans":true},{"trial_type":"html-keyboard-response","rt":null,"stimulus":"<p style=\"color: green; font-size: 50px; font-weight: bold;\">Correct</p>","response":null,"trial_index":160,"plugin_version":"2.1.0","time_elapsed":249972,"subject_id":"91370","group":"Group1","condition":"1_Rep","full_date":"2026-03-06T14:17:04.765Z","date":"2026-03-06","time":"14:17:04"},{"correct_response":"l","task":"test_phase","broad_category":"I","image_png":"I_Diorite_03.png","image_id":35,"category_name":"Diorite","category":3,"distinct_rating":3.14,"distinct_type":"Bottom","item_type":"Target","rt":697,"stimulus":"Stimuli_Rocks480/I_Diorite_03.png","response":"l","trial_type":"image-keyboard-response","trial_index":161,"plugin_version":"2.1.0","time_elapsed":250671,"subject_id":"91370","group":"Group1","condition":"1_Rep","full_date":"2026-03-06T14:17:04.765Z","date":"2026-03-06","time":"14:17:04","cor_ans":true},{"trial_type":"html-keyboard-response","rt":null,"stimulus":"<p style=\"color: green; font-size: 50px; font-weight: bold;\">Correct</p>","response":null,"trial_index":162,"plugin_version":"2.1.0","time_elapsed":251171,"subject_id":"91370","group":"Group1","condition":"1_Rep","full_date":"2026-03-06T14:17:04.765Z","date":"2026-03-06","time":"14:17:04"},{"correct_response":"l","task":"test_phase","broad_category":"M","image_png":"M_Marble_16.png","image_id":240,"category_name":"Marble","category":15,"distinct_rating":2.57,"distinct_type":"Bottom","item_type":"Target","rt":626,"stimulus":"Stimuli_Rocks480/M_Marble_16.png","response":"l","trial_type":"image-keyboard-response","trial_index":163,"plugin_version":"2.1.0","time_elapsed":251799,"subject_id":"91370","group":"Group1","condition":"1_Rep","full_date":"2026-03-06T14:17:04.765Z","date":"2026-03-06","time":"14:17:04","cor_ans":true},{"trial_type":"html-keyboard-response","rt":null,"stimulus":"<p style=\"color: green; font-size: 50px; font-weight: bold;\">Correct</p>","response":null,"trial_index":164,"plugin_version":"2.1.0","time_elapsed":252300,"subject_id":"91370","group":"Group1","condition":"1_Rep","full_date":"2026-03-06T14:17:04.765Z","date":"2026-03-06","time":"14:17:04"},{"correct_response":"a","task":"test_phase","broad_category":"M","image_png":"M_Marble_14.png","image_id":238,"category_name":"Marble","category":15,"distinct_rating":3.31,"distinct_type":"Bottom","item_type":"Foil","rt":816,"stimulus":"Stimuli_Rocks480/M_Marble_14.png","response":"a","trial_type":"image-keyboard-response","trial_index":165,"plugin_version":"2.1.0","time_elapsed":253118,"subject_id":"91370","group":"Group1","condition":"1_Rep","full_date":"2026-03-06T14:17:04.765Z","date":"2026-03-06","time":"14:17:04","cor_ans":true},{"trial_type":"html-keyboard-response","rt":null,"stimulus":"<p style=\"color: green; font-size: 50px; font-weight: bold;\">Correct</p>","response":null,"trial_index":166,"plugin_version":"2.1.0","time_elapsed":253620,"subject_id":"91370","group":"Group1","condition":"1_Rep","full_date":"2026-03-06T14:17:04.765Z","date":"2026-03-06","time":"14:17:04"},{"correct_response":"l","task":"test_phase","broad_category":"M","image_png":"M_Quartzite_05.png","image_id":277,"category_name":"Quartzite","category":18,"distinct_rating":2.23,"distinct_type":"Bottom","item_type":"Target","rt":682,"stimulus":"Stimuli_Rocks480/M_Quartzite_05.png","response":"l","trial_type":"image-keyboard-response","trial_index":167,"plugin_version":"2.1.0","time_elapsed":254302,"subject_id":"91370","group":"Group1","condition":"1_Rep","full_date":"2026-03-06T14:17:04.765Z","date":"2026-03-06","time":"14:17:04","cor_ans":true},{"trial_type":"html-keyboard-response","rt":null,"stimulus":"<p style=\"color: green; font-size: 50px; font-weight: bold;\">Correct</p>","response":null,"trial_index":168,"plugin_version":"2.1.0","time_elapsed":254804,"subject_id":"91370","group":"Group1","condition":"1_Rep","full_date":"2026-03-06T14:17:04.765Z","date":"2026-03-06","time":"14:17:04"},{"correct_response":"l","task":"test_phase","broad_category":"I","image_png":"I_Andesite_06.png","image_id":6,"category_name":"Andesite","category":1,"distinct_rating":3.17,"distinct_type":"Bottom","item_type":"Target","rt":618,"stimulus":"Stimuli_Rocks480/I_Andesite_06.png","response":"a","trial_type":"image-keyboard-response","trial_index":169,"plugin_version":"2.1.0","time_elapsed":255424,"subject_id":"91370","group":"Group1","condition":"1_Rep","full_date":"2026-03-06T14:17:04.765Z","date":"2026-03-06","time":"14:17:04","cor_ans":false},{"trial_type":"html-keyboard-response","rt":null,"stimulus":"<p style=\"color: red; font-size: 50px; font-weight: bold;\">Incorrect</p>","response":null,"trial_index":170,"plugin_version":"2.1.0","time_elapsed":255925,"subject_id":"91370","group":"Group1","condition":"1_Rep","full_date":"2026-03-06T14:17:04.765Z","date":"2026-03-06","time":"14:17:04"},{"correct_response":"l","task":"test_phase","broad_category":"M","image_png":"M_Slate_15.png","image_id":319,"category_name":"Slate","category":20,"distinct_rating":2.13,"distinct_type":"Bottom","item_type":"Target","rt":503,"stimulus":"Stimuli_Rocks480/M_Slate_15.png","response":"l","trial_type":"image-keyboard-response","trial_index":171,"plugin_version":"2.1.0","time_elapsed":256430,"subject_id":"91370","group":"Group1","condition":"1_Rep","full_date":"2026-03-06T14:17:04.765Z","date":"2026-03-06","time":"14:17:04","cor_ans":true},{"trial_type":"html-keyboard-response","rt":null,"stimulus":"<p style=\"color: green; font-size: 50px; font-weight: bold;\">Correct</p>","response":null,"trial_index":172,"plugin_version":"2.1.0","time_elapsed":256931,"subject_id":"91370","group":"Group1","condition":"1_Rep","full_date":"2026-03-06T14:17:04.765Z","date":"2026-03-06","time":"14:17:04"},{"correct_response":"l","task":"test_phase","broad_category":"I","image_png":"I_Pumice_12.png","image_id":140,"category_name":"Pumice","category":9,"distinct_rating":2.97,"distinct_type":"Bottom","item_type":"Target","rt":557,"stimulus":"Stimuli_Rocks480/I_Pumice_12.png","response":"l","trial_type":"image-keyboard-response","trial_index":173,"plugin_version":"2.1.0","time_elapsed":257490,"subject_id":"91370","group":"Group1","condition":"1_Rep","full_date":"2026-03-06T14:17:04.765Z","date":"2026-03-06","time":"14:17:04","cor_ans":true},{"trial_type":"html-keyboard-response","rt":null,"stimulus":"<p style=\"color: green; font-size: 50px; font-weight: bold;\">Correct</p>","response":null,"trial_index":174,"plugin_version":"2.1.0","time_elapsed":257990,"subject_id":"91370","group":"Group1","condition":"1_Rep","full_date":"2026-03-06T14:17:04.765Z","date":"2026-03-06","time":"14:17:04"},{"correct_response":"l","task":"test_phase","broad_category":"I","image_png":"I_Pumice_08.png","image_id":136,"category_name":"Pumice","category":9,"distinct_rating":3.1,"distinct_type":"Bottom","item_type":"Target","rt":520,"stimulus":"Stimuli_Rocks480/I_Pumice_08.png","response":"l","trial_type":"image-keyboard-response","trial_index":175,"plugin_version":"2.1.0","time_elapsed":258512,"subject_id":"91370","group":"Group1","condition":"1_Rep","full_date":"2026-03-06T14:17:04.765Z","date":"2026-03-06","time":"14:17:04","cor_ans":true},{"trial_type":"html-keyboard-response","rt":null,"stimulus":"<p style=\"color: green; font-size: 50px; font-weight: bold;\">Correct</p>","response":null,"trial_index":176,"plugin_version":"2.1.0","time_elapsed":259013,"subject_id":"91370","group":"Group1","condition":"1_Rep","full_date":"2026-03-06T14:17:04.765Z","date":"2026-03-06","time":"14:17:04"},{"correct_response":"l","task":"test_phase","broad_category":"S","image_png":"S_Sandstone_03.png","image_id":451,"category_name":"Sandstone","category":29,"distinct_rating":1.86,"distinct_type":"Bottom","item_type":"Target","rt":580,"stimulus":"Stimuli_Rocks480/S_Sandstone_03.png","response":"l","trial_type":"image-keyboard-response","trial_index":177,"plugin_version":"2.1.0","time_elapsed":259594,"subject_id":"91370","group":"Group1","condition":"1_Rep","full_date":"2026-03-06T14:17:04.765Z","date":"2026-03-06","time":"14:17:04","cor_ans":true},{"trial_type":"html-keyboard-response","rt":null,"stimulus":"<p style=\"color: green; font-size: 50px; font-weight: bold;\">Correct</p>","response":null,"trial_index":178,"plugin_version":"2.1.0","time_elapsed":260095,"subject_id":"91370","group":"Group1","condition":"1_Rep","full_date":"2026-03-06T14:17:04.765Z","date":"2026-03-06","time":"14:17:04"},{"correct_response":"a","task":"test_phase","broad_category":"M","image_png":"M_Slate_14.png","image_id":318,"category_name":"Slate","category":20,"distinct_rating":2.58,"distinct_type":"Bottom","item_type":"Foil","rt":676,"stimulus":"Stimuli_Rocks480/M_Slate_14.png","response":"l","trial_type":"image-keyboard-response","trial_index":179,"plugin_version":"2.1.0","time_elapsed":260772,"subject_id":"91370","group":"Group1","condition":"1_Rep","full_date":"2026-03-06T14:17:04.765Z","date":"2026-03-06","time":"14:17:04","cor_ans":false},{"trial_type":"html-keyboard-response","rt":null,"stimulus":"<p style=\"color: red; font-size: 50px; font-weight: bold;\">Incorrect</p>","response":null,"trial_index":180,"plugin_version":"2.1.0","time_elapsed":261273,"subject_id":"91370","group":"Group1","condition":"1_Rep","full_date":"2026-03-06T14:17:04.765Z","date":"2026-03-06","time":"14:17:04"},{"correct_response":"a","task":"test_phase","broad_category":"S","image_png":"S_Rock Salt_13.png","image_id":445,"category_name":"Rock Salt","category":28,"distinct_rating":7.58,"distinct_type":"Top","item_type":"Foil","rt":760,"stimulus":"Stimuli_Rocks480/S_Rock Salt_13.png","response":"a","trial_type":"image-keyboard-response","trial_index":181,"plugin_version":"2.1.0","time_elapsed":262034,"subject_id":"91370","group":"Group1","condition":"1_Rep","full_date":"2026-03-06T14:17:04.765Z","date":"2026-03-06","time":"14:17:04","cor_ans":true},{"trial_type":"html-keyboard-response","rt":null,"stimulus":"<p style=\"color: green; font-size: 50px; font-weight: bold;\">Correct</p>","response":null,"trial_index":182,"plugin_version":"2.1.0","time_elapsed":262536,"subject_id":"91370","group":"Group1","condition":"1_Rep","full_date":"2026-03-06T14:17:04.765Z","date":"2026-03-06","time":"14:17:04"},{"correct_response":"l","task":"test_phase","broad_category":"S","image_png":"S_Sandstone_15.png","image_id":463,"category_name":"Sandstone","category":29,"distinct_rating":2,"distinct_type":"Bottom","item_type":"Target","rt":527,"stimulus":"Stimuli_Rocks480/S_Sandstone_15.png","response":"l","trial_type":"image-keyboard-response","trial_index":183,"plugin_version":"2.1.0","time_elapsed":263064,"subject_id":"91370","group":"Group1","condition":"1_Rep","full_date":"2026-03-06T14:17:04.765Z","date":"2026-03-06","time":"14:17:04","cor_ans":true},{"trial_type":"html-keyboard-response","rt":null,"stimulus":"<p style=\"color: green; font-size: 50px; font-weight: bold;\">Correct</p>","response":null,"trial_index":184,"plugin_version":"2.1.0","time_elapsed":263566,"subject_id":"91370","group":"Group1","condition":"1_Rep","full_date":"2026-03-06T14:17:04.765Z","date":"2026-03-06","time":"14:17:04"},{"correct_response":"a","task":"test_phase","broad_category":"M","image_png":"M_Gneiss_15.png","image_id":207,"category_name":"Gneiss","category":13,"distinct_rating":3.11,"distinct_type":"Bottom","item_type":"Foil","rt":676,"stimulus":"Stimuli_Rocks480/M_Gneiss_15.png","response":"a","trial_type":"image-keyboard-response","trial_index":185,"plugin_version":"2.1.0","time_elapsed":264242,"subject_id":"91370","group":"Group1","condition":"1_Rep","full_date":"2026-03-06T14:17:04.765Z","date":"2026-03-06","time":"14:17:04","cor_ans":true},{"trial_type":"html-keyboard-response","rt":null,"stimulus":"<p style=\"color: green; font-size: 50px; font-weight: bold;\">Correct</p>","response":null,"trial_index":186,"plugin_version":"2.1.0","time_elapsed":264744,"subject_id":"91370","group":"Group1","condition":"1_Rep","full_date":"2026-03-06T14:17:04.765Z","date":"2026-03-06","time":"14:17:04"},{"correct_response":"l","task":"test_phase","broad_category":"I","image_png":"I_Diorite_05.png","image_id":37,"category_name":"Diorite","category":3,"distinct_rating":3.08,"distinct_type":"Bottom","item_type":"Target","rt":720,"stimulus":"Stimuli_Rocks480/I_Diorite_05.png","response":"l","trial_type":"image-keyboard-response","trial_index":187,"plugin_version":"2.1.0","time_elapsed":265465,"subject_id":"91370","group":"Group1","condition":"1_Rep","full_date":"2026-03-06T14:17:04.765Z","date":"2026-03-06","time":"14:17:04","cor_ans":true},{"trial_type":"html-keyboard-response","rt":null,"stimulus":"<p style=\"color: green; font-size: 50px; font-weight: bold;\">Correct</p>","response":null,"trial_index":188,"plugin_version":"2.1.0","time_elapsed":265966,"subject_id":"91370","group":"Group1","condition":"1_Rep","full_date":"2026-03-06T14:17:04.765Z","date":"2026-03-06","time":"14:17:04"},{"correct_response":"a","task":"test_phase","broad_category":"M","image_png":"M_Slate_04.png","image_id":308,"category_name":"Slate","category":20,"distinct_rating":2.2,"distinct_type":"Bottom","item_type":"Foil","rt":513,"stimulus":"Stimuli_Rocks480/M_Slate_04.png","response":"a","trial_type":"image-keyboard-response","trial_index":189,"plugin_version":"2.1.0","time_elapsed":266480,"subject_id":"91370","group":"Group1","condition":"1_Rep","full_date":"2026-03-06T14:17:04.765Z","date":"2026-03-06","time":"14:17:04","cor_ans":true},{"trial_type":"html-keyboard-response","rt":null,"stimulus":"<p style=\"color: green; font-size: 50px; font-weight: bold;\">Correct</p>","response":null,"trial_index":190,"plugin_version":"2.1.0","time_elapsed":266981,"subject_id":"91370","group":"Group1","condition":"1_Rep","full_date":"2026-03-06T14:17:04.765Z","date":"2026-03-06","time":"14:17:04"},{"correct_response":"l","task":"test_phase","broad_category":"I","image_png":"I_Andesite_08.png","image_id":8,"category_name":"Andesite","category":1,"distinct_rating":1.95,"distinct_type":"Bottom","item_type":"Target","rt":623,"stimulus":"Stimuli_Rocks480/I_Andesite_08.png","response":"l","trial_type":"image-keyboard-response","trial_index":191,"plugin_version":"2.1.0","time_elapsed":267605,"subject_id":"91370","group":"Group1","condition":"1_Rep","full_date":"2026-03-06T14:17:04.765Z","date":"2026-03-06","time":"14:17:04","cor_ans":true},{"trial_type":"html-keyboard-response","rt":null,"stimulus":"<p style=\"color: green; font-size: 50px; font-weight: bold;\">Correct</p>","response":null,"trial_index":192,"plugin_version":"2.1.0","time_elapsed":268107,"subject_id":"91370","group":"Group1","condition":"1_Rep","full_date":"2026-03-06T14:17:04.765Z","date":"2026-03-06","time":"14:17:04"},{"correct_response":"l","task":"test_phase","broad_category":"I","image_png":"I_Rhyolite_11.png","image_id":155,"category_name":"Rhyolite","category":10,"distinct_rating":1.73,"distinct_type":"Bottom","item_type":"Target","rt":522,"stimulus":"Stimuli_Rocks480/I_Rhyolite_11.png","response":"a","trial_type":"image-keyboard-response","trial_index":193,"plugin_version":"2.1.0","time_elapsed":268629,"subject_id":"91370","group":"Group1","condition":"1_Rep","full_date":"2026-03-06T14:17:04.765Z","date":"2026-03-06","time":"14:17:04","cor_ans":false},{"trial_type":"html-keyboard-response","rt":null,"stimulus":"<p style=\"color: red; font-size: 50px; font-weight: bold;\">Incorrect</p>","response":null,"trial_index":194,"plugin_version":"2.1.0","time_elapsed":269131,"subject_id":"91370","group":"Group1","condition":"1_Rep","full_date":"2026-03-06T14:17:04.765Z","date":"2026-03-06","time":"14:17:04"},{"correct_response":"l","task":"test_phase","broad_category":"M","image_png":"M_Phyllite_07.png","image_id":263,"category_name":"Phyllite","category":17,"distinct_rating":2.59,"distinct_type":"Bottom","item_type":"Target","rt":971,"stimulus":"Stimuli_Rocks480/M_Phyllite_07.png","response":"a","trial_type":"image-keyboard-response","trial_index":195,"plugin_version":"2.1.0","time_elapsed":270103,"subject_id":"91370","group":"Group1","condition":"1_Rep","full_date":"2026-03-06T14:17:04.765Z","date":"2026-03-06","time":"14:17:04","cor_ans":false},{"trial_type":"html-keyboard-response","rt":null,"stimulus":"<p style=\"color: red; font-size: 50px; font-weight: bold;\">Incorrect</p>","response":null,"trial_index":196,"plugin_version":"2.1.0","time_elapsed":270605,"subject_id":"91370","group":"Group1","condition":"1_Rep","full_date":"2026-03-06T14:17:04.765Z","date":"2026-03-06","time":"14:17:04"},{"correct_response":"a","task":"test_phase","broad_category":"M","image_png":"M_Quartzite_15.png","image_id":287,"category_name":"Quartzite","category":18,"distinct_rating":2.19,"distinct_type":"Bottom","item_type":"Foil","rt":464,"stimulus":"Stimuli_Rocks480/M_Quartzite_15.png","response":"l","trial_type":"image-keyboard-response","trial_index":197,"plugin_version":"2.1.0","time_elapsed":271069,"subject_id":"91370","group":"Group1","condition":"1_Rep","full_date":"2026-03-06T14:17:04.765Z","date":"2026-03-06","time":"14:17:04","cor_ans":false},{"trial_type":"html-keyboard-response","rt":null,"stimulus":"<p style=\"color: red; font-size: 50px; font-weight: bold;\">Incorrect</p>","response":null,"trial_index":198,"plugin_version":"2.1.0","time_elapsed":271571,"subject_id":"91370","group":"Group1","condition":"1_Rep","full_date":"2026-03-06T14:17:04.765Z","date":"2026-03-06","time":"14:17:04"},{"correct_response":"l","task":"test_phase","broad_category":"I","image_png":"I_Diorite_04.png","image_id":36,"category_name":"Diorite","category":3,"distinct_rating":2.98,"distinct_type":"Bottom","item_type":"Target","rt":553,"stimulus":"Stimuli_Rocks480/I_Diorite_04.png","response":"a","trial_type":"image-keyboard-response","trial_index":199,"plugin_version":"2.1.0","time_elapsed":272125,"subject_id":"91370","group":"Group1","condition":"1_Rep","full_date":"2026-03-06T14:17:04.765Z","date":"2026-03-06","time":"14:17:04","cor_ans":false},{"trial_type":"html-keyboard-response","rt":null,"stimulus":"<p style=\"color: red; font-size: 50px; font-weight: bold;\">Incorrect</p>","response":null,"trial_index":200,"plugin_version":"2.1.0","time_elapsed":272626,"subject_id":"91370","group":"Group1","condition":"1_Rep","full_date":"2026-03-06T14:17:04.765Z","date":"2026-03-06","time":"14:17:04"},{"correct_response":"l","task":"test_phase","broad_category":"S","image_png":"S_Shale_01.png","image_id":465,"category_name":"Shale","category":30,"distinct_rating":2.7,"distinct_type":"Bottom","item_type":"Target","rt":686,"stimulus":"Stimuli_Rocks480/S_Shale_01.png","response":"a","trial_type":"image-keyboard-response","trial_index":201,"plugin_version":"2.1.0","time_elapsed":273314,"subject_id":"91370","group":"Group1","condition":"1_Rep","full_date":"2026-03-06T14:17:04.765Z","date":"2026-03-06","time":"14:17:04","cor_ans":false},{"trial_type":"html-keyboard-response","rt":null,"stimulus":"<p style=\"color: red; font-size: 50px; font-weight: bold;\">Incorrect</p>","response":null,"trial_index":202,"plugin_version":"2.1.0","time_elapsed":273816,"subject_id":"91370","group":"Group1","condition":"1_Rep","full_date":"2026-03-06T14:17:04.765Z","date":"2026-03-06","time":"14:17:04"},{"correct_response":"l","task":"test_phase","broad_category":"M","image_png":"M_Phyllite_10.png","image_id":266,"category_name":"Phyllite","category":17,"distinct_rating":2.6,"distinct_type":"Bottom","item_type":"Target","rt":1070,"stimulus":"Stimuli_Rocks480/M_Phyllite_10.png","response":"a","trial_type":"image-keyboard-response","trial_index":203,"plugin_version":"2.1.0","time_elapsed":274886,"subject_id":"91370","group":"Group1","condition":"1_Rep","full_date":"2026-03-06T14:17:04.765Z","date":"2026-03-06","time":"14:17:04","cor_ans":false},{"trial_type":"html-keyboard-response","rt":null,"stimulus":"<p style=\"color: red; font-size: 50px; font-weight: bold;\">Incorrect</p>","response":null,"trial_index":204,"plugin_version":"2.1.0","time_elapsed":275387,"subject_id":"91370","group":"Group1","condition":"1_Rep","full_date":"2026-03-06T14:17:04.765Z","date":"2026-03-06","time":"14:17:04"},{"correct_response":"a","task":"test_phase","broad_category":"I","image_png":"I_Pegmatite_11.png","image_id":107,"category_name":"Pegmatite","category":7,"distinct_rating":7.11,"distinct_type":"Top","item_type":"Foil","rt":934,"stimulus":"Stimuli_Rocks480/I_Pegmatite_11.png","response":"a","trial_type":"image-keyboard-response","trial_index":205,"plugin_version":"2.1.0","time_elapsed":276323,"subject_id":"91370","group":"Group1","condition":"1_Rep","full_date":"2026-03-06T14:17:04.765Z","date":"2026-03-06","time":"14:17:04","cor_ans":true},{"trial_type":"html-keyboard-response","rt":null,"stimulus":"<p style=\"color: green; font-size: 50px; font-weight: bold;\">Correct</p>","response":null,"trial_index":206,"plugin_version":"2.1.0","time_elapsed":276824,"subject_id":"91370","group":"Group1","condition":"1_Rep","full_date":"2026-03-06T14:17:04.765Z","date":"2026-03-06","time":"14:17:04"},{"correct_response":"a","task":"test_phase","broad_category":"M","image_png":"M_Phyllite_02.png","image_id":258,"category_name":"Phyllite","category":17,"distinct_rating":2.89,"distinct_type":"Bottom","item_type":"Foil","rt":621,"stimulus":"Stimuli_Rocks480/M_Phyllite_02.png","response":"a","trial_type":"image-keyboard-response","trial_index":207,"plugin_version":"2.1.0","time_elapsed":277446,"subject_id":"91370","group":"Group1","condition":"1_Rep","full_date":"2026-03-06T14:17:04.765Z","date":"2026-03-06","time":"14:17:04","cor_ans":true},{"trial_type":"html-keyboard-response","rt":null,"stimulus":"<p style=\"color: green; font-size: 50px; font-weight: bold;\">Correct</p>","response":null,"trial_index":208,"plugin_version":"2.1.0","time_elapsed":277948,"subject_id":"91370","group":"Group1","condition":"1_Rep","full_date":"2026-03-06T14:17:04.765Z","date":"2026-03-06","time":"14:17:04"},{"correct_response":"l","task":"test_phase","broad_category":"I","image_png":"I_Basalt_01.png","image_id":17,"category_name":"Basalt","category":2,"distinct_rating":1.92,"distinct_type":"Bottom","item_type":"Target","rt":637,"stimulus":"Stimuli_Rocks480/I_Basalt_01.png","response":"a","trial_type":"image-keyboard-response","trial_index":209,"plugin_version":"2.1.0","time_elapsed":278586,"subject_id":"91370","group":"Group1","condition":"1_Rep","full_date":"2026-03-06T14:17:04.765Z","date":"2026-03-06","time":"14:17:04","cor_ans":false},{"trial_type":"html-keyboard-response","rt":null,"stimulus":"<p style=\"color: red; font-size: 50px; font-weight: bold;\">Incorrect</p>","response":null,"trial_index":210,"plugin_version":"2.1.0","time_elapsed":279087,"subject_id":"91370","group":"Group1","condition":"1_Rep","full_date":"2026-03-06T14:17:04.765Z","date":"2026-03-06","time":"14:17:04"},{"correct_response":"a","task":"test_phase","broad_category":"I","image_png":"I_Gabbro_14.png","image_id":62,"category_name":"Gabbro","category":4,"distinct_rating":2.95,"distinct_type":"Bottom","item_type":"Foil","rt":510,"stimulus":"Stimuli_Rocks480/I_Gabbro_14.png","response":"l","trial_type":"image-keyboard-response","trial_index":211,"plugin_version":"2.1.0","time_elapsed":279598,"subject_id":"91370","group":"Group1","condition":"1_Rep","full_date":"2026-03-06T14:17:04.765Z","date":"2026-03-06","time":"14:17:04","cor_ans":false},{"trial_type":"html-keyboard-response","rt":null,"stimulus":"<p style=\"color: red; font-size: 50px; font-weight: bold;\">Incorrect</p>","response":null,"trial_index":212,"plugin_version":"2.1.0","time_elapsed":280100,"subject_id":"91370","group":"Group1","condition":"1_Rep","full_date":"2026-03-06T14:17:04.765Z","date":"2026-03-06","time":"14:17:04"},{"correct_response":"l","task":"test_phase","broad_category":"S","image_png":"S_Chert_10.png","image_id":362,"category_name":"Chert","category":23,"distinct_rating":7.17,"distinct_type":"Top","item_type":"Target","rt":1041,"stimulus":"Stimuli_Rocks480/S_Chert_10.png","response":"l","trial_type":"image-keyboard-response","trial_index":213,"plugin_version":"2.1.0","time_elapsed":281142,"subject_id":"91370","group":"Group1","condition":"1_Rep","full_date":"2026-03-06T14:17:04.765Z","date":"2026-03-06","time":"14:17:04","cor_ans":true},{"trial_type":"html-keyboard-response","rt":null,"stimulus":"<p style=\"color: green; font-size: 50px; font-weight: bold;\">Correct</p>","response":null,"trial_index":214,"plugin_version":"2.1.0","time_elapsed":281644,"subject_id":"91370","group":"Group1","condition":"1_Rep","full_date":"2026-03-06T14:17:04.765Z","date":"2026-03-06","time":"14:17:04"},{"correct_response":"a","task":"test_phase","broad_category":"S","image_png":"S_Conglomerate_14.png","image_id":382,"category_name":"Conglomerate","category":24,"distinct_rating":6.86,"distinct_type":"Top","item_type":"Foil","rt":741,"stimulus":"Stimuli_Rocks480/S_Conglomerate_14.png","response":"a","trial_type":"image-keyboard-response","trial_index":215,"plugin_version":"2.1.0","time_elapsed":282386,"subject_id":"91370","group":"Group1","condition":"1_Rep","full_date":"2026-03-06T14:17:04.765Z","date":"2026-03-06","time":"14:17:04","cor_ans":true},{"trial_type":"html-keyboard-response","rt":null,"stimulus":"<p style=\"color: green; font-size: 50px; font-weight: bold;\">Correct</p>","response":null,"trial_index":216,"plugin_version":"2.1.0","time_elapsed":282888,"subject_id":"91370","group":"Group1","condition":"1_Rep","full_date":"2026-03-06T14:17:04.765Z","date":"2026-03-06","time":"14:17:04"},{"correct_response":"l","task":"test_phase","broad_category":"I","image_png":"I_Rhyolite_16.png","image_id":160,"category_name":"Rhyolite","category":10,"distinct_rating":2.19,"distinct_type":"Bottom","item_type":"Target","rt":605,"stimulus":"Stimuli_Rocks480/I_Rhyolite_16.png","response":"l","trial_type":"image-keyboard-response","trial_index":217,"plugin_version":"2.1.0","time_elapsed":283494,"subject_id":"91370","group":"Group1","condition":"1_Rep","full_date":"2026-03-06T14:17:04.765Z","date":"2026-03-06","time":"14:17:04","cor_ans":true},{"trial_type":"html-keyboard-response","rt":null,"stimulus":"<p style=\"color: green; font-size: 50px; font-weight: bold;\">Correct</p>","response":null,"trial_index":218,"plugin_version":"2.1.0","time_elapsed":283995,"subject_id":"91370","group":"Group1","condition":"1_Rep","full_date":"2026-03-06T14:17:04.765Z","date":"2026-03-06","time":"14:17:04"},{"correct_response":"l","task":"test_phase","broad_category":"I","image_png":"I_Gabbro_16.png","image_id":64,"category_name":"Gabbro","category":4,"distinct_rating":2.52,"distinct_type":"Bottom","item_type":"Target","rt":958,"stimulus":"Stimuli_Rocks480/I_Gabbro_16.png","response":"a","trial_type":"image-keyboard-response","trial_index":219,"plugin_version":"2.1.0","time_elapsed":284955,"subject_id":"91370","group":"Group1","condition":"1_Rep","full_date":"2026-03-06T14:17:04.765Z","date":"2026-03-06","time":"14:17:04","cor_ans":false},{"trial_type":"html-keyboard-response","rt":null,"stimulus":"<p style=\"color: red; font-size: 50px; font-weight: bold;\">Incorrect</p>","response":null,"trial_index":220,"plugin_version":"2.1.0","time_elapsed":285456,"subject_id":"91370","group":"Group1","condition":"1_Rep","full_date":"2026-03-06T14:17:04.765Z","date":"2026-03-06","time":"14:17:04"},{"correct_response":"a","task":"test_phase","broad_category":"I","image_png":"I_Diorite_10.png","image_id":42,"category_name":"Diorite","category":3,"distinct_rating":2.84,"distinct_type":"Bottom","item_type":"Foil","rt":515,"stimulus":"Stimuli_Rocks480/I_Diorite_10.png","response":"l","trial_type":"image-keyboard-response","trial_index":221,"plugin_version":"2.1.0","time_elapsed":285971,"subject_id":"91370","group":"Group1","condition":"1_Rep","full_date":"2026-03-06T14:17:04.765Z","date":"2026-03-06","time":"14:17:04","cor_ans":false},{"trial_type":"html-keyboard-response","rt":null,"stimulus":"<p style=\"color: red; font-size: 50px; font-weight: bold;\">Incorrect</p>","response":null,"trial_index":222,"plugin_version":"2.1.0","time_elapsed":286473,"subject_id":"91370","group":"Group1","condition":"1_Rep","full_date":"2026-03-06T14:17:04.765Z","date":"2026-03-06","time":"14:17:04"},{"correct_response":"a","task":"test_phase","broad_category":"I","image_png":"I_Andesite_04.png","image_id":4,"category_name":"Andesite","category":1,"distinct_rating":3.18,"distinct_type":"Bottom","item_type":"Foil","rt":428,"stimulus":"Stimuli_Rocks480/I_Andesite_04.png","response":"a","trial_type":"image-keyboard-response","trial_index":223,"plugin_version":"2.1.0","time_elapsed":286902,"subject_id":"91370","group":"Group1","condition":"1_Rep","full_date":"2026-03-06T14:17:04.765Z","date":"2026-03-06","time":"14:17:04","cor_ans":true},{"trial_type":"html-keyboard-response","rt":null,"stimulus":"<p style=\"color: green; font-size: 50px; font-weight: bold;\">Correct</p>","response":null,"trial_index":224,"plugin_version":"2.1.0","time_elapsed":287403,"subject_id":"91370","group":"Group1","condition":"1_Rep","full_date":"2026-03-06T14:17:04.765Z","date":"2026-03-06","time":"14:17:04"},{"correct_response":"a","task":"test_phase","broad_category":"S","image_png":"S_Sandstone_11.png","image_id":459,"category_