[{"width":1440,"height":900,"webaudio":true,"browser":"edge-chromium","browser_version":"144.0.0","mobile":false,"os":"Mac OS","fullscreen":true,"vsync_rate":60.33,"webcam":true,"microphone":true,"trial_type":"browser-check","trial_index":0,"plugin_version":"2.1.0","time_elapsed":1001,"subject_id":"92781","group":"Group1","condition":"3_Rep","full_date":"2026-02-24T19:53:21.309Z","date":"2026-02-24","time":"19:53:21"},{"success":true,"timeout":false,"failed_images":[],"failed_audio":[],"failed_video":[],"trial_type":"preload","trial_index":1,"plugin_version":"2.1.0","time_elapsed":7721,"subject_id":"92781","group":"Group1","condition":"3_Rep","full_date":"2026-02-24T19:53:21.309Z","date":"2026-02-24","time":"19:53:21"},{"rt":219878,"url":"SONA_consent_memorability.html","trial_type":"external-html","trial_index":2,"plugin_version":"2.1.0","time_elapsed":227647,"subject_id":"92781","group":"Group1","condition":"3_Rep","full_date":"2026-02-24T19:53:21.309Z","date":"2026-02-24","time":"19:53:21"},{"success":true,"rt":2649,"trial_type":"fullscreen","trial_index":3,"plugin_version":"2.1.0","time_elapsed":231299,"subject_id":"92781","group":"Group1","condition":"3_Rep","full_date":"2026-02-24T19:53:21.309Z","date":"2026-02-24","time":"19:53:21"},{"rt":20064,"stimulus":"<div style=\"max-width: 760px; margin: auto; font-size: 20px; line-height: 1.5;\">\n      <h1 style=\"text-align:center; font-size: 30px;\">Instructions</h1>\n      <p>\n        Welcome to the study on <b>visual memory</b>. This experiment consists of <b>two phases</b>: \n        a <b>study phase</b> and a <b>test phase</b>.\n      </p>\n      <p>\n        In the study phase, you will see a series of rock images along with their category labels.\n        The images will appear one at a time.\n        <b>Your task</b> is to learn the categories to which the rock images belong \n        and to remember each image as accurately as possible.\n      </p> \n      <p>\n        Note that we will repeat the study phase <b>3 times</b>, \n             so you will have multiple opportunities to see and remember each image.\n      </p>\n      <p>\n        After the study phase, <b>your memory will be tested</b>. \n        Additional instructions for the test phase will be provided at that time.\n      </p>\n      <p>\n        If your computer has multiple <b>language settings</b> (e.g., English and another language),\n        please make sure it is set to English before starting.\n      </p>\n      <p>\n        You can track your progress using the <b>completion bar</b> at the top of the screen. \n        Please note that the bar will refresh when the test phase begins \n        to give you an accurate sense of your progress in both phases.\n      </p> \n      <p>\n        Press the button below when you are ready to begin.\n      </p>\n    </div>","response":0,"trial_type":"html-button-response","trial_index":4,"plugin_version":"2.1.0","time_elapsed":251364,"subject_id":"92781","group":"Group1","condition":"3_Rep","full_date":"2026-02-24T19:53:21.309Z","date":"2026-02-24","time":"19:53:21"},{"rt":null,"stimulus":"<p style=\"font-size: 50px; margin: 0; text-align: center;\">+</p>","response":null,"trial_type":"html-keyboard-response","trial_index":5,"plugin_version":"2.1.0","time_elapsed":252366,"subject_id":"92781","group":"Group1","condition":"3_Rep","full_date":"2026-02-24T19:53:21.309Z","date":"2026-02-24","time":"19:53:21"},{"task":"memory_phase","broad_category":"I","image_png":"I_Pegmatite_16.png","image_id":112,"category_name":"Pegmatite","category":7,"distinct_rating":7.03,"distinct_type":"Top","rt":null,"stimulus":"Stimuli_Rocks480/I_Pegmatite_16.png","response":null,"trial_type":"image-keyboard-response","trial_index":6,"plugin_version":"2.1.0","time_elapsed":254870,"subject_id":"92781","group":"Group1","condition":"3_Rep","full_date":"2026-02-24T19:53:21.309Z","date":"2026-02-24","time":"19:53:21"},{"rt":null,"stimulus":"<p style=\"font-size: 50px; margin: 0; text-align: center;\">+</p>","response":null,"trial_type":"html-keyboard-response","trial_index":7,"plugin_version":"2.1.0","time_elapsed":255872,"subject_id":"92781","group":"Group1","condition":"3_Rep","full_date":"2026-02-24T19:53:21.309Z","date":"2026-02-24","time":"19:53:21"},{"task":"memory_phase","broad_category":"M","image_png":"M_Slate_11.png","image_id":315,"category_name":"Slate","category":20,"distinct_rating":2.75,"distinct_type":"Bottom","rt":null,"stimulus":"Stimuli_Rocks480/M_Slate_11.png","response":null,"trial_type":"image-keyboard-response","trial_index":8,"plugin_version":"2.1.0","time_elapsed":258374,"subject_id":"92781","group":"Group1","condition":"3_Rep","full_date":"2026-02-24T19:53:21.309Z","date":"2026-02-24","time":"19:53:21"},{"rt":null,"stimulus":"<p style=\"font-size: 50px; margin: 0; text-align: center;\">+</p>","response":null,"trial_type":"html-keyboard-response","trial_index":9,"plugin_version":"2.1.0","time_elapsed":259376,"subject_id":"92781","group":"Group1","condition":"3_Rep","full_date":"2026-02-24T19:53:21.309Z","date":"2026-02-24","time":"19:53:21"},{"task":"memory_phase","broad_category":"S","image_png":"S_Dolomite_13.png","image_id":397,"category_name":"Dolomite","category":25,"distinct_rating":1.77,"distinct_type":"Bottom","rt":null,"stimulus":"Stimuli_Rocks480/S_Dolomite_13.png","response":null,"trial_type":"image-keyboard-response","trial_index":10,"plugin_version":"2.1.0","time_elapsed":261878,"subject_id":"92781","group":"Group1","condition":"3_Rep","full_date":"2026-02-24T19:53:21.309Z","date":"2026-02-24","time":"19:53:21"},{"rt":null,"stimulus":"<p style=\"font-size: 50px; margin: 0; text-align: center;\">+</p>","response":null,"trial_type":"html-keyboard-response","trial_index":11,"plugin_version":"2.1.0","time_elapsed":262879,"subject_id":"92781","group":"Group1","condition":"3_Rep","full_date":"2026-02-24T19:53:21.309Z","date":"2026-02-24","time":"19:53:21"},{"task":"memory_phase","broad_category":"M","image_png":"M_Phyllite_07.png","image_id":263,"category_name":"Phyllite","category":17,"distinct_rating":2.59,"distinct_type":"Bottom","rt":null,"stimulus":"Stimuli_Rocks480/M_Phyllite_07.png","response":null,"trial_type":"image-keyboard-response","trial_index":12,"plugin_version":"2.1.0","time_elapsed":265381,"subject_id":"92781","group":"Group1","condition":"3_Rep","full_date":"2026-02-24T19:53:21.309Z","date":"2026-02-24","time":"19:53:21"},{"rt":null,"stimulus":"<p style=\"font-size: 50px; margin: 0; text-align: center;\">+</p>","response":null,"trial_type":"html-keyboard-response","trial_index":13,"plugin_version":"2.1.0","time_elapsed":266384,"subject_id":"92781","group":"Group1","condition":"3_Rep","full_date":"2026-02-24T19:53:21.309Z","date":"2026-02-24","time":"19:53:21"},{"task":"memory_phase","broad_category":"S","image_png":"S_Chert_10.png","image_id":362,"category_name":"Chert","category":23,"distinct_rating":7.17,"distinct_type":"Top","rt":null,"stimulus":"Stimuli_Rocks480/S_Chert_10.png","response":null,"trial_type":"image-keyboard-response","trial_index":14,"plugin_version":"2.1.0","time_elapsed":268886,"subject_id":"92781","group":"Group1","condition":"3_Rep","full_date":"2026-02-24T19:53:21.309Z","date":"2026-02-24","time":"19:53:21"},{"rt":null,"stimulus":"<p style=\"font-size: 50px; margin: 0; text-align: center;\">+</p>","response":null,"trial_type":"html-keyboard-response","trial_index":15,"plugin_version":"2.1.0","time_elapsed":269887,"subject_id":"92781","group":"Group1","condition":"3_Rep","full_date":"2026-02-24T19:53:21.309Z","date":"2026-02-24","time":"19:53:21"},{"task":"memory_phase","broad_category":"M","image_png":"M_Quartzite_08.png","image_id":280,"category_name":"Quartzite","category":18,"distinct_rating":2.15,"distinct_type":"Bottom","rt":null,"stimulus":"Stimuli_Rocks480/M_Quartzite_08.png","response":null,"trial_type":"image-keyboard-response","trial_index":16,"plugin_version":"2.1.0","time_elapsed":272390,"subject_id":"92781","group":"Group1","condition":"3_Rep","full_date":"2026-02-24T19:53:21.309Z","date":"2026-02-24","time":"19:53:21"},{"rt":null,"stimulus":"<p style=\"font-size: 50px; margin: 0; text-align: center;\">+</p>","response":null,"trial_type":"html-keyboard-response","trial_index":17,"plugin_version":"2.1.0","time_elapsed":273391,"subject_id":"92781","group":"Group1","condition":"3_Rep","full_date":"2026-02-24T19:53:21.309Z","date":"2026-02-24","time":"19:53:21"},{"task":"memory_phase","broad_category":"I","image_png":"I_Rhyolite_11.png","image_id":155,"category_name":"Rhyolite","category":10,"distinct_rating":1.73,"distinct_type":"Bottom","rt":null,"stimulus":"Stimuli_Rocks480/I_Rhyolite_11.png","response":null,"trial_type":"image-keyboard-response","trial_index":18,"plugin_version":"2.1.0","time_elapsed":275894,"subject_id":"92781","group":"Group1","condition":"3_Rep","full_date":"2026-02-24T19:53:21.309Z","date":"2026-02-24","time":"19:53:21"},{"rt":null,"stimulus":"<p style=\"font-size: 50px; margin: 0; text-align: center;\">+</p>","response":null,"trial_type":"html-keyboard-response","trial_index":19,"plugin_version":"2.1.0","time_elapsed":276896,"subject_id":"92781","group":"Group1","condition":"3_Rep","full_date":"2026-02-24T19:53:21.309Z","date":"2026-02-24","time":"19:53:21"},{"task":"memory_phase","broad_category":"I","image_png":"I_Pumice_12.png","image_id":140,"category_name":"Pumice","category":9,"distinct_rating":2.97,"distinct_type":"Bottom","rt":null,"stimulus":"Stimuli_Rocks480/I_Pumice_12.png","response":null,"trial_type":"image-keyboard-response","trial_index":20,"plugin_version":"2.1.0","time_elapsed":279399,"subject_id":"92781","group":"Group1","condition":"3_Rep","full_date":"2026-02-24T19:53:21.309Z","date":"2026-02-24","time":"19:53:21"},{"rt":null,"stimulus":"<p style=\"font-size: 50px; margin: 0; text-align: center;\">+</p>","response":null,"trial_type":"html-keyboard-response","trial_index":21,"plugin_version":"2.1.0","time_elapsed":280400,"subject_id":"92781","group":"Group1","condition":"3_Rep","full_date":"2026-02-24T19:53:21.309Z","date":"2026-02-24","time":"19:53:21"},{"task":"memory_phase","broad_category":"M","image_png":"M_Gneiss_06.png","image_id":198,"category_name":"Gneiss","category":13,"distinct_rating":2.65,"distinct_type":"Bottom","rt":null,"stimulus":"Stimuli_Rocks480/M_Gneiss_06.png","response":null,"trial_type":"image-keyboard-response","trial_index":22,"plugin_version":"2.1.0","time_elapsed":282903,"subject_id":"92781","group":"Group1","condition":"3_Rep","full_date":"2026-02-24T19:53:21.309Z","date":"2026-02-24","time":"19:53:21"},{"rt":null,"stimulus":"<p style=\"font-size: 50px; margin: 0; text-align: center;\">+</p>","response":null,"trial_type":"html-keyboard-response","trial_index":23,"plugin_version":"2.1.0","time_elapsed":283905,"subject_id":"92781","group":"Group1","condition":"3_Rep","full_date":"2026-02-24T19:53:21.309Z","date":"2026-02-24","time":"19:53:21"},{"task":"memory_phase","broad_category":"I","image_png":"I_Pegmatite_10.png","image_id":106,"category_name":"Pegmatite","category":7,"distinct_rating":7.66,"distinct_type":"Top","rt":null,"stimulus":"Stimuli_Rocks480/I_Pegmatite_10.png","response":null,"trial_type":"image-keyboard-response","trial_index":24,"plugin_version":"2.1.0","time_elapsed":286408,"subject_id":"92781","group":"Group1","condition":"3_Rep","full_date":"2026-02-24T19:53:21.309Z","date":"2026-02-24","time":"19:53:21"},{"rt":null,"stimulus":"<p style=\"font-size: 50px; margin: 0; text-align: center;\">+</p>","response":null,"trial_type":"html-keyboard-response","trial_index":25,"plugin_version":"2.1.0","time_elapsed":287410,"subject_id":"92781","group":"Group1","condition":"3_Rep","full_date":"2026-02-24T19:53:21.309Z","date":"2026-02-24","time":"19:53:21"},{"task":"memory_phase","broad_category":"S","image_png":"S_Sandstone_15.png","image_id":463,"category_name":"Sandstone","category":29,"distinct_rating":2,"distinct_type":"Bottom","rt":null,"stimulus":"Stimuli_Rocks480/S_Sandstone_15.png","response":null,"trial_type":"image-keyboard-response","trial_index":26,"plugin_version":"2.1.0","time_elapsed":289913,"subject_id":"92781","group":"Group1","condition":"3_Rep","full_date":"2026-02-24T19:53:21.309Z","date":"2026-02-24","time":"19:53:21"},{"rt":null,"stimulus":"<p style=\"font-size: 50px; margin: 0; text-align: center;\">+</p>","response":null,"trial_type":"html-keyboard-response","trial_index":27,"plugin_version":"2.1.0","time_elapsed":290915,"subject_id":"92781","group":"Group1","condition":"3_Rep","full_date":"2026-02-24T19:53:21.309Z","date":"2026-02-24","time":"19:53:21"},{"task":"memory_phase","broad_category":"M","image_png":"M_Slate_03.png","image_id":307,"category_name":"Slate","category":20,"distinct_rating":1.87,"distinct_type":"Bottom","rt":null,"stimulus":"Stimuli_Rocks480/M_Slate_03.png","response":null,"trial_type":"image-keyboard-response","trial_index":28,"plugin_version":"2.1.0","time_elapsed":293417,"subject_id":"92781","group":"Group1","condition":"3_Rep","full_date":"2026-02-24T19:53:21.309Z","date":"2026-02-24","time":"19:53:21"},{"rt":null,"stimulus":"<p style=\"font-size: 50px; margin: 0; text-align: center;\">+</p>","response":null,"trial_type":"html-keyboard-response","trial_index":29,"plugin_version":"2.1.0","time_elapsed":294419,"subject_id":"92781","group":"Group1","condition":"3_Rep","full_date":"2026-02-24T19:53:21.309Z","date":"2026-02-24","time":"19:53:21"},{"task":"memory_phase","broad_category":"I","image_png":"I_Gabbro_08.png","image_id":56,"category_name":"Gabbro","category":4,"distinct_rating":3.02,"distinct_type":"Bottom","rt":null,"stimulus":"Stimuli_Rocks480/I_Gabbro_08.png","response":null,"trial_type":"image-keyboard-response","trial_index":30,"plugin_version":"2.1.0","time_elapsed":296921,"subject_id":"92781","group":"Group1","condition":"3_Rep","full_date":"2026-02-24T19:53:21.309Z","date":"2026-02-24","time":"19:53:21"},{"rt":null,"stimulus":"<p style=\"font-size: 50px; margin: 0; text-align: center;\">+</p>","response":null,"trial_type":"html-keyboard-response","trial_index":31,"plugin_version":"2.1.0","time_elapsed":297923,"subject_id":"92781","group":"Group1","condition":"3_Rep","full_date":"2026-02-24T19:53:21.309Z","date":"2026-02-24","time":"19:53:21"},{"task":"memory_phase","broad_category":"I","image_png":"I_Rhyolite_16.png","image_id":160,"category_name":"Rhyolite","category":10,"distinct_rating":2.19,"distinct_type":"Bottom","rt":null,"stimulus":"Stimuli_Rocks480/I_Rhyolite_16.png","response":null,"trial_type":"image-keyboard-response","trial_index":32,"plugin_version":"2.1.0","time_elapsed":300425,"subject_id":"92781","group":"Group1","condition":"3_Rep","full_date":"2026-02-24T19:53:21.309Z","date":"2026-02-24","time":"19:53:21"},{"rt":null,"stimulus":"<p style=\"font-size: 50px; margin: 0; text-align: center;\">+</p>","response":null,"trial_type":"html-keyboard-response","trial_index":33,"plugin_version":"2.1.0","time_elapsed":301427,"subject_id":"92781","group":"Group1","condition":"3_Rep","full_date":"2026-02-24T19:53:21.309Z","date":"2026-02-24","time":"19:53:21"},{"task":"memory_phase","broad_category":"I","image_png":"I_Andesite_10.png","image_id":10,"category_name":"Andesite","category":1,"distinct_rating":3.15,"distinct_type":"Bottom","rt":null,"stimulus":"Stimuli_Rocks480/I_Andesite_10.png","response":null,"trial_type":"image-keyboard-response","trial_index":34,"plugin_version":"2.1.0","time_elapsed":303929,"subject_id":"92781","group":"Group1","condition":"3_Rep","full_date":"2026-02-24T19:53:21.309Z","date":"2026-02-24","time":"19:53:21"},{"rt":null,"stimulus":"<p style=\"font-size: 50px; margin: 0; text-align: center;\">+</p>","response":null,"trial_type":"html-keyboard-response","trial_index":35,"plugin_version":"2.1.0","time_elapsed":304931,"subject_id":"92781","group":"Group1","condition":"3_Rep","full_date":"2026-02-24T19:53:21.309Z","date":"2026-02-24","time":"19:53:21"},{"task":"memory_phase","broad_category":"S","image_png":"S_Breccia_11.png","image_id":347,"category_name":"Breccia","category":22,"distinct_rating":6.7,"distinct_type":"Top","rt":null,"stimulus":"Stimuli_Rocks480/S_Breccia_11.png","response":null,"trial_type":"image-keyboard-response","trial_index":36,"plugin_version":"2.1.0","time_elapsed":307433,"subject_id":"92781","group":"Group1","condition":"3_Rep","full_date":"2026-02-24T19:53:21.309Z","date":"2026-02-24","time":"19:53:21"},{"rt":null,"stimulus":"<p style=\"font-size: 50px; margin: 0; text-align: center;\">+</p>","response":null,"trial_type":"html-keyboard-response","trial_index":37,"plugin_version":"2.1.0","time_elapsed":308434,"subject_id":"92781","group":"Group1","condition":"3_Rep","full_date":"2026-02-24T19:53:21.309Z","date":"2026-02-24","time":"19:53:21"},{"task":"memory_phase","broad_category":"S","image_png":"S_Rock Gypsum_04.png","image_id":420,"category_name":"Rock Gypsum","category":27,"distinct_rating":7.61,"distinct_type":"Top","rt":null,"stimulus":"Stimuli_Rocks480/S_Rock Gypsum_04.png","response":null,"trial_type":"image-keyboard-response","trial_index":38,"plugin_version":"2.1.0","time_elapsed":310936,"subject_id":"92781","group":"Group1","condition":"3_Rep","full_date":"2026-02-24T19:53:21.309Z","date":"2026-02-24","time":"19:53:21"},{"rt":null,"stimulus":"<p style=\"font-size: 50px; margin: 0; text-align: center;\">+</p>","response":null,"trial_type":"html-keyboard-response","trial_index":39,"plugin_version":"2.1.0","time_elapsed":311939,"subject_id":"92781","group":"Group1","condition":"3_Rep","full_date":"2026-02-24T19:53:21.309Z","date":"2026-02-24","time":"19:53:21"},{"task":"memory_phase","broad_category":"S","image_png":"S_Shale_08.png","image_id":472,"category_name":"Shale","category":30,"distinct_rating":2.55,"distinct_type":"Bottom","rt":null,"stimulus":"Stimuli_Rocks480/S_Shale_08.png","response":null,"trial_type":"image-keyboard-response","trial_index":40,"plugin_version":"2.1.0","time_elapsed":314440,"subject_id":"92781","group":"Group1","condition":"3_Rep","full_date":"2026-02-24T19:53:21.309Z","date":"2026-02-24","time":"19:53:21"},{"rt":null,"stimulus":"<p style=\"font-size: 50px; margin: 0; text-align: center;\">+</p>","response":null,"trial_type":"html-keyboard-response","trial_index":41,"plugin_version":"2.1.0","time_elapsed":315442,"subject_id":"92781","group":"Group1","condition":"3_Rep","full_date":"2026-02-24T19:53:21.309Z","date":"2026-02-24","time":"19:53:21"},{"task":"memory_phase","broad_category":"I","image_png":"I_Andesite_06.png","image_id":6,"category_name":"Andesite","category":1,"distinct_rating":3.17,"distinct_type":"Bottom","rt":null,"stimulus":"Stimuli_Rocks480/I_Andesite_06.png","response":null,"trial_type":"image-keyboard-response","trial_index":42,"plugin_version":"2.1.0","time_elapsed":317944,"subject_id":"92781","group":"Group1","condition":"3_Rep","full_date":"2026-02-24T19:53:21.309Z","date":"2026-02-24","time":"19:53:21"},{"rt":null,"stimulus":"<p style=\"font-size: 50px; margin: 0; text-align: center;\">+</p>","response":null,"trial_type":"html-keyboard-response","trial_index":43,"plugin_version":"2.1.0","time_elapsed":318946,"subject_id":"92781","group":"Group1","condition":"3_Rep","full_date":"2026-02-24T19:53:21.309Z","date":"2026-02-24","time":"19:53:21"},{"task":"memory_phase","broad_category":"I","image_png":"I_Diorite_03.png","image_id":35,"category_name":"Diorite","category":3,"distinct_rating":3.14,"distinct_type":"Bottom","rt":null,"stimulus":"Stimuli_Rocks480/I_Diorite_03.png","response":null,"trial_type":"image-keyboard-response","trial_index":44,"plugin_version":"2.1.0","time_elapsed":321448,"subject_id":"92781","group":"Group1","condition":"3_Rep","full_date":"2026-02-24T19:53:21.309Z","date":"2026-02-24","time":"19:53:21"},{"rt":null,"stimulus":"<p style=\"font-size: 50px; margin: 0; text-align: center;\">+</p>","response":null,"trial_type":"html-keyboard-response","trial_index":45,"plugin_version":"2.1.0","time_elapsed":322450,"subject_id":"92781","group":"Group1","condition":"3_Rep","full_date":"2026-02-24T19:53:21.309Z","date":"2026-02-24","time":"19:53:21"},{"task":"memory_phase","broad_category":"M","image_png":"M_Marble_16.png","image_id":240,"category_name":"Marble","category":15,"distinct_rating":2.57,"distinct_type":"Bottom","rt":null,"stimulus":"Stimuli_Rocks480/M_Marble_16.png","response":null,"trial_type":"image-keyboard-response","trial_index":46,"plugin_version":"2.1.0","time_elapsed":324952,"subject_id":"92781","group":"Group1","condition":"3_Rep","full_date":"2026-02-24T19:53:21.309Z","date":"2026-02-24","time":"19:53:21"},{"rt":null,"stimulus":"<p style=\"font-size: 50px; margin: 0; text-align: center;\">+</p>","response":null,"trial_type":"html-keyboard-response","trial_index":47,"plugin_version":"2.1.0","time_elapsed":325954,"subject_id":"92781","group":"Group1","condition":"3_Rep","full_date":"2026-02-24T19:53:21.309Z","date":"2026-02-24","time":"19:53:21"},{"task":"memory_phase","broad_category":"I","image_png":"I_Obsidian_05.png","image_id":85,"category_name":"Obsidian","category":6,"distinct_rating":7.32,"distinct_type":"Top","rt":null,"stimulus":"Stimuli_Rocks480/I_Obsidian_05.png","response":null,"trial_type":"image-keyboard-response","trial_index":48,"plugin_version":"2.1.0","time_elapsed":328455,"subject_id":"92781","group":"Group1","condition":"3_Rep","full_date":"2026-02-24T19:53:21.309Z","date":"2026-02-24","time":"19:53:21"},{"rt":null,"stimulus":"<p style=\"font-size: 50px; margin: 0; text-align: center;\">+</p>","response":null,"trial_type":"html-keyboard-response","trial_index":49,"plugin_version":"2.1.0","time_elapsed":329458,"subject_id":"92781","group":"Group1","condition":"3_Rep","full_date":"2026-02-24T19:53:21.309Z","date":"2026-02-24","time":"19:53:21"},{"task":"memory_phase","broad_category":"I","image_png":"I_Rhyolite_14.png","image_id":158,"category_name":"Rhyolite","category":10,"distinct_rating":2.59,"distinct_type":"Bottom","rt":null,"stimulus":"Stimuli_Rocks480/I_Rhyolite_14.png","response":null,"trial_type":"image-keyboard-response","trial_index":50,"plugin_version":"2.1.0","time_elapsed":331960,"subject_id":"92781","group":"Group1","condition":"3_Rep","full_date":"2026-02-24T19:53:21.309Z","date":"2026-02-24","time":"19:53:21"},{"rt":null,"stimulus":"<p style=\"font-size: 50px; margin: 0; text-align: center;\">+</p>","response":null,"trial_type":"html-keyboard-response","trial_index":51,"plugin_version":"2.1.0","time_elapsed":332962,"subject_id":"92781","group":"Group1","condition":"3_Rep","full_date":"2026-02-24T19:53:21.309Z","date":"2026-02-24","time":"19:53:21"},{"task":"memory_phase","broad_category":"I","image_png":"I_Pumice_11.png","image_id":139,"category_name":"Pumice","category":9,"distinct_rating":1.74,"distinct_type":"Bottom","rt":null,"stimulus":"Stimuli_Rocks480/I_Pumice_11.png","response":null,"trial_type":"image-keyboard-response","trial_index":52,"plugin_version":"2.1.0","time_elapsed":335464,"subject_id":"92781","group":"Group1","condition":"3_Rep","full_date":"2026-02-24T19:53:21.309Z","date":"2026-02-24","time":"19:53:21"},{"rt":null,"stimulus":"<p style=\"font-size: 50px; margin: 0; text-align: center;\">+</p>","response":null,"trial_type":"html-keyboard-response","trial_index":53,"plugin_version":"2.1.0","time_elapsed":336466,"subject_id":"92781","group":"Group1","condition":"3_Rep","full_date":"2026-02-24T19:53:21.309Z","date":"2026-02-24","time":"19:53:21"},{"task":"memory_phase","broad_category":"I","image_png":"I_Basalt_01.png","image_id":17,"category_name":"Basalt","category":2,"distinct_rating":1.92,"distinct_type":"Bottom","rt":null,"stimulus":"Stimuli_Rocks480/I_Basalt_01.png","response":null,"trial_type":"image-keyboard-response","trial_index":54,"plugin_version":"2.1.0","time_elapsed":338968,"subject_id":"92781","group":"Group1","condition":"3_Rep","full_date":"2026-02-24T19:53:21.309Z","date":"2026-02-24","time":"19:53:21"},{"rt":79572,"stimulus":"<p style=\"max-width: 760px; margin: auto; font-size: 35px; line-height: 1.5;\">\n                Press SPACE to continue study phase\n              </p>","response":" ","trial_type":"html-keyboard-response","trial_index":55,"plugin_version":"2.1.0","time_elapsed":418539,"subject_id":"92781","group":"Group1","condition":"3_Rep","full_date":"2026-02-24T19:53:21.309Z","date":"2026-02-24","time":"19:53:21"},{"rt":null,"stimulus":"<p style=\"font-size: 50px; margin: 0; text-align: center;\">+</p>","response":null,"trial_type":"html-keyboard-response","trial_index":56,"plugin_version":"2.1.0","time_elapsed":419541,"subject_id":"92781","group":"Group1","condition":"3_Rep","full_date":"2026-02-24T19:53:21.309Z","date":"2026-02-24","time":"19:53:21"},{"task":"memory_phase","broad_category":"S","image_png":"S_Dolomite_14.png","image_id":398,"category_name":"Dolomite","category":25,"distinct_rating":1.43,"distinct_type":"Bottom","rt":null,"stimulus":"Stimuli_Rocks480/S_Dolomite_14.png","response":null,"trial_type":"image-keyboard-response","trial_index":57,"plugin_version":"2.1.0","time_elapsed":422043,"subject_id":"92781","group":"Group1","condition":"3_Rep","full_date":"2026-02-24T19:53:21.309Z","date":"2026-02-24","time":"19:53:21"},{"rt":null,"stimulus":"<p style=\"font-size: 50px; margin: 0; text-align: center;\">+</p>","response":null,"trial_type":"html-keyboard-response","trial_index":58,"plugin_version":"2.1.0","time_elapsed":423045,"subject_id":"92781","group":"Group1","condition":"3_Rep","full_date":"2026-02-24T19:53:21.309Z","date":"2026-02-24","time":"19:53:21"},{"task":"memory_phase","broad_category":"I","image_png":"I_Andesite_08.png","image_id":8,"category_name":"Andesite","category":1,"distinct_rating":1.95,"distinct_type":"Bottom","rt":null,"stimulus":"Stimuli_Rocks480/I_Andesite_08.png","response":null,"trial_type":"image-keyboard-response","trial_index":59,"plugin_version":"2.1.0","time_elapsed":425548,"subject_id":"92781","group":"Group1","condition":"3_Rep","full_date":"2026-02-24T19:53:21.309Z","date":"2026-02-24","time":"19:53:21"},{"rt":null,"stimulus":"<p style=\"font-size: 50px; margin: 0; text-align: center;\">+</p>","response":null,"trial_type":"html-keyboard-response","trial_index":60,"plugin_version":"2.1.0","time_elapsed":426550,"subject_id":"92781","group":"Group1","condition":"3_Rep","full_date":"2026-02-24T19:53:21.309Z","date":"2026-02-24","time":"19:53:21"},{"task":"memory_phase","broad_category":"S","image_png":"S_Shale_01.png","image_id":465,"category_name":"Shale","category":30,"distinct_rating":2.7,"distinct_type":"Bottom","rt":null,"stimulus":"Stimuli_Rocks480/S_Shale_01.png","response":null,"trial_type":"image-keyboard-response","trial_index":61,"plugin_version":"2.1.0","time_elapsed":429052,"subject_id":"92781","group":"Group1","condition":"3_Rep","full_date":"2026-02-24T19:53:21.309Z","date":"2026-02-24","time":"19:53:21"},{"rt":null,"stimulus":"<p style=\"font-size: 50px; margin: 0; text-align: center;\">+</p>","response":null,"trial_type":"html-keyboard-response","trial_index":62,"plugin_version":"2.1.0","time_elapsed":430054,"subject_id":"92781","group":"Group1","condition":"3_Rep","full_date":"2026-02-24T19:53:21.309Z","date":"2026-02-24","time":"19:53:21"},{"task":"memory_phase","broad_category":"S","image_png":"S_Conglomerate_05.png","image_id":373,"category_name":"Conglomerate","category":24,"distinct_rating":7.32,"distinct_type":"Top","rt":null,"stimulus":"Stimuli_Rocks480/S_Conglomerate_05.png","response":null,"trial_type":"image-keyboard-response","trial_index":63,"plugin_version":"2.1.0","time_elapsed":432559,"subject_id":"92781","group":"Group1","condition":"3_Rep","full_date":"2026-02-24T19:53:21.309Z","date":"2026-02-24","time":"19:53:21"},{"rt":null,"stimulus":"<p style=\"font-size: 50px; margin: 0; text-align: center;\">+</p>","response":null,"trial_type":"html-keyboard-response","trial_index":64,"plugin_version":"2.1.0","time_elapsed":433561,"subject_id":"92781","group":"Group1","condition":"3_Rep","full_date":"2026-02-24T19:53:21.309Z","date":"2026-02-24","time":"19:53:21"},{"task":"memory_phase","broad_category":"I","image_png":"I_Pumice_08.png","image_id":136,"category_name":"Pumice","category":9,"distinct_rating":3.1,"distinct_type":"Bottom","rt":null,"stimulus":"Stimuli_Rocks480/I_Pumice_08.png","response":null,"trial_type":"image-keyboard-response","trial_index":65,"plugin_version":"2.1.0","time_elapsed":436063,"subject_id":"92781","group":"Group1","condition":"3_Rep","full_date":"2026-02-24T19:53:21.309Z","date":"2026-02-24","time":"19:53:21"},{"rt":null,"stimulus":"<p style=\"font-size: 50px; margin: 0; text-align: center;\">+</p>","response":null,"trial_type":"html-keyboard-response","trial_index":66,"plugin_version":"2.1.0","time_elapsed":437065,"subject_id":"92781","group":"Group1","condition":"3_Rep","full_date":"2026-02-24T19:53:21.309Z","date":"2026-02-24","time":"19:53:21"},{"task":"memory_phase","broad_category":"I","image_png":"I_Basalt_02.png","image_id":18,"category_name":"Basalt","category":2,"distinct_rating":1.84,"distinct_type":"Bottom","rt":null,"stimulus":"Stimuli_Rocks480/I_Basalt_02.png","response":null,"trial_type":"image-keyboard-response","trial_index":67,"plugin_version":"2.1.0","time_elapsed":439568,"subject_id":"92781","group":"Group1","condition":"3_Rep","full_date":"2026-02-24T19:53:21.309Z","date":"2026-02-24","time":"19:53:21"},{"rt":null,"stimulus":"<p style=\"font-size: 50px; margin: 0; text-align: center;\">+</p>","response":null,"trial_type":"html-keyboard-response","trial_index":68,"plugin_version":"2.1.0","time_elapsed":440569,"subject_id":"92781","group":"Group1","condition":"3_Rep","full_date":"2026-02-24T19:53:21.309Z","date":"2026-02-24","time":"19:53:21"},{"task":"memory_phase","broad_category":"M","image_png":"M_Gneiss_13.png","image_id":205,"category_name":"Gneiss","category":13,"distinct_rating":3.26,"distinct_type":"Bottom","rt":null,"stimulus":"Stimuli_Rocks480/M_Gneiss_13.png","response":null,"trial_type":"image-keyboard-response","trial_index":69,"plugin_version":"2.1.0","time_elapsed":443072,"subject_id":"92781","group":"Group1","condition":"3_Rep","full_date":"2026-02-24T19:53:21.309Z","date":"2026-02-24","time":"19:53:21"},{"rt":null,"stimulus":"<p style=\"font-size: 50px; margin: 0; text-align: center;\">+</p>","response":null,"trial_type":"html-keyboard-response","trial_index":70,"plugin_version":"2.1.0","time_elapsed":444074,"subject_id":"92781","group":"Group1","condition":"3_Rep","full_date":"2026-02-24T19:53:21.309Z","date":"2026-02-24","time":"19:53:21"},{"task":"memory_phase","broad_category":"I","image_png":"I_Gabbro_16.png","image_id":64,"category_name":"Gabbro","category":4,"distinct_rating":2.52,"distinct_type":"Bottom","rt":null,"stimulus":"Stimuli_Rocks480/I_Gabbro_16.png","response":null,"trial_type":"image-keyboard-response","trial_index":71,"plugin_version":"2.1.0","time_elapsed":446579,"subject_id":"92781","group":"Group1","condition":"3_Rep","full_date":"2026-02-24T19:53:21.309Z","date":"2026-02-24","time":"19:53:21"},{"rt":null,"stimulus":"<p style=\"font-size: 50px; margin: 0; text-align: center;\">+</p>","response":null,"trial_type":"html-keyboard-response","trial_index":72,"plugin_version":"2.1.0","time_elapsed":447583,"subject_id":"92781","group":"Group1","condition":"3_Rep","full_date":"2026-02-24T19:53:21.309Z","date":"2026-02-24","time":"19:53:21"},{"task":"memory_phase","broad_category":"I","image_png":"I_Gabbro_11.png","image_id":59,"category_name":"Gabbro","category":4,"distinct_rating":1.99,"distinct_type":"Bottom","rt":null,"stimulus":"Stimuli_Rocks480/I_Gabbro_11.png","response":null,"trial_type":"image-keyboard-response","trial_index":73,"plugin_version":"2.1.0","time_elapsed":450088,"subject_id":"92781","group":"Group1","condition":"3_Rep","full_date":"2026-02-24T19:53:21.309Z","date":"2026-02-24","time":"19:53:21"},{"rt":null,"stimulus":"<p style=\"font-size: 50px; margin: 0; text-align: center;\">+</p>","response":null,"trial_type":"html-keyboard-response","trial_index":74,"plugin_version":"2.1.0","time_elapsed":451091,"subject_id":"92781","group":"Group1","condition":"3_Rep","full_date":"2026-02-24T19:53:21.309Z","date":"2026-02-24","time":"19:53:21"},{"task":"memory_phase","broad_category":"M","image_png":"M_Phyllite_10.png","image_id":266,"category_name":"Phyllite","category":17,"distinct_rating":2.6,"distinct_type":"Bottom","rt":null,"stimulus":"Stimuli_Rocks480/M_Phyllite_10.png","response":null,"trial_type":"image-keyboard-response","trial_index":75,"plugin_version":"2.1.0","time_elapsed":453593,"subject_id":"92781","group":"Group1","condition":"3_Rep","full_date":"2026-02-24T19:53:21.309Z","date":"2026-02-24","time":"19:53:21"},{"rt":null,"stimulus":"<p style=\"font-size: 50px; margin: 0; text-align: center;\">+</p>","response":null,"trial_type":"html-keyboard-response","trial_index":76,"plugin_version":"2.1.0","time_elapsed":454596,"subject_id":"92781","group":"Group1","condition":"3_Rep","full_date":"2026-02-24T19:53:21.309Z","date":"2026-02-24","time":"19:53:21"},{"task":"memory_phase","broad_category":"I","image_png":"I_Diorite_05.png","image_id":37,"category_name":"Diorite","category":3,"distinct_rating":3.08,"distinct_type":"Bottom","rt":null,"stimulus":"Stimuli_Rocks480/I_Diorite_05.png","response":null,"trial_type":"image-keyboard-response","trial_index":77,"plugin_version":"2.1.0","time_elapsed":457098,"subject_id":"92781","group":"Group1","condition":"3_Rep","full_date":"2026-02-24T19:53:21.309Z","date":"2026-02-24","time":"19:53:21"},{"rt":null,"stimulus":"<p style=\"font-size: 50px; margin: 0; text-align: center;\">+</p>","response":null,"trial_type":"html-keyboard-response","trial_index":78,"plugin_version":"2.1.0","time_elapsed":458099,"subject_id":"92781","group":"Group1","condition":"3_Rep","full_date":"2026-02-24T19:53:21.309Z","date":"2026-02-24","time":"19:53:21"},{"task":"memory_phase","broad_category":"M","image_png":"M_Gneiss_05.png","image_id":197,"category_name":"Gneiss","category":13,"distinct_rating":2.97,"distinct_type":"Bottom","rt":null,"stimulus":"Stimuli_Rocks480/M_Gneiss_05.png","response":null,"trial_type":"image-keyboard-response","trial_index":79,"plugin_version":"2.1.0","time_elapsed":460601,"subject_id":"92781","group":"Group1","condition":"3_Rep","full_date":"2026-02-24T19:53:21.309Z","date":"2026-02-24","time":"19:53:21"},{"rt":null,"stimulus":"<p style=\"font-size: 50px; margin: 0; text-align: center;\">+</p>","response":null,"trial_type":"html-keyboard-response","trial_index":80,"plugin_version":"2.1.0","time_elapsed":461604,"subject_id":"92781","group":"Group1","condition":"3_Rep","full_date":"2026-02-24T19:53:21.309Z","date":"2026-02-24","time":"19:53:21"},{"task":"memory_phase","broad_category":"M","image_png":"M_Marble_06.png","image_id":230,"category_name":"Marble","category":15,"distinct_rating":3.4,"distinct_type":"Bottom","rt":null,"stimulus":"Stimuli_Rocks480/M_Marble_06.png","response":null,"trial_type":"image-keyboard-response","trial_index":81,"plugin_version":"2.1.0","time_elapsed":464105,"subject_id":"92781","group":"Group1","condition":"3_Rep","full_date":"2026-02-24T19:53:21.309Z","date":"2026-02-24","time":"19:53:21"},{"rt":null,"stimulus":"<p style=\"font-size: 50px; margin: 0; text-align: center;\">+</p>","response":null,"trial_type":"html-keyboard-response","trial_index":82,"plugin_version":"2.1.0","time_elapsed":465107,"subject_id":"92781","group":"Group1","condition":"3_Rep","full_date":"2026-02-24T19:53:21.309Z","date":"2026-02-24","time":"19:53:21"},{"task":"memory_phase","broad_category":"M","image_png":"M_Marble_04.png","image_id":228,"category_name":"Marble","category":15,"distinct_rating":3.15,"distinct_type":"Bottom","rt":null,"stimulus":"Stimuli_Rocks480/M_Marble_04.png","response":null,"trial_type":"image-keyboard-response","trial_index":83,"plugin_version":"2.1.0","time_elapsed":467610,"subject_id":"92781","group":"Group1","condition":"3_Rep","full_date":"2026-02-24T19:53:21.309Z","date":"2026-02-24","time":"19:53:21"},{"rt":null,"stimulus":"<p style=\"font-size: 50px; margin: 0; text-align: center;\">+</p>","response":null,"trial_type":"html-keyboard-response","trial_index":84,"plugin_version":"2.1.0","time_elapsed":468611,"subject_id":"92781","group":"Group1","condition":"3_Rep","full_date":"2026-02-24T19:53:21.309Z","date":"2026-02-24","time":"19:53:21"},{"task":"memory_phase","broad_category":"I","image_png":"I_Basalt_09.png","image_id":25,"category_name":"Basalt","category":2,"distinct_rating":1.89,"distinct_type":"Bottom","rt":null,"stimulus":"Stimuli_Rocks480/I_Basalt_09.png","response":null,"trial_type":"image-keyboard-response","trial_index":85,"plugin_version":"2.1.0","time_elapsed":471113,"subject_id":"92781","group":"Group1","condition":"3_Rep","full_date":"2026-02-24T19:53:21.309Z","date":"2026-02-24","time":"19:53:21"},{"rt":null,"stimulus":"<p style=\"font-size: 50px; margin: 0; text-align: center;\">+</p>","response":null,"trial_type":"html-keyboard-response","trial_index":86,"plugin_version":"2.1.0","time_elapsed":472115,"subject_id":"92781","group":"Group1","condition":"3_Rep","full_date":"2026-02-24T19:53:21.309Z","date":"2026-02-24","time":"19:53:21"},{"task":"memory_phase","broad_category":"M","image_png":"M_Quartzite_13.png","image_id":285,"category_name":"Quartzite","category":18,"distinct_rating":2.27,"distinct_type":"Bottom","rt":null,"stimulus":"Stimuli_Rocks480/M_Quartzite_13.png","response":null,"trial_type":"image-keyboard-response","trial_index":87,"plugin_version":"2.1.0","time_elapsed":474617,"subject_id":"92781","group":"Group1","condition":"3_Rep","full_date":"2026-02-24T19:53:21.309Z","date":"2026-02-24","time":"19:53:21"},{"rt":null,"stimulus":"<p style=\"font-size: 50px; margin: 0; text-align: center;\">+</p>","response":null,"trial_type":"html-keyboard-response","trial_index":88,"plugin_version":"2.1.0","time_elapsed":475619,"subject_id":"92781","group":"Group1","condition":"3_Rep","full_date":"2026-02-24T19:53:21.309Z","date":"2026-02-24","time":"19:53:21"},{"task":"memory_phase","broad_category":"S","image_png":"S_Sandstone_03.png","image_id":451,"category_name":"Sandstone","category":29,"distinct_rating":1.86,"distinct_type":"Bottom","rt":null,"stimulus":"Stimuli_Rocks480/S_Sandstone_03.png","response":null,"trial_type":"image-keyboard-response","trial_index":89,"plugin_version":"2.1.0","time_elapsed":478122,"subject_id":"92781","group":"Group1","condition":"3_Rep","full_date":"2026-02-24T19:53:21.309Z","date":"2026-02-24","time":"19:53:21"},{"rt":null,"stimulus":"<p style=\"font-size: 50px; margin: 0; text-align: center;\">+</p>","response":null,"trial_type":"html-keyboard-response","trial_index":90,"plugin_version":"2.1.0","time_elapsed":479124,"subject_id":"92781","group":"Group1","condition":"3_Rep","full_date":"2026-02-24T19:53:21.309Z","date":"2026-02-24","time":"19:53:21"},{"task":"memory_phase","broad_category":"S","image_png":"S_Rock Salt_01.png","image_id":433,"category_name":"Rock Salt","category":28,"distinct_rating":7.18,"distinct_type":"Top","rt":null,"stimulus":"Stimuli_Rocks480/S_Rock Salt_01.png","response":null,"trial_type":"image-keyboard-response","trial_index":91,"plugin_version":"2.1.0","time_elapsed":481626,"subject_id":"92781","group":"Group1","condition":"3_Rep","full_date":"2026-02-24T19:53:21.309Z","date":"2026-02-24","time":"19:53:21"},{"rt":null,"stimulus":"<p style=\"font-size: 50px; margin: 0; text-align: center;\">+</p>","response":null,"trial_type":"html-keyboard-response","trial_index":92,"plugin_version":"2.1.0","time_elapsed":482628,"subject_id":"92781","group":"Group1","condition":"3_Rep","full_date":"2026-02-24T19:53:21.309Z","date":"2026-02-24","time":"19:53:21"},{"task":"memory_phase","broad_category":"S","image_png":"S_Dolomite_12.png","image_id":396,"category_name":"Dolomite","category":25,"distinct_rating":1.85,"distinct_type":"Bottom","rt":null,"stimulus":"Stimuli_Rocks480/S_Dolomite_12.png","response":null,"trial_type":"image-keyboard-response","trial_index":93,"plugin_version":"2.1.0","time_elapsed":485130,"subject_id":"92781","group":"Group1","condition":"3_Rep","full_date":"2026-02-24T19:53:21.309Z","date":"2026-02-24","time":"19:53:21"},{"rt":null,"stimulus":"<p style=\"font-size: 50px; margin: 0; text-align: center;\">+</p>","response":null,"trial_type":"html-keyboard-response","trial_index":94,"plugin_version":"2.1.0","time_elapsed":486131,"subject_id":"92781","group":"Group1","condition":"3_Rep","full_date":"2026-02-24T19:53:21.309Z","date":"2026-02-24","time":"19:53:21"},{"task":"memory_phase","broad_category":"I","image_png":"I_Diorite_04.png","image_id":36,"category_name":"Diorite","category":3,"distinct_rating":2.98,"distinct_type":"Bottom","rt":null,"stimulus":"Stimuli_Rocks480/I_Diorite_04.png","response":null,"trial_type":"image-keyboard-response","trial_index":95,"plugin_version":"2.1.0","time_elapsed":488634,"subject_id":"92781","group":"Group1","condition":"3_Rep","full_date":"2026-02-24T19:53:21.309Z","date":"2026-02-24","time":"19:53:21"},{"rt":null,"stimulus":"<p style=\"font-size: 50px; margin: 0; text-align: center;\">+</p>","response":null,"trial_type":"html-keyboard-response","trial_index":96,"plugin_version":"2.1.0","time_elapsed":489636,"subject_id":"92781","group":"Group1","condition":"3_Rep","full_date":"2026-02-24T19:53:21.309Z","date":"2026-02-24","time":"19:53:21"},{"task":"memory_phase","broad_category":"S","image_png":"S_Shale_12.png","image_id":476,"category_name":"Shale","category":30,"distinct_rating":2.48,"distinct_type":"Bottom","rt":null,"stimulus":"Stimuli_Rocks480/S_Shale_12.png","response":null,"trial_type":"image-keyboard-response","trial_index":97,"plugin_version":"2.1.0","time_elapsed":492138,"subject_id":"92781","group":"Group1","condition":"3_Rep","full_date":"2026-02-24T19:53:21.309Z","date":"2026-02-24","time":"19:53:21"},{"rt":null,"stimulus":"<p style=\"font-size: 50px; margin: 0; text-align: center;\">+</p>","response":null,"trial_type":"html-keyboard-response","trial_index":98,"plugin_version":"2.1.0","time_elapsed":493140,"subject_id":"92781","group":"Group1","condition":"3_Rep","full_date":"2026-02-24T19:53:21.309Z","date":"2026-02-24","time":"19:53:21"},{"task":"memory_phase","broad_category":"M","image_png":"M_Phyllite_03.png","image_id":259,"category_name":"Phyllite","category":17,"distinct_rating":2.5,"distinct_type":"Bottom","rt":null,"stimulus":"Stimuli_Rocks480/M_Phyllite_03.png","response":null,"trial_type":"image-keyboard-response","trial_index":99,"plugin_version":"2.1.0","time_elapsed":495642,"subject_id":"92781","group":"Group1","condition":"3_Rep","full_date":"2026-02-24T19:53:21.309Z","date":"2026-02-24","time":"19:53:21"},{"rt":null,"stimulus":"<p style=\"font-size: 50px; margin: 0; text-align: center;\">+</p>","response":null,"trial_type":"html-keyboard-response","trial_index":100,"plugin_version":"2.1.0","time_elapsed":496644,"subject_id":"92781","group":"Group1","condition":"3_Rep","full_date":"2026-02-24T19:53:21.309Z","date":"2026-02-24","time":"19:53:21"},{"task":"memory_phase","broad_category":"M","image_png":"M_Quartzite_05.png","image_id":277,"category_name":"Quartzite","category":18,"distinct_rating":2.23,"distinct_type":"Bottom","rt":null,"stimulus":"Stimuli_Rocks480/M_Quartzite_05.png","response":null,"trial_type":"image-keyboard-response","trial_index":101,"plugin_version":"2.1.0","time_elapsed":499146,"subject_id":"92781","group":"Group1","condition":"3_Rep","full_date":"2026-02-24T19:53:21.309Z","date":"2026-02-24","time":"19:53:21"},{"rt":null,"stimulus":"<p style=\"font-size: 50px; margin: 0; text-align: center;\">+</p>","response":null,"trial_type":"html-keyboard-response","trial_index":102,"plugin_version":"2.1.0","time_elapsed":500148,"subject_id":"92781","group":"Group1","condition":"3_Rep","full_date":"2026-02-24T19:53:21.309Z","date":"2026-02-24","time":"19:53:21"},{"task":"memory_phase","broad_category":"M","image_png":"M_Slate_15.png","image_id":319,"category_name":"Slate","category":20,"distinct_rating":2.13,"distinct_type":"Bottom","rt":null,"stimulus":"Stimuli_Rocks480/M_Slate_15.png","response":null,"trial_type":"image-keyboard-response","trial_index":103,"plugin_version":"2.1.0","time_elapsed":502650,"subject_id":"92781","group":"Group1","condition":"3_Rep","full_date":"2026-02-24T19:53:21.309Z","date":"2026-02-24","time":"19:53:21"},{"rt":null,"stimulus":"<p style=\"font-size: 50px; margin: 0; text-align: center;\">+</p>","response":null,"trial_type":"html-keyboard-response","trial_index":104,"plugin_version":"2.1.0","time_elapsed":503652,"subject_id":"92781","group":"Group1","condition":"3_Rep","full_date":"2026-02-24T19:53:21.309Z","date":"2026-02-24","time":"19:53:21"},{"task":"memory_phase","broad_category":"S","image_png":"S_Sandstone_16.png","image_id":464,"category_name":"Sandstone","category":29,"distinct_rating":1.93,"distinct_type":"Bottom","rt":null,"stimulus":"Stimuli_Rocks480/S_Sandstone_16.png","response":null,"trial_type":"image-keyboard-response","trial_index":105,"plugin_version":"2.1.0","time_elapsed":506154,"subject_id":"92781","group":"Group1","condition":"3_Rep","full_date":"2026-02-24T19:53:21.309Z","date":"2026-02-24","time":"19:53:21"},{"rt":13816,"stimulus":"<p style=\"max-width: 760px; margin: auto; font-size: 35px; line-height: 1.5;\">\n                You have completed 1 study phase. \n                Now, we'll show you all the images again 2 more times.\n                <br><br>Press SPACE to continue\n              </p>","response":" ","trial_type":"html-keyboard-response","trial_index":106,"plugin_version":"2.1.0","time_elapsed":519971,"subject_id":"92781","group":"Group1","condition":"3_Rep","full_date":"2026-02-24T19:53:21.309Z","date":"2026-02-24","time":"19:53:21"},{"rt":null,"stimulus":"<p style=\"font-size: 50px; margin: 0; text-align: center;\">+</p>","response":null,"trial_type":"html-keyboard-response","trial_index":107,"plugin_version":"2.1.0","time_elapsed":520973,"subject_id":"92781","group":"Group1","condition":"3_Rep","full_date":"2026-02-24T19:53:21.309Z","date":"2026-02-24","time":"19:53:21"},{"task":"memory_phase","broad_category":"I","image_png":"I_Gabbro_08.png","image_id":56,"category_name":"Gabbro","category":4,"distinct_rating":3.02,"distinct_type":"Bottom","rt":null,"stimulus":"Stimuli_Rocks480/I_Gabbro_08.png","response":null,"trial_type":"image-keyboard-response","trial_index":108,"plugin_version":"2.1.0","time_elapsed":523475,"subject_id":"92781","group":"Group1","condition":"3_Rep","full_date":"2026-02-24T19:53:21.309Z","date":"2026-02-24","time":"19:53:21"},{"rt":null,"stimulus":"<p style=\"font-size: 50px; margin: 0; text-align: center;\">+</p>","response":null,"trial_type":"html-keyboard-response","trial_index":109,"plugin_version":"2.1.0","time_elapsed":524477,"subject_id":"92781","group":"Group1","condition":"3_Rep","full_date":"2026-02-24T19:53:21.309Z","date":"2026-02-24","time":"19:53:21"},{"task":"memory_phase","broad_category":"S","image_png":"S_Sandstone_16.png","image_id":464,"category_name":"Sandstone","category":29,"distinct_rating":1.93,"distinct_type":"Bottom","rt":null,"stimulus":"Stimuli_Rocks480/S_Sandstone_16.png","response":null,"trial_type":"image-keyboard-response","trial_index":110,"plugin_version":"2.1.0","time_elapsed":526979,"subject_id":"92781","group":"Group1","condition":"3_Rep","full_date":"2026-02-24T19:53:21.309Z","date":"2026-02-24","time":"19:53:21"},{"rt":null,"stimulus":"<p style=\"font-size: 50px; margin: 0; text-align: center;\">+</p>","response":null,"trial_type":"html-keyboard-response","trial_index":111,"plugin_version":"2.1.0","time_elapsed":527980,"subject_id":"92781","group":"Group1","condition":"3_Rep","full_date":"2026-02-24T19:53:21.309Z","date":"2026-02-24","time":"19:53:21"},{"task":"memory_phase","broad_category":"M","image_png":"M_Gneiss_13.png","image_id":205,"category_name":"Gneiss","category":13,"distinct_rating":3.26,"distinct_type":"Bottom","rt":null,"stimulus":"Stimuli_Rocks480/M_Gneiss_13.png","response":null,"trial_type":"image-keyboard-response","trial_index":112,"plugin_version":"2.1.0","time_elapsed":530483,"subject_id":"92781","group":"Group1","condition":"3_Rep","full_date":"2026-02-24T19:53:21.309Z","date":"2026-02-24","time":"19:53:21"},{"rt":null,"stimulus":"<p style=\"font-size: 50px; margin: 0; text-align: center;\">+</p>","response":null,"trial_type":"html-keyboard-response","trial_index":113,"plugin_version":"2.1.0","time_elapsed":531485,"subject_id":"92781","group":"Group1","condition":"3_Rep","full_date":"2026-02-24T19:53:21.309Z","date":"2026-02-24","time":"19:53:21"},{"task":"memory_phase","broad_category":"S","image_png":"S_Dolomite_12.png","image_id":396,"category_name":"Dolomite","category":25,"distinct_rating":1.85,"distinct_type":"Bottom","rt":null,"stimulus":"Stimuli_Rocks480/S_Dolomite_12.png","response":null,"trial_type":"image-keyboard-response","trial_index":114,"plugin_version":"2.1.0","time_elapsed":533988,"subject_id":"92781","group":"Group1","condition":"3_Rep","full_date":"2026-02-24T19:53:21.309Z","date":"2026-02-24","time":"19:53:21"},{"rt":null,"stimulus":"<p style=\"font-size: 50px; margin: 0; text-align: center;\">+</p>","response":null,"trial_type":"html-keyboard-response","trial_index":115,"plugin_version":"2.1.0","time_elapsed":534990,"subject_id":"92781","group":"Group1","condition":"3_Rep","full_date":"2026-02-24T19:53:21.309Z","date":"2026-02-24","time":"19:53:21"},{"task":"memory_phase","broad_category":"M","image_png":"M_Marble_16.png","image_id":240,"category_name":"Marble","category":15,"distinct_rating":2.57,"distinct_type":"Bottom","rt":null,"stimulus":"Stimuli_Rocks480/M_Marble_16.png","response":null,"trial_type":"image-keyboard-response","trial_index":116,"plugin_version":"2.1.0","time_elapsed":537493,"subject_id":"92781","group":"Group1","condition":"3_Rep","full_date":"2026-02-24T19:53:21.309Z","date":"2026-02-24","time":"19:53:21"},{"rt":null,"stimulus":"<p style=\"font-size: 50px; margin: 0; text-align: center;\">+</p>","response":null,"trial_type":"html-keyboard-response","trial_index":117,"plugin_version":"2.1.0","time_elapsed":538494,"subject_id":"92781","group":"Group1","condition":"3_Rep","full_date":"2026-02-24T19:53:21.309Z","date":"2026-02-24","time":"19:53:21"},{"task":"memory_phase","broad_category":"I","image_png":"I_Rhyolite_16.png","image_id":160,"category_name":"Rhyolite","category":10,"distinct_rating":2.19,"distinct_type":"Bottom","rt":null,"stimulus":"Stimuli_Rocks480/I_Rhyolite_16.png","response":null,"trial_type":"image-keyboard-response","trial_index":118,"plugin_version":"2.1.0","time_elapsed":540996,"subject_id":"92781","group":"Group1","condition":"3_Rep","full_date":"2026-02-24T19:53:21.309Z","date":"2026-02-24","time":"19:53:21"},{"rt":null,"stimulus":"<p style=\"font-size: 50px; margin: 0; text-align: center;\">+</p>","response":null,"trial_type":"html-keyboard-response","trial_index":119,"plugin_version":"2.1.0","time_elapsed":541998,"subject_id":"92781","group":"Group1","condition":"3_Rep","full_date":"2026-02-24T19:53:21.309Z","date":"2026-02-24","time":"19:53:21"},{"task":"memory_phase","broad_category":"S","image_png":"S_Conglomerate_05.png","image_id":373,"category_name":"Conglomerate","category":24,"distinct_rating":7.32,"distinct_type":"Top","rt":null,"stimulus":"Stimuli_Rocks480/S_Conglomerate_05.png","response":null,"trial_type":"image-keyboard-response","trial_index":120,"plugin_version":"2.1.0","time_elapsed":544500,"subject_id":"92781","group":"Group1","condition":"3_Rep","full_date":"2026-02-24T19:53:21.309Z","date":"2026-02-24","time":"19:53:21"},{"rt":null,"stimulus":"<p style=\"font-size: 50px; margin: 0; text-align: center;\">+</p>","response":null,"trial_type":"html-keyboard-response","trial_index":121,"plugin_version":"2.1.0","time_elapsed":545502,"subject_id":"92781","group":"Group1","condition":"3_Rep","full_date":"2026-02-24T19:53:21.309Z","date":"2026-02-24","time":"19:53:21"},{"task":"memory_phase","broad_category":"S","image_png":"S_Rock Gypsum_04.png","image_id":420,"category_name":"Rock Gypsum","category":27,"distinct_rating":7.61,"distinct_type":"Top","rt":null,"stimulus":"Stimuli_Rocks480/S_Rock Gypsum_04.png","response":null,"trial_type":"image-keyboard-response","trial_index":122,"plugin_version":"2.1.0","time_elapsed":548005,"subject_id":"92781","group":"Group1","condition":"3_Rep","full_date":"2026-02-24T19:53:21.309Z","date":"2026-02-24","time":"19:53:21"},{"rt":null,"stimulus":"<p style=\"font-size: 50px; margin: 0; text-align: center;\">+</p>","response":null,"trial_type":"html-keyboard-response","trial_index":123,"plugin_version":"2.1.0","time_elapsed":549007,"subject_id":"92781","group":"Group1","condition":"3_Rep","full_date":"2026-02-24T19:53:21.309Z","date":"2026-02-24","time":"19:53:21"},{"task":"memory_phase","broad_category":"I","image_png":"I_Diorite_04.png","image_id":36,"category_name":"Diorite","category":3,"distinct_rating":2.98,"distinct_type":"Bottom","rt":null,"stimulus":"Stimuli_Rocks480/I_Diorite_04.png","response":null,"trial_type":"image-keyboard-response","trial_index":124,"plugin_version":"2.1.0","time_elapsed":551509,"subject_id":"92781","group":"Group1","condition":"3_Rep","full_date":"2026-02-24T19:53:21.309Z","date":"2026-02-24","time":"19:53:21"},{"rt":null,"stimulus":"<p style=\"font-size: 50px; margin: 0; text-align: center;\">+</p>","response":null,"trial_type":"html-keyboard-response","trial_index":125,"plugin_version":"2.1.0","time_elapsed":552510,"subject_id":"92781","group":"Group1","condition":"3_Rep","full_date":"2026-02-24T19:53:21.309Z","date":"2026-02-24","time":"19:53:21"},{"task":"memory_phase","broad_category":"M","image_png":"M_Phyllite_10.png","image_id":266,"category_name":"Phyllite","category":17,"distinct_rating":2.6,"distinct_type":"Bottom","rt":null,"stimulus":"Stimuli_Rocks480/M_Phyllite_10.png","response":null,"trial_type":"image-keyboard-response","trial_index":126,"plugin_version":"2.1.0","time_elapsed":555012,"subject_id":"92781","group":"Group1","condition":"3_Rep","full_date":"2026-02-24T19:53:21.309Z","date":"2026-02-24","time":"19:53:21"},{"rt":null,"stimulus":"<p style=\"font-size: 50px; margin: 0; text-align: center;\">+</p>","response":null,"trial_type":"html-keyboard-response","trial_index":127,"plugin_version":"2.1.0","time_elapsed":556014,"subject_id":"92781","group":"Group1","condition":"3_Rep","full_date":"2026-02-24T19:53:21.309Z","date":"2026-02-24","time":"19:53:21"},{"task":"memory_phase","broad_category":"S","image_png":"S_Dolomite_13.png","image_id":397,"category_name":"Dolomite","category":25,"distinct_rating":1.77,"distinct_type":"Bottom","rt":null,"stimulus":"Stimuli_Rocks480/S_Dolomite_13.png","response":null,"trial_type":"image-keyboard-response","trial_index":128,"plugin_version":"2.1.0","time_elapsed":558517,"subject_id":"92781","group":"Group1","condition":"3_Rep","full_date":"2026-02-24T19:53:21.309Z","date":"2026-02-24","time":"19:53:21"},{"rt":null,"stimulus":"<p style=\"font-size: 50px; margin: 0; text-align: center;\">+</p>","response":null,"trial_type":"html-keyboard-response","trial_index":129,"plugin_version":"2.1.0","time_elapsed":559519,"subject_id":"92781","group":"Group1","condition":"3_Rep","full_date":"2026-02-24T19:53:21.309Z","date":"2026-02-24","time":"19:53:21"},{"task":"memory_phase","broad_category":"I","image_png":"I_Andesite_06.png","image_id":6,"category_name":"Andesite","category":1,"distinct_rating":3.17,"distinct_type":"Bottom","rt":null,"stimulus":"Stimuli_Rocks480/I_Andesite_06.png","response":null,"trial_type":"image-keyboard-response","trial_index":130,"plugin_version":"2.1.0","time_elapsed":562021,"subject_id":"92781","group":"Group1","condition":"3_Rep","full_date":"2026-02-24T19:53:21.309Z","date":"2026-02-24","time":"19:53:21"},{"rt":null,"stimulus":"<p style=\"font-size: 50px; margin: 0; text-align: center;\">+</p>","response":null,"trial_type":"html-keyboard-response","trial_index":131,"plugin_version":"2.1.0","time_elapsed":563023,"subject_id":"92781","group":"Group1","condition":"3_Rep","full_date":"2026-02-24T19:53:21.309Z","date":"2026-02-24","time":"19:53:21"},{"task":"memory_phase","broad_category":"M","image_png":"M_Quartzite_13.png","image_id":285,"category_name":"Quartzite","category":18,"distinct_rating":2.27,"distinct_type":"Bottom","rt":null,"stimulus":"Stimuli_Rocks480/M_Quartzite_13.png","response":null,"trial_type":"image-keyboard-response","trial_index":132,"plugin_version":"2.1.0","time_elapsed":565525,"subject_id":"92781","group":"Group1","condition":"3_Rep","full_date":"2026-02-24T19:53:21.309Z","date":"2026-02-24","time":"19:53:21"},{"rt":null,"stimulus":"<p style=\"font-size: 50px; margin: 0; text-align: center;\">+</p>","response":null,"trial_type":"html-keyboard-response","trial_index":133,"plugin_version":"2.1.0","time_elapsed":566527,"subject_id":"92781","group":"Group1","condition":"3_Rep","full_date":"2026-02-24T19:53:21.309Z","date":"2026-02-24","time":"19:53:21"},{"task":"memory_phase","broad_category":"S","image_png":"S_Rock Salt_01.png","image_id":433,"category_name":"Rock Salt","category":28,"distinct_rating":7.18,"distinct_type":"Top","rt":null,"stimulus":"Stimuli_Rocks480/S_Rock Salt_01.png","response":null,"trial_type":"image-keyboard-response","trial_index":134,"plugin_version":"2.1.0","time_elapsed":569030,"subject_id":"92781","group":"Group1","condition":"3_Rep","full_date":"2026-02-24T19:53:21.309Z","date":"2026-02-24","time":"19:53:21"},{"rt":null,"stimulus":"<p style=\"font-size: 50px; margin: 0; text-align: center;\">+</p>","response":null,"trial_type":"html-keyboard-response","trial_index":135,"plugin_version":"2.1.0","time_elapsed":570031,"subject_id":"92781","group":"Group1","condition":"3_Rep","full_date":"2026-02-24T19:53:21.309Z","date":"2026-02-24","time":"19:53:21"},{"task":"memory_phase","broad_category":"M","image_png":"M_Phyllite_03.png","image_id":259,"category_name":"Phyllite","category":17,"distinct_rating":2.5,"distinct_type":"Bottom","rt":null,"stimulus":"Stimuli_Rocks480/M_Phyllite_03.png","response":null,"trial_type":"image-keyboard-response","trial_index":136,"plugin_version":"2.1.0","time_elapsed":572534,"subject_id":"92781","group":"Group1","condition":"3_Rep","full_date":"2026-02-24T19:53:21.309Z","date":"2026-02-24","time":"19:53:21"},{"rt":null,"stimulus":"<p style=\"font-size: 50px; margin: 0; text-align: center;\">+</p>","response":null,"trial_type":"html-keyboard-response","trial_index":137,"plugin_version":"2.1.0","time_elapsed":573537,"subject_id":"92781","group":"Group1","condition":"3_Rep","full_date":"2026-02-24T19:53:21.309Z","date":"2026-02-24","time":"19:53:21"},{"task":"memory_phase","broad_category":"I","image_png":"I_Basalt_01.png","image_id":17,"category_name":"Basalt","category":2,"distinct_rating":1.92,"distinct_type":"Bottom","rt":null,"stimulus":"Stimuli_Rocks480/I_Basalt_01.png","response":null,"trial_type":"image-keyboard-response","trial_index":138,"plugin_version":"2.1.0","time_elapsed":576040,"subject_id":"92781","group":"Group1","condition":"3_Rep","full_date":"2026-02-24T19:53:21.309Z","date":"2026-02-24","time":"19:53:21"},{"rt":null,"stimulus":"<p style=\"font-size: 50px; margin: 0; text-align: center;\">+</p>","response":null,"trial_type":"html-keyboard-response","trial_index":139,"plugin_version":"2.1.0","time_elapsed":577042,"subject_id":"92781","group":"Group1","condition":"3_Rep","full_date":"2026-02-24T19:53:21.309Z","date":"2026-02-24","time":"19:53:21"},{"task":"memory_phase","broad_category":"S","image_png":"S_Sandstone_15.png","image_id":463,"category_name":"Sandstone","category":29,"distinct_rating":2,"distinct_type":"Bottom","rt":null,"stimulus":"Stimuli_Rocks480/S_Sandstone_15.png","response":null,"trial_type":"image-keyboard-response","trial_index":140,"plugin_version":"2.1.0","time_elapsed":579545,"subject_id":"92781","group":"Group1","condition":"3_Rep","full_date":"2026-02-24T19:53:21.309Z","date":"2026-02-24","time":"19:53:21"},{"rt":null,"stimulus":"<p style=\"font-size: 50px; margin: 0; text-align: center;\">+</p>","response":null,"trial_type":"html-keyboard-response","trial_index":141,"plugin_version":"2.1.0","time_elapsed":580547,"subject_id":"92781","group":"Group1","condition":"3_Rep","full_date":"2026-02-24T19:53:21.309Z","date":"2026-02-24","time":"19:53:21"},{"task":"memory_phase","broad_category":"M","image_png":"M_Slate_03.png","image_id":307,"category_name":"Slate","category":20,"distinct_rating":1.87,"distinct_type":"Bottom","rt":null,"stimulus":"Stimuli_Rocks480/M_Slate_03.png","response":null,"trial_type":"image-keyboard-response","trial_index":142,"plugin_version":"2.1.0","time_elapsed":583050,"subject_id":"92781","group":"Group1","condition":"3_Rep","full_date":"2026-02-24T19:53:21.309Z","date":"2026-02-24","time":"19:53:21"},{"rt":null,"stimulus":"<p style=\"font-size: 50px; margin: 0; text-align: center;\">+</p>","response":null,"trial_type":"html-keyboard-response","trial_index":143,"plugin_version":"2.1.0","time_elapsed":584053,"subject_id":"92781","group":"Group1","condition":"3_Rep","full_date":"2026-02-24T19:53:21.309Z","date":"2026-02-24","time":"19:53:21"},{"task":"memory_phase","broad_category":"M","image_png":"M_Marble_06.png","image_id":230,"category_name":"Marble","category":15,"distinct_rating":3.4,"distinct_type":"Bottom","rt":null,"stimulus":"Stimuli_Rocks480/M_Marble_06.png","response":null,"trial_type":"image-keyboard-response","trial_index":144,"plugin_version":"2.1.0","time_elapsed":586555,"subject_id":"92781","group":"Group1","condition":"3_Rep","full_date":"2026-02-24T19:53:21.309Z","date":"2026-02-24","time":"19:53:21"},{"rt":null,"stimulus":"<p style=\"font-size: 50px; margin: 0; text-align: center;\">+</p>","response":null,"trial_type":"html-keyboard-response","trial_index":145,"plugin_version":"2.1.0","time_elapsed":587558,"subject_id":"92781","group":"Group1","condition":"3_Rep","full_date":"2026-02-24T19:53:21.309Z","date":"2026-02-24","time":"19:53:21"},{"task":"memory_phase","broad_category":"S","image_png":"S_Chert_10.png","image_id":362,"category_name":"Chert","category":23,"distinct_rating":7.17,"distinct_type":"Top","rt":null,"stimulus":"Stimuli_Rocks480/S_Chert_10.png","response":null,"trial_type":"image-keyboard-response","trial_index":146,"plugin_version":"2.1.0","time_elapsed":590059,"subject_id":"92781","group":"Group1","condition":"3_Rep","full_date":"2026-02-24T19:53:21.309Z","date":"2026-02-24","time":"19:53:21"},{"rt":null,"stimulus":"<p style=\"font-size: 50px; margin: 0; text-align: center;\">+</p>","response":null,"trial_type":"html-keyboard-response","trial_index":147,"plugin_version":"2.1.0","time_elapsed":591062,"subject_id":"92781","group":"Group1","condition":"3_Rep","full_date":"2026-02-24T19:53:21.309Z","date":"2026-02-24","time":"19:53:21"},{"task":"memory_phase","broad_category":"M","image_png":"M_Slate_11.png","image_id":315,"category_name":"Slate","category":20,"distinct_rating":2.75,"distinct_type":"Bottom","rt":null,"stimulus":"Stimuli_Rocks480/M_Slate_11.png","response":null,"trial_type":"image-keyboard-response","trial_index":148,"plugin_version":"2.1.0","time_elapsed":593564,"subject_id":"92781","group":"Group1","condition":"3_Rep","full_date":"2026-02-24T19:53:21.309Z","date":"2026-02-24","time":"19:53:21"},{"rt":null,"stimulus":"<p style=\"font-size: 50px; margin: 0; text-align: center;\">+</p>","response":null,"trial_type":"html-keyboard-response","trial_index":149,"plugin_version":"2.1.0","time_elapsed":594566,"subject_id":"92781","group":"Group1","condition":"3_Rep","full_date":"2026-02-24T19:53:21.309Z","date":"2026-02-24","time":"19:53:21"},{"task":"memory_phase","broad_category":"I","image_png":"I_Andesite_10.png","image_id":10,"category_name":"Andesite","category":1,"distinct_rating":3.15,"distinct_type":"Bottom","rt":null,"stimulus":"Stimuli_Rocks480/I_Andesite_10.png","response":null,"trial_type":"image-keyboard-response","trial_index":150,"plugin_version":"2.1.0","time_elapsed":597068,"subject_id":"92781","group":"Group1","condition":"3_Rep","full_date":"2026-02-24T19:53:21.309Z","date":"2026-02-24","time":"19:53:21"},{"rt":null,"stimulus":"<p style=\"font-size: 50px; margin: 0; text-align: center;\">+</p>","response":null,"trial_type":"html-keyboard-response","trial_index":151,"plugin_version":"2.1.0","time_elapsed":598070,"subject_id":"92781","group":"Group1","condition":"3_Rep","full_date":"2026-02-24T19:53:21.309Z","date":"2026-02-24","time":"19:53:21"},{"task":"memory_phase","broad_category":"M","image_png":"M_Quartzite_05.png","image_id":277,"category_name":"Quartzite","category":18,"distinct_rating":2.23,"distinct_type":"Bottom","rt":null,"stimulus":"Stimuli_Rocks480/M_Quartzite_05.png","response":null,"trial_type":"image-keyboard-response","trial_index":152,"plugin_version":"2.1.0","time_elapsed":600572,"subject_id":"92781","group":"Group1","condition":"3_Rep","full_date":"2026-02-24T19:53:21.309Z","date":"2026-02-24","time":"19:53:21"},{"rt":null,"stimulus":"<p style=\"font-size: 50px; margin: 0; text-align: center;\">+</p>","response":null,"trial_type":"html-keyboard-response","trial_index":153,"plugin_version":"2.1.0","time_elapsed":601574,"subject_id":"92781","group":"Group1","condition":"3_Rep","full_date":"2026-02-24T19:53:21.309Z","date":"2026-02-24","time":"19:53:21"},{"task":"memory_phase","broad_category":"I","image_png":"I_Obsidian_05.png","image_id":85,"category_name":"Obsidian","category":6,"distinct_rating":7.32,"distinct_type":"Top","rt":null,"stimulus":"Stimuli_Rocks480/I_Obsidian_05.png","response":null,"trial_type":"image-keyboard-response","trial_index":154,"plugin_version":"2.1.0","time_elapsed":604076,"subject_id":"92781","group":"Group1","condition":"3_Rep","full_date":"2026-02-24T19:53:21.309Z","date":"2026-02-24","time":"19:53:21"},{"rt":null,"stimulus":"<p style=\"font-size: 50px; margin: 0; text-align: center;\">+</p>","response":null,"trial_type":"html-keyboard-response","trial_index":155,"plugin_version":"2.1.0","time_elapsed":605078,"subject_id":"92781","group":"Group1","condition":"3_Rep","full_date":"2026-02-24T19:53:21.309Z","date":"2026-02-24","time":"19:53:21"},{"task":"memory_phase","broad_category":"S","image_png":"S_Sandstone_03.png","image_id":451,"category_name":"Sandstone","category":29,"distinct_rating":1.86,"distinct_type":"Bottom","rt":null,"stimulus":"Stimuli_Rocks480/S_Sandstone_03.png","response":null,"trial_type":"image-keyboard-response","trial_index":156,"plugin_version":"2.1.0","time_elapsed":607581,"subject_id":"92781","group":"Group1","condition":"3_Rep","full_date":"2026-02-24T19:53:21.309Z","date":"2026-02-24","time":"19:53:21"},{"rt":18104,"stimulus":"<p style=\"max-width: 760px; margin: auto; font-size: 35px; line-height: 1.5;\">\n                Press SPACE to continue study phase\n              </p>","response":" ","trial_type":"html-keyboard-response","trial_index":157,"plugin_version":"2.1.0","time_elapsed":625686,"subject_id":"92781","group":"Group1","condition":"3_Rep","full_date":"2026-02-24T19:53:21.309Z","date":"2026-02-24","time":"19:53:21"},{"rt":null,"stimulus":"<p style=\"font-size: 50px; margin: 0; text-align: center;\">+</p>","response":null,"trial_type":"html-keyboard-response","trial_index":158,"plugin_version":"2.1.0","time_elapsed":626688,"subject_id":"92781","group":"Group1","condition":"3_Rep","full_date":"2026-02-24T19:53:21.309Z","date":"2026-02-24","time":"19:53:21"},{"task":"memory_phase","broad_category":"S","image_png":"S_Shale_01.png","image_id":465,"category_name":"Shale","category":30,"distinct_rating":2.7,"distinct_type":"Bottom","rt":null,"stimulus":"Stimuli_Rocks480/S_Shale_01.png","response":null,"trial_type":"image-keyboard-response","trial_index":159,"plugin_version":"2.1.0","time_elapsed":629190,"subject_id":"92781","group":"Group1","condition":"3_Rep","full_date":"2026-02-24T19:53:21.309Z","date":"2026-02-24","time":"19:53:21"},{"rt":null,"stimulus":"<p style=\"font-size: 50px; margin: 0; text-align: center;\">+</p>","response":null,"trial_type":"html-keyboard-response","trial_index":160,"plugin_version":"2.1.0","time_elapsed":630192,"subject_id":"92781","group":"Group1","condition":"3_Rep","full_date":"2026-02-24T19:53:21.309Z","date":"2026-02-24","time":"19:53:21"},{"task":"memory_phase","broad_category":"I","image_png":"I_Diorite_05.png","image_id":37,"category_name":"Diorite","category":3,"distinct_rating":3.08,"distinct_type":"Bottom","rt":null,"stimulus":"Stimuli_Rocks480/I_Diorite_05.png","response":null,"trial_type":"image-keyboard-response","trial_index":161,"plugin_version":"2.1.0","time_elapsed":632694,"subject_id":"92781","group":"Group1","condition":"3_Rep","full_date":"2026-02-24T19:53:21.309Z","date":"2026-02-24","time":"19:53:21"},{"rt":null,"stimulus":"<p style=\"font-size: 50px; margin: 0; text-align: center;\">+</p>","response":null,"trial_type":"html-keyboard-response","trial_index":162,"plugin_version":"2.1.0","time_elapsed":633696,"subject_id":"92781","group":"Group1","condition":"3_Rep","full_date":"2026-02-24T19:53:21.309Z","date":"2026-02-24","time":"19:53:21"},{"task":"memory_phase","broad_category":"I","image_png":"I_Gabbro_16.png","image_id":64,"category_name":"Gabbro","category":4,"distinct_rating":2.52,"distinct_type":"Bottom","rt":null,"stimulus":"Stimuli_Rocks480/I_Gabbro_16.png","response":null,"trial_type":"image-keyboard-response","trial_index":163,"plugin_version":"2.1.0","time_elapsed":636199,"subject_id":"92781","group":"Group1","condition":"3_Rep","full_date":"2026-02-24T19:53:21.309Z","date":"2026-02-24","time":"19:53:21"},{"rt":null,"stimulus":"<p style=\"font-size: 50px; margin: 0; text-align: center;\">+</p>","response":null,"trial_type":"html-keyboard-response","trial_index":164,"plugin_version":"2.1.0","time_elapsed":637200,"subject_id":"92781","group":"Group1","condition":"3_Rep","full_date":"2026-02-24T19:53:21.309Z","date":"2026-02-24","time":"19:53:21"},{"task":"memory_phase","broad_category":"M","image_png":"M_Quartzite_08.png","image_id":280,"category_name":"Quartzite","category":18,"distinct_rating":2.15,"distinct_type":"Bottom","rt":null,"stimulus":"Stimuli_Rocks480/M_Quartzite_08.png","response":null,"trial_type":"image-keyboard-response","trial_index":165,"plugin_version":"2.1.0","time_elapsed":639702,"subject_id":"92781","group":"Group1","condition":"3_Rep","full_date":"2026-02-24T19:53:21.309Z","date":"2026-02-24","time":"19:53:21"},{"rt":null,"stimulus":"<p style=\"font-size: 50px; margin: 0; text-align: center;\">+</p>","response":null,"trial_type":"html-keyboard-response","trial_index":166,"plugin_version":"2.1.0","time_elapsed":640704,"subject_id":"92781","group":"Group1","condition":"3_Rep","full_date":"2026-02-24T19:53:21.309Z","date":"2026-02-24","time":"19:53:21"},{"task":"memory_phase","broad_category":"S","image_png":"S_Breccia_11.png","image_id":347,"category_name":"Breccia","category":22,"distinct_rating":6.7,"distinct_type":"Top","rt":null,"stimulus":"Stimuli_Rocks480/S_Breccia_11.png","response":null,"trial_type":"image-keyboard-response","trial_index":167,"plugin_version":"2.1.0","time_elapsed":643206,"subject_id":"92781","group":"Group1","condition":"3_Rep","full_date":"2026-02-24T19:53:21.309Z","date":"2026-02-24","time":"19:53:21"},{"rt":null,"stimulus":"<p style=\"font-size: 50px; margin: 0; text-align: center;\">+</p>","response":null,"trial_type":"html-keyboard-response","trial_index":168,"plugin_version":"2.1.0","time_elapsed":644208,"subject_id":"92781","group":"Group1","condition":"3_Rep","full_date":"2026-02-24T19:53:21.309Z","date":"2026-02-24","time":"19:53:21"},{"task":"memory_phase","broad_category":"I","image_png":"I_Pegmatite_16.png","image_id":112,"category_name":"Pegmatite","category":7,"distinct_rating":7.03,"distinct_type":"Top","rt":null,"stimulus":"Stimuli_Rocks480/I_Pegmatite_16.png","response":null,"trial_type":"image-keyboard-response","trial_index":169,"plugin_version":"2.1.0","time_elapsed":646711,"subject_id":"92781","group":"Group1","condition":"3_Rep","full_date":"2026-02-24T19:53:21.309Z","date":"2026-02-24","time":"19:53:21"},{"rt":null,"stimulus":"<p style=\"font-size: 50px; margin: 0; text-align: center;\">+</p>","response":null,"trial_type":"html-keyboard-response","trial_index":170,"plugin_version":"2.1.0","time_elapsed":647713,"subject_id":"92781","group":"Group1","condition":"3_Rep","full_date":"2026-02-24T19:53:21.309Z","date":"2026-02-24","time":"19:53:21"},{"task":"memory_phase","broad_category":"I","image_png":"I_Andesite_08.png","image_id":8,"category_name":"Andesite","category":1,"distinct_rating":1.95,"distinct_type":"Bottom","rt":null,"stimulus":"Stimuli_Rocks480/I_Andesite_08.png","response":null,"trial_type":"image-keyboard-response","trial_index":171,"plugin_version":"2.1.0","time_elapsed":650215,"subject_id":"92781","group":"Group1","condition":"3_Rep","full_date":"2026-02-24T19:53:21.309Z","date":"2026-02-24","time":"19:53:21"},{"rt":null,"stimulus":"<p style=\"font-size: 50px; margin: 0; text-align: center;\">+</p>","response":null,"trial_type":"html-keyboard-response","trial_index":172,"plugin_version":"2.1.0","time_elapsed":651217,"subject_id":"92781","group":"Group1","condition":"3_Rep","full_date":"2026-02-24T19:53:21.309Z","date":"2026-02-24","time":"19:53:21"},{"task":"memory_phase","broad_category":"M","image_png":"M_Gneiss_06.png","image_id":198,"category_name":"Gneiss","category":13,"distinct_rating":2.65,"distinct_type":"Bottom","rt":null,"stimulus":"Stimuli_Rocks480/M_Gneiss_06.png","response":null,"trial_type":"image-keyboard-response","trial_index":173,"plugin_version":"2.1.0","time_elapsed":653720,"subject_id":"92781","group":"Group1","condition":"3_Rep","full_date":"2026-02-24T19:53:21.309Z","date":"2026-02-24","time":"19:53:21"},{"rt":null,"stimulus":"<p style=\"font-size: 50px; margin: 0; text-align: center;\">+</p>","response":null,"trial_type":"html-keyboard-response","trial_index":174,"plugin_version":"2.1.0","time_elapsed":654722,"subject_id":"92781","group":"Group1","condition":"3_Rep","full_date":"2026-02-24T19:53:21.309Z","date":"2026-02-24","time":"19:53:21"},{"task":"memory_phase","broad_category":"I","image_png":"I_Gabbro_11.png","image_id":59,"category_name":"Gabbro","category":4,"distinct_rating":1.99,"distinct_type":"Bottom","rt":null,"stimulus":"Stimuli_Rocks480/I_Gabbro_11.png","response":null,"trial_type":"image-keyboard-response","trial_index":175,"plugin_version":"2.1.0","time_elapsed":657223,"subject_id":"92781","group":"Group1","condition":"3_Rep","full_date":"2026-02-24T19:53:21.309Z","date":"2026-02-24","time":"19:53:21"},{"rt":null,"stimulus":"<p style=\"font-size: 50px; margin: 0; text-align: center;\">+</p>","response":null,"trial_type":"html-keyboard-response","trial_index":176,"plugin_version":"2.1.0","time_elapsed":658225,"subject_id":"92781","group":"Group1","condition":"3_Rep","full_date":"2026-02-24T19:53:21.309Z","date":"2026-02-24","time":"19:53:21"},{"task":"memory_phase","broad_category":"I","image_png":"I_Pegmatite_10.png","image_id":106,"category_name":"Pegmatite","category":7,"distinct_rating":7.66,"distinct_type":"Top","rt":null,"stimulus":"Stimuli_Rocks480/I_Pegmatite_10.png","response":null,"trial_type":"image-keyboard-response","trial_index":177,"plugin_version":"2.1.0","time_elapsed":660727,"subject_id":"92781","group":"Group1","condition":"3_Rep","full_date":"2026-02-24T19:53:21.309Z","date":"2026-02-24","time":"19:53:21"},{"rt":null,"stimulus":"<p style=\"font-size: 50px; margin: 0; text-align: center;\">+</p>","response":null,"trial_type":"html-keyboard-response","trial_index":178,"plugin_version":"2.1.0","time_elapsed":661728,"subject_id":"92781","group":"Group1","condition":"3_Rep","full_date":"2026-02-24T19:53:21.309Z","date":"2026-02-24","time":"19:53:21"},{"task":"memory_phase","broad_category":"I","image_png":"I_Pumice_08.png","image_id":136,"category_name":"Pumice","category":9,"distinct_rating":3.1,"distinct_type":"Bottom","rt":null,"stimulus":"Stimuli_Rocks480/I_Pumice_08.png","response":null,"trial_type":"image-keyboard-response","trial_index":179,"plugin_version":"2.1.0","time_elapsed":664230,"subject_id":"92781","group":"Group1","condition":"3_Rep","full_date":"2026-02-24T19:53:21.309Z","date":"2026-02-24","time":"19:53:21"},{"rt":null,"stimulus":"<p style=\"font-size: 50px; margin: 0; text-align: center;\">+</p>","response":null,"trial_type":"html-keyboard-response","trial_index":180,"plugin_version":"2.1.0","time_elapsed":665232,"subject_id":"92781","group":"Group1","condition":"3_Rep","full_date":"2026-02-24T19:53:21.309Z","date":"2026-02-24","time":"19:53:21"},{"task":"memory_phase","broad_category":"I","image_png":"I_Rhyolite_14.png","image_id":158,"category_name":"Rhyolite","category":10,"distinct_rating":2.59,"distinct_type":"Bottom","rt":null,"stimulus":"Stimuli_Rocks480/I_Rhyolite_14.png","response":null,"trial_type":"image-keyboard-response","trial_index":181,"plugin_version":"2.1.0","time_elapsed":667734,"subject_id":"92781","group":"Group1","condition":"3_Rep","full_date":"2026-02-24T19:53:21.309Z","date":"2026-02-24","time":"19:53:21"},{"rt":null,"stimulus":"<p style=\"font-size: 50px; margin: 0; text-align: center;\">+</p>","response":null,"trial_type":"html-keyboard-response","trial_index":182,"plugin_version":"2.1.0","time_elapsed":668736,"subject_id":"92781","group":"Group1","condition":"3_Rep","full_date":"2026-02-24T19:53:21.309Z","date":"2026-02-24","time":"19:53:21"},{"task":"memory_phase","broad_category":"I","image_png":"I_Basalt_09.png","image_id":25,"category_name":"Basalt","category":2,"distinct_rating":1.89,"distinct_type":"Bottom","rt":null,"stimulus":"Stimuli_Rocks480/I_Basalt_09.png","response":null,"trial_type":"image-keyboard-response","trial_index":183,"plugin_version":"2.1.0","time_elapsed":671238,"subject_id":"92781","group":"Group1","condition":"3_Rep","full_date":"2026-02-24T19:53:21.309Z","date":"2026-02-24","time":"19:53:21"},{"rt":null,"stimulus":"<p style=\"font-size: 50px; margin: 0; text-align: center;\">+</p>","response":null,"trial_type":"html-keyboard-response","trial_index":184,"plugin_version":"2.1.0","time_elapsed":672240,"subject_id":"92781","group":"Group1","condition":"3_Rep","full_date":"2026-02-24T19:53:21.309Z","date":"2026-02-24","time":"19:53:21"},{"task":"memory_phase","broad_category":"M","image_png":"M_Phyllite_07.png","image_id":263,"category_name":"Phyllite","category":17,"distinct_rating":2.59,"distinct_type":"Bottom","rt":null,"stimulus":"Stimuli_Rocks480/M_Phyllite_07.png","response":null,"trial_type":"image-keyboard-response","trial_index":185,"plugin_version":"2.1.0","time_elapsed":674742,"subject_id":"92781","group":"Group1","condition":"3_Rep","full_date":"2026-02-24T19:53:21.309Z","date":"2026-02-24","time":"19:53:21"},{"rt":null,"stimulus":"<p style=\"font-size: 50px; margin: 0; text-align: center;\">+</p>","response":null,"trial_type":"html-keyboard-response","trial_index":186,"plugin_version":"2.1.0","time_elapsed":675744,"subject_id":"92781","group":"Group1","condition":"3_Rep","full_date":"2026-02-24T19:53:21.309Z","date":"2026-02-24","time":"19:53:21"},{"task":"memory_phase","broad_category":"I","image_png":"I_Pumice_12.png","image_id":140,"category_name":"Pumice","category":9,"distinct_rating":2.97,"distinct_type":"Bottom","rt":null,"stimulus":"Stimuli_Rocks480/I_Pumice_12.png","response":null,"trial_type":"image-keyboard-response","trial_index":187,"plugin_version":"2.1.0","time_elapsed":678246,"subject_id":"92781","group":"Group1","condition":"3_Rep","full_date":"2026-02-24T19:53:21.309Z","date":"2026-02-24","time":"19:53:21"},{"rt":null,"stimulus":"<p style=\"font-size: 50px; margin: 0; text-align: center;\">+</p>","response":null,"trial_type":"html-keyboard-response","trial_index":188,"plugin_version":"2.1.0","time_elapsed":679248,"subject_id":"92781","group":"Group1","condition":"3_Rep","full_date":"2026-02-24T19:53:21.309Z","date":"2026-02-24","time":"19:53:21"},{"task":"memory_phase","broad_category":"S","image_png":"S_Shale_08.png","image_id":472,"category_name":"Shale","category":30,"distinct_rating":2.55,"distinct_type":"Bottom","rt":null,"stimulus":"Stimuli_Rocks480/S_Shale_08.png","response":null,"trial_type":"image-keyboard-response","trial_index":189,"plugin_version":"2.1.0","time_elapsed":681750,"subject_id":"92781","group":"Group1","condition":"3_Rep","full_date":"2026-02-24T19:53:21.309Z","date":"2026-02-24","time":"19:53:21"},{"rt":null,"stimulus":"<p style=\"font-size: 50px; margin: 0; text-align: center;\">+</p>","response":null,"trial_type":"html-keyboard-response","trial_index":190,"plugin_version":"2.1.0","time_elapsed":682752,"subject_id":"92781","group":"Group1","condition":"3_Rep","full_date":"2026-02-24T19:53:21.309Z","date":"2026-02-24","time":"19:53:21"},{"task":"memory_phase","broad_category":"I","image_png":"I_Rhyolite_11.png","image_id":155,"category_name":"Rhyolite","category":10,"distinct_rating":1.73,"distinct_type":"Bottom","rt":null,"stimulus":"Stimuli_Rocks480/I_Rhyolite_11.png","response":null,"trial_type":"image-keyboard-response","trial_index":191,"plugin_version":"2.1.0","time_elapsed":685254,"subject_id":"92781","group":"Group1","condition":"3_Rep","full_date":"2026-02-24T19:53:21.309Z","date":"2026-02-24","time":"19:53:21"},{"rt":null,"stimulus":"<p style=\"font-size: 50px; margin: 0; text-align: center;\">+</p>","response":null,"trial_type":"html-keyboard-response","trial_index":192,"plugin_version":"2.1.0","time_elapsed":686256,"subject_id":"92781","group":"Group1","condition":"3_Rep","full_date":"2026-02-24T19:53:21.309Z","date":"2026-02-24","time":"19:53:21"},{"task":"memory_phase","broad_category":"I","image_png":"I_Diorite_03.png","image_id":35,"category_name":"Diorite","category":3,"distinct_rating":3.14,"distinct_type":"Bottom","rt":null,"stimulus":"Stimuli_Rocks480/I_Diorite_03.png","response":null,"trial_type":"image-keyboard-response","trial_index":193,"plugin_version":"2.1.0","time_elapsed":688757,"subject_id":"92781","group":"Group1","condition":"3_Rep","full_date":"2026-02-24T19:53:21.309Z","date":"2026-02-24","time":"19:53:21"},{"rt":null,"stimulus":"<p style=\"font-size: 50px; margin: 0; text-align: center;\">+</p>","response":null,"trial_type":"html-keyboard-response","trial_index":194,"plugin_version":"2.1.0","time_elapsed":689759,"subject_id":"92781","group":"Group1","condition":"3_Rep","full_date":"2026-02-24T19:53:21.309Z","date":"2026-02-24","time":"19:53:21"},{"task":"memory_phase","broad_category":"M","image_png":"M_Gneiss_05.png","image_id":197,"category_name":"Gneiss","category":13,"distinct_rating":2.97,"distinct_type":"Bottom","rt":null,"stimulus":"Stimuli_Rocks480/M_Gneiss_05.png","response":null,"trial_type":"image-keyboard-response","trial_index":195,"plugin_version":"2.1.0","time_elapsed":692262,"subject_id":"92781","group":"Group1","condition":"3_Rep","full_date":"2026-02-24T19:53:21.309Z","date":"2026-02-24","time":"19:53:21"},{"rt":null,"stimulus":"<p style=\"font-size: 50px; margin: 0; text-align: center;\">+</p>","response":null,"trial_type":"html-keyboard-response","trial_index":196,"plugin_version":"2.1.0","time_elapsed":693263,"subject_id":"92781","group":"Group1","condition":"3_Rep","full_date":"2026-02-24T19:53:21.309Z","date":"2026-02-24","time":"19:53:21"},{"task":"memory_phase","broad_category":"M","image_png":"M_Slate_15.png","image_id":319,"category_name":"Slate","category":20,"distinct_rating":2.13,"distinct_type":"Bottom","rt":null,"stimulus":"Stimuli_Rocks480/M_Slate_15.png","response":null,"trial_type":"image-keyboard-response","trial_index":197,"plugin_version":"2.1.0","time_elapsed":695765,"subject_id":"92781","group":"Group1","condition":"3_Rep","full_date":"2026-02-24T19:53:21.309Z","date":"2026-02-24","time":"19:53:21"},{"rt":null,"stimulus":"<p style=\"font-size: 50px; margin: 0; text-align: center;\">+</p>","response":null,"trial_type":"html-keyboard-response","trial_index":198,"plugin_version":"2.1.0","time_elapsed":696767,"subject_id":"92781","group":"Group1","condition":"3_Rep","full_date":"2026-02-24T19:53:21.309Z","date":"2026-02-24","time":"19:53:21"},{"task":"memory_phase","broad_category":"S","image_png":"S_Dolomite_14.png","image_id":398,"category_name":"Dolomite","category":25,"distinct_rating":1.43,"distinct_type":"Bottom","rt":null,"stimulus":"Stimuli_Rocks480/S_Dolomite_14.png","response":null,"trial_type":"image-keyboard-response","trial_index":199,"plugin_version":"2.1.0","time_elapsed":699270,"subject_id":"92781","group":"Group1","condition":"3_Rep","full_date":"2026-02-24T19:53:21.309Z","date":"2026-02-24","time":"19:53:21"},{"rt":null,"stimulus":"<p style=\"font-size: 50px; margin: 0; text-align: center;\">+</p>","response":null,"trial_type":"html-keyboard-response","trial_index":200,"plugin_version":"2.1.0","time_elapsed":700271,"subject_id":"92781","group":"Group1","condition":"3_Rep","full_date":"2026-02-24T19:53:21.309Z","date":"2026-02-24","time":"19:53:21"},{"task":"memory_phase","broad_category":"I","image_png":"I_Pumice_11.png","image_id":139,"category_name":"Pumice","category":9,"distinct_rating":1.74,"distinct_type":"Bottom","rt":null,"stimulus":"Stimuli_Rocks480/I_Pumice_11.png","response":null,"trial_type":"image-keyboard-response","trial_index":201,"plugin_version":"2.1.0","time_elapsed":702773,"subject_id":"92781","group":"Group1","condition":"3_Rep","full_date":"2026-02-24T19:53:21.309Z","date":"2026-02-24","time":"19:53:21"},{"rt":null,"stimulus":"<p style=\"font-size: 50px; margin: 0; text-align: center;\">+</p>","response":null,"trial_type":"html-keyboard-response","trial_index":202,"plugin_version":"2.1.0","time_elapsed":703775,"subject_id":"92781","group":"Group1","condition":"3_Rep","full_date":"2026-02-24T19:53:21.309Z","date":"2026-02-24","time":"19:53:21"},{"task":"memory_phase","broad_category":"M","image_png":"M_Marble_04.png","image_id":228,"category_name":"Marble","category":15,"distinct_rating":3.15,"distinct_type":"Bottom","rt":null,"stimulus":"Stimuli_Rocks480/M_Marble_04.png","response":null,"trial_type":"image-keyboard-response","trial_index":203,"plugin_version":"2.1.0","time_elapsed":706278,"subject_id":"92781","group":"Group1","condition":"3_Rep","full_date":"2026-02-24T19:53:21.309Z","date":"2026-02-24","time":"19:53:21"},{"rt":null,"stimulus":"<p style=\"font-size: 50px; margin: 0; text-align: center;\">+</p>","response":null,"trial_type":"html-keyboard-response","trial_index":204,"plugin_version":"2.1.0","time_elapsed":707280,"subject_id":"92781","group":"Group1","condition":"3_Rep","full_date":"2026-02-24T19:53:21.309Z","date":"2026-02-24","time":"19:53:21"},{"task":"memory_phase","broad_category":"S","image_png":"S_Shale_12.png","image_id":476,"category_name":"Shale","category":30,"distinct_rating":2.48,"distinct_type":"Bottom","rt":null,"stimulus":"Stimuli_Rocks480/S_Shale_12.png","response":null,"trial_type":"image-keyboard-response","trial_index":205,"plugin_version":"2.1.0","time_elapsed":709781,"subject_id":"92781","group":"Group1","condition":"3_Rep","full_date":"2026-02-24T19:53:21.309Z","date":"2026-02-24","time":"19:53:21"},{"rt":null,"stimulus":"<p style=\"font-size: 50px; margin: 0; text-align: center;\">+</p>","response":null,"trial_type":"html-keyboard-response","trial_index":206,"plugin_version":"2.1.0","time_elapsed":710783,"subject_id":"92781","group":"Group1","condition":"3_Rep","full_date":"2026-02-24T19:53:21.309Z","date":"2026-02-24","time":"19:53:21"},{"task":"memory_phase","broad_category":"I","image_png":"I_Basalt_02.png","image_id":18,"category_name":"Basalt","category":2,"distinct_rating":1.84,"distinct_type":"Bottom","rt":null,"stimulus":"Stimuli_Rocks480/I_Basalt_02.png","response":null,"trial_type":"image-keyboard-response","trial_index":207,"plugin_version":"2.1.0","time_elapsed":713286,"subject_id":"92781","group":"Group1","condition":"3_Rep","full_date":"2026-02-24T19:53:21.309Z","date":"2026-02-24","time":"19:53:21"},{"rt":24086,"stimulus":"<p style=\"max-width: 760px; margin: auto; font-size: 35px; line-height: 1.5;\">\n                You have completed 2 study phases. \n                Now, we'll show you all the images again 1 more time.\n                <br><br>Press SPACE to continue\n              </p>","response":" ","trial_type":"html-keyboard-response","trial_index":208,"plugin_version":"2.1.0","time_elapsed":737373,"subject_id":"92781","group":"Group1","condition":"3_Rep","full_date":"2026-02-24T19:53:21.309Z","date":"2026-02-24","time":"19:53:21"},{"rt":null,"stimulus":"<p style=\"font-size: 50px; margin: 0; text-align: center;\">+</p>","response":null,"trial_type":"html-keyboard-response","trial_index":209,"plugin_version":"2.1.0","time_elapsed":738375,"subject_id":"92781","group":"Group1","condition":"3_Rep","full_date":"2026-02-24T19:53:21.309Z","date":"2026-02-24","time":"19:53:21"},{"task":"memory_phase","broad_category":"I","image_png":"I_Pumice_12.png","image_id":140,"category_name":"Pumice","category":9,"distinct_rating":2.97,"distinct_type":"Bottom","rt":null,"stimulus":"Stimuli_Rocks480/I_Pumice_12.png","response":null,"trial_type":"image-keyboard-response","trial_index":210,"plugin_version":"2.1.0","time_elapsed":740877,"subject_id":"92781","group":"Group1","condition":"3_Rep","full_date":"2026-02-24T19:53:21.309Z","date":"2026-02-24","time":"19:53:21"},{"rt":null,"stimulus":"<p style=\"font-size: 50px; margin: 0; text-align: center;\">+</p>","response":null,"trial_type":"html-keyboard-response","trial_index":211,"plugin_version":"2.1.0","time_elapsed":741879,"subject_id":"92781","group":"Group1","condition":"3_Rep","full_date":"2026-02-24T19:53:21.309Z","date":"2026-02-24","time":"19:53:21"},{"task":"memory_phase","broad_category":"S","image_png":"S_Rock Gypsum_04.png","image_id":420,"category_name":"Rock Gypsum","category":27,"distinct_rating":7.61,"distinct_type":"Top","rt":null,"stimulus":"Stimuli_Rocks480/S_Rock Gypsum_04.png","response":null,"trial_type":"image-keyboard-response","trial_index":212,"plugin_version":"2.1.0","time_elapsed":744381,"subject_id":"92781","group":"Group1","condition":"3_Rep","full_date":"2026-02-24T19:53:21.309Z","date":"2026-02-24","time":"19:53:21"},{"rt":null,"stimulus":"<p style=\"font-size: 50px; margin: 0; text-align: center;\">+</p>","response":null,"trial_type":"html-keyboard-response","trial_index":213,"plugin_version":"2.1.0","time_elapsed":745383,"subject_id":"92781","group":"Group1","condition":"3_Rep","full_date":"2026-02-24T19:53:21.309Z","date":"2026-02-24","time":"19:53:21"},{"task":"memory_phase","broad_category":"M","image_png":"M_Slate_11.png","image_id":315,"category_name":"Slate","category":20,"distinct_rating":2.75,"distinct_type":"Bottom","rt":null,"stimulus":"Stimuli_Rocks480/M_Slate_11.png","response":null,"trial_type":"image-keyboard-response","trial_index":214,"plugin_version":"2.1.0","time_elapsed":747886,"subject_id":"92781","group":"Group1","condition":"3_Rep","full_date":"2026-02-24T19:53:21.309Z","date":"2026-02-24","time":"19:53:21"},{"rt":null,"stimulus":"<p style=\"font-size: 50px; margin: 0; text-align: center;\">+</p>","response":null,"trial_type":"html-keyboard-response","trial_index":215,"plugin_version":"2.1.0","time_elapsed":748888,"subject_id":"92781","group":"Group1","condition":"3_Rep","full_date":"2026-02-24T19:53:21.309Z","date":"2026-02-24","time":"19:53:21"},{"task":"memory_phase","broad_category":"I","image_png":"I_Pumice_08.png","image_id":136,"category_name":"Pumice","category":9,"distinct_rating":3.1,"distinct_type":"Bottom","rt":null,"stimulus":"Stimuli_Rocks480/I_Pumice_08.png","response":null,"trial_type":"image-keyboard-response","trial_index":216,"plugin_version":"2.1.0","time_elapsed":751389,"subject_id":"92781","group":"Group1","condition":"3_Rep","full_date":"2026-02-24T19:53:21.309Z","date":"2026-02-24","time":"19:53:21"},{"rt":null,"stimulus":"<p style=\"font-size: 50px; margin: 0; text-align: center;\">+</p>","response":null,"trial_type":"html-keyboard-response","trial_index":217,"plugin_version":"2.1.0","time_elapsed":752392,"subject_id":"92781","group":"Group1","condition":"3_Rep","full_date":"2026-02-24T19:53:21.309Z","date":"2026-02-24","time":"19:53:21"},{"task":"memory_phase","broad_category":"M","image_png":"M_Gneiss_13.png","image_id":205,"category_name":"Gneiss","category":13,"distinct_rating":3.26,"distinct_type":"Bottom","rt":null,"stimulus":"Stimuli_Rocks480/M_Gneiss_13.png","response":null,"trial_type":"image-keyboard-response","trial_index":218,"plugin_version":"2.1.0","time_elapsed":754893,"subject_id":"92781","group":"Group1","condition":"3_Rep","full_date":"2026-02-24T19:53:21.309Z","date":"2026-02-24","time":"19:53:21"},{"rt":null,"stimulus":"<p style=\"font-size: 50px; margin: 0; text-align: center;\">+</p>","response":null,"trial_type":"html-keyboard-response","trial_index":219,"plugin_version":"2.1.0","time_elapsed":755895,"subject_id":"92781","group":"Group1","condition":"3_Rep","full_date":"2026-02-24T19:53:21.309Z","date":"2026-02-24","time":"19:53:21"},{"task":"memory_phase","broad_category":"M","image_png":"M_Quartzite_13.png","image_id":285,"category_name":"Quartzite","category":18,"distinct_rating":2.27,"distinct_type":"Bottom","rt":null,"stimulus":"Stimuli_Rocks480/M_Quartzite_13.png","response":null,"trial_type":"image-keyboard-response","trial_index":220,"plugin_version":"2.1.0","time_elapsed":758397,"subject_id":"92781","group":"Group1","condition":"3_Rep","full_date":"2026-02-24T19:53:21.309Z","date":"2026-02-24","time":"19:53:21"},{"rt":null,"stimulus":"<p style=\"font-size: 50px; margin: 0; text-align: center;\">+</p>","response":null,"trial_type":"html-keyboard-response","trial_index":221,"plugin_version":"2.1.0","time_elapsed":759399,"subject_id":"92781","group":"Group1","condition":"3_Rep","full_date":"2026-02-24T19:53:21.309Z","date":"2026-02-24","time":"19:53:21"},{"task":"memory_phase","broad_category":"S","image_png":"S_Sandstone_03.png","image_id":451,"category_name":"Sandstone","category":29,"distinct_rating":1.86,"distinct_type":"Bottom","rt":null,"stimulus":"Stimuli_Rocks480/S_Sandstone_03.png","response":null,"trial_type":"image-keyboard-response","trial_index":222,"plugin_version":"2.1.0","time_elapsed":761901,"subject_id":"92781","group":"Group1","condition":"3_Rep","full_date":"2026-02-24T19:53:21.309Z","date":"2026-02-24","time":"19:53:21"},{"rt":null,"stimulus":"<p style=\"font-size: 50px; margin: 0; text-align: center;\">+</p>","response":null,"trial_type":"html-keyboard-response","trial_index":223,"plugin_version":"2.1.0","time_elapsed":762903,"subject_id":"92781","group":"Group1","condition":"3_Rep","full_date":"2026-02-24T19:53:21.309Z","date":"2026-02-24","time":"19:53:21"},{"task":"memory_phase","broad_category":"M","image_png":"M_Marble_06.png","image_id":230,"category_name":"Marble","category":15,"distinct_rating":3.4,"distinct_type":"Bottom","rt":null,"stimulus":"Stimuli_Rocks480/M_Marble_06.png","response":null,"trial_type":"image-keyboard-response","trial_index":224,"plugin_version":"2.1.0","time_elapsed":765405,"subject_id":"92781","group":"Group1","condition":"3_Rep","full_date":"2026-02-24T19:53:21.309Z","date":"2026-02-24","time":"19:53:21"},{"rt":null,"stimulus":"<p style=\"font-size: 50px; margin: 0; text-align: center;\">+</p>","response":null,"trial_type":"html-keyboard-response","trial_index":225,"plugin_version":"2.1.0","time_elapsed":766407,"subject_id":"92781","group":"Group1","condition":"3_Rep","full_date":"2026-02-24T19:53:21.309Z","date":"2026-02-24","time":"19:53:21"},{"task":"memory_phase","broad_category":"S","image_png":"S_Chert_10.png","image_id":362,"category_name":"Chert","category":23,"distinct_rating":7.17,"distinct_type":"Top","rt":null,"stimulus":"Stimuli_Rocks480/S_Chert_10.png","response":null,"trial_type":"image-keyboard-response","trial_index":226,"plugin_version":"2.1.0","time_elapsed":768910,"subject_id":"92781","group":"Group1","condition":"3_Rep","full_date":"2026-02-24T19:53:21.309Z","date":"2026-02-24","time":"19:53:21"},{"rt":null,"stimulus":"<p style=\"font-size: 50px; margin: 0; text-align: center;\">+</p>","response":null,"trial_type":"html-keyboard-response","trial_index":227,"plugin_version":"2.1.0","time_elapsed":769911,"subject_id":"92781","group":"Group1","condition":"3_Rep","full_date":"2026-02-24T19:53:21.309Z","date":"2026-02-24","time":"19:53:21"},{"task":"memory_phase","broad_category":"S","image_png":"S_Rock Salt_01.png","image_id":433,"category_name":"Rock Salt","category":28,"distinct_rating":7.18,"distinct_type":"Top","rt":null,"stimulus":"Stimuli_Rocks480/S_Rock Salt_01.png","response":null,"trial_type":"image-keyboard-response","trial_index":228,"plugin_version":"2.1.0","time_elapsed":772413,"subject_id":"92781","group":"Group1","condition":"3_Rep","full_date":"2026-02-24T19:53:21.309Z","date":"2026-02-24","time":"19:53:21"},{"rt":null,"stimulus":"<p style=\"font-size: 50px; margin: 0; text-align: center;\">+</p>","response":null,"trial_type":"html-keyboard-response","trial_index":229,"plugin_version":"2.1.0","time_elapsed":773415,"subject_id":"92781","group":"Group1","condition":"3_Rep","full_date":"2026-02-24T19:53:21.309Z","date":"2026-02-24","time":"19:53:21"},{"task":"memory_phase","broad_category":"M","image_png":"M_Quartzite_08.png","image_id":280,"category_name":"Quartzite","category":18,"distinct_rating":2.15,"distinct_type":"Bottom","rt":null,"stimulus":"Stimuli_Rocks480/M_Quartzite_08.png","response":null,"trial_type":"image-keyboard-response","trial_index":230,"plugin_version":"2.1.0","time_elapsed":775918,"subject_id":"92781","group":"Group1","condition":"3_Rep","full_date":"2026-02-24T19:53:21.309Z","date":"2026-02-24","time":"19:53:21"},{"rt":null,"stimulus":"<p style=\"font-size: 50px; margin: 0; text-align: center;\">+</p>","response":null,"trial_type":"html-keyboard-response","trial_index":231,"plugin_version":"2.1.0","time_elapsed":776920,"subject_id":"92781","group":"Group1","condition":"3_Rep","full_date":"2026-02-24T19:53:21.309Z","date":"2026-02-24","time":"19:53:21"},{"task":"memory_phase","broad_category":"S","image_png":"S_Breccia_11.png","image_id":347,"category_name":"Breccia","category":22,"distinct_rating":6.7,"distinct_type":"Top","rt":null,"stimulus":"Stimuli_Rocks480/S_Breccia_11.png","response":null,"trial_type":"image-keyboard-response","trial_index":232,"plugin_version":"2.1.0","time_elapsed":779422,"subject_id":"92781","group":"Group1","condition":"3_Rep","full_date":"2026-02-24T19:53:21.309Z","date":"2026-02-24","time":"19:53:21"},{"rt":null,"stimulus":"<p style=\"font-size: 50px; margin: 0; text-align: center;\">+</p>","response":null,"trial_type":"html-keyboard-response","trial_index":233,"plugin_version":"2.1.0","time_elapsed":780424,"subject_id":"92781","group":"Group1","condition":"3_Rep","full_date":"2026-02-24T19:53:21.309Z","date":"2026-02-24","time":"19:53:21"},{"task":"memory_phase","broad_category":"I","image_png":"I_Gabbro_16.png","image_id":64,"category_name":"Gabbro","category":4,"distinct_rating":2.52,"distinct_type":"Bottom","rt":null,"stimulus":"Stimuli_Rocks480/I_Gabbro_16.png","response":null,"trial_type":"image-keyboard-response","trial_index":234,"plugin_version":"2.1.0","time_elapsed":782926,"subject_id":"92781","group":"Group1","condition":"3_Rep","full_date":"2026-02-24T19:53:21.309Z","date":"2026-02-24","time":"19:53:21"},{"rt":null,"stimulus":"<p style=\"font-size: 50px; margin: 0; text-align: center;\">+</p>","response":null,"trial_type":"html-keyboard-response","trial_index":235,"plugin_version":"2.1.0","time_elapsed":783927,"subject_id":"92781","group":"Group1","condition":"3_Rep","full_date":"2026-02-24T19:53:21.309Z","date":"2026-02-24","time":"19:53:21"},{"task":"memory_phase","broad_category":"M","image_png":"M_Phyllite_10.png","image_id":266,"category_name":"Phyllite","category":17,"distinct_rating":2.6,"distinct_type":"Bottom","rt"