[{"width":1093,"height":724,"webaudio":true,"browser":"safari","browser_version":"18.6.0","mobile":false,"os":"Mac OS","fullscreen":true,"vsync_rate":59.94,"webcam":true,"microphone":true,"trial_type":"browser-check","trial_index":0,"plugin_version":"2.1.0","time_elapsed":1012,"subject_id":"90904","group":"Group1","condition":"1_Rep","full_date":"2026-01-27T02:05:18.696Z","date":"2026-01-27","time":"02:05:18"},{"success":true,"timeout":false,"failed_images":[],"failed_audio":[],"failed_video":[],"trial_type":"preload","trial_index":1,"plugin_version":"2.1.0","time_elapsed":2924,"subject_id":"90904","group":"Group1","condition":"1_Rep","full_date":"2026-01-27T02:05:18.696Z","date":"2026-01-27","time":"02:05:18"},{"rt":391837,"url":"SONA_consent_memorability.html","trial_type":"external-html","trial_index":2,"plugin_version":"2.1.0","time_elapsed":529621,"subject_id":"90904","group":"Group1","condition":"1_Rep","full_date":"2026-01-27T02:05:18.696Z","date":"2026-01-27","time":"02:05:18"},{"success":true,"rt":3164,"trial_type":"fullscreen","trial_index":3,"plugin_version":"2.1.0","time_elapsed":533791,"subject_id":"90904","group":"Group1","condition":"1_Rep","full_date":"2026-01-27T02:05:18.696Z","date":"2026-01-27","time":"02:05:18"},{"rt":57480,"stimulus":"<div style=\"max-width: 760px; margin: auto; font-size: 20px; line-height: 1.5;\">\n      <h1 style=\"text-align:center; font-size: 30px;\">Instructions</h1>\n      <p>\n        Welcome to the study on <b>visual memory</b>. This experiment consists of <b>two phases</b>: \n        a <b>study phase</b> and a <b>test phase</b>.\n      </p>\n      <p>\n        In the study phase, you will see a series of rock images along with their category labels.\n        The images will appear one at a time.\n        <b>Your task</b> is to learn the categories to which the rock images belong \n        and to remember each image as accurately as possible.\n      </p> \n      <p>\n        Note that you will see each image only <b>once</b> during the study phase. \n          So, please pay close attention and try to remember each image carefully.\n      </p>\n      <p>\n        After the study phase, <b>your memory will be tested</b>. \n        Additional instructions for the test phase will be provided at that time.\n      </p>\n      <p>\n        If your computer has multiple <b>language settings</b> (e.g., English and another language),\n        please make sure it is set to English before starting.\n      </p>\n      <p>\n        You can track your progress using the <b>completion bar</b> at the top of the screen. \n        Please note that the bar will refresh when the test phase begins \n        to give you an accurate sense of your progress in both phases.\n      </p> \n      <p>\n        Press the button below when you are ready to begin.\n      </p>\n    </div>","response":0,"trial_type":"html-button-response","trial_index":4,"plugin_version":"2.1.0","time_elapsed":591273,"subject_id":"90904","group":"Group1","condition":"1_Rep","full_date":"2026-01-27T02:05:18.696Z","date":"2026-01-27","time":"02:05:18"},{"rt":null,"stimulus":"<p style=\"font-size: 50px; margin: 0; text-align: center;\">+</p>","response":null,"trial_type":"html-keyboard-response","trial_index":5,"plugin_version":"2.1.0","time_elapsed":592278,"subject_id":"90904","group":"Group1","condition":"1_Rep","full_date":"2026-01-27T02:05:18.696Z","date":"2026-01-27","time":"02:05:18"},{"task":"memory_phase","broad_category":"M","image_png":"M_Quartzite_13.png","image_id":285,"category_name":"Quartzite","category":18,"distinct_rating":2.27,"distinct_type":"Bottom","rt":null,"stimulus":"Stimuli_Rocks480/M_Quartzite_13.png","response":null,"trial_type":"image-keyboard-response","trial_index":6,"plugin_version":"2.1.0","time_elapsed":594803,"subject_id":"90904","group":"Group1","condition":"1_Rep","full_date":"2026-01-27T02:05:18.696Z","date":"2026-01-27","time":"02:05:18"},{"rt":null,"stimulus":"<p style=\"font-size: 50px; margin: 0; text-align: center;\">+</p>","response":null,"trial_type":"html-keyboard-response","trial_index":7,"plugin_version":"2.1.0","time_elapsed":595806,"subject_id":"90904","group":"Group1","condition":"1_Rep","full_date":"2026-01-27T02:05:18.696Z","date":"2026-01-27","time":"02:05:18"},{"task":"memory_phase","broad_category":"I","image_png":"I_Pumice_08.png","image_id":136,"category_name":"Pumice","category":9,"distinct_rating":3.1,"distinct_type":"Bottom","rt":null,"stimulus":"Stimuli_Rocks480/I_Pumice_08.png","response":null,"trial_type":"image-keyboard-response","trial_index":8,"plugin_version":"2.1.0","time_elapsed":598330,"subject_id":"90904","group":"Group1","condition":"1_Rep","full_date":"2026-01-27T02:05:18.696Z","date":"2026-01-27","time":"02:05:18"},{"rt":null,"stimulus":"<p style=\"font-size: 50px; margin: 0; text-align: center;\">+</p>","response":null,"trial_type":"html-keyboard-response","trial_index":9,"plugin_version":"2.1.0","time_elapsed":599333,"subject_id":"90904","group":"Group1","condition":"1_Rep","full_date":"2026-01-27T02:05:18.696Z","date":"2026-01-27","time":"02:05:18"},{"task":"memory_phase","broad_category":"M","image_png":"M_Marble_16.png","image_id":240,"category_name":"Marble","category":15,"distinct_rating":2.57,"distinct_type":"Bottom","rt":null,"stimulus":"Stimuli_Rocks480/M_Marble_16.png","response":null,"trial_type":"image-keyboard-response","trial_index":10,"plugin_version":"2.1.0","time_elapsed":601858,"subject_id":"90904","group":"Group1","condition":"1_Rep","full_date":"2026-01-27T02:05:18.696Z","date":"2026-01-27","time":"02:05:18"},{"rt":null,"stimulus":"<p style=\"font-size: 50px; margin: 0; text-align: center;\">+</p>","response":null,"trial_type":"html-keyboard-response","trial_index":11,"plugin_version":"2.1.0","time_elapsed":602861,"subject_id":"90904","group":"Group1","condition":"1_Rep","full_date":"2026-01-27T02:05:18.696Z","date":"2026-01-27","time":"02:05:18"},{"task":"memory_phase","broad_category":"S","image_png":"S_Sandstone_15.png","image_id":463,"category_name":"Sandstone","category":29,"distinct_rating":2,"distinct_type":"Bottom","rt":null,"stimulus":"Stimuli_Rocks480/S_Sandstone_15.png","response":null,"trial_type":"image-keyboard-response","trial_index":12,"plugin_version":"2.1.0","time_elapsed":605390,"subject_id":"90904","group":"Group1","condition":"1_Rep","full_date":"2026-01-27T02:05:18.696Z","date":"2026-01-27","time":"02:05:18"},{"rt":null,"stimulus":"<p style=\"font-size: 50px; margin: 0; text-align: center;\">+</p>","response":null,"trial_type":"html-keyboard-response","trial_index":13,"plugin_version":"2.1.0","time_elapsed":606393,"subject_id":"90904","group":"Group1","condition":"1_Rep","full_date":"2026-01-27T02:05:18.696Z","date":"2026-01-27","time":"02:05:18"},{"task":"memory_phase","broad_category":"I","image_png":"I_Pumice_11.png","image_id":139,"category_name":"Pumice","category":9,"distinct_rating":1.74,"distinct_type":"Bottom","rt":null,"stimulus":"Stimuli_Rocks480/I_Pumice_11.png","response":null,"trial_type":"image-keyboard-response","trial_index":14,"plugin_version":"2.1.0","time_elapsed":608909,"subject_id":"90904","group":"Group1","condition":"1_Rep","full_date":"2026-01-27T02:05:18.696Z","date":"2026-01-27","time":"02:05:18"},{"rt":null,"stimulus":"<p style=\"font-size: 50px; margin: 0; text-align: center;\">+</p>","response":null,"trial_type":"html-keyboard-response","trial_index":15,"plugin_version":"2.1.0","time_elapsed":609912,"subject_id":"90904","group":"Group1","condition":"1_Rep","full_date":"2026-01-27T02:05:18.696Z","date":"2026-01-27","time":"02:05:18"},{"task":"memory_phase","broad_category":"M","image_png":"M_Phyllite_03.png","image_id":259,"category_name":"Phyllite","category":17,"distinct_rating":2.5,"distinct_type":"Bottom","rt":null,"stimulus":"Stimuli_Rocks480/M_Phyllite_03.png","response":null,"trial_type":"image-keyboard-response","trial_index":16,"plugin_version":"2.1.0","time_elapsed":612434,"subject_id":"90904","group":"Group1","condition":"1_Rep","full_date":"2026-01-27T02:05:18.696Z","date":"2026-01-27","time":"02:05:18"},{"rt":null,"stimulus":"<p style=\"font-size: 50px; margin: 0; text-align: center;\">+</p>","response":null,"trial_type":"html-keyboard-response","trial_index":17,"plugin_version":"2.1.0","time_elapsed":613437,"subject_id":"90904","group":"Group1","condition":"1_Rep","full_date":"2026-01-27T02:05:18.696Z","date":"2026-01-27","time":"02:05:18"},{"task":"memory_phase","broad_category":"S","image_png":"S_Shale_08.png","image_id":472,"category_name":"Shale","category":30,"distinct_rating":2.55,"distinct_type":"Bottom","rt":null,"stimulus":"Stimuli_Rocks480/S_Shale_08.png","response":null,"trial_type":"image-keyboard-response","trial_index":18,"plugin_version":"2.1.0","time_elapsed":615965,"subject_id":"90904","group":"Group1","condition":"1_Rep","full_date":"2026-01-27T02:05:18.696Z","date":"2026-01-27","time":"02:05:18"},{"rt":null,"stimulus":"<p style=\"font-size: 50px; margin: 0; text-align: center;\">+</p>","response":null,"trial_type":"html-keyboard-response","trial_index":19,"plugin_version":"2.1.0","time_elapsed":616967,"subject_id":"90904","group":"Group1","condition":"1_Rep","full_date":"2026-01-27T02:05:18.696Z","date":"2026-01-27","time":"02:05:18"},{"task":"memory_phase","broad_category":"M","image_png":"M_Marble_04.png","image_id":228,"category_name":"Marble","category":15,"distinct_rating":3.15,"distinct_type":"Bottom","rt":null,"stimulus":"Stimuli_Rocks480/M_Marble_04.png","response":null,"trial_type":"image-keyboard-response","trial_index":20,"plugin_version":"2.1.0","time_elapsed":619491,"subject_id":"90904","group":"Group1","condition":"1_Rep","full_date":"2026-01-27T02:05:18.696Z","date":"2026-01-27","time":"02:05:18"},{"rt":null,"stimulus":"<p style=\"font-size: 50px; margin: 0; text-align: center;\">+</p>","response":null,"trial_type":"html-keyboard-response","trial_index":21,"plugin_version":"2.1.0","time_elapsed":620494,"subject_id":"90904","group":"Group1","condition":"1_Rep","full_date":"2026-01-27T02:05:18.696Z","date":"2026-01-27","time":"02:05:18"},{"task":"memory_phase","broad_category":"I","image_png":"I_Basalt_01.png","image_id":17,"category_name":"Basalt","category":2,"distinct_rating":1.92,"distinct_type":"Bottom","rt":null,"stimulus":"Stimuli_Rocks480/I_Basalt_01.png","response":null,"trial_type":"image-keyboard-response","trial_index":22,"plugin_version":"2.1.0","time_elapsed":623022,"subject_id":"90904","group":"Group1","condition":"1_Rep","full_date":"2026-01-27T02:05:18.696Z","date":"2026-01-27","time":"02:05:18"},{"rt":null,"stimulus":"<p style=\"font-size: 50px; margin: 0; text-align: center;\">+</p>","response":null,"trial_type":"html-keyboard-response","trial_index":23,"plugin_version":"2.1.0","time_elapsed":624025,"subject_id":"90904","group":"Group1","condition":"1_Rep","full_date":"2026-01-27T02:05:18.696Z","date":"2026-01-27","time":"02:05:18"},{"task":"memory_phase","broad_category":"I","image_png":"I_Diorite_03.png","image_id":35,"category_name":"Diorite","category":3,"distinct_rating":3.14,"distinct_type":"Bottom","rt":null,"stimulus":"Stimuli_Rocks480/I_Diorite_03.png","response":null,"trial_type":"image-keyboard-response","trial_index":24,"plugin_version":"2.1.0","time_elapsed":626554,"subject_id":"90904","group":"Group1","condition":"1_Rep","full_date":"2026-01-27T02:05:18.696Z","date":"2026-01-27","time":"02:05:18"},{"rt":null,"stimulus":"<p style=\"font-size: 50px; margin: 0; text-align: center;\">+</p>","response":null,"trial_type":"html-keyboard-response","trial_index":25,"plugin_version":"2.1.0","time_elapsed":627557,"subject_id":"90904","group":"Group1","condition":"1_Rep","full_date":"2026-01-27T02:05:18.696Z","date":"2026-01-27","time":"02:05:18"},{"task":"memory_phase","broad_category":"S","image_png":"S_Conglomerate_05.png","image_id":373,"category_name":"Conglomerate","category":24,"distinct_rating":7.32,"distinct_type":"Top","rt":null,"stimulus":"Stimuli_Rocks480/S_Conglomerate_05.png","response":null,"trial_type":"image-keyboard-response","trial_index":26,"plugin_version":"2.1.0","time_elapsed":630082,"subject_id":"90904","group":"Group1","condition":"1_Rep","full_date":"2026-01-27T02:05:18.696Z","date":"2026-01-27","time":"02:05:18"},{"rt":null,"stimulus":"<p style=\"font-size: 50px; margin: 0; text-align: center;\">+</p>","response":null,"trial_type":"html-keyboard-response","trial_index":27,"plugin_version":"2.1.0","time_elapsed":631085,"subject_id":"90904","group":"Group1","condition":"1_Rep","full_date":"2026-01-27T02:05:18.696Z","date":"2026-01-27","time":"02:05:18"},{"task":"memory_phase","broad_category":"M","image_png":"M_Phyllite_10.png","image_id":266,"category_name":"Phyllite","category":17,"distinct_rating":2.6,"distinct_type":"Bottom","rt":null,"stimulus":"Stimuli_Rocks480/M_Phyllite_10.png","response":null,"trial_type":"image-keyboard-response","trial_index":28,"plugin_version":"2.1.0","time_elapsed":633606,"subject_id":"90904","group":"Group1","condition":"1_Rep","full_date":"2026-01-27T02:05:18.696Z","date":"2026-01-27","time":"02:05:18"},{"rt":null,"stimulus":"<p style=\"font-size: 50px; margin: 0; text-align: center;\">+</p>","response":null,"trial_type":"html-keyboard-response","trial_index":29,"plugin_version":"2.1.0","time_elapsed":634609,"subject_id":"90904","group":"Group1","condition":"1_Rep","full_date":"2026-01-27T02:05:18.696Z","date":"2026-01-27","time":"02:05:18"},{"task":"memory_phase","broad_category":"I","image_png":"I_Rhyolite_14.png","image_id":158,"category_name":"Rhyolite","category":10,"distinct_rating":2.59,"distinct_type":"Bottom","rt":null,"stimulus":"Stimuli_Rocks480/I_Rhyolite_14.png","response":null,"trial_type":"image-keyboard-response","trial_index":30,"plugin_version":"2.1.0","time_elapsed":637129,"subject_id":"90904","group":"Group1","condition":"1_Rep","full_date":"2026-01-27T02:05:18.696Z","date":"2026-01-27","time":"02:05:18"},{"rt":null,"stimulus":"<p style=\"font-size: 50px; margin: 0; text-align: center;\">+</p>","response":null,"trial_type":"html-keyboard-response","trial_index":31,"plugin_version":"2.1.0","time_elapsed":638132,"subject_id":"90904","group":"Group1","condition":"1_Rep","full_date":"2026-01-27T02:05:18.696Z","date":"2026-01-27","time":"02:05:18"},{"task":"memory_phase","broad_category":"S","image_png":"S_Rock Gypsum_04.png","image_id":420,"category_name":"Rock Gypsum","category":27,"distinct_rating":7.61,"distinct_type":"Top","rt":null,"stimulus":"Stimuli_Rocks480/S_Rock Gypsum_04.png","response":null,"trial_type":"image-keyboard-response","trial_index":32,"plugin_version":"2.1.0","time_elapsed":640657,"subject_id":"90904","group":"Group1","condition":"1_Rep","full_date":"2026-01-27T02:05:18.696Z","date":"2026-01-27","time":"02:05:18"},{"rt":null,"stimulus":"<p style=\"font-size: 50px; margin: 0; text-align: center;\">+</p>","response":null,"trial_type":"html-keyboard-response","trial_index":33,"plugin_version":"2.1.0","time_elapsed":641661,"subject_id":"90904","group":"Group1","condition":"1_Rep","full_date":"2026-01-27T02:05:18.696Z","date":"2026-01-27","time":"02:05:18"},{"task":"memory_phase","broad_category":"I","image_png":"I_Rhyolite_16.png","image_id":160,"category_name":"Rhyolite","category":10,"distinct_rating":2.19,"distinct_type":"Bottom","rt":null,"stimulus":"Stimuli_Rocks480/I_Rhyolite_16.png","response":null,"trial_type":"image-keyboard-response","trial_index":34,"plugin_version":"2.1.0","time_elapsed":644179,"subject_id":"90904","group":"Group1","condition":"1_Rep","full_date":"2026-01-27T02:05:18.696Z","date":"2026-01-27","time":"02:05:18"},{"rt":null,"stimulus":"<p style=\"font-size: 50px; margin: 0; text-align: center;\">+</p>","response":null,"trial_type":"html-keyboard-response","trial_index":35,"plugin_version":"2.1.0","time_elapsed":645181,"subject_id":"90904","group":"Group1","condition":"1_Rep","full_date":"2026-01-27T02:05:18.696Z","date":"2026-01-27","time":"02:05:18"},{"task":"memory_phase","broad_category":"I","image_png":"I_Basalt_02.png","image_id":18,"category_name":"Basalt","category":2,"distinct_rating":1.84,"distinct_type":"Bottom","rt":null,"stimulus":"Stimuli_Rocks480/I_Basalt_02.png","response":null,"trial_type":"image-keyboard-response","trial_index":36,"plugin_version":"2.1.0","time_elapsed":647695,"subject_id":"90904","group":"Group1","condition":"1_Rep","full_date":"2026-01-27T02:05:18.696Z","date":"2026-01-27","time":"02:05:18"},{"rt":null,"stimulus":"<p style=\"font-size: 50px; margin: 0; text-align: center;\">+</p>","response":null,"trial_type":"html-keyboard-response","trial_index":37,"plugin_version":"2.1.0","time_elapsed":648698,"subject_id":"90904","group":"Group1","condition":"1_Rep","full_date":"2026-01-27T02:05:18.696Z","date":"2026-01-27","time":"02:05:18"},{"task":"memory_phase","broad_category":"M","image_png":"M_Quartzite_08.png","image_id":280,"category_name":"Quartzite","category":18,"distinct_rating":2.15,"distinct_type":"Bottom","rt":null,"stimulus":"Stimuli_Rocks480/M_Quartzite_08.png","response":null,"trial_type":"image-keyboard-response","trial_index":38,"plugin_version":"2.1.0","time_elapsed":651220,"subject_id":"90904","group":"Group1","condition":"1_Rep","full_date":"2026-01-27T02:05:18.696Z","date":"2026-01-27","time":"02:05:18"},{"rt":null,"stimulus":"<p style=\"font-size: 50px; margin: 0; text-align: center;\">+</p>","response":null,"trial_type":"html-keyboard-response","trial_index":39,"plugin_version":"2.1.0","time_elapsed":652223,"subject_id":"90904","group":"Group1","condition":"1_Rep","full_date":"2026-01-27T02:05:18.696Z","date":"2026-01-27","time":"02:05:18"},{"task":"memory_phase","broad_category":"M","image_png":"M_Gneiss_13.png","image_id":205,"category_name":"Gneiss","category":13,"distinct_rating":3.26,"distinct_type":"Bottom","rt":null,"stimulus":"Stimuli_Rocks480/M_Gneiss_13.png","response":null,"trial_type":"image-keyboard-response","trial_index":40,"plugin_version":"2.1.0","time_elapsed":654742,"subject_id":"90904","group":"Group1","condition":"1_Rep","full_date":"2026-01-27T02:05:18.696Z","date":"2026-01-27","time":"02:05:18"},{"rt":null,"stimulus":"<p style=\"font-size: 50px; margin: 0; text-align: center;\">+</p>","response":null,"trial_type":"html-keyboard-response","trial_index":41,"plugin_version":"2.1.0","time_elapsed":655745,"subject_id":"90904","group":"Group1","condition":"1_Rep","full_date":"2026-01-27T02:05:18.696Z","date":"2026-01-27","time":"02:05:18"},{"task":"memory_phase","broad_category":"M","image_png":"M_Slate_15.png","image_id":319,"category_name":"Slate","category":20,"distinct_rating":2.13,"distinct_type":"Bottom","rt":null,"stimulus":"Stimuli_Rocks480/M_Slate_15.png","response":null,"trial_type":"image-keyboard-response","trial_index":42,"plugin_version":"2.1.0","time_elapsed":658263,"subject_id":"90904","group":"Group1","condition":"1_Rep","full_date":"2026-01-27T02:05:18.696Z","date":"2026-01-27","time":"02:05:18"},{"rt":null,"stimulus":"<p style=\"font-size: 50px; margin: 0; text-align: center;\">+</p>","response":null,"trial_type":"html-keyboard-response","trial_index":43,"plugin_version":"2.1.0","time_elapsed":659266,"subject_id":"90904","group":"Group1","condition":"1_Rep","full_date":"2026-01-27T02:05:18.696Z","date":"2026-01-27","time":"02:05:18"},{"task":"memory_phase","broad_category":"M","image_png":"M_Slate_11.png","image_id":315,"category_name":"Slate","category":20,"distinct_rating":2.75,"distinct_type":"Bottom","rt":null,"stimulus":"Stimuli_Rocks480/M_Slate_11.png","response":null,"trial_type":"image-keyboard-response","trial_index":44,"plugin_version":"2.1.0","time_elapsed":661786,"subject_id":"90904","group":"Group1","condition":"1_Rep","full_date":"2026-01-27T02:05:18.696Z","date":"2026-01-27","time":"02:05:18"},{"rt":null,"stimulus":"<p style=\"font-size: 50px; margin: 0; text-align: center;\">+</p>","response":null,"trial_type":"html-keyboard-response","trial_index":45,"plugin_version":"2.1.0","time_elapsed":662789,"subject_id":"90904","group":"Group1","condition":"1_Rep","full_date":"2026-01-27T02:05:18.696Z","date":"2026-01-27","time":"02:05:18"},{"task":"memory_phase","broad_category":"M","image_png":"M_Gneiss_06.png","image_id":198,"category_name":"Gneiss","category":13,"distinct_rating":2.65,"distinct_type":"Bottom","rt":null,"stimulus":"Stimuli_Rocks480/M_Gneiss_06.png","response":null,"trial_type":"image-keyboard-response","trial_index":46,"plugin_version":"2.1.0","time_elapsed":665316,"subject_id":"90904","group":"Group1","condition":"1_Rep","full_date":"2026-01-27T02:05:18.696Z","date":"2026-01-27","time":"02:05:18"},{"rt":null,"stimulus":"<p style=\"font-size: 50px; margin: 0; text-align: center;\">+</p>","response":null,"trial_type":"html-keyboard-response","trial_index":47,"plugin_version":"2.1.0","time_elapsed":666319,"subject_id":"90904","group":"Group1","condition":"1_Rep","full_date":"2026-01-27T02:05:18.696Z","date":"2026-01-27","time":"02:05:18"},{"task":"memory_phase","broad_category":"I","image_png":"I_Gabbro_08.png","image_id":56,"category_name":"Gabbro","category":4,"distinct_rating":3.02,"distinct_type":"Bottom","rt":null,"stimulus":"Stimuli_Rocks480/I_Gabbro_08.png","response":null,"trial_type":"image-keyboard-response","trial_index":48,"plugin_version":"2.1.0","time_elapsed":668839,"subject_id":"90904","group":"Group1","condition":"1_Rep","full_date":"2026-01-27T02:05:18.696Z","date":"2026-01-27","time":"02:05:18"},{"rt":null,"stimulus":"<p style=\"font-size: 50px; margin: 0; text-align: center;\">+</p>","response":null,"trial_type":"html-keyboard-response","trial_index":49,"plugin_version":"2.1.0","time_elapsed":669841,"subject_id":"90904","group":"Group1","condition":"1_Rep","full_date":"2026-01-27T02:05:18.696Z","date":"2026-01-27","time":"02:05:18"},{"task":"memory_phase","broad_category":"I","image_png":"I_Gabbro_16.png","image_id":64,"category_name":"Gabbro","category":4,"distinct_rating":2.52,"distinct_type":"Bottom","rt":null,"stimulus":"Stimuli_Rocks480/I_Gabbro_16.png","response":null,"trial_type":"image-keyboard-response","trial_index":50,"plugin_version":"2.1.0","time_elapsed":672364,"subject_id":"90904","group":"Group1","condition":"1_Rep","full_date":"2026-01-27T02:05:18.696Z","date":"2026-01-27","time":"02:05:18"},{"rt":null,"stimulus":"<p style=\"font-size: 50px; margin: 0; text-align: center;\">+</p>","response":null,"trial_type":"html-keyboard-response","trial_index":51,"plugin_version":"2.1.0","time_elapsed":673367,"subject_id":"90904","group":"Group1","condition":"1_Rep","full_date":"2026-01-27T02:05:18.696Z","date":"2026-01-27","time":"02:05:18"},{"task":"memory_phase","broad_category":"I","image_png":"I_Andesite_08.png","image_id":8,"category_name":"Andesite","category":1,"distinct_rating":1.95,"distinct_type":"Bottom","rt":null,"stimulus":"Stimuli_Rocks480/I_Andesite_08.png","response":null,"trial_type":"image-keyboard-response","trial_index":52,"plugin_version":"2.1.0","time_elapsed":675891,"subject_id":"90904","group":"Group1","condition":"1_Rep","full_date":"2026-01-27T02:05:18.696Z","date":"2026-01-27","time":"02:05:18"},{"rt":null,"stimulus":"<p style=\"font-size: 50px; margin: 0; text-align: center;\">+</p>","response":null,"trial_type":"html-keyboard-response","trial_index":53,"plugin_version":"2.1.0","time_elapsed":676893,"subject_id":"90904","group":"Group1","condition":"1_Rep","full_date":"2026-01-27T02:05:18.696Z","date":"2026-01-27","time":"02:05:18"},{"task":"memory_phase","broad_category":"S","image_png":"S_Sandstone_03.png","image_id":451,"category_name":"Sandstone","category":29,"distinct_rating":1.86,"distinct_type":"Bottom","rt":null,"stimulus":"Stimuli_Rocks480/S_Sandstone_03.png","response":null,"trial_type":"image-keyboard-response","trial_index":54,"plugin_version":"2.1.0","time_elapsed":679421,"subject_id":"90904","group":"Group1","condition":"1_Rep","full_date":"2026-01-27T02:05:18.696Z","date":"2026-01-27","time":"02:05:18"},{"rt":2134,"stimulus":"<p style=\"max-width: 760px; margin: auto; font-size: 35px; line-height: 1.5;\">\n                Press SPACE to continue study phase\n              </p>","response":" ","trial_type":"html-keyboard-response","trial_index":55,"plugin_version":"2.1.0","time_elapsed":681560,"subject_id":"90904","group":"Group1","condition":"1_Rep","full_date":"2026-01-27T02:05:18.696Z","date":"2026-01-27","time":"02:05:18"},{"rt":null,"stimulus":"<p style=\"font-size: 50px; margin: 0; text-align: center;\">+</p>","response":null,"trial_type":"html-keyboard-response","trial_index":56,"plugin_version":"2.1.0","time_elapsed":682562,"subject_id":"90904","group":"Group1","condition":"1_Rep","full_date":"2026-01-27T02:05:18.696Z","date":"2026-01-27","time":"02:05:18"},{"task":"memory_phase","broad_category":"I","image_png":"I_Gabbro_11.png","image_id":59,"category_name":"Gabbro","category":4,"distinct_rating":1.99,"distinct_type":"Bottom","rt":null,"stimulus":"Stimuli_Rocks480/I_Gabbro_11.png","response":null,"trial_type":"image-keyboard-response","trial_index":57,"plugin_version":"2.1.0","time_elapsed":685082,"subject_id":"90904","group":"Group1","condition":"1_Rep","full_date":"2026-01-27T02:05:18.696Z","date":"2026-01-27","time":"02:05:18"},{"rt":null,"stimulus":"<p style=\"font-size: 50px; margin: 0; text-align: center;\">+</p>","response":null,"trial_type":"html-keyboard-response","trial_index":58,"plugin_version":"2.1.0","time_elapsed":686085,"subject_id":"90904","group":"Group1","condition":"1_Rep","full_date":"2026-01-27T02:05:18.696Z","date":"2026-01-27","time":"02:05:18"},{"task":"memory_phase","broad_category":"I","image_png":"I_Pegmatite_16.png","image_id":112,"category_name":"Pegmatite","category":7,"distinct_rating":7.03,"distinct_type":"Top","rt":null,"stimulus":"Stimuli_Rocks480/I_Pegmatite_16.png","response":null,"trial_type":"image-keyboard-response","trial_index":59,"plugin_version":"2.1.0","time_elapsed":688609,"subject_id":"90904","group":"Group1","condition":"1_Rep","full_date":"2026-01-27T02:05:18.696Z","date":"2026-01-27","time":"02:05:18"},{"rt":null,"stimulus":"<p style=\"font-size: 50px; margin: 0; text-align: center;\">+</p>","response":null,"trial_type":"html-keyboard-response","trial_index":60,"plugin_version":"2.1.0","time_elapsed":689612,"subject_id":"90904","group":"Group1","condition":"1_Rep","full_date":"2026-01-27T02:05:18.696Z","date":"2026-01-27","time":"02:05:18"},{"task":"memory_phase","broad_category":"S","image_png":"S_Dolomite_14.png","image_id":398,"category_name":"Dolomite","category":25,"distinct_rating":1.43,"distinct_type":"Bottom","rt":null,"stimulus":"Stimuli_Rocks480/S_Dolomite_14.png","response":null,"trial_type":"image-keyboard-response","trial_index":61,"plugin_version":"2.1.0","time_elapsed":692135,"subject_id":"90904","group":"Group1","condition":"1_Rep","full_date":"2026-01-27T02:05:18.696Z","date":"2026-01-27","time":"02:05:18"},{"rt":null,"stimulus":"<p style=\"font-size: 50px; margin: 0; text-align: center;\">+</p>","response":null,"trial_type":"html-keyboard-response","trial_index":62,"plugin_version":"2.1.0","time_elapsed":693138,"subject_id":"90904","group":"Group1","condition":"1_Rep","full_date":"2026-01-27T02:05:18.696Z","date":"2026-01-27","time":"02:05:18"},{"task":"memory_phase","broad_category":"M","image_png":"M_Slate_03.png","image_id":307,"category_name":"Slate","category":20,"distinct_rating":1.87,"distinct_type":"Bottom","rt":null,"stimulus":"Stimuli_Rocks480/M_Slate_03.png","response":null,"trial_type":"image-keyboard-response","trial_index":63,"plugin_version":"2.1.0","time_elapsed":695663,"subject_id":"90904","group":"Group1","condition":"1_Rep","full_date":"2026-01-27T02:05:18.696Z","date":"2026-01-27","time":"02:05:18"},{"rt":null,"stimulus":"<p style=\"font-size: 50px; margin: 0; text-align: center;\">+</p>","response":null,"trial_type":"html-keyboard-response","trial_index":64,"plugin_version":"2.1.0","time_elapsed":696665,"subject_id":"90904","group":"Group1","condition":"1_Rep","full_date":"2026-01-27T02:05:18.696Z","date":"2026-01-27","time":"02:05:18"},{"task":"memory_phase","broad_category":"S","image_png":"S_Shale_12.png","image_id":476,"category_name":"Shale","category":30,"distinct_rating":2.48,"distinct_type":"Bottom","rt":null,"stimulus":"Stimuli_Rocks480/S_Shale_12.png","response":null,"trial_type":"image-keyboard-response","trial_index":65,"plugin_version":"2.1.0","time_elapsed":699191,"subject_id":"90904","group":"Group1","condition":"1_Rep","full_date":"2026-01-27T02:05:18.696Z","date":"2026-01-27","time":"02:05:18"},{"rt":null,"stimulus":"<p style=\"font-size: 50px; margin: 0; text-align: center;\">+</p>","response":null,"trial_type":"html-keyboard-response","trial_index":66,"plugin_version":"2.1.0","time_elapsed":700193,"subject_id":"90904","group":"Group1","condition":"1_Rep","full_date":"2026-01-27T02:05:18.696Z","date":"2026-01-27","time":"02:05:18"},{"task":"memory_phase","broad_category":"I","image_png":"I_Pegmatite_10.png","image_id":106,"category_name":"Pegmatite","category":7,"distinct_rating":7.66,"distinct_type":"Top","rt":null,"stimulus":"Stimuli_Rocks480/I_Pegmatite_10.png","response":null,"trial_type":"image-keyboard-response","trial_index":67,"plugin_version":"2.1.0","time_elapsed":702715,"subject_id":"90904","group":"Group1","condition":"1_Rep","full_date":"2026-01-27T02:05:18.696Z","date":"2026-01-27","time":"02:05:18"},{"rt":null,"stimulus":"<p style=\"font-size: 50px; margin: 0; text-align: center;\">+</p>","response":null,"trial_type":"html-keyboard-response","trial_index":68,"plugin_version":"2.1.0","time_elapsed":703717,"subject_id":"90904","group":"Group1","condition":"1_Rep","full_date":"2026-01-27T02:05:18.696Z","date":"2026-01-27","time":"02:05:18"},{"task":"memory_phase","broad_category":"S","image_png":"S_Chert_10.png","image_id":362,"category_name":"Chert","category":23,"distinct_rating":7.17,"distinct_type":"Top","rt":null,"stimulus":"Stimuli_Rocks480/S_Chert_10.png","response":null,"trial_type":"image-keyboard-response","trial_index":69,"plugin_version":"2.1.0","time_elapsed":706240,"subject_id":"90904","group":"Group1","condition":"1_Rep","full_date":"2026-01-27T02:05:18.696Z","date":"2026-01-27","time":"02:05:18"},{"rt":null,"stimulus":"<p style=\"font-size: 50px; margin: 0; text-align: center;\">+</p>","response":null,"trial_type":"html-keyboard-response","trial_index":70,"plugin_version":"2.1.0","time_elapsed":707243,"subject_id":"90904","group":"Group1","condition":"1_Rep","full_date":"2026-01-27T02:05:18.696Z","date":"2026-01-27","time":"02:05:18"},{"task":"memory_phase","broad_category":"I","image_png":"I_Rhyolite_11.png","image_id":155,"category_name":"Rhyolite","category":10,"distinct_rating":1.73,"distinct_type":"Bottom","rt":null,"stimulus":"Stimuli_Rocks480/I_Rhyolite_11.png","response":null,"trial_type":"image-keyboard-response","trial_index":71,"plugin_version":"2.1.0","time_elapsed":709764,"subject_id":"90904","group":"Group1","condition":"1_Rep","full_date":"2026-01-27T02:05:18.696Z","date":"2026-01-27","time":"02:05:18"},{"rt":null,"stimulus":"<p style=\"font-size: 50px; margin: 0; text-align: center;\">+</p>","response":null,"trial_type":"html-keyboard-response","trial_index":72,"plugin_version":"2.1.0","time_elapsed":710767,"subject_id":"90904","group":"Group1","condition":"1_Rep","full_date":"2026-01-27T02:05:18.696Z","date":"2026-01-27","time":"02:05:18"},{"task":"memory_phase","broad_category":"M","image_png":"M_Phyllite_07.png","image_id":263,"category_name":"Phyllite","category":17,"distinct_rating":2.59,"distinct_type":"Bottom","rt":null,"stimulus":"Stimuli_Rocks480/M_Phyllite_07.png","response":null,"trial_type":"image-keyboard-response","trial_index":73,"plugin_version":"2.1.0","time_elapsed":713285,"subject_id":"90904","group":"Group1","condition":"1_Rep","full_date":"2026-01-27T02:05:18.696Z","date":"2026-01-27","time":"02:05:18"},{"rt":null,"stimulus":"<p style=\"font-size: 50px; margin: 0; text-align: center;\">+</p>","response":null,"trial_type":"html-keyboard-response","trial_index":74,"plugin_version":"2.1.0","time_elapsed":714288,"subject_id":"90904","group":"Group1","condition":"1_Rep","full_date":"2026-01-27T02:05:18.696Z","date":"2026-01-27","time":"02:05:18"},{"task":"memory_phase","broad_category":"S","image_png":"S_Shale_01.png","image_id":465,"category_name":"Shale","category":30,"distinct_rating":2.7,"distinct_type":"Bottom","rt":null,"stimulus":"Stimuli_Rocks480/S_Shale_01.png","response":null,"trial_type":"image-keyboard-response","trial_index":75,"plugin_version":"2.1.0","time_elapsed":716811,"subject_id":"90904","group":"Group1","condition":"1_Rep","full_date":"2026-01-27T02:05:18.696Z","date":"2026-01-27","time":"02:05:18"},{"rt":null,"stimulus":"<p style=\"font-size: 50px; margin: 0; text-align: center;\">+</p>","response":null,"trial_type":"html-keyboard-response","trial_index":76,"plugin_version":"2.1.0","time_elapsed":717813,"subject_id":"90904","group":"Group1","condition":"1_Rep","full_date":"2026-01-27T02:05:18.696Z","date":"2026-01-27","time":"02:05:18"},{"task":"memory_phase","broad_category":"S","image_png":"S_Dolomite_13.png","image_id":397,"category_name":"Dolomite","category":25,"distinct_rating":1.77,"distinct_type":"Bottom","rt":null,"stimulus":"Stimuli_Rocks480/S_Dolomite_13.png","response":null,"trial_type":"image-keyboard-response","trial_index":77,"plugin_version":"2.1.0","time_elapsed":720336,"subject_id":"90904","group":"Group1","condition":"1_Rep","full_date":"2026-01-27T02:05:18.696Z","date":"2026-01-27","time":"02:05:18"},{"rt":null,"stimulus":"<p style=\"font-size: 50px; margin: 0; text-align: center;\">+</p>","response":null,"trial_type":"html-keyboard-response","trial_index":78,"plugin_version":"2.1.0","time_elapsed":721339,"subject_id":"90904","group":"Group1","condition":"1_Rep","full_date":"2026-01-27T02:05:18.696Z","date":"2026-01-27","time":"02:05:18"},{"task":"memory_phase","broad_category":"S","image_png":"S_Breccia_11.png","image_id":347,"category_name":"Breccia","category":22,"distinct_rating":6.7,"distinct_type":"Top","rt":null,"stimulus":"Stimuli_Rocks480/S_Breccia_11.png","response":null,"trial_type":"image-keyboard-response","trial_index":79,"plugin_version":"2.1.0","time_elapsed":723873,"subject_id":"90904","group":"Group1","condition":"1_Rep","full_date":"2026-01-27T02:05:18.696Z","date":"2026-01-27","time":"02:05:18"},{"rt":null,"stimulus":"<p style=\"font-size: 50px; margin: 0; text-align: center;\">+</p>","response":null,"trial_type":"html-keyboard-response","trial_index":80,"plugin_version":"2.1.0","time_elapsed":724875,"subject_id":"90904","group":"Group1","condition":"1_Rep","full_date":"2026-01-27T02:05:18.696Z","date":"2026-01-27","time":"02:05:18"},{"task":"memory_phase","broad_category":"I","image_png":"I_Pumice_12.png","image_id":140,"category_name":"Pumice","category":9,"distinct_rating":2.97,"distinct_type":"Bottom","rt":null,"stimulus":"Stimuli_Rocks480/I_Pumice_12.png","response":null,"trial_type":"image-keyboard-response","trial_index":81,"plugin_version":"2.1.0","time_elapsed":727392,"subject_id":"90904","group":"Group1","condition":"1_Rep","full_date":"2026-01-27T02:05:18.696Z","date":"2026-01-27","time":"02:05:18"},{"rt":null,"stimulus":"<p style=\"font-size: 50px; margin: 0; text-align: center;\">+</p>","response":null,"trial_type":"html-keyboard-response","trial_index":82,"plugin_version":"2.1.0","time_elapsed":728394,"subject_id":"90904","group":"Group1","condition":"1_Rep","full_date":"2026-01-27T02:05:18.696Z","date":"2026-01-27","time":"02:05:18"},{"task":"memory_phase","broad_category":"M","image_png":"M_Gneiss_05.png","image_id":197,"category_name":"Gneiss","category":13,"distinct_rating":2.97,"distinct_type":"Bottom","rt":null,"stimulus":"Stimuli_Rocks480/M_Gneiss_05.png","response":null,"trial_type":"image-keyboard-response","trial_index":83,"plugin_version":"2.1.0","time_elapsed":730927,"subject_id":"90904","group":"Group1","condition":"1_Rep","full_date":"2026-01-27T02:05:18.696Z","date":"2026-01-27","time":"02:05:18"},{"rt":null,"stimulus":"<p style=\"font-size: 50px; margin: 0; text-align: center;\">+</p>","response":null,"trial_type":"html-keyboard-response","trial_index":84,"plugin_version":"2.1.0","time_elapsed":731930,"subject_id":"90904","group":"Group1","condition":"1_Rep","full_date":"2026-01-27T02:05:18.696Z","date":"2026-01-27","time":"02:05:18"},{"task":"memory_phase","broad_category":"S","image_png":"S_Dolomite_12.png","image_id":396,"category_name":"Dolomite","category":25,"distinct_rating":1.85,"distinct_type":"Bottom","rt":null,"stimulus":"Stimuli_Rocks480/S_Dolomite_12.png","response":null,"trial_type":"image-keyboard-response","trial_index":85,"plugin_version":"2.1.0","time_elapsed":734452,"subject_id":"90904","group":"Group1","condition":"1_Rep","full_date":"2026-01-27T02:05:18.696Z","date":"2026-01-27","time":"02:05:18"},{"rt":null,"stimulus":"<p style=\"font-size: 50px; margin: 0; text-align: center;\">+</p>","response":null,"trial_type":"html-keyboard-response","trial_index":86,"plugin_version":"2.1.0","time_elapsed":735455,"subject_id":"90904","group":"Group1","condition":"1_Rep","full_date":"2026-01-27T02:05:18.696Z","date":"2026-01-27","time":"02:05:18"},{"task":"memory_phase","broad_category":"I","image_png":"I_Diorite_04.png","image_id":36,"category_name":"Diorite","category":3,"distinct_rating":2.98,"distinct_type":"Bottom","rt":null,"stimulus":"Stimuli_Rocks480/I_Diorite_04.png","response":null,"trial_type":"image-keyboard-response","trial_index":87,"plugin_version":"2.1.0","time_elapsed":737980,"subject_id":"90904","group":"Group1","condition":"1_Rep","full_date":"2026-01-27T02:05:18.696Z","date":"2026-01-27","time":"02:05:18"},{"rt":null,"stimulus":"<p style=\"font-size: 50px; margin: 0; text-align: center;\">+</p>","response":null,"trial_type":"html-keyboard-response","trial_index":88,"plugin_version":"2.1.0","time_elapsed":738982,"subject_id":"90904","group":"Group1","condition":"1_Rep","full_date":"2026-01-27T02:05:18.696Z","date":"2026-01-27","time":"02:05:18"},{"task":"memory_phase","broad_category":"I","image_png":"I_Andesite_06.png","image_id":6,"category_name":"Andesite","category":1,"distinct_rating":3.17,"distinct_type":"Bottom","rt":null,"stimulus":"Stimuli_Rocks480/I_Andesite_06.png","response":null,"trial_type":"image-keyboard-response","trial_index":89,"plugin_version":"2.1.0","time_elapsed":741508,"subject_id":"90904","group":"Group1","condition":"1_Rep","full_date":"2026-01-27T02:05:18.696Z","date":"2026-01-27","time":"02:05:18"},{"rt":null,"stimulus":"<p style=\"font-size: 50px; margin: 0; text-align: center;\">+</p>","response":null,"trial_type":"html-keyboard-response","trial_index":90,"plugin_version":"2.1.0","time_elapsed":742511,"subject_id":"90904","group":"Group1","condition":"1_Rep","full_date":"2026-01-27T02:05:18.696Z","date":"2026-01-27","time":"02:05:18"},{"task":"memory_phase","broad_category":"M","image_png":"M_Quartzite_05.png","image_id":277,"category_name":"Quartzite","category":18,"distinct_rating":2.23,"distinct_type":"Bottom","rt":null,"stimulus":"Stimuli_Rocks480/M_Quartzite_05.png","response":null,"trial_type":"image-keyboard-response","trial_index":91,"plugin_version":"2.1.0","time_elapsed":745037,"subject_id":"90904","group":"Group1","condition":"1_Rep","full_date":"2026-01-27T02:05:18.696Z","date":"2026-01-27","time":"02:05:18"},{"rt":null,"stimulus":"<p style=\"font-size: 50px; margin: 0; text-align: center;\">+</p>","response":null,"trial_type":"html-keyboard-response","trial_index":92,"plugin_version":"2.1.0","time_elapsed":746040,"subject_id":"90904","group":"Group1","condition":"1_Rep","full_date":"2026-01-27T02:05:18.696Z","date":"2026-01-27","time":"02:05:18"},{"task":"memory_phase","broad_category":"M","image_png":"M_Marble_06.png","image_id":230,"category_name":"Marble","category":15,"distinct_rating":3.4,"distinct_type":"Bottom","rt":null,"stimulus":"Stimuli_Rocks480/M_Marble_06.png","response":null,"trial_type":"image-keyboard-response","trial_index":93,"plugin_version":"2.1.0","time_elapsed":748561,"subject_id":"90904","group":"Group1","condition":"1_Rep","full_date":"2026-01-27T02:05:18.696Z","date":"2026-01-27","time":"02:05:18"},{"rt":null,"stimulus":"<p style=\"font-size: 50px; margin: 0; text-align: center;\">+</p>","response":null,"trial_type":"html-keyboard-response","trial_index":94,"plugin_version":"2.1.0","time_elapsed":749564,"subject_id":"90904","group":"Group1","condition":"1_Rep","full_date":"2026-01-27T02:05:18.696Z","date":"2026-01-27","time":"02:05:18"},{"task":"memory_phase","broad_category":"I","image_png":"I_Obsidian_05.png","image_id":85,"category_name":"Obsidian","category":6,"distinct_rating":7.32,"distinct_type":"Top","rt":null,"stimulus":"Stimuli_Rocks480/I_Obsidian_05.png","response":null,"trial_type":"image-keyboard-response","trial_index":95,"plugin_version":"2.1.0","time_elapsed":752089,"subject_id":"90904","group":"Group1","condition":"1_Rep","full_date":"2026-01-27T02:05:18.696Z","date":"2026-01-27","time":"02:05:18"},{"rt":null,"stimulus":"<p style=\"font-size: 50px; margin: 0; text-align: center;\">+</p>","response":null,"trial_type":"html-keyboard-response","trial_index":96,"plugin_version":"2.1.0","time_elapsed":753092,"subject_id":"90904","group":"Group1","condition":"1_Rep","full_date":"2026-01-27T02:05:18.696Z","date":"2026-01-27","time":"02:05:18"},{"task":"memory_phase","broad_category":"I","image_png":"I_Basalt_09.png","image_id":25,"category_name":"Basalt","category":2,"distinct_rating":1.89,"distinct_type":"Bottom","rt":null,"stimulus":"Stimuli_Rocks480/I_Basalt_09.png","response":null,"trial_type":"image-keyboard-response","trial_index":97,"plugin_version":"2.1.0","time_elapsed":755612,"subject_id":"90904","group":"Group1","condition":"1_Rep","full_date":"2026-01-27T02:05:18.696Z","date":"2026-01-27","time":"02:05:18"},{"rt":null,"stimulus":"<p style=\"font-size: 50px; margin: 0; text-align: center;\">+</p>","response":null,"trial_type":"html-keyboard-response","trial_index":98,"plugin_version":"2.1.0","time_elapsed":756615,"subject_id":"90904","group":"Group1","condition":"1_Rep","full_date":"2026-01-27T02:05:18.696Z","date":"2026-01-27","time":"02:05:18"},{"task":"memory_phase","broad_category":"S","image_png":"S_Sandstone_16.png","image_id":464,"category_name":"Sandstone","category":29,"distinct_rating":1.93,"distinct_type":"Bottom","rt":null,"stimulus":"Stimuli_Rocks480/S_Sandstone_16.png","response":null,"trial_type":"image-keyboard-response","trial_index":99,"plugin_version":"2.1.0","time_elapsed":759132,"subject_id":"90904","group":"Group1","condition":"1_Rep","full_date":"2026-01-27T02:05:18.696Z","date":"2026-01-27","time":"02:05:18"},{"rt":null,"stimulus":"<p style=\"font-size: 50px; margin: 0; text-align: center;\">+</p>","response":null,"trial_type":"html-keyboard-response","trial_index":100,"plugin_version":"2.1.0","time_elapsed":760135,"subject_id":"90904","group":"Group1","condition":"1_Rep","full_date":"2026-01-27T02:05:18.696Z","date":"2026-01-27","time":"02:05:18"},{"task":"memory_phase","broad_category":"I","image_png":"I_Diorite_05.png","image_id":37,"category_name":"Diorite","category":3,"distinct_rating":3.08,"distinct_type":"Bottom","rt":null,"stimulus":"Stimuli_Rocks480/I_Diorite_05.png","response":null,"trial_type":"image-keyboard-response","trial_index":101,"plugin_version":"2.1.0","time_elapsed":762658,"subject_id":"90904","group":"Group1","condition":"1_Rep","full_date":"2026-01-27T02:05:18.696Z","date":"2026-01-27","time":"02:05:18"},{"rt":null,"stimulus":"<p style=\"font-size: 50px; margin: 0; text-align: center;\">+</p>","response":null,"trial_type":"html-keyboard-response","trial_index":102,"plugin_version":"2.1.0","time_elapsed":763661,"subject_id":"90904","group":"Group1","condition":"1_Rep","full_date":"2026-01-27T02:05:18.696Z","date":"2026-01-27","time":"02:05:18"},{"task":"memory_phase","broad_category":"S","image_png":"S_Rock Salt_01.png","image_id":433,"category_name":"Rock Salt","category":28,"distinct_rating":7.18,"distinct_type":"Top","rt":null,"stimulus":"Stimuli_Rocks480/S_Rock Salt_01.png","response":null,"trial_type":"image-keyboard-response","trial_index":103,"plugin_version":"2.1.0","time_elapsed":766190,"subject_id":"90904","group":"Group1","condition":"1_Rep","full_date":"2026-01-27T02:05:18.696Z","date":"2026-01-27","time":"02:05:18"},{"rt":null,"stimulus":"<p style=\"font-size: 50px; margin: 0; text-align: center;\">+</p>","response":null,"trial_type":"html-keyboard-response","trial_index":104,"plugin_version":"2.1.0","time_elapsed":767194,"subject_id":"90904","group":"Group1","condition":"1_Rep","full_date":"2026-01-27T02:05:18.696Z","date":"2026-01-27","time":"02:05:18"},{"task":"memory_phase","broad_category":"I","image_png":"I_Andesite_10.png","image_id":10,"category_name":"Andesite","category":1,"distinct_rating":3.15,"distinct_type":"Bottom","rt":null,"stimulus":"Stimuli_Rocks480/I_Andesite_10.png","response":null,"trial_type":"image-keyboard-response","trial_index":105,"plugin_version":"2.1.0","time_elapsed":769712,"subject_id":"90904","group":"Group1","condition":"1_Rep","full_date":"2026-01-27T02:05:18.696Z","date":"2026-01-27","time":"02:05:18"},{"rt":48558,"stimulus":"<div style=\"max-width: 760px; margin: auto; font-size: 20px; line-height: 1.5;\">\n      <h1 style=\"text-align:center; font-size: 30px;\">Instructions for the Test Phase</h1>\n      <p>\n        The study phase is now complete.\n      </p>\n      <p>\n        In the test phase, you will again see a series of rock images. \n        Some will be ones you saw before - during the study phase, while others will be new.  \n        <b>Your task</b> is to decide whether you have seen each image before by pressing the corresponding key on your keyboard:<br><br>\n          <b>A</b> - NO (you did not see this image before)<br>\n          <b>L</b> - YES (you saw this image before)<br><br>\n        The test will proceed at your own pace. You will receive feedback after each response.  \n        Please try to respond <b>as accurately as possible</b>.\n      </p>\n      <p>\n        <b>Reminder:</b> If your computer has multiple language settings (e.g., English and another language),\n        please ensure it is set to English during the test phase.\n      </p>\n      <p>\n        You can track your progress using the <b>completion bar</b> at the top of the screen.  \n        Note that it has been refreshed to reflect your progress during this final phase.\n      </p>\n      <p>\n        Press the button below when you are ready to continue.\n      </p>\n    </div>","response":0,"trial_type":"html-button-response","trial_index":106,"plugin_version":"2.1.0","time_elapsed":818273,"subject_id":"90904","group":"Group1","condition":"1_Rep","full_date":"2026-01-27T02:05:18.696Z","date":"2026-01-27","time":"02:05:18"},{"correct_response":"a","task":"test_phase","broad_category":"I","image_png":"I_Gabbro_12.png","image_id":60,"category_name":"Gabbro","category":4,"distinct_rating":2.6,"distinct_type":"Bottom","item_type":"Foil","rt":8529,"stimulus":"Stimuli_Rocks480/I_Gabbro_12.png","response":"a","trial_type":"image-keyboard-response","trial_index":107,"plugin_version":"2.1.0","time_elapsed":826828,"subject_id":"90904","group":"Group1","condition":"1_Rep","full_date":"2026-01-27T02:05:18.696Z","date":"2026-01-27","time":"02:05:18","cor_ans":true},{"trial_type":"html-keyboard-response","rt":null,"stimulus":"<p style=\"color: green; font-size: 50px; font-weight: bold;\">Correct</p>","response":null,"trial_index":108,"plugin_version":"2.1.0","time_elapsed":827332,"subject_id":"90904","group":"Group1","condition":"1_Rep","full_date":"2026-01-27T02:05:18.696Z","date":"2026-01-27","time":"02:05:18"},{"correct_response":"l","task":"test_phase","broad_category":"M","image_png":"M_Phyllite_07.png","image_id":263,"category_name":"Phyllite","category":17,"distinct_rating":2.59,"distinct_type":"Bottom","item_type":"Target","rt":2564,"stimulus":"Stimuli_Rocks480/M_Phyllite_07.png","response":"l","trial_type":"image-keyboard-response","trial_index":109,"plugin_version":"2.1.0","time_elapsed":829899,"subject_id":"90904","group":"Group1","condition":"1_Rep","full_date":"2026-01-27T02:05:18.696Z","date":"2026-01-27","time":"02:05:18","cor_ans":true},{"trial_type":"html-keyboard-response","rt":null,"stimulus":"<p style=\"color: green; font-size: 50px; font-weight: bold;\">Correct</p>","response":null,"trial_index":110,"plugin_version":"2.1.0","time_elapsed":830402,"subject_id":"90904","group":"Group1","condition":"1_Rep","full_date":"2026-01-27T02:05:18.696Z","date":"2026-01-27","time":"02:05:18"},{"correct_response":"l","task":"test_phase","broad_category":"M","image_png":"M_Marble_06.png","image_id":230,"category_name":"Marble","category":15,"distinct_rating":3.4,"distinct_type":"Bottom","item_type":"Target","rt":1616,"stimulus":"Stimuli_Rocks480/M_Marble_06.png","response":"l","trial_type":"image-keyboard-response","trial_index":111,"plugin_version":"2.1.0","time_elapsed":832021,"subject_id":"90904","group":"Group1","condition":"1_Rep","full_date":"2026-01-27T02:05:18.696Z","date":"2026-01-27","time":"02:05:18","cor_ans":true},{"trial_type":"html-keyboard-response","rt":null,"stimulus":"<p style=\"color: green; font-size: 50px; font-weight: bold;\">Correct</p>","response":null,"trial_index":112,"plugin_version":"2.1.0","time_elapsed":832524,"subject_id":"90904","group":"Group1","condition":"1_Rep","full_date":"2026-01-27T02:05:18.696Z","date":"2026-01-27","time":"02:05:18"},{"correct_response":"a","task":"test_phase","broad_category":"I","image_png":"I_Pumice_13.png","image_id":141,"category_name":"Pumice","category":9,"distinct_rating":3.12,"distinct_type":"Bottom","item_type":"Foil","rt":1398,"stimulus":"Stimuli_Rocks480/I_Pumice_13.png","response":"a","trial_type":"image-keyboard-response","trial_index":113,"plugin_version":"2.1.0","time_elapsed":833945,"subject_id":"90904","group":"Group1","condition":"1_Rep","full_date":"2026-01-27T02:05:18.696Z","date":"2026-01-27","time":"02:05:18","cor_ans":true},{"trial_type":"html-keyboard-response","rt":null,"stimulus":"<p style=\"color: green; font-size: 50px; font-weight: bold;\">Correct</p>","response":null,"trial_index":114,"plugin_version":"2.1.0","time_elapsed":834448,"subject_id":"90904","group":"Group1","condition":"1_Rep","full_date":"2026-01-27T02:05:18.696Z","date":"2026-01-27","time":"02:05:18"},{"correct_response":"a","task":"test_phase","broad_category":"I","image_png":"I_Diorite_15.png","image_id":47,"category_name":"Diorite","category":3,"distinct_rating":3.05,"distinct_type":"Bottom","item_type":"Foil","rt":2614,"stimulus":"Stimuli_Rocks480/I_Diorite_15.png","response":"a","trial_type":"image-keyboard-response","trial_index":115,"plugin_version":"2.1.0","time_elapsed":837080,"subject_id":"90904","group":"Group1","condition":"1_Rep","full_date":"2026-01-27T02:05:18.696Z","date":"2026-01-27","time":"02:05:18","cor_ans":true},{"trial_type":"html-keyboard-response","rt":null,"stimulus":"<p style=\"color: green; font-size: 50px; font-weight: bold;\">Correct</p>","response":null,"trial_index":116,"plugin_version":"2.1.0","time_elapsed":837583,"subject_id":"90904","group":"Group1","condition":"1_Rep","full_date":"2026-01-27T02:05:18.696Z","date":"2026-01-27","time":"02:05:18"},{"correct_response":"l","task":"test_phase","broad_category":"I","image_png":"I_Basalt_01.png","image_id":17,"category_name":"Basalt","category":2,"distinct_rating":1.92,"distinct_type":"Bottom","item_type":"Target","rt":2300,"stimulus":"Stimuli_Rocks480/I_Basalt_01.png","response":"l","trial_type":"image-keyboard-response","trial_index":117,"plugin_version":"2.1.0","time_elapsed":839907,"subject_id":"90904","group":"Group1","condition":"1_Rep","full_date":"2026-01-27T02:05:18.696Z","date":"2026-01-27","time":"02:05:18","cor_ans":true},{"trial_type":"html-keyboard-response","rt":null,"stimulus":"<p style=\"color: green; font-size: 50px; font-weight: bold;\">Correct</p>","response":null,"trial_index":118,"plugin_version":"2.1.0","time_elapsed":840410,"subject_id":"90904","group":"Group1","condition":"1_Rep","full_date":"2026-01-27T02:05:18.696Z","date":"2026-01-27","time":"02:05:18"},{"correct_response":"l","task":"test_phase","broad_category":"S","image_png":"S_Shale_08.png","image_id":472,"category_name":"Shale","category":30,"distinct_rating":2.55,"distinct_type":"Bottom","item_type":"Target","rt":2198,"stimulus":"Stimuli_Rocks480/S_Shale_08.png","response":"l","trial_type":"image-keyboard-response","trial_index":119,"plugin_version":"2.1.0","time_elapsed":842633,"subject_id":"90904","group":"Group1","condition":"1_Rep","full_date":"2026-01-27T02:05:18.696Z","date":"2026-01-27","time":"02:05:18","cor_ans":true},{"trial_type":"html-keyboard-response","rt":null,"stimulus":"<p style=\"color: green; font-size: 50px; font-weight: bold;\">Correct</p>","response":null,"trial_index":120,"plugin_version":"2.1.0","time_elapsed":843136,"subject_id":"90904","group":"Group1","condition":"1_Rep","full_date":"2026-01-27T02:05:18.696Z","date":"2026-01-27","time":"02:05:18"},{"correct_response":"l","task":"test_phase","broad_category":"M","image_png":"M_Slate_03.png","image_id":307,"category_name":"Slate","category":20,"distinct_rating":1.87,"distinct_type":"Bottom","item_type":"Target","rt":5042,"stimulus":"Stimuli_Rocks480/M_Slate_03.png","response":"a","trial_type":"image-keyboard-response","trial_index":121,"plugin_version":"2.1.0","time_elapsed":848199,"subject_id":"90904","group":"Group1","condition":"1_Rep","full_date":"2026-01-27T02:05:18.696Z","date":"2026-01-27","time":"02:05:18","cor_ans":false},{"trial_type":"html-keyboard-response","rt":null,"stimulus":"<p style=\"color: red; font-size: 50px; font-weight: bold;\">Incorrect</p>","response":null,"trial_index":122,"plugin_version":"2.1.0","time_elapsed":848702,"subject_id":"90904","group":"Group1","condition":"1_Rep","full_date":"2026-01-27T02:05:18.696Z","date":"2026-01-27","time":"02:05:18"},{"correct_response":"a","task":"test_phase","broad_category":"S","image_png":"S_Shale_03.png","image_id":467,"category_name":"Shale","category":30,"distinct_rating":1.95,"distinct_type":"Bottom","item_type":"Foil","rt":2499,"stimulus":"Stimuli_Rocks480/S_Shale_03.png","response":"l","trial_type":"image-keyboard-response","trial_index":123,"plugin_version":"2.1.0","time_elapsed":851228,"subject_id":"90904","group":"Group1","condition":"1_Rep","full_date":"2026-01-27T02:05:18.696Z","date":"2026-01-27","time":"02:05:18","cor_ans":false},{"trial_type":"html-keyboard-response","rt":null,"stimulus":"<p style=\"color: red; font-size: 50px; font-weight: bold;\">Incorrect</p>","response":null,"trial_index":124,"plugin_version":"2.1.0","time_elapsed":851731,"subject_id":"90904","group":"Group1","condition":"1_Rep","full_date":"2026-01-27T02:05:18.696Z","date":"2026-01-27","time":"02:05:18"},{"correct_response":"a","task":"test_phase","broad_category":"M","image_png":"M_Phyllite_05.png","image_id":261,"category_name":"Phyllite","category":17,"distinct_rating":2.14,"distinct_type":"Bottom","item_type":"Foil","rt":2197,"stimulus":"Stimuli_Rocks480/M_Phyllite_05.png","response":"l","trial_type":"image-keyboard-response","trial_index":125,"plugin_version":"2.1.0","time_elapsed":853946,"subject_id":"90904","group":"Group1","condition":"1_Rep","full_date":"2026-01-27T02:05:18.696Z","date":"2026-01-27","time":"02:05:18","cor_ans":false},{"trial_type":"html-keyboard-response","rt":null,"stimulus":"<p style=\"color: red; font-size: 50px; font-weight: bold;\">Incorrect</p>","response":null,"trial_index":126,"plugin_version":"2.1.0","time_elapsed":854449,"subject_id":"90904","group":"Group1","condition":"1_Rep","full_date":"2026-01-27T02:05:18.696Z","date":"2026-01-27","time":"02:05:18"},{"correct_response":"l","task":"test_phase","broad_category":"I","image_png":"I_Basalt_02.png","image_id":18,"category_name":"Basalt","category":2,"distinct_rating":1.84,"distinct_type":"Bottom","item_type":"Target","rt":7878,"stimulus":"Stimuli_Rocks480/I_Basalt_02.png","response":"a","trial_type":"image-keyboard-response","trial_index":127,"plugin_version":"2.1.0","time_elapsed":862348,"subject_id":"90904","group":"Group1","condition":"1_Rep","full_date":"2026-01-27T02:05:18.696Z","date":"2026-01-27","time":"02:05:18","cor_ans":false},{"trial_type":"html-keyboard-response","rt":null,"stimulus":"<p style=\"color: red; font-size: 50px; font-weight: bold;\">Incorrect</p>","response":null,"trial_index":128,"plugin_version":"2.1.0","time_elapsed":862851,"subject_id":"90904","group":"Group1","condition":"1_Rep","full_date":"2026-01-27T02:05:18.696Z","date":"2026-01-27","time":"02:05:18"},{"correct_response":"l","task":"test_phase","broad_category":"M","image_png":"M_Marble_16.png","image_id":240,"category_name":"Marble","category":15,"distinct_rating":2.57,"distinct_type":"Bottom","item_type":"Target","rt":2167,"stimulus":"Stimuli_Rocks480/M_Marble_16.png","response":"l","trial_type":"image-keyboard-response","trial_index":129,"plugin_version":"2.1.0","time_elapsed":865041,"subject_id":"90904","group":"Group1","condition":"1_Rep","full_date":"2026-01-27T02:05:18.696Z","date":"2026-01-27","time":"02:05:18","cor_ans":true},{"trial_type":"html-keyboard-response","rt":null,"stimulus":"<p style=\"color: green; font-size: 50px; font-weight: bold;\">Correct</p>","response":null,"trial_index":130,"plugin_version":"2.1.0","time_elapsed":865544,"subject_id":"90904","group":"Group1","condition":"1_Rep","full_date":"2026-01-27T02:05:18.696Z","date":"2026-01-27","time":"02:05:18"},{"correct_response":"l","task":"test_phase","broad_category":"S","image_png":"S_Breccia_11.png","image_id":347,"category_name":"Breccia","category":22,"distinct_rating":6.7,"distinct_type":"Top","item_type":"Target","rt":932,"stimulus":"Stimuli_Rocks480/S_Breccia_11.png","response":"l","trial_type":"image-keyboard-response","trial_index":131,"plugin_version":"2.1.0","time_elapsed":866508,"subject_id":"90904","group":"Group1","condition":"1_Rep","full_date":"2026-01-27T02:05:18.696Z","date":"2026-01-27","time":"02:05:18","cor_ans":true},{"trial_type":"html-keyboard-response","rt":null,"stimulus":"<p style=\"color: green; font-size: 50px; font-weight: bold;\">Correct</p>","response":null,"trial_index":132,"plugin_version":"2.1.0","time_elapsed":867011,"subject_id":"90904","group":"Group1","condition":"1_Rep","full_date":"2026-01-27T02:05:18.696Z","date":"2026-01-27","time":"02:05:18"},{"correct_response":"l","task":"test_phase","broad_category":"S","image_png":"S_Dolomite_14.png","image_id":398,"category_name":"Dolomite","category":25,"distinct_rating":1.43,"distinct_type":"Bottom","item_type":"Target","rt":1061,"stimulus":"Stimuli_Rocks480/S_Dolomite_14.png","response":"l","trial_type":"image-keyboard-response","trial_index":133,"plugin_version":"2.1.0","time_elapsed":868094,"subject_id":"90904","group":"Group1","condition":"1_Rep","full_date":"2026-01-27T02:05:18.696Z","date":"2026-01-27","time":"02:05:18","cor_ans":true},{"trial_type":"html-keyboard-response","rt":null,"stimulus":"<p style=\"color: green; font-size: 50px; font-weight: bold;\">Correct</p>","response":null,"trial_index":134,"plugin_version":"2.1.0","time_elapsed":868597,"subject_id":"90904","group":"Group1","condition":"1_Rep","full_date":"2026-01-27T02:05:18.696Z","date":"2026-01-27","time":"02:05:18"},{"correct_response":"a","task":"test_phase","broad_category":"I","image_png":"I_Obsidian_06.png","image_id":86,"category_name":"Obsidian","category":6,"distinct_rating":8.01,"distinct_type":"Top","item_type":"Foil","rt":2424,"stimulus":"Stimuli_Rocks480/I_Obsidian_06.png","response":"a","trial_type":"image-keyboard-response","trial_index":135,"plugin_version":"2.1.0","time_elapsed":871048,"subject_id":"90904","group":"Group1","condition":"1_Rep","full_date":"2026-01-27T02:05:18.696Z","date":"2026-01-27","time":"02:05:18","cor_ans":true},{"trial_type":"html-keyboard-response","rt":null,"stimulus":"<p style=\"color: green; font-size: 50px; font-weight: bold;\">Correct</p>","response":null,"trial_index":136,"plugin_version":"2.1.0","time_elapsed":871551,"subject_id":"90904","group":"Group1","condition":"1_Rep","full_date":"2026-01-27T02:05:18.696Z","date":"2026-01-27","time":"02:05:18"},{"correct_response":"l","task":"test_phase","broad_category":"I","image_png":"I_Pumice_08.png","image_id":136,"category_name":"Pumice","category":9,"distinct_rating":3.1,"distinct_type":"Bottom","item_type":"Target","rt":2675,"stimulus":"Stimuli_Rocks480/I_Pumice_08.png","response":"a","trial_type":"image-keyboard-response","trial_index":137,"plugin_version":"2.1.0","time_elapsed":874247,"subject_id":"90904","group":"Group1","condition":"1_Rep","full_date":"2026-01-27T02:05:18.696Z","date":"2026-01-27","time":"02:05:18","cor_ans":false},{"trial_type":"html-keyboard-response","rt":null,"stimulus":"<p style=\"color: red; font-size: 50px; font-weight: bold;\">Incorrect</p>","response":null,"trial_index":138,"plugin_version":"2.1.0","time_elapsed":874750,"subject_id":"90904","group":"Group1","condition":"1_Rep","full_date":"2026-01-27T02:05:18.696Z","date":"2026-01-27","time":"02:05:18"},{"correct_response":"a","task":"test_phase","broad_category":"M","image_png":"M_Quartzite_07.png","image_id":279,"category_name":"Quartzite","category":18,"distinct_rating":1.97,"distinct_type":"Bottom","item_type":"Foil","rt":1459,"stimulus":"Stimuli_Rocks480/M_Quartzite_07.png","response":"l","trial_type":"image-keyboard-response","trial_index":139,"plugin_version":"2.1.0","time_elapsed":876235,"subject_id":"90904","group":"Group1","condition":"1_Rep","full_date":"2026-01-27T02:05:18.696Z","date":"2026-01-27","time":"02:05:18","cor_ans":false},{"trial_type":"html-keyboard-response","rt":null,"stimulus":"<p style=\"color: red; font-size: 50px; font-weight: bold;\">Incorrect</p>","response":null,"trial_index":140,"plugin_version":"2.1.0","time_elapsed":876738,"subject_id":"90904","group":"Group1","condition":"1_Rep","full_date":"2026-01-27T02:05:18.696Z","date":"2026-01-27","time":"02:05:18"},{"correct_response":"a","task":"test_phase","broad_category":"M","image_png":"M_Phyllite_13.png","image_id":269,"category_name":"Phyllite","category":17,"distinct_rating":2.8,"distinct_type":"Bottom","item_type":"Foil","rt":10281,"stimulus":"Stimuli_Rocks480/M_Phyllite_13.png","response":"a","trial_type":"image-keyboard-response","trial_index":141,"plugin_version":"2.1.0","time_elapsed":887038,"subject_id":"90904","group":"Group1","condition":"1_Rep","full_date":"2026-01-27T02:05:18.696Z","date":"2026-01-27","time":"02:05:18","cor_ans":true},{"trial_type":"html-keyboard-response","rt":null,"stimulus":"<p style=\"color: green; font-size: 50px; font-weight: bold;\">Correct</p>","response":null,"trial_index":142,"plugin_version":"2.1.0","time_elapsed":887541,"subject_id":"90904","group":"Group1","condition":"1_Rep","full_date":"2026-01-27T02:05:18.696Z","date":"2026-01-27","time":"02:05:18"},{"correct_response":"l","task":"test_phase","broad_category":"I","image_png":"I_Andesite_06.png","image_id":6,"category_name":"Andesite","category":1,"distinct_rating":3.17,"distinct_type":"Bottom","item_type":"Target","rt":1050,"stimulus":"Stimuli_Rocks480/I_Andesite_06.png","response":"a","trial_type":"image-keyboard-response","trial_index":143,"plugin_version":"2.1.0","time_elapsed":888617,"subject_id":"90904","group":"Group1","condition":"1_Rep","full_date":"2026-01-27T02:05:18.696Z","date":"2026-01-27","time":"02:05:18","cor_ans":false},{"trial_type":"html-keyboard-response","rt":null,"stimulus":"<p style=\"color: red; font-size: 50px; font-weight: bold;\">Incorrect</p>","response":null,"trial_index":144,"plugin_version":"2.1.0","time_elapsed":889120,"subject_id":"90904","group":"Group1","condition":"1_Rep","full_date":"2026-01-27T02:05:18.696Z","date":"2026-01-27","time":"02:05:18"},{"correct_response":"a","task":"test_phase","broad_category":"S","image_png":"S_Dolomite_07.png","image_id":391,"category_name":"Dolomite","category":25,"distinct_rating":1.73,"distinct_type":"Bottom","item_type":"Foil","rt":1690,"stimulus":"Stimuli_Rocks480/S_Dolomite_07.png","response":"l","trial_type":"image-keyboard-response","trial_index":145,"plugin_version":"2.1.0","time_elapsed":890833,"subject_id":"90904","group":"Group1","condition":"1_Rep","full_date":"2026-01-27T02:05:18.696Z","date":"2026-01-27","time":"02:05:18","cor_ans":false},{"trial_type":"html-keyboard-response","rt":null,"stimulus":"<p style=\"color: red; font-size: 50px; font-weight: bold;\">Incorrect</p>","response":null,"trial_index":146,"plugin_version":"2.1.0","time_elapsed":891336,"subject_id":"90904","group":"Group1","condition":"1_Rep","full_date":"2026-01-27T02:05:18.696Z","date":"2026-01-27","time":"02:05:18"},{"correct_response":"l","task":"test_phase","broad_category":"S","image_png":"S_Chert_10.png","image_id":362,"category_name":"Chert","category":23,"distinct_rating":7.17,"distinct_type":"Top","item_type":"Target","rt":1519,"stimulus":"Stimuli_Rocks480/S_Chert_10.png","response":"a","trial_type":"image-keyboard-response","trial_index":147,"plugin_version":"2.1.0","time_elapsed":892875,"subject_id":"90904","group":"Group1","condition":"1_Rep","full_date":"2026-01-27T02:05:18.696Z","date":"2026-01-27","time":"02:05:18","cor_ans":false},{"trial_type":"html-keyboard-response","rt":null,"stimulus":"<p style=\"color: red; font-size: 50px; font-weight: bold;\">Incorrect</p>","response":null,"trial_index":148,"plugin_version":"2.1.0","time_elapsed":893378,"subject_id":"90904","group":"Group1","condition":"1_Rep","full_date":"2026-01-27T02:05:18.696Z","date":"2026-01-27","time":"02:05:18"},{"correct_response":"a","task":"test_phase","broad_category":"I","image_png":"I_Andesite_03.png","image_id":3,"category_name":"Andesite","category":1,"distinct_rating":3.17,"distinct_type":"Bottom","item_type":"Foil","rt":3784,"stimulus":"Stimuli_Rocks480/I_Andesite_03.png","response":"a","trial_type":"image-keyboard-response","trial_index":149,"plugin_version":"2.1.0","time_elapsed":897179,"subject_id":"90904","group":"Group1","condition":"1_Rep","full_date":"2026-01-27T02:05:18.696Z","date":"2026-01-27","time":"02:05:18","cor_ans":true},{"trial_type":"html-keyboard-response","rt":null,"stimulus":"<p style=\"color: green; font-size: 50px; font-weight: bold;\">Correct</p>","response":null,"trial_index":150,"plugin_version":"2.1.0","time_elapsed":897682,"subject_id":"90904","group":"Group1","condition":"1_Rep","full_date":"2026-01-27T02:05:18.696Z","date":"2026-01-27","time":"02:05:18"},{"correct_response":"a","task":"test_phase","broad_category":"S","image_png":"S_Rock Salt_15.png","image_id":447,"category_name":"Rock Salt","category":28,"distinct_rating":7.79,"distinct_type":"Top","item_type":"Foil","rt":3041,"stimulus":"Stimuli_Rocks480/S_Rock Salt_15.png","response":"a","trial_type":"image-keyboard-response","trial_index":151,"plugin_version":"2.1.0","time_elapsed":900742,"subject_id":"90904","group":"Group1","condition":"1_Rep","full_date":"2026-01-27T02:05:18.696Z","date":"2026-01-27","time":"02:05:18","cor_ans":true},{"trial_type":"html-keyboard-response","rt":null,"stimulus":"<p style=\"color: green; font-size: 50px; font-weight: bold;\">Correct</p>","response":null,"trial_index":152,"plugin_version":"2.1.0","time_elapsed":901246,"subject_id":"90904","group":"Group1","condition":"1_Rep","full_date":"2026-01-27T02:05:18.696Z","date":"2026-01-27","time":"02:05:18"},{"correct_response":"l","task":"test_phase","broad_category":"S","image_png":"S_Sandstone_15.png","image_id":463,"category_name":"Sandstone","category":29,"distinct_rating":2,"distinct_type":"Bottom","item_type":"Target","rt":1048,"stimulus":"Stimuli_Rocks480/S_Sandstone_15.png","response":"l","trial_type":"image-keyboard-response","trial_index":153,"plugin_version":"2.1.0","time_elapsed":902321,"subject_id":"90904","group":"Group1","condition":"1_Rep","full_date":"2026-01-27T02:05:18.696Z","date":"2026-01-27","time":"02:05:18","cor_ans":true},{"trial_type":"html-keyboard-response","rt":null,"stimulus":"<p style=\"color: green; font-size: 50px; font-weight: bold;\">Correct</p>","response":null,"trial_index":154,"plugin_version":"2.1.0","time_elapsed":902826,"subject_id":"90904","group":"Group1","condition":"1_Rep","full_date":"2026-01-27T02:05:18.696Z","date":"2026-01-27","time":"02:05:18"},{"correct_response":"l","task":"test_phase","broad_category":"M","image_png":"M_Slate_15.png","image_id":319,"category_name":"Slate","category":20,"distinct_rating":2.13,"distinct_type":"Bottom","item_type":"Target","rt":869,"stimulus":"Stimuli_Rocks480/M_Slate_15.png","response":"l","trial_type":"image-keyboard-response","trial_index":155,"plugin_version":"2.1.0","time_elapsed":903711,"subject_id":"90904","group":"Group1","condition":"1_Rep","full_date":"2026-01-27T02:05:18.696Z","date":"2026-01-27","time":"02:05:18","cor_ans":true},{"trial_type":"html-keyboard-response","rt":null,"stimulus":"<p style=\"color: green; font-size: 50px; font-weight: bold;\">Correct</p>","response":null,"trial_index":156,"plugin_version":"2.1.0","time_elapsed":904214,"subject_id":"90904","group":"Group1","condition":"1_Rep","full_date":"2026-01-27T02:05:18.696Z","date":"2026-01-27","time":"02:05:18"},{"correct_response":"l","task":"test_phase","broad_category":"I","image_png":"I_Basalt_09.png","image_id":25,"category_name":"Basalt","category":2,"distinct_rating":1.89,"distinct_type":"Bottom","item_type":"Target","rt":928,"stimulus":"Stimuli_Rocks480/I_Basalt_09.png","response":"l","trial_type":"image-keyboard-response","trial_index":157,"plugin_version":"2.1.0","time_elapsed":905162,"subject_id":"90904","group":"Group1","condition":"1_Rep","full_date":"2026-01-27T02:05:18.696Z","date":"2026-01-27","time":"02:05:18","cor_ans":true},{"trial_type":"html-keyboard-response","rt":null,"stimulus":"<p style=\"color: green; font-size: 50px; font-weight: bold;\">Correct</p>","response":null,"trial_index":158,"plugin_version":"2.1.0","time_elapsed":905665,"subject_id":"90904","group":"Group1","condition":"1_Rep","full_date":"2026-01-27T02:05:18.696Z","date":"2026-01-27","time":"02:05:18"},{"correct_response":"a","task":"test_phase","broad_category":"S","image_png":"S_Sandstone_08.png","image_id":456,"category_name":"Sandstone","category":29,"distinct_rating":1.5,"distinct_type":"Bottom","item_type":"Foil","rt":1827,"stimulus":"Stimuli_Rocks480/S_Sandstone_08.png","response":"a","trial_type":"image-keyboard-response","trial_index":159,"plugin_version":"2.1.0","time_elapsed":907513,"subject_id":"90904","group":"Group1","condition":"1_Rep","full_date":"2026-01-27T02:05:18.696Z","date":"2026-01-27","time":"02:05:18","cor_ans":true},{"trial_type":"html-keyboard-response","rt":null,"stimulus":"<p style=\"color: green; font-size: 50px; font-weight: bold;\">Correct</p>","response":null,"trial_index":160,"plugin_version":"2.1.0","time_elapsed":908016,"subject_id":"90904","group":"Group1","condition":"1_Rep","full_date":"2026-01-27T02:05:18.696Z","date":"2026-01-27","time":"02:05:18"},{"correct_response":"a","task":"test_phase","broad_category":"I","image_png":"I_Basalt_10.png","image_id":26,"category_name":"Basalt","category":2,"distinct_rating":2.76,"distinct_type":"Bottom","item_type":"Foil","rt":1012,"stimulus":"Stimuli_Rocks480/I_Basalt_10.png","response":"a","trial_type":"image-keyboard-response","trial_index":161,"plugin_version":"2.1.0","time_elapsed":909050,"subject_id":"90904","group":"Group1","condition":"1_Rep","full_date":"2026-01-27T02:05:18.696Z","date":"2026-01-27","time":"02:05:18","cor_ans":true},{"trial_type":"html-keyboard-response","rt":null,"stimulus":"<p style=\"color: green; font-size: 50px; font-weight: bold;\">Correct</p>","response":null,"trial_index":162,"plugin_version":"2.1.0","time_elapsed":909553,"subject_id":"90904","group":"Group1","condition":"1_Rep","full_date":"2026-01-27T02:05:18.696Z","date":"2026-01-27","time":"02:05:18"},{"correct_response":"a","task":"test_phase","broad_category":"M","image_png":"M_Gneiss_15.png","image_id":207,"category_name":"Gneiss","category":13,"distinct_rating":3.11,"distinct_type":"Bottom","item_type":"Foil","rt":964,"stimulus":"Stimuli_Rocks480/M_Gneiss_15.png","response":"a","trial_type":"image-keyboard-response","trial_index":163,"plugin_version":"2.1.0","time_elapsed":910532,"subject_id":"90904","group":"Group1","condition":"1_Rep","full_date":"2026-01-27T02:05:18.696Z","date":"2026-01-27","time":"02:05:18","cor_ans":true},{"trial_type":"html-keyboard-response","rt":null,"stimulus":"<p style=\"color: green; font-size: 50px; font-weight: bold;\">Correct</p>","response":null,"trial_index":164,"plugin_version":"2.1.0","time_elapsed":911035,"subject_id":"90904","group":"Group1","condition":"1_Rep","full_date":"2026-01-27T02:05:18.696Z","date":"2026-01-27","time":"02:05:18"},{"correct_response":"l","task":"test_phase","broad_category":"I","image_png":"I_Pumice_11.png","image_id":139,"category_name":"Pumice","category":9,"distinct_rating":1.74,"distinct_type":"Bottom","item_type":"Target","rt":1786,"stimulus":"Stimuli_Rocks480/I_Pumice_11.png","response":"a","trial_type":"image-keyboard-response","trial_index":165,"plugin_version":"2.1.0","time_elapsed":912835,"subject_id":"90904","group":"Group1","condition":"1_Rep","full_date":"2026-01-27T02:05:18.696Z","date":"2026-01-27","time":"02:05:18","cor_ans":false},{"trial_type":"html-keyboard-response","rt":null,"stimulus":"<p style=\"color: red; font-size: 50px; font-weight: bold;\">Incorrect</p>","response":null,"trial_index":166,"plugin_version":"2.1.0","time_elapsed":913338,"subject_id":"90904","group":"Group1","condition":"1_Rep","full_date":"2026-01-27T02:05:18.696Z","date":"2026-01-27","time":"02:05:18"},{"correct_response":"a","task":"test_phase","broad_category":"M","image_png":"M_Slate_04.png","image_id":308,"category_name":"Slate","category":20,"distinct_rating":2.2,"distinct_type":"Bottom","item_type":"Foil","rt":875,"stimulus":"Stimuli_Rocks480/M_Slate_04.png","response":"l","trial_type":"image-keyboard-response","trial_index":167,"plugin_version":"2.1.0","time_elapsed":914229,"subject_id":"90904","group":"Group1","condition":"1_Rep","full_date":"2026-01-27T02:05:18.696Z","date":"2026-01-27","time":"02:05:18","cor_ans":false},{"trial_type":"html-keyboard-response","rt":null,"stimulus":"<p style=\"color: red; font-size: 50px; font-weight: bold;\">Incorrect</p>","response":null,"trial_index":168,"plugin_version":"2.1.0","time_elapsed":914732,"subject_id":"90904","group":"Group1","condition":"1_Rep","full_date":"2026-01-27T02:05:18.696Z","date":"2026-01-27","time":"02:05:18"},{"correct_response":"l","task":"test_phase","broad_category":"S","image_png":"S_Rock Salt_01.png","image_id":433,"category_name":"Rock Salt","category":28,"distinct_rating":7.18,"distinct_type":"Top","item_type":"Target","rt":1346,"stimulus":"Stimuli_Rocks480/S_Rock Salt_01.png","response":"l","trial_type":"image-keyboard-response","trial_index":169,"plugin_version":"2.1.0","time_elapsed":916104,"subject_id":"90904","group":"Group1","condition":"1_Rep","full_date":"2026-01-27T02:05:18.696Z","date":"2026-01-27","time":"02:05:18","cor_ans":true},{"trial_type":"html-keyboard-response","rt":null,"stimulus":"<p style=\"color: green; font-size: 50px; font-weight: bold;\">Correct</p>","response":null,"trial_index":170,"plugin_version":"2.1.0","time_elapsed":916607,"subject_id":"90904","group":"Group1","condition":"1_Rep","full_date":"2026-01-27T02:05:18.696Z","date":"2026-01-27","time":"02:05:18"},{"correct_response":"a","task":"test_phase","broad_category":"I","image_png":"I_Pegmatite_03.png","image_id":99,"category_name":"Pegmatite","category":7,"distinct_rating":7.24,"distinct_type":"Top","item_type":"Foil","rt":1175,"stimulus":"Stimuli_Rocks480/I_Pegmatite_03.png","response":"a","trial_type":"image-keyboard-response","trial_index":171,"plugin_version":"2.1.0","time_elapsed":917802,"subject_id":"90904","group":"Group1","condition":"1_Rep","full_date":"2026-01-27T02:05:18.696Z","date":"2026-01-27","time":"02:05:18","cor_ans":true},{"trial_type":"html-keyboard-response","rt":null,"stimulus":"<p style=\"color: green; font-size: 50px; font-weight: bold;\">Correct</p>","response":null,"trial_index":172,"plugin_version":"2.1.0","time_elapsed":918305,"subject_id":"90904","group":"Group1","condition":"1_Rep","full_date":"2026-01-27T02:05:18.696Z","date":"2026-01-27","time":"02:05:18"},{"correct_response":"a","task":"test_phase","broad_category":"S","image_png":"S_Rock Salt_13.png","image_id":445,"category_name":"Rock Salt","category":28,"distinct_rating":7.58,"distinct_type":"Top","item_type":"Foil","rt":966,"stimulus":"Stimuli_Rocks480/S_Rock Salt_13.png","response":"a","trial_type":"image-keyboard-response","trial_index":173,"plugin_version":"2.1.0","time_elapsed":919298,"subject_id":"90904","group":"Group1","condition":"1_Rep","full_date":"2026-01-27T02:05:18.696Z","date":"2026-01-27","time":"02:05:18","cor_ans":true},{"trial_type":"html-keyboard-response","rt":null,"stimulus":"<p style=\"color: green; font-size: 50px; font-weight: bold;\">Correct</p>","response":null,"trial_index":174,"plugin_version":"2.1.0","time_elapsed":919801,"subject_id":"90904","group":"Group1","condition":"1_Rep","full_date":"2026-01-27T02:05:18.696Z","date":"2026-01-27","time":"02:05:18"},{"correct_response":"l","task":"test_phase","broad_category":"M","image_png":"M_Quartzite_08.png","image_id":280,"category_name":"Quartzite","category":18,"distinct_rating":2.15,"distinct_type":"Bottom","item_type":"Target","rt":1206,"stimulus":"Stimuli_Rocks480/M_Quartzite_08.png","response":"l","trial_type":"image-keyboard-response","trial_index":175,"plugin_version":"2.1.0","time_elapsed":921028,"subject_id":"90904","group":"Group1","condition":"1_Rep","full_date":"2026-01-27T02:05:18.696Z","date":"2026-01-27","time":"02:05:18","cor_ans":true},{"trial_type":"html-keyboard-response","rt":null,"stimulus":"<p style=\"color: green; font-size: 50px; font-weight: bold;\">Correct</p>","response":null,"trial_index":176,"plugin_version":"2.1.0","time_elapsed":921531,"subject_id":"90904","group":"Group1","condition":"1_Rep","full_date":"2026-01-27T02:05:18.696Z","date":"2026-01-27","time":"02:05:18"},{"correct_response":"a","task":"test_phase","broad_category":"M","image_png":"M_Marble_02.png","image_id":226,"category_name":"Marble","category":15,"distinct_rating":3.2,"distinct_type":"Bottom","item_type":"Foil","rt":1630,"stimulus":"Stimuli_Rocks480/M_Marble_02.png","response":"l","trial_type":"image-keyboard-response","trial_index":177,"plugin_version":"2.1.0","time_elapsed":923179,"subject_id":"90904","group":"Group1","condition":"1_Rep","full_date":"2026-01-27T02:05:18.696Z","date":"2026-01-27","time":"02:05:18","cor_ans":false},{"trial_type":"html-keyboard-response","rt":null,"stimulus":"<p style=\"color: red; font-size: 50px; font-weight: bold;\">Incorrect</p>","response":null,"trial_index":178,"plugin_version":"2.1.0","time_elapsed":923682,"subject_id":"90904","group":"Group1","condition":"1_Rep","full_date":"2026-01-27T02:05:18.696Z","date":"2026-01-27","time":"02:05:18"},{"correct_response":"a","task":"test_phase","broad_category":"I","image_png":"I_Rhyolite_10.png","image_id":154,"category_name":"Rhyolite","category":10,"distinct_rating":2.88,"distinct_type":"Bottom","item_type":"Foil","rt":1389,"stimulus":"Stimuli_Rocks480/I_Rhyolite_10.png","response":"a","trial_type":"image-keyboard-response","trial_index":179,"plugin_version":"2.1.0","time_elapsed":925102,"subject_id":"90904","group":"Group1","condition":"1_Rep","full_date":"2026-01-27T02:05:18.696Z","date":"2026-01-27","time":"02:05:18","cor_ans":true},{"trial_type":"html-keyboard-response","rt":null,"stimulus":"<p style=\"color: green; font-size: 50px; font-weight: bold;\">Correct</p>","response":null,"trial_index":180,"plugin_version":"2.1.0","time_elapsed":925605,"subject_id":"90904","group":"Group1","condition":"1_Rep","full_date":"2026-01-27T02:05:18.696Z","date":"2026-01-27","time":"02:05:18"},{"correct_response":"a","task":"test_phase","broad_category":"I","image_png":"I_Rhyolite_05.png","image_id":149,"category_name":"Rhyolite","category":10,"distinct_rating":3.02,"distinct_type":"Bottom","item_type":"Foil","rt":940,"stimulus":"Stimuli_Rocks480/I_Rhyolite_05.png","response":"a","trial_type":"image-keyboard-response","trial_index":181,"plugin_version":"2.1.0","time_elapsed":926568,"subject_id":"90904","group":"Group1","condition":"1_Rep","full_date":"2026-01-27T02:05:18.696Z","date":"2026-01-27","time":"02:05:18","cor_ans":true},{"trial_type":"html-keyboard-response","rt":null,"stimulus":"<p style=\"color: green; font-size: 50px; font-weight: bold;\">Correct</p>","response":null,"trial_index":182,"plugin_version":"2.1.0","time_elapsed":927071,"subject_id":"90904","group":"Group1","condition":"1_Rep","full_date":"2026-01-27T02:05:18.696Z","date":"2026-01-27","time":"02:05:18"},{"correct_response":"l","task":"test_phase","broad_category":"M","image_png":"M_Gneiss_13.png","image_id":205,"category_name":"Gneiss","category":13,"distinct_rating":3.26,"distinct_type":"Bottom","item_type":"Target","rt":2670,"stimulus":"Stimuli_Rocks480/M_Gneiss_13.png","response":"l","trial_type":"image-keyboard-response","trial_index":183,"plugin_version":"2.1.0","time_elapsed":929760,"subject_id":"90904","group":"Group1","condition":"1_Rep","full_date":"2026-01-27T02:05:18.696Z","date":"2026-01-27","time":"02:05:18","cor_ans":true},{"trial_type":"html-keyboard-response","rt":null,"stimulus":"<p style=\"color: green; font-size: 50px; font-weight: bold;\">Correct</p>","response":null,"trial_index":184,"plugin_version":"2.1.0","time_elapsed":930263,"subject_id":"90904","group":"Group1","condition":"1_Rep","full_date":"2026-01-27T02:05:18.696Z","date":"2026-01-27","time":"02:05:18"},{"correct_response":"a","task":"test_phase","broad_category":"I","image_png":"I_Diorite_10.png","image_id":42,"category_name":"Diorite","category":3,"distinct_rating":2.84,"distinct_type":"Bottom","item_type":"Foil","rt":1168,"stimulus":"Stimuli_Rocks480/I_Diorite_10.png","response":"a","trial_type":"image-keyboard-response","trial_index":185,"plugin_version":"2.1.0","time_elapsed":931453,"subject_id":"90904","group":"Group1","condition":"1_Rep","full_date":"2026-01-27T02:05:18.696Z","date":"2026-01-27","time":"02:05:18","cor_ans":true},{"trial_type":"html-keyboard-response","rt":null,"stimulus":"<p style=\"color: green; font-size: 50px; font-weight: bold;\">Correct</p>","response":null,"trial_index":186,"plugin_version":"2.1.0","time_elapsed":931956,"subject_id":"90904","group":"Group1","condition":"1_Rep","full_date":"2026-01-27T02:05:18.696Z","date":"2026-01-27","time":"02:05:18"},{"correct_response":"l","task":"test_phase","broad_category":"I","image_png":"I_Rhyolite_14.png","image_id":158,"category_name":"Rhyolite","category":10,"distinct_rating":2.59,"distinct_type":"Bottom","item_type":"Target","rt":3462,"stimulus":"Stimuli_Rocks480/I_Rhyolite_14.png","response":"a","trial_type":"image-keyboard-response","trial_index":187,"plugin_version":"2.1.0","time_elapsed":935436,"subject_id":"90904","group":"Group1","condition":"1_Rep","full_date":"2026-01-27T02:05:18.696Z","date":"2026-01-27","time":"02:05:18","cor_ans":false},{"trial_type":"html-keyboard-response","rt":null,"stimulus":"<p style=\"color: red; font-size: 50px; font-weight: bold;\">Incorrect</p>","response":null,"trial_index":188,"plugin_version":"2.1.0","time_elapsed":935939,"subject_id":"90904","group":"Group1","condition":"1_Rep","full_date":"2026-01-27T02:05:18.696Z","date":"2026-01-27","time":"02:05:18"},{"correct_response":"l","task":"test_phase","broad_category":"S","image_png":"S_Sandstone_03.png","image_id":451,"category_name":"Sandstone","category":29,"distinct_rating":1.86,"distinct_type":"Bottom","item_type":"Target","rt":2127,"stimulus":"Stimuli_Rocks480/S_Sandstone_03.png","response":"a","trial_type":"image-keyboard-response","trial_index":189,"plugin_version":"2.1.0","time_elapsed":938087,"subject_id":"90904","group":"Group1","condition":"1_Rep","full_date":"2026-01-27T02:05:18.696Z","date":"2026-01-27","time":"02:05:18","cor_ans":false},{"trial_type":"html-keyboard-response","rt":null,"stimulus":"<p style=\"color: red; font-size: 50px; font-weight: bold;\">Incorrect</p>","response":null,"trial_index":190,"plugin_version":"2.1.0","time_elapsed":938590,"subject_id":"90904","group":"Group1","condition":"1_Rep","full_date":"2026-01-27T02:05:18.696Z","date":"2026-01-27","time":"02:05:18"},{"correct_response":"a","task":"test_phase","broad_category":"S","image_png":"S_Dolomite_16.png","image_id":400,"category_name":"Dolomite","category":25,"distinct_rating":1.71,"distinct_type":"Bottom","item_type":"Foil","rt":1192,"stimulus":"Stimuli_Rocks480/S_Dolomite_16.png","response":"a","trial_type":"image-keyboard-response","trial_index":191,"plugin_version":"2.1.0","time_elapsed":939801,"subject_id":"90904","group":"Group1","condition":"1_Rep","full_date":"2026-01-27T02:05:18.696Z","date":"2026-01-27","time":"02:05:18","cor_ans":true},{"trial_type":"html-keyboard-response","rt":null,"stimulus":"<p style=\"color: green; font-size: 50px; font-weight: bold;\">Correct</p>","response":null,"trial_index":192,"plugin_version":"2.1.0","time_elapsed":940304,"subject_id":"90904","group":"Group1","condition":"1_Rep","full_date":"2026-01-27T02:05:18.696Z","date":"2026-01-27","time":"02:05:18"},{"correct_response":"a","task":"test_phase","broad_category":"S","image_png":"S_Chert_13.png","image_id":365,"category_name":"Chert","category":23,"distinct_rating":6.57,"distinct_type":"Top","item_type":"Foil","rt":1474,"stimulus":"Stimuli_Rocks480/S_Chert_13.png","response":"a","trial_type":"image-keyboard-response","trial_index":193,"plugin_version":"2.1.0","time_elapsed":941793,"subject_id":"90904","group":"Group1","condition":"1_Rep","full_date":"2026-01-27T02:05:18.696Z","date":"2026-01-27","time":"02:05:18","cor_ans":true},{"trial_type":"html-keyboard-response","rt":null,"stimulus":"<p style=\"color: green; font-size: 50px; font-weight: bold;\">Correct</p>","response":null,"trial_index":194,"plugin_version":"2.1.0","time_elapsed":942296,"subject_id":"90904","group":"Group1","condition":"1_Rep","full_date":"2026-01-27T02:05:18.696Z","date":"2026-01-27","time":"02:05:18"},{"correct_response":"a","task":"test_phase","broad_category":"M","image_png":"M_Marble_03.png","image_id":227,"category_name":"Marble","category":15,"distinct_rating":2.67,"distinct_type":"Bottom","item_type":"Foil","rt":1161,"stimulus":"Stimuli_Rocks480/M_Marble_03.png","response":"a","trial_type":"image-keyboard-response","trial_index":195,"plugin_version":"2.1.0","time_elapsed":943479,"subject_id":"90904","group":"Group1","condition":"1_Rep","full_date":"2026-01-27T02:05:18.696Z","date":"2026-01-27","time":"02:05:18","cor_ans":true},{"trial_type":"html-keyboard-response","rt":null,"stimulus":"<p style=\"color: green; font-size: 50px; font-weight: bold;\">Correct</p>","response":null,"trial_index":196,"plugin_version":"2.1.0","time_elapsed":943982,"subject_id":"90904","group":"Group1","condition":"1_Rep","full_date":"2026-01-27T02:05:18.696Z","date":"2026-01-27","time":"02:05:18"},{"correct_response":"a","task":"test_phase","broad_category":"I","image_png":"I_Andesite_09.png","image_id":9,"category_name":"Andesite","category":1,"distinct_rating":2.49,"distinct_type":"Bottom","item_type":"Foil","rt":4430,"stimulus":"Stimuli_Rocks480/I_Andesite_09.png","response":"l","trial_type":"image-keyboard-response","trial_index":197,"plugin_version":"2.1.0","time_elapsed":948430,"subject_id":"90904","group":"Group1","condition":"1_Rep","full_date":"2026-01-27T02:05:18.696Z","date":"2026-01-27","time":"02:05:18","cor_ans":false},{"trial_type":"html-keyboard-response","rt":null,"stimulus":"<p style=\"color: red; font-size: 50px; font-weight: bold;\">Incorrect</p>","response":null,"trial_index":198,"plugin_version":"2.1.0","time_elapsed":948933,"subject_id":"90904","group":"Group1","condition":"1_Rep","full_date":"2026-01-27T02:05:18.696Z","date":"2026-01-27","time":"02:05:18"},{"correct_response":"a","task":"test_phase","broad_category":"M","image_png":"M_Gneiss_10.png","image_id":202,"category_name":"Gneiss","category":13,"distinct_rating":3.09,"distinct_type":"Bottom","item_type":"Foil","rt":2119,"stimulus":"Stimuli_Rocks480/M_Gneiss_10.png","response":"l","trial_type":"image-keyboard-response","trial_index":199,"plugin_version":"2.1.0","time_elapsed":951074,"subject_id":"90904","group":"Group1","condition":"1_Rep","full_date":"2026-01-27T02:05:18.696Z","date":"2026-01-27","time":"02:05:18","cor_ans":false},{"trial_type":"html-keyboard-response","rt":null,"stimulus":"<p style=\"color: red; font-size: 50px; font-weight: bold;\">Incorrect</p>","response":null,"trial_index":200,"plugin_version":"2.1.0","time_elapsed":951577,"subject_id":"90904","group":"Group1","condition":"1_Rep","full_date":"2026-01-27T02:05:18.696Z","date":"2026-01-27","time":"02:05:18"},{"correct_response":"a","task":"test_phase","broad_category":"I","image_png":"I_Diorite_01.png","image_id":33,"category_name":"Diorite","category":3,"distinct_rating":2.97,"distinct_type":"Bottom","item_type":"Foil","rt":982,"stimulus":"Stimuli_Rocks480/I_Diorite_01.png","response":"a","trial_type":"image-keyboard-response","trial_index":201,"plugin_version":"2.1.0","time_elapsed":952590,"subject_id":"90904","group":"Group1","condition":"1_Rep","full_date":"2026-01-27T02:05:18.696Z","date":"2026-01-27","time":"02:05:18","cor_ans":true},{"trial_type":"html-keyboard-response","rt":null,"stimulus":"<p style=\"color: green; font-size: 50px; font-weight: bold;\">Correct</p>","response":null,"trial_index":202,"plugin_version":"2.1.0","time_elapsed":953094,"subject_id":"90904","group":"Group1","condition":"1_Rep","full_date":"2026-01-27T02:05:18.696Z","date":"2026-01-27","time":"02:05:18"},{"correct_response":"a","task":"test_phase","broad_category":"I","image_png":"I_Pumice_01.png","image_id":129,"category_name":"Pumice","category":9,"distinct_rating":3.25,"distinct_type":"Bottom","item_type":"Foil","rt":664,"stimulus":"Stimuli_Rocks480/I_Pumice_01.png","response":"a","trial_type":"image-keyboard-response","trial_index":203,"plugin_version":"2.1.0","time_elapsed":953781,"subject_id":"90904","group":"Group1","condition":"1_Rep","full_date":"2026-01-27T02:05:18.696Z","date":"2026-01-27","time":"02:05:18","cor_ans":true},{"trial_type":"html-keyboard-response","rt":null,"stimulus":"<p style=\"color: green; font-size: 50px; font-weight: bold;\">Correct</p>","response":null,"trial_index":204,"plugin_version":"2.1.0","time_elapsed":954285,"subject_id":"90904","group":"Group1","condition":"1_Rep","full_date":"2026-01-27T02:05:18.696Z","date":"2026-01-27","time":"02:05:18"},{"correct_response":"a","task":"test_phase","broad_category":"I","image_png":"I_Gabbro_02.png","image_id":50,"category_name":"Gabbro","category":4,"distinct_rating":2.73,"distinct_type":"Bottom","item_type":"Foil","rt":1583,"stimulus":"Stimuli_Rocks480/I_Gabbro_02.png","response":"a","trial_type":"image-keyboard-response","trial_index":205,"plugin_version":"2.1.0","time_elapsed":955892,"subject_id":"90904","group":"Group1","condition":"1_Rep","full_date":"2026-01-27T02:05:18.696Z","date":"2026-01-27","time":"02:05:18","cor_ans":true},{"trial_type":"html-keyboard-response","rt":null,"stimulus":"<p style=\"color: green; font-size: 50px; font-weight: bold;\">Correct</p>","response":null,"trial_index":206,"plugin_version":"2.1.0","time_elapsed":956396,"subject_id":"90904","group":"Group1","condition":"1_Rep","full_date":"2026-01-27T02:05:18.696Z","date":"2026-01-27","time":"02:05:18"},{"correct_response":"a","task":"test_phase","broad_category":"I","image_png":"I_Peridotite_13.png","image_id":125,"category_name":"Peridotite","category":8,"distinct_rating":7.28,"distinct_type":"Top","item_type":"Foil","rt":829,"stimulus":"Stimuli_Rocks480/I_Peridotite_13.png","response":"a","trial_type":"image-keyboard-response","trial_index":207,"plugin_version":"2.1.0","time_elapsed":957252,"subject_id":"90904","group":"Group1","condition":"1_Rep","full_date":"2026-01-27T02:05:18.696Z","date":"2026-01-27","time":"02:05:18","cor_ans":true},{"trial_type":"html-keyboard-response","rt":null,"stimulus":"<p style=\"color: green; font-size: 50px; font-weight: bold;\">Correct</p>","response":null,"trial_index":208,"plugin_version":"2.1.0","time_elapsed":957755,"subject_id":"90904","group":"Group1","condition":"1_Rep","full_date":"2026-01-27T02:05:18.696Z","date":"2026-01-27","time":"02:05:18"},{"correct_response":"a","task":"test_phase","broad_category":"I","image_png":"I_Basalt_13.png","image_id":29,"category_name":"Basalt","category":2,"distinct_rating":2.68,"distinct_type":"Bottom","item_type":"Foil","rt":2437,"stimulus":"Stimuli_Rocks480/I_Basalt_13.png","response":"a","trial_type":"image-keyboard-response","trial_index":209,"plugin_version":"2.1.0","time_elapsed":960213,"subject_id":"90904","group":"Group1","condition":"1_Rep","full_date":"2026-01-27T02:05:18.696Z","date":"2026-01-27","time":"02:05:18","cor_ans":true},{"trial_type":"html-keyboard-response","rt":null,"stimulus":"<p style=\"color: green; font-size: 50px; font-weight: bold;\">Correct</p>","response":null,"trial_index":210,"plugin_version":"2.1.0","time_elapsed":960716,"subject_id":"90904","group":"Group1","condition":"1_Rep","full_date":"2026-01-27T02:05:18.696Z","date":"2026-01-27","time":"02:05:18"},{"correct_response":"a","task":"test_phase","broad_category":"M","image_png":"M_Quartzite_12.png","image_id":284,"category_name":"Quartzite","category":18,"distinct_rating":1.92,"distinct_type":"Bottom","item_type":"Foil","rt":2432,"stimulus":"Stimuli_Rocks480/M_Quartzite_12.png","response":"a","trial_type":"image-keyboard-response","trial_index":211,"plugin_version":"2.1.0","time_elapsed":963166,"subject_id":"90904","group":"Group1","condition":"1_Rep","full_date":"2026-01-27T02:05:18.696Z","date":"2026-01-27","time":"02:05:18","cor_ans":true},{"trial_type":"html-keyboard-response","rt":null,"stimulus":"<p style=\"color: green; font-size: 50px; font-weight: bold;\">Correct</p>","response":null,"trial_index":212,"plugin_version":"2.1.0","time_elapsed":963669,"subject_id":"90904","group":"Group1","condition":"1_Rep","full_date":"2026-01-27T02:05:18.696Z","date":"2026-01-27","time":"02:05:18"},{"correct_response":"a","task":"test_phase","broad_category":"I","image_png":"I_Pegmatite_11.png","image_id":107,"category_name":"Pegmatite","category":7,"distinct_rating":7.11,"distinct_type":"Top","item_type":"Foil","rt":894,"stimulus":"Stimuli_Rocks480/I_Pegmatite_11.png","response":"a","trial_type":"image-keyboard-response","trial_index":213,"plugin_version":"2.1.0","time_elapsed":964588,"subject_id":"90904","group":"Group1","condition":"1_Rep","full_date":"2026-01-27T02:05:18.696Z","date":"2026-01-27","time":"02:05:18","cor_ans":true},{"trial_type":"html-keyboard-response","rt":null,"stimulus":"<p style=\"color: green; font-size: 50px; font-weight: bold;\">Correct</p>","response":null,"trial_index":214,"plugin_version":"2.1.0","time_elapsed":965091,"subject_id":"90904","group":"Group1","condition":"1_Rep","full_date":"2026-01-27T02:05:18.696Z","date":"2026-01-27","time":"02:05:18"},{"correct_response":"l","task":"test_phase","broad_category":"I","image_png":"I_Diorite_04.png","image_id":36,"category_name":"Diorite","category":3,"distinct_rating":2.98,"distinct_type":"Bottom","item_type":"Target","rt":2830,"stimulus":"Stimuli_Rocks480/I_Diorite_04.png","response":"l","trial_type":"image-keyboard-response","trial_index":215,"plugin_version":"2.1.0","time_elapsed":967944,"subject_id":"90904","group":"Group1","condition":"1_Rep","full_date":"2026-01-27T02:05:18.696Z","date":"2026-01-27","time":"02:05:18","cor_ans":true},{"trial_type":"html-keyboard-response","rt":null,"stimulus":"<p style=\"color: green; font-size: 50px; font-weight: bold;\">Correct</p>","response":null,"trial_index":216,"plugin_version":"2.1.0","time_elapsed":968447,"subject_id":"90904","group":"Group1","condition":"1_Rep","full_date":"2026-01-27T02:05:18.696Z","date":"2026-01-27","time":"02:05:18"},{"correct_response":"a","task":"test_phase","broad_category":"I","image_png":"I_Basalt_08.png","image_id":24,"category_name":"Basalt","category":2,"distinct_rating":2.31,"distinct_type":"Bottom","item_type":"Foil","rt":1165,"stimulus":"Stimuli_Rocks480/I_Basalt_08.png","response":"a","trial_type":"image-keyboard-response","trial_index":217,"plugin_version":"2.1.0","time_elapsed":969640,"subject_id":"90904","group":"Group1","condition":"1_Rep","full_date":"2026-01-27T02:05:18.696Z","date":"2026-01-27","time":"02:05:18","cor_ans":true},{"trial_type":"html-keyboard-response","rt":null,"stimulus":"<p style=\"color: green; font-size: 50px; font-weight: bold;\">Correct</p>","response":null,"trial_index":218,"plugin_version":"2.1.0","time_elapsed":970143,"subject_id":"90904","group":"Group1","condition":"1_Rep","full_date":"2026-01-27T02:05:18.696Z","date":"2026-01-27","time":"02:05:18"},{"correct_response":"l","task":"test_phase","broad_category":"S","image_png":"S_Shale_12.png","image_id":476,"category_name":"Shale","category":30,"distinct_rating":2.48,"distinct_type":"Bottom","item_type":"Target","rt":1313,"stimulus":"Stimuli_Rocks480/S_Shale_12.png","response":"l","trial_type":"image-keyboard-response","trial_index":219,"plugin_version":"2.1.0","time_elapsed":971479,"subject_id":"90904","group":"Group1","condition":"1_Rep","full_date":"2026-01-27T02:05:18.696Z","date":"2026-01-27","time":"02:05:18","cor_ans":true},{"trial_type":"html-keyboard-response","rt":null,"stimulus":"<p style=\"color: green; font-size: 50px; font-weight: bold;\">Correct</p>","response":null,"trial_index":220,"plugin_version":"2.1.0","time_elapsed":971982,"subject_id":"90904","group":"Group1","condition":"1_Rep","full_date":"2026-01-27T02:05:18.696Z","date":"2026-01-27","time":"02:05:18"},{"correct_response":"a","task":"test_phase","broad_category":"I","image_png":"I_Rhyolite_08.png","image_id":152,"category_name":"Rhyolite","category":10,"distinct_rating":1.38,"distinct_type":"Bottom","item_type":"Foil","rt":1043,"stimulus":"Stimuli_Rocks480/I_Rhyolite_08.png","response":"l","trial_type":"image-keyboard-response","trial_index":221,"plugin_version":"2.1.0","time_elapsed":973044,"subject_id":"90904","group":"Group1","condition":"1_Rep","full_date":"2026-01-27T02:05:18.696Z","date":"2026-01-27","time":"02:05:18","cor_ans":false},{"trial_type":"html-keyboard-response","rt":null,"stimulus":"<p style=\"color: red; font-size: 50px; font-weight: bold;\">Incorrect</p>","response":null,"trial_index":222,"plugin_version":"2.1.0","time_elapsed":973547,"subject_id":"90904","group":"Group1","condition":"1_Rep","full_date":"2026-01-27T02:05:18.696Z","date":"2026-01-27","time":"02:05:18"},{"correct_response":"a","task":"test_phase","broad_category":"M","image_png":"M_Slate_14.png","image_id":318,"category_name":"Slate","category":20,"distinct_rating":2.58,"distinct_type":"Bottom","item_type":"Foil","rt":984,"stimulus":"Stimuli_Rocks480/M_Slate_14.png","response":"l","trial_type":"image-keyboard-response","trial_index":223,"plugin_version":"2.1.0","time_elapsed":974547,"subject_id":"90904","group":"Group1","condition":"1_Rep","full_date":"2026-01-27T02:05:18.696Z","date":"2026-01-27","time":"02:05:18","cor_ans":false},{"trial_type":"html-keyboard-response","rt":null,"stimulus":"<p style=\"color: red; font-size: 50px; font-weight: bold;\">Incorrect</p>","response":null,"trial_index":224,"plugin_version":"2.1.0","time_elapsed":975050,"subject_id":"90904","group":"Group1","condition":"1_Rep","full_date":"2026-01-27T02:05:18.696Z","date":"2026-01-27","time":"02:05:18"},{"correct_response":"a","task":"test_phase","broad_category":"S","image_png":"S_Con