[{"width":1470,"height":835,"webaudio":true,"browser":"chrome","browser_version":"145.0.0","mobile":false,"os":"Mac OS","fullscreen":true,"vsync_rate":60.01,"webcam":true,"microphone":true,"trial_type":"browser-check","trial_index":0,"plugin_version":"2.1.0","time_elapsed":1012,"subject_id":"90888","group":"Group2","condition":"1_Rep","full_date":"2026-03-13T23:57:06.844Z","date":"2026-03-13","time":"23:57:06"},{"success":true,"timeout":false,"failed_images":[],"failed_audio":[],"failed_video":[],"trial_type":"preload","trial_index":1,"plugin_version":"2.1.0","time_elapsed":4370,"subject_id":"90888","group":"Group2","condition":"1_Rep","full_date":"2026-03-13T23:57:06.844Z","date":"2026-03-13","time":"23:57:06"},{"rt":4992,"url":"SONA_consent_memorability.html","trial_type":"external-html","trial_index":2,"plugin_version":"2.1.0","time_elapsed":9423,"subject_id":"90888","group":"Group2","condition":"1_Rep","full_date":"2026-03-13T23:57:06.844Z","date":"2026-03-13","time":"23:57:06"},{"success":true,"rt":1447,"trial_type":"fullscreen","trial_index":3,"plugin_version":"2.1.0","time_elapsed":11874,"subject_id":"90888","group":"Group2","condition":"1_Rep","full_date":"2026-03-13T23:57:06.844Z","date":"2026-03-13","time":"23:57:06"},{"rt":1345,"stimulus":"<div style=\"max-width: 760px; margin: auto; font-size: 20px; line-height: 1.5;\">\n      <h1 style=\"text-align:center; font-size: 30px;\">Instructions</h1>\n      <p>\n        Welcome to the study on <b>visual memory</b>. This experiment consists of <b>two phases</b>: \n        a <b>study phase</b> and a <b>test phase</b>.\n      </p>\n      <p>\n        In the study phase, you will see a series of rock images along with their category labels.\n        The images will appear one at a time.\n        <b>Your task</b> is to learn the categories to which the rock images belong \n        and to remember each image as accurately as possible.\n      </p> \n      <p>\n        Note that you will see each image only <b>once</b> during the study phase. \n          So, please pay close attention and try to remember each image carefully.\n      </p>\n      <p>\n        After the study phase, <b>your memory will be tested</b>. \n        Additional instructions for the test phase will be provided at that time.\n      </p>\n      <p>\n        If your computer has multiple <b>language settings</b> (e.g., English and another language),\n        please make sure it is set to English before starting.\n      </p>\n      <p>\n        You can track your progress using the <b>completion bar</b> at the top of the screen. \n        Please note that the bar will refresh when the test phase begins \n        to give you an accurate sense of your progress in both phases.\n      </p> \n      <p>\n        Press the button below when you are ready to begin.\n      </p>\n    </div>","response":0,"trial_type":"html-button-response","trial_index":4,"plugin_version":"2.1.0","time_elapsed":13222,"subject_id":"90888","group":"Group2","condition":"1_Rep","full_date":"2026-03-13T23:57:06.844Z","date":"2026-03-13","time":"23:57:06"},{"rt":null,"stimulus":"<p style=\"font-size: 50px; margin: 0; text-align: center;\">+</p>","response":null,"trial_type":"html-keyboard-response","trial_index":5,"plugin_version":"2.1.0","time_elapsed":14228,"subject_id":"90888","group":"Group2","condition":"1_Rep","full_date":"2026-03-13T23:57:06.844Z","date":"2026-03-13","time":"23:57:06"},{"task":"memory_phase","broad_category":"I","image_png":"I_Gabbro_12.png","image_id":60,"category_name":"Gabbro","category":4,"distinct_rating":2.6,"distinct_type":"Bottom","rt":null,"stimulus":"Stimuli_Rocks480/I_Gabbro_12.png","response":null,"trial_type":"image-keyboard-response","trial_index":6,"plugin_version":"2.1.0","time_elapsed":16733,"subject_id":"90888","group":"Group2","condition":"1_Rep","full_date":"2026-03-13T23:57:06.844Z","date":"2026-03-13","time":"23:57:06"},{"rt":null,"stimulus":"<p style=\"font-size: 50px; margin: 0; text-align: center;\">+</p>","response":null,"trial_type":"html-keyboard-response","trial_index":7,"plugin_version":"2.1.0","time_elapsed":17736,"subject_id":"90888","group":"Group2","condition":"1_Rep","full_date":"2026-03-13T23:57:06.844Z","date":"2026-03-13","time":"23:57:06"},{"task":"memory_phase","broad_category":"M","image_png":"M_Marble_14.png","image_id":238,"category_name":"Marble","category":15,"distinct_rating":3.31,"distinct_type":"Bottom","rt":null,"stimulus":"Stimuli_Rocks480/M_Marble_14.png","response":null,"trial_type":"image-keyboard-response","trial_index":8,"plugin_version":"2.1.0","time_elapsed":20240,"subject_id":"90888","group":"Group2","condition":"1_Rep","full_date":"2026-03-13T23:57:06.844Z","date":"2026-03-13","time":"23:57:06"},{"rt":null,"stimulus":"<p style=\"font-size: 50px; margin: 0; text-align: center;\">+</p>","response":null,"trial_type":"html-keyboard-response","trial_index":9,"plugin_version":"2.1.0","time_elapsed":21242,"subject_id":"90888","group":"Group2","condition":"1_Rep","full_date":"2026-03-13T23:57:06.844Z","date":"2026-03-13","time":"23:57:06"},{"task":"memory_phase","broad_category":"I","image_png":"I_Andesite_03.png","image_id":3,"category_name":"Andesite","category":1,"distinct_rating":3.17,"distinct_type":"Bottom","rt":null,"stimulus":"Stimuli_Rocks480/I_Andesite_03.png","response":null,"trial_type":"image-keyboard-response","trial_index":10,"plugin_version":"2.1.0","time_elapsed":23745,"subject_id":"90888","group":"Group2","condition":"1_Rep","full_date":"2026-03-13T23:57:06.844Z","date":"2026-03-13","time":"23:57:06"},{"rt":null,"stimulus":"<p style=\"font-size: 50px; margin: 0; text-align: center;\">+</p>","response":null,"trial_type":"html-keyboard-response","trial_index":11,"plugin_version":"2.1.0","time_elapsed":24748,"subject_id":"90888","group":"Group2","condition":"1_Rep","full_date":"2026-03-13T23:57:06.844Z","date":"2026-03-13","time":"23:57:06"},{"task":"memory_phase","broad_category":"M","image_png":"M_Marble_03.png","image_id":227,"category_name":"Marble","category":15,"distinct_rating":2.67,"distinct_type":"Bottom","rt":null,"stimulus":"Stimuli_Rocks480/M_Marble_03.png","response":null,"trial_type":"image-keyboard-response","trial_index":12,"plugin_version":"2.1.0","time_elapsed":27252,"subject_id":"90888","group":"Group2","condition":"1_Rep","full_date":"2026-03-13T23:57:06.844Z","date":"2026-03-13","time":"23:57:06"},{"rt":null,"stimulus":"<p style=\"font-size: 50px; margin: 0; text-align: center;\">+</p>","response":null,"trial_type":"html-keyboard-response","trial_index":13,"plugin_version":"2.1.0","time_elapsed":28254,"subject_id":"90888","group":"Group2","condition":"1_Rep","full_date":"2026-03-13T23:57:06.844Z","date":"2026-03-13","time":"23:57:06"},{"task":"memory_phase","broad_category":"S","image_png":"S_Rock Salt_15.png","image_id":447,"category_name":"Rock Salt","category":28,"distinct_rating":7.79,"distinct_type":"Top","rt":null,"stimulus":"Stimuli_Rocks480/S_Rock Salt_15.png","response":null,"trial_type":"image-keyboard-response","trial_index":14,"plugin_version":"2.1.0","time_elapsed":30758,"subject_id":"90888","group":"Group2","condition":"1_Rep","full_date":"2026-03-13T23:57:06.844Z","date":"2026-03-13","time":"23:57:06"},{"rt":null,"stimulus":"<p style=\"font-size: 50px; margin: 0; text-align: center;\">+</p>","response":null,"trial_type":"html-keyboard-response","trial_index":15,"plugin_version":"2.1.0","time_elapsed":31761,"subject_id":"90888","group":"Group2","condition":"1_Rep","full_date":"2026-03-13T23:57:06.844Z","date":"2026-03-13","time":"23:57:06"},{"task":"memory_phase","broad_category":"M","image_png":"M_Slate_04.png","image_id":308,"category_name":"Slate","category":20,"distinct_rating":2.2,"distinct_type":"Bottom","rt":null,"stimulus":"Stimuli_Rocks480/M_Slate_04.png","response":null,"trial_type":"image-keyboard-response","trial_index":16,"plugin_version":"2.1.0","time_elapsed":34263,"subject_id":"90888","group":"Group2","condition":"1_Rep","full_date":"2026-03-13T23:57:06.844Z","date":"2026-03-13","time":"23:57:06"},{"rt":null,"stimulus":"<p style=\"font-size: 50px; margin: 0; text-align: center;\">+</p>","response":null,"trial_type":"html-keyboard-response","trial_index":17,"plugin_version":"2.1.0","time_elapsed":35266,"subject_id":"90888","group":"Group2","condition":"1_Rep","full_date":"2026-03-13T23:57:06.844Z","date":"2026-03-13","time":"23:57:06"},{"task":"memory_phase","broad_category":"I","image_png":"I_Basalt_08.png","image_id":24,"category_name":"Basalt","category":2,"distinct_rating":2.31,"distinct_type":"Bottom","rt":null,"stimulus":"Stimuli_Rocks480/I_Basalt_08.png","response":null,"trial_type":"image-keyboard-response","trial_index":18,"plugin_version":"2.1.0","time_elapsed":37769,"subject_id":"90888","group":"Group2","condition":"1_Rep","full_date":"2026-03-13T23:57:06.844Z","date":"2026-03-13","time":"23:57:06"},{"rt":null,"stimulus":"<p style=\"font-size: 50px; margin: 0; text-align: center;\">+</p>","response":null,"trial_type":"html-keyboard-response","trial_index":19,"plugin_version":"2.1.0","time_elapsed":38772,"subject_id":"90888","group":"Group2","condition":"1_Rep","full_date":"2026-03-13T23:57:06.844Z","date":"2026-03-13","time":"23:57:06"},{"task":"memory_phase","broad_category":"S","image_png":"S_Sandstone_08.png","image_id":456,"category_name":"Sandstone","category":29,"distinct_rating":1.5,"distinct_type":"Bottom","rt":null,"stimulus":"Stimuli_Rocks480/S_Sandstone_08.png","response":null,"trial_type":"image-keyboard-response","trial_index":20,"plugin_version":"2.1.0","time_elapsed":41275,"subject_id":"90888","group":"Group2","condition":"1_Rep","full_date":"2026-03-13T23:57:06.844Z","date":"2026-03-13","time":"23:57:06"},{"rt":null,"stimulus":"<p style=\"font-size: 50px; margin: 0; text-align: center;\">+</p>","response":null,"trial_type":"html-keyboard-response","trial_index":21,"plugin_version":"2.1.0","time_elapsed":42278,"subject_id":"90888","group":"Group2","condition":"1_Rep","full_date":"2026-03-13T23:57:06.844Z","date":"2026-03-13","time":"23:57:06"},{"task":"memory_phase","broad_category":"I","image_png":"I_Pumice_01.png","image_id":129,"category_name":"Pumice","category":9,"distinct_rating":3.25,"distinct_type":"Bottom","rt":null,"stimulus":"Stimuli_Rocks480/I_Pumice_01.png","response":null,"trial_type":"image-keyboard-response","trial_index":22,"plugin_version":"2.1.0","time_elapsed":44781,"subject_id":"90888","group":"Group2","condition":"1_Rep","full_date":"2026-03-13T23:57:06.844Z","date":"2026-03-13","time":"23:57:06"},{"rt":null,"stimulus":"<p style=\"font-size: 50px; margin: 0; text-align: center;\">+</p>","response":null,"trial_type":"html-keyboard-response","trial_index":23,"plugin_version":"2.1.0","time_elapsed":45784,"subject_id":"90888","group":"Group2","condition":"1_Rep","full_date":"2026-03-13T23:57:06.844Z","date":"2026-03-13","time":"23:57:06"},{"task":"memory_phase","broad_category":"I","image_png":"I_Basalt_10.png","image_id":26,"category_name":"Basalt","category":2,"distinct_rating":2.76,"distinct_type":"Bottom","rt":null,"stimulus":"Stimuli_Rocks480/I_Basalt_10.png","response":null,"trial_type":"image-keyboard-response","trial_index":24,"plugin_version":"2.1.0","time_elapsed":48287,"subject_id":"90888","group":"Group2","condition":"1_Rep","full_date":"2026-03-13T23:57:06.844Z","date":"2026-03-13","time":"23:57:06"},{"rt":null,"stimulus":"<p style=\"font-size: 50px; margin: 0; text-align: center;\">+</p>","response":null,"trial_type":"html-keyboard-response","trial_index":25,"plugin_version":"2.1.0","time_elapsed":49289,"subject_id":"90888","group":"Group2","condition":"1_Rep","full_date":"2026-03-13T23:57:06.844Z","date":"2026-03-13","time":"23:57:06"},{"task":"memory_phase","broad_category":"M","image_png":"M_Phyllite_13.png","image_id":269,"category_name":"Phyllite","category":17,"distinct_rating":2.8,"distinct_type":"Bottom","rt":null,"stimulus":"Stimuli_Rocks480/M_Phyllite_13.png","response":null,"trial_type":"image-keyboard-response","trial_index":26,"plugin_version":"2.1.0","time_elapsed":51792,"subject_id":"90888","group":"Group2","condition":"1_Rep","full_date":"2026-03-13T23:57:06.844Z","date":"2026-03-13","time":"23:57:06"},{"rt":null,"stimulus":"<p style=\"font-size: 50px; margin: 0; text-align: center;\">+</p>","response":null,"trial_type":"html-keyboard-response","trial_index":27,"plugin_version":"2.1.0","time_elapsed":52794,"subject_id":"90888","group":"Group2","condition":"1_Rep","full_date":"2026-03-13T23:57:06.844Z","date":"2026-03-13","time":"23:57:06"},{"task":"memory_phase","broad_category":"S","image_png":"S_Dolomite_07.png","image_id":391,"category_name":"Dolomite","category":25,"distinct_rating":1.73,"distinct_type":"Bottom","rt":null,"stimulus":"Stimuli_Rocks480/S_Dolomite_07.png","response":null,"trial_type":"image-keyboard-response","trial_index":28,"plugin_version":"2.1.0","time_elapsed":55297,"subject_id":"90888","group":"Group2","condition":"1_Rep","full_date":"2026-03-13T23:57:06.844Z","date":"2026-03-13","time":"23:57:06"},{"rt":null,"stimulus":"<p style=\"font-size: 50px; margin: 0; text-align: center;\">+</p>","response":null,"trial_type":"html-keyboard-response","trial_index":29,"plugin_version":"2.1.0","time_elapsed":56299,"subject_id":"90888","group":"Group2","condition":"1_Rep","full_date":"2026-03-13T23:57:06.844Z","date":"2026-03-13","time":"23:57:06"},{"task":"memory_phase","broad_category":"S","image_png":"S_Sandstone_11.png","image_id":459,"category_name":"Sandstone","category":29,"distinct_rating":1.82,"distinct_type":"Bottom","rt":null,"stimulus":"Stimuli_Rocks480/S_Sandstone_11.png","response":null,"trial_type":"image-keyboard-response","trial_index":30,"plugin_version":"2.1.0","time_elapsed":58801,"subject_id":"90888","group":"Group2","condition":"1_Rep","full_date":"2026-03-13T23:57:06.844Z","date":"2026-03-13","time":"23:57:06"},{"rt":null,"stimulus":"<p style=\"font-size: 50px; margin: 0; text-align: center;\">+</p>","response":null,"trial_type":"html-keyboard-response","trial_index":31,"plugin_version":"2.1.0","time_elapsed":59804,"subject_id":"90888","group":"Group2","condition":"1_Rep","full_date":"2026-03-13T23:57:06.844Z","date":"2026-03-13","time":"23:57:06"},{"task":"memory_phase","broad_category":"M","image_png":"M_Gneiss_15.png","image_id":207,"category_name":"Gneiss","category":13,"distinct_rating":3.11,"distinct_type":"Bottom","rt":null,"stimulus":"Stimuli_Rocks480/M_Gneiss_15.png","response":null,"trial_type":"image-keyboard-response","trial_index":32,"plugin_version":"2.1.0","time_elapsed":62307,"subject_id":"90888","group":"Group2","condition":"1_Rep","full_date":"2026-03-13T23:57:06.844Z","date":"2026-03-13","time":"23:57:06"},{"rt":null,"stimulus":"<p style=\"font-size: 50px; margin: 0; text-align: center;\">+</p>","response":null,"trial_type":"html-keyboard-response","trial_index":33,"plugin_version":"2.1.0","time_elapsed":63309,"subject_id":"90888","group":"Group2","condition":"1_Rep","full_date":"2026-03-13T23:57:06.844Z","date":"2026-03-13","time":"23:57:06"},{"task":"memory_phase","broad_category":"M","image_png":"M_Quartzite_15.png","image_id":287,"category_name":"Quartzite","category":18,"distinct_rating":2.19,"distinct_type":"Bottom","rt":null,"stimulus":"Stimuli_Rocks480/M_Quartzite_15.png","response":null,"trial_type":"image-keyboard-response","trial_index":34,"plugin_version":"2.1.0","time_elapsed":65813,"subject_id":"90888","group":"Group2","condition":"1_Rep","full_date":"2026-03-13T23:57:06.844Z","date":"2026-03-13","time":"23:57:06"},{"rt":null,"stimulus":"<p style=\"font-size: 50px; margin: 0; text-align: center;\">+</p>","response":null,"trial_type":"html-keyboard-response","trial_index":35,"plugin_version":"2.1.0","time_elapsed":66815,"subject_id":"90888","group":"Group2","condition":"1_Rep","full_date":"2026-03-13T23:57:06.844Z","date":"2026-03-13","time":"23:57:06"},{"task":"memory_phase","broad_category":"I","image_png":"I_Peridotite_13.png","image_id":125,"category_name":"Peridotite","category":8,"distinct_rating":7.28,"distinct_type":"Top","rt":null,"stimulus":"Stimuli_Rocks480/I_Peridotite_13.png","response":null,"trial_type":"image-keyboard-response","trial_index":36,"plugin_version":"2.1.0","time_elapsed":69318,"subject_id":"90888","group":"Group2","condition":"1_Rep","full_date":"2026-03-13T23:57:06.844Z","date":"2026-03-13","time":"23:57:06"},{"rt":null,"stimulus":"<p style=\"font-size: 50px; margin: 0; text-align: center;\">+</p>","response":null,"trial_type":"html-keyboard-response","trial_index":37,"plugin_version":"2.1.0","time_elapsed":70321,"subject_id":"90888","group":"Group2","condition":"1_Rep","full_date":"2026-03-13T23:57:06.844Z","date":"2026-03-13","time":"23:57:06"},{"task":"memory_phase","broad_category":"M","image_png":"M_Phyllite_05.png","image_id":261,"category_name":"Phyllite","category":17,"distinct_rating":2.14,"distinct_type":"Bottom","rt":null,"stimulus":"Stimuli_Rocks480/M_Phyllite_05.png","response":null,"trial_type":"image-keyboard-response","trial_index":38,"plugin_version":"2.1.0","time_elapsed":72824,"subject_id":"90888","group":"Group2","condition":"1_Rep","full_date":"2026-03-13T23:57:06.844Z","date":"2026-03-13","time":"23:57:06"},{"rt":null,"stimulus":"<p style=\"font-size: 50px; margin: 0; text-align: center;\">+</p>","response":null,"trial_type":"html-keyboard-response","trial_index":39,"plugin_version":"2.1.0","time_elapsed":73826,"subject_id":"90888","group":"Group2","condition":"1_Rep","full_date":"2026-03-13T23:57:06.844Z","date":"2026-03-13","time":"23:57:06"},{"task":"memory_phase","broad_category":"M","image_png":"M_Slate_14.png","image_id":318,"category_name":"Slate","category":20,"distinct_rating":2.58,"distinct_type":"Bottom","rt":null,"stimulus":"Stimuli_Rocks480/M_Slate_14.png","response":null,"trial_type":"image-keyboard-response","trial_index":40,"plugin_version":"2.1.0","time_elapsed":76330,"subject_id":"90888","group":"Group2","condition":"1_Rep","full_date":"2026-03-13T23:57:06.844Z","date":"2026-03-13","time":"23:57:06"},{"rt":null,"stimulus":"<p style=\"font-size: 50px; margin: 0; text-align: center;\">+</p>","response":null,"trial_type":"html-keyboard-response","trial_index":41,"plugin_version":"2.1.0","time_elapsed":77332,"subject_id":"90888","group":"Group2","condition":"1_Rep","full_date":"2026-03-13T23:57:06.844Z","date":"2026-03-13","time":"23:57:06"},{"task":"memory_phase","broad_category":"M","image_png":"M_Slate_10.png","image_id":314,"category_name":"Slate","category":20,"distinct_rating":1.94,"distinct_type":"Bottom","rt":null,"stimulus":"Stimuli_Rocks480/M_Slate_10.png","response":null,"trial_type":"image-keyboard-response","trial_index":42,"plugin_version":"2.1.0","time_elapsed":79835,"subject_id":"90888","group":"Group2","condition":"1_Rep","full_date":"2026-03-13T23:57:06.844Z","date":"2026-03-13","time":"23:57:06"},{"rt":null,"stimulus":"<p style=\"font-size: 50px; margin: 0; text-align: center;\">+</p>","response":null,"trial_type":"html-keyboard-response","trial_index":43,"plugin_version":"2.1.0","time_elapsed":80837,"subject_id":"90888","group":"Group2","condition":"1_Rep","full_date":"2026-03-13T23:57:06.844Z","date":"2026-03-13","time":"23:57:06"},{"task":"memory_phase","broad_category":"I","image_png":"I_Andesite_04.png","image_id":4,"category_name":"Andesite","category":1,"distinct_rating":3.18,"distinct_type":"Bottom","rt":null,"stimulus":"Stimuli_Rocks480/I_Andesite_04.png","response":null,"trial_type":"image-keyboard-response","trial_index":44,"plugin_version":"2.1.0","time_elapsed":83340,"subject_id":"90888","group":"Group2","condition":"1_Rep","full_date":"2026-03-13T23:57:06.844Z","date":"2026-03-13","time":"23:57:06"},{"rt":null,"stimulus":"<p style=\"font-size: 50px; margin: 0; text-align: center;\">+</p>","response":null,"trial_type":"html-keyboard-response","trial_index":45,"plugin_version":"2.1.0","time_elapsed":84343,"subject_id":"90888","group":"Group2","condition":"1_Rep","full_date":"2026-03-13T23:57:06.844Z","date":"2026-03-13","time":"23:57:06"},{"task":"memory_phase","broad_category":"I","image_png":"I_Pumice_13.png","image_id":141,"category_name":"Pumice","category":9,"distinct_rating":3.12,"distinct_type":"Bottom","rt":null,"stimulus":"Stimuli_Rocks480/I_Pumice_13.png","response":null,"trial_type":"image-keyboard-response","trial_index":46,"plugin_version":"2.1.0","time_elapsed":86847,"subject_id":"90888","group":"Group2","condition":"1_Rep","full_date":"2026-03-13T23:57:06.844Z","date":"2026-03-13","time":"23:57:06"},{"rt":null,"stimulus":"<p style=\"font-size: 50px; margin: 0; text-align: center;\">+</p>","response":null,"trial_type":"html-keyboard-response","trial_index":47,"plugin_version":"2.1.0","time_elapsed":87849,"subject_id":"90888","group":"Group2","condition":"1_Rep","full_date":"2026-03-13T23:57:06.844Z","date":"2026-03-13","time":"23:57:06"},{"task":"memory_phase","broad_category":"S","image_png":"S_Shale_07.png","image_id":471,"category_name":"Shale","category":30,"distinct_rating":2.73,"distinct_type":"Bottom","rt":null,"stimulus":"Stimuli_Rocks480/S_Shale_07.png","response":null,"trial_type":"image-keyboard-response","trial_index":48,"plugin_version":"2.1.0","time_elapsed":90352,"subject_id":"90888","group":"Group2","condition":"1_Rep","full_date":"2026-03-13T23:57:06.844Z","date":"2026-03-13","time":"23:57:06"},{"rt":null,"stimulus":"<p style=\"font-size: 50px; margin: 0; text-align: center;\">+</p>","response":null,"trial_type":"html-keyboard-response","trial_index":49,"plugin_version":"2.1.0","time_elapsed":91355,"subject_id":"90888","group":"Group2","condition":"1_Rep","full_date":"2026-03-13T23:57:06.844Z","date":"2026-03-13","time":"23:57:06"},{"task":"memory_phase","broad_category":"I","image_png":"I_Basalt_13.png","image_id":29,"category_name":"Basalt","category":2,"distinct_rating":2.68,"distinct_type":"Bottom","rt":null,"stimulus":"Stimuli_Rocks480/I_Basalt_13.png","response":null,"trial_type":"image-keyboard-response","trial_index":50,"plugin_version":"2.1.0","time_elapsed":93858,"subject_id":"90888","group":"Group2","condition":"1_Rep","full_date":"2026-03-13T23:57:06.844Z","date":"2026-03-13","time":"23:57:06"},{"rt":null,"stimulus":"<p style=\"font-size: 50px; margin: 0; text-align: center;\">+</p>","response":null,"trial_type":"html-keyboard-response","trial_index":51,"plugin_version":"2.1.0","time_elapsed":94861,"subject_id":"90888","group":"Group2","condition":"1_Rep","full_date":"2026-03-13T23:57:06.844Z","date":"2026-03-13","time":"23:57:06"},{"task":"memory_phase","broad_category":"S","image_png":"S_Conglomerate_14.png","image_id":382,"category_name":"Conglomerate","category":24,"distinct_rating":6.86,"distinct_type":"Top","rt":null,"stimulus":"Stimuli_Rocks480/S_Conglomerate_14.png","response":null,"trial_type":"image-keyboard-response","trial_index":52,"plugin_version":"2.1.0","time_elapsed":97364,"subject_id":"90888","group":"Group2","condition":"1_Rep","full_date":"2026-03-13T23:57:06.844Z","date":"2026-03-13","time":"23:57:06"},{"rt":null,"stimulus":"<p style=\"font-size: 50px; margin: 0; text-align: center;\">+</p>","response":null,"trial_type":"html-keyboard-response","trial_index":53,"plugin_version":"2.1.0","time_elapsed":98367,"subject_id":"90888","group":"Group2","condition":"1_Rep","full_date":"2026-03-13T23:57:06.844Z","date":"2026-03-13","time":"23:57:06"},{"task":"memory_phase","broad_category":"S","image_png":"S_Sandstone_04.png","image_id":452,"category_name":"Sandstone","category":29,"distinct_rating":1.8,"distinct_type":"Bottom","rt":null,"stimulus":"Stimuli_Rocks480/S_Sandstone_04.png","response":null,"trial_type":"image-keyboard-response","trial_index":54,"plugin_version":"2.1.0","time_elapsed":100870,"subject_id":"90888","group":"Group2","condition":"1_Rep","full_date":"2026-03-13T23:57:06.844Z","date":"2026-03-13","time":"23:57:06"},{"rt":1018,"stimulus":"<p style=\"max-width: 760px; margin: auto; font-size: 35px; line-height: 1.5;\">\n                Press SPACE to continue study phase\n              </p>","response":" ","trial_type":"html-keyboard-response","trial_index":55,"plugin_version":"2.1.0","time_elapsed":101890,"subject_id":"90888","group":"Group2","condition":"1_Rep","full_date":"2026-03-13T23:57:06.844Z","date":"2026-03-13","time":"23:57:06"},{"rt":null,"stimulus":"<p style=\"font-size: 50px; margin: 0; text-align: center;\">+</p>","response":null,"trial_type":"html-keyboard-response","trial_index":56,"plugin_version":"2.1.0","time_elapsed":102892,"subject_id":"90888","group":"Group2","condition":"1_Rep","full_date":"2026-03-13T23:57:06.844Z","date":"2026-03-13","time":"23:57:06"},{"task":"memory_phase","broad_category":"I","image_png":"I_Gabbro_02.png","image_id":50,"category_name":"Gabbro","category":4,"distinct_rating":2.73,"distinct_type":"Bottom","rt":null,"stimulus":"Stimuli_Rocks480/I_Gabbro_02.png","response":null,"trial_type":"image-keyboard-response","trial_index":57,"plugin_version":"2.1.0","time_elapsed":105395,"subject_id":"90888","group":"Group2","condition":"1_Rep","full_date":"2026-03-13T23:57:06.844Z","date":"2026-03-13","time":"23:57:06"},{"rt":null,"stimulus":"<p style=\"font-size: 50px; margin: 0; text-align: center;\">+</p>","response":null,"trial_type":"html-keyboard-response","trial_index":58,"plugin_version":"2.1.0","time_elapsed":106397,"subject_id":"90888","group":"Group2","condition":"1_Rep","full_date":"2026-03-13T23:57:06.844Z","date":"2026-03-13","time":"23:57:06"},{"task":"memory_phase","broad_category":"S","image_png":"S_Chert_13.png","image_id":365,"category_name":"Chert","category":23,"distinct_rating":6.57,"distinct_type":"Top","rt":null,"stimulus":"Stimuli_Rocks480/S_Chert_13.png","response":null,"trial_type":"image-keyboard-response","trial_index":59,"plugin_version":"2.1.0","time_elapsed":108901,"subject_id":"90888","group":"Group2","condition":"1_Rep","full_date":"2026-03-13T23:57:06.844Z","date":"2026-03-13","time":"23:57:06"},{"rt":null,"stimulus":"<p style=\"font-size: 50px; margin: 0; text-align: center;\">+</p>","response":null,"trial_type":"html-keyboard-response","trial_index":60,"plugin_version":"2.1.0","time_elapsed":109904,"subject_id":"90888","group":"Group2","condition":"1_Rep","full_date":"2026-03-13T23:57:06.844Z","date":"2026-03-13","time":"23:57:06"},{"task":"memory_phase","broad_category":"I","image_png":"I_Diorite_01.png","image_id":33,"category_name":"Diorite","category":3,"distinct_rating":2.97,"distinct_type":"Bottom","rt":null,"stimulus":"Stimuli_Rocks480/I_Diorite_01.png","response":null,"trial_type":"image-keyboard-response","trial_index":61,"plugin_version":"2.1.0","time_elapsed":112407,"subject_id":"90888","group":"Group2","condition":"1_Rep","full_date":"2026-03-13T23:57:06.844Z","date":"2026-03-13","time":"23:57:06"},{"rt":null,"stimulus":"<p style=\"font-size: 50px; margin: 0; text-align: center;\">+</p>","response":null,"trial_type":"html-keyboard-response","trial_index":62,"plugin_version":"2.1.0","time_elapsed":113410,"subject_id":"90888","group":"Group2","condition":"1_Rep","full_date":"2026-03-13T23:57:06.844Z","date":"2026-03-13","time":"23:57:06"},{"task":"memory_phase","broad_category":"S","image_png":"S_Dolomite_16.png","image_id":400,"category_name":"Dolomite","category":25,"distinct_rating":1.71,"distinct_type":"Bottom","rt":null,"stimulus":"Stimuli_Rocks480/S_Dolomite_16.png","response":null,"trial_type":"image-keyboard-response","trial_index":63,"plugin_version":"2.1.0","time_elapsed":115914,"subject_id":"90888","group":"Group2","condition":"1_Rep","full_date":"2026-03-13T23:57:06.844Z","date":"2026-03-13","time":"23:57:06"},{"rt":null,"stimulus":"<p style=\"font-size: 50px; margin: 0; text-align: center;\">+</p>","response":null,"trial_type":"html-keyboard-response","trial_index":64,"plugin_version":"2.1.0","time_elapsed":116916,"subject_id":"90888","group":"Group2","condition":"1_Rep","full_date":"2026-03-13T23:57:06.844Z","date":"2026-03-13","time":"23:57:06"},{"task":"memory_phase","broad_category":"M","image_png":"M_Marble_02.png","image_id":226,"category_name":"Marble","category":15,"distinct_rating":3.2,"distinct_type":"Bottom","rt":null,"stimulus":"Stimuli_Rocks480/M_Marble_02.png","response":null,"trial_type":"image-keyboard-response","trial_index":65,"plugin_version":"2.1.0","time_elapsed":119420,"subject_id":"90888","group":"Group2","condition":"1_Rep","full_date":"2026-03-13T23:57:06.844Z","date":"2026-03-13","time":"23:57:06"},{"rt":null,"stimulus":"<p style=\"font-size: 50px; margin: 0; text-align: center;\">+</p>","response":null,"trial_type":"html-keyboard-response","trial_index":66,"plugin_version":"2.1.0","time_elapsed":120422,"subject_id":"90888","group":"Group2","condition":"1_Rep","full_date":"2026-03-13T23:57:06.844Z","date":"2026-03-13","time":"23:57:06"},{"task":"memory_phase","broad_category":"I","image_png":"I_Pegmatite_11.png","image_id":107,"category_name":"Pegmatite","category":7,"distinct_rating":7.11,"distinct_type":"Top","rt":null,"stimulus":"Stimuli_Rocks480/I_Pegmatite_11.png","response":null,"trial_type":"image-keyboard-response","trial_index":67,"plugin_version":"2.1.0","time_elapsed":122925,"subject_id":"90888","group":"Group2","condition":"1_Rep","full_date":"2026-03-13T23:57:06.844Z","date":"2026-03-13","time":"23:57:06"},{"rt":null,"stimulus":"<p style=\"font-size: 50px; margin: 0; text-align: center;\">+</p>","response":null,"trial_type":"html-keyboard-response","trial_index":68,"plugin_version":"2.1.0","time_elapsed":123928,"subject_id":"90888","group":"Group2","condition":"1_Rep","full_date":"2026-03-13T23:57:06.844Z","date":"2026-03-13","time":"23:57:06"},{"task":"memory_phase","broad_category":"I","image_png":"I_Gabbro_14.png","image_id":62,"category_name":"Gabbro","category":4,"distinct_rating":2.95,"distinct_type":"Bottom","rt":null,"stimulus":"Stimuli_Rocks480/I_Gabbro_14.png","response":null,"trial_type":"image-keyboard-response","trial_index":69,"plugin_version":"2.1.0","time_elapsed":126431,"subject_id":"90888","group":"Group2","condition":"1_Rep","full_date":"2026-03-13T23:57:06.844Z","date":"2026-03-13","time":"23:57:06"},{"rt":null,"stimulus":"<p style=\"font-size: 50px; margin: 0; text-align: center;\">+</p>","response":null,"trial_type":"html-keyboard-response","trial_index":70,"plugin_version":"2.1.0","time_elapsed":127434,"subject_id":"90888","group":"Group2","condition":"1_Rep","full_date":"2026-03-13T23:57:06.844Z","date":"2026-03-13","time":"23:57:06"},{"task":"memory_phase","broad_category":"I","image_png":"I_Obsidian_06.png","image_id":86,"category_name":"Obsidian","category":6,"distinct_rating":8.01,"distinct_type":"Top","rt":null,"stimulus":"Stimuli_Rocks480/I_Obsidian_06.png","response":null,"trial_type":"image-keyboard-response","trial_index":71,"plugin_version":"2.1.0","time_elapsed":129936,"subject_id":"90888","group":"Group2","condition":"1_Rep","full_date":"2026-03-13T23:57:06.844Z","date":"2026-03-13","time":"23:57:06"},{"rt":null,"stimulus":"<p style=\"font-size: 50px; margin: 0; text-align: center;\">+</p>","response":null,"trial_type":"html-keyboard-response","trial_index":72,"plugin_version":"2.1.0","time_elapsed":130938,"subject_id":"90888","group":"Group2","condition":"1_Rep","full_date":"2026-03-13T23:57:06.844Z","date":"2026-03-13","time":"23:57:06"},{"task":"memory_phase","broad_category":"I","image_png":"I_Andesite_09.png","image_id":9,"category_name":"Andesite","category":1,"distinct_rating":2.49,"distinct_type":"Bottom","rt":null,"stimulus":"Stimuli_Rocks480/I_Andesite_09.png","response":null,"trial_type":"image-keyboard-response","trial_index":73,"plugin_version":"2.1.0","time_elapsed":133441,"subject_id":"90888","group":"Group2","condition":"1_Rep","full_date":"2026-03-13T23:57:06.844Z","date":"2026-03-13","time":"23:57:06"},{"rt":null,"stimulus":"<p style=\"font-size: 50px; margin: 0; text-align: center;\">+</p>","response":null,"trial_type":"html-keyboard-response","trial_index":74,"plugin_version":"2.1.0","time_elapsed":134444,"subject_id":"90888","group":"Group2","condition":"1_Rep","full_date":"2026-03-13T23:57:06.844Z","date":"2026-03-13","time":"23:57:06"},{"task":"memory_phase","broad_category":"M","image_png":"M_Quartzite_07.png","image_id":279,"category_name":"Quartzite","category":18,"distinct_rating":1.97,"distinct_type":"Bottom","rt":null,"stimulus":"Stimuli_Rocks480/M_Quartzite_07.png","response":null,"trial_type":"image-keyboard-response","trial_index":75,"plugin_version":"2.1.0","time_elapsed":136947,"subject_id":"90888","group":"Group2","condition":"1_Rep","full_date":"2026-03-13T23:57:06.844Z","date":"2026-03-13","time":"23:57:06"},{"rt":null,"stimulus":"<p style=\"font-size: 50px; margin: 0; text-align: center;\">+</p>","response":null,"trial_type":"html-keyboard-response","trial_index":76,"plugin_version":"2.1.0","time_elapsed":137949,"subject_id":"90888","group":"Group2","condition":"1_Rep","full_date":"2026-03-13T23:57:06.844Z","date":"2026-03-13","time":"23:57:06"},{"task":"memory_phase","broad_category":"M","image_png":"M_Gneiss_10.png","image_id":202,"category_name":"Gneiss","category":13,"distinct_rating":3.09,"distinct_type":"Bottom","rt":null,"stimulus":"Stimuli_Rocks480/M_Gneiss_10.png","response":null,"trial_type":"image-keyboard-response","trial_index":77,"plugin_version":"2.1.0","time_elapsed":140452,"subject_id":"90888","group":"Group2","condition":"1_Rep","full_date":"2026-03-13T23:57:06.844Z","date":"2026-03-13","time":"23:57:06"},{"rt":null,"stimulus":"<p style=\"font-size: 50px; margin: 0; text-align: center;\">+</p>","response":null,"trial_type":"html-keyboard-response","trial_index":78,"plugin_version":"2.1.0","time_elapsed":141454,"subject_id":"90888","group":"Group2","condition":"1_Rep","full_date":"2026-03-13T23:57:06.844Z","date":"2026-03-13","time":"23:57:06"},{"task":"memory_phase","broad_category":"I","image_png":"I_Rhyolite_08.png","image_id":152,"category_name":"Rhyolite","category":10,"distinct_rating":1.38,"distinct_type":"Bottom","rt":null,"stimulus":"Stimuli_Rocks480/I_Rhyolite_08.png","response":null,"trial_type":"image-keyboard-response","trial_index":79,"plugin_version":"2.1.0","time_elapsed":143958,"subject_id":"90888","group":"Group2","condition":"1_Rep","full_date":"2026-03-13T23:57:06.844Z","date":"2026-03-13","time":"23:57:06"},{"rt":null,"stimulus":"<p style=\"font-size: 50px; margin: 0; text-align: center;\">+</p>","response":null,"trial_type":"html-keyboard-response","trial_index":80,"plugin_version":"2.1.0","time_elapsed":144960,"subject_id":"90888","group":"Group2","condition":"1_Rep","full_date":"2026-03-13T23:57:06.844Z","date":"2026-03-13","time":"23:57:06"},{"task":"memory_phase","broad_category":"I","image_png":"I_Rhyolite_10.png","image_id":154,"category_name":"Rhyolite","category":10,"distinct_rating":2.88,"distinct_type":"Bottom","rt":null,"stimulus":"Stimuli_Rocks480/I_Rhyolite_10.png","response":null,"trial_type":"image-keyboard-response","trial_index":81,"plugin_version":"2.1.0","time_elapsed":147464,"subject_id":"90888","group":"Group2","condition":"1_Rep","full_date":"2026-03-13T23:57:06.844Z","date":"2026-03-13","time":"23:57:06"},{"rt":null,"stimulus":"<p style=\"font-size: 50px; margin: 0; text-align: center;\">+</p>","response":null,"trial_type":"html-keyboard-response","trial_index":82,"plugin_version":"2.1.0","time_elapsed":148466,"subject_id":"90888","group":"Group2","condition":"1_Rep","full_date":"2026-03-13T23:57:06.844Z","date":"2026-03-13","time":"23:57:06"},{"task":"memory_phase","broad_category":"M","image_png":"M_Gneiss_14.png","image_id":206,"category_name":"Gneiss","category":13,"distinct_rating":3.41,"distinct_type":"Bottom","rt":null,"stimulus":"Stimuli_Rocks480/M_Gneiss_14.png","response":null,"trial_type":"image-keyboard-response","trial_index":83,"plugin_version":"2.1.0","time_elapsed":150969,"subject_id":"90888","group":"Group2","condition":"1_Rep","full_date":"2026-03-13T23:57:06.844Z","date":"2026-03-13","time":"23:57:06"},{"rt":null,"stimulus":"<p style=\"font-size: 50px; margin: 0; text-align: center;\">+</p>","response":null,"trial_type":"html-keyboard-response","trial_index":84,"plugin_version":"2.1.0","time_elapsed":151972,"subject_id":"90888","group":"Group2","condition":"1_Rep","full_date":"2026-03-13T23:57:06.844Z","date":"2026-03-13","time":"23:57:06"},{"task":"memory_phase","broad_category":"S","image_png":"S_Shale_03.png","image_id":467,"category_name":"Shale","category":30,"distinct_rating":1.95,"distinct_type":"Bottom","rt":null,"stimulus":"Stimuli_Rocks480/S_Shale_03.png","response":null,"trial_type":"image-keyboard-response","trial_index":85,"plugin_version":"2.1.0","time_elapsed":154474,"subject_id":"90888","group":"Group2","condition":"1_Rep","full_date":"2026-03-13T23:57:06.844Z","date":"2026-03-13","time":"23:57:06"},{"rt":null,"stimulus":"<p style=\"font-size: 50px; margin: 0; text-align: center;\">+</p>","response":null,"trial_type":"html-keyboard-response","trial_index":86,"plugin_version":"2.1.0","time_elapsed":155477,"subject_id":"90888","group":"Group2","condition":"1_Rep","full_date":"2026-03-13T23:57:06.844Z","date":"2026-03-13","time":"23:57:06"},{"task":"memory_phase","broad_category":"S","image_png":"S_Rock Salt_13.png","image_id":445,"category_name":"Rock Salt","category":28,"distinct_rating":7.58,"distinct_type":"Top","rt":null,"stimulus":"Stimuli_Rocks480/S_Rock Salt_13.png","response":null,"trial_type":"image-keyboard-response","trial_index":87,"plugin_version":"2.1.0","time_elapsed":157980,"subject_id":"90888","group":"Group2","condition":"1_Rep","full_date":"2026-03-13T23:57:06.844Z","date":"2026-03-13","time":"23:57:06"},{"rt":null,"stimulus":"<p style=\"font-size: 50px; margin: 0; text-align: center;\">+</p>","response":null,"trial_type":"html-keyboard-response","trial_index":88,"plugin_version":"2.1.0","time_elapsed":158983,"subject_id":"90888","group":"Group2","condition":"1_Rep","full_date":"2026-03-13T23:57:06.844Z","date":"2026-03-13","time":"23:57:06"},{"task":"memory_phase","broad_category":"I","image_png":"I_Pumice_14.png","image_id":142,"category_name":"Pumice","category":9,"distinct_rating":3.22,"distinct_type":"Bottom","rt":null,"stimulus":"Stimuli_Rocks480/I_Pumice_14.png","response":null,"trial_type":"image-keyboard-response","trial_index":89,"plugin_version":"2.1.0","time_elapsed":161486,"subject_id":"90888","group":"Group2","condition":"1_Rep","full_date":"2026-03-13T23:57:06.844Z","date":"2026-03-13","time":"23:57:06"},{"rt":null,"stimulus":"<p style=\"font-size: 50px; margin: 0; text-align: center;\">+</p>","response":null,"trial_type":"html-keyboard-response","trial_index":90,"plugin_version":"2.1.0","time_elapsed":162489,"subject_id":"90888","group":"Group2","condition":"1_Rep","full_date":"2026-03-13T23:57:06.844Z","date":"2026-03-13","time":"23:57:06"},{"task":"memory_phase","broad_category":"I","image_png":"I_Diorite_10.png","image_id":42,"category_name":"Diorite","category":3,"distinct_rating":2.84,"distinct_type":"Bottom","rt":null,"stimulus":"Stimuli_Rocks480/I_Diorite_10.png","response":null,"trial_type":"image-keyboard-response","trial_index":91,"plugin_version":"2.1.0","time_elapsed":164993,"subject_id":"90888","group":"Group2","condition":"1_Rep","full_date":"2026-03-13T23:57:06.844Z","date":"2026-03-13","time":"23:57:06"},{"rt":null,"stimulus":"<p style=\"font-size: 50px; margin: 0; text-align: center;\">+</p>","response":null,"trial_type":"html-keyboard-response","trial_index":92,"plugin_version":"2.1.0","time_elapsed":165996,"subject_id":"90888","group":"Group2","condition":"1_Rep","full_date":"2026-03-13T23:57:06.844Z","date":"2026-03-13","time":"23:57:06"},{"task":"memory_phase","broad_category":"I","image_png":"I_Pegmatite_03.png","image_id":99,"category_name":"Pegmatite","category":7,"distinct_rating":7.24,"distinct_type":"Top","rt":null,"stimulus":"Stimuli_Rocks480/I_Pegmatite_03.png","response":null,"trial_type":"image-keyboard-response","trial_index":93,"plugin_version":"2.1.0","time_elapsed":168499,"subject_id":"90888","group":"Group2","condition":"1_Rep","full_date":"2026-03-13T23:57:06.844Z","date":"2026-03-13","time":"23:57:06"},{"rt":null,"stimulus":"<p style=\"font-size: 50px; margin: 0; text-align: center;\">+</p>","response":null,"trial_type":"html-keyboard-response","trial_index":94,"plugin_version":"2.1.0","time_elapsed":169502,"subject_id":"90888","group":"Group2","condition":"1_Rep","full_date":"2026-03-13T23:57:06.844Z","date":"2026-03-13","time":"23:57:06"},{"task":"memory_phase","broad_category":"M","image_png":"M_Phyllite_02.png","image_id":258,"category_name":"Phyllite","category":17,"distinct_rating":2.89,"distinct_type":"Bottom","rt":null,"stimulus":"Stimuli_Rocks480/M_Phyllite_02.png","response":null,"trial_type":"image-keyboard-response","trial_index":95,"plugin_version":"2.1.0","time_elapsed":172006,"subject_id":"90888","group":"Group2","condition":"1_Rep","full_date":"2026-03-13T23:57:06.844Z","date":"2026-03-13","time":"23:57:06"},{"rt":null,"stimulus":"<p style=\"font-size: 50px; margin: 0; text-align: center;\">+</p>","response":null,"trial_type":"html-keyboard-response","trial_index":96,"plugin_version":"2.1.0","time_elapsed":173008,"subject_id":"90888","group":"Group2","condition":"1_Rep","full_date":"2026-03-13T23:57:06.844Z","date":"2026-03-13","time":"23:57:06"},{"task":"memory_phase","broad_category":"S","image_png":"S_Shale_02.png","image_id":466,"category_name":"Shale","category":30,"distinct_rating":2.9,"distinct_type":"Bottom","rt":null,"stimulus":"Stimuli_Rocks480/S_Shale_02.png","response":null,"trial_type":"image-keyboard-response","trial_index":97,"plugin_version":"2.1.0","time_elapsed":175512,"subject_id":"90888","group":"Group2","condition":"1_Rep","full_date":"2026-03-13T23:57:06.844Z","date":"2026-03-13","time":"23:57:06"},{"rt":null,"stimulus":"<p style=\"font-size: 50px; margin: 0; text-align: center;\">+</p>","response":null,"trial_type":"html-keyboard-response","trial_index":98,"plugin_version":"2.1.0","time_elapsed":176515,"subject_id":"90888","group":"Group2","condition":"1_Rep","full_date":"2026-03-13T23:57:06.844Z","date":"2026-03-13","time":"23:57:06"},{"task":"memory_phase","broad_category":"I","image_png":"I_Diorite_15.png","image_id":47,"category_name":"Diorite","category":3,"distinct_rating":3.05,"distinct_type":"Bottom","rt":null,"stimulus":"Stimuli_Rocks480/I_Diorite_15.png","response":null,"trial_type":"image-keyboard-response","trial_index":99,"plugin_version":"2.1.0","time_elapsed":179018,"subject_id":"90888","group":"Group2","condition":"1_Rep","full_date":"2026-03-13T23:57:06.844Z","date":"2026-03-13","time":"23:57:06"},{"rt":null,"stimulus":"<p style=\"font-size: 50px; margin: 0; text-align: center;\">+</p>","response":null,"trial_type":"html-keyboard-response","trial_index":100,"plugin_version":"2.1.0","time_elapsed":180020,"subject_id":"90888","group":"Group2","condition":"1_Rep","full_date":"2026-03-13T23:57:06.844Z","date":"2026-03-13","time":"23:57:06"},{"task":"memory_phase","broad_category":"M","image_png":"M_Quartzite_12.png","image_id":284,"category_name":"Quartzite","category":18,"distinct_rating":1.92,"distinct_type":"Bottom","rt":null,"stimulus":"Stimuli_Rocks480/M_Quartzite_12.png","response":null,"trial_type":"image-keyboard-response","trial_index":101,"plugin_version":"2.1.0","time_elapsed":182523,"subject_id":"90888","group":"Group2","condition":"1_Rep","full_date":"2026-03-13T23:57:06.844Z","date":"2026-03-13","time":"23:57:06"},{"rt":null,"stimulus":"<p style=\"font-size: 50px; margin: 0; text-align: center;\">+</p>","response":null,"trial_type":"html-keyboard-response","trial_index":102,"plugin_version":"2.1.0","time_elapsed":183526,"subject_id":"90888","group":"Group2","condition":"1_Rep","full_date":"2026-03-13T23:57:06.844Z","date":"2026-03-13","time":"23:57:06"},{"task":"memory_phase","broad_category":"S","image_png":"S_Dolomite_01.png","image_id":385,"category_name":"Dolomite","category":25,"distinct_rating":1.43,"distinct_type":"Bottom","rt":null,"stimulus":"Stimuli_Rocks480/S_Dolomite_01.png","response":null,"trial_type":"image-keyboard-response","trial_index":103,"plugin_version":"2.1.0","time_elapsed":186029,"subject_id":"90888","group":"Group2","condition":"1_Rep","full_date":"2026-03-13T23:57:06.844Z","date":"2026-03-13","time":"23:57:06"},{"rt":null,"stimulus":"<p style=\"font-size: 50px; margin: 0; text-align: center;\">+</p>","response":null,"trial_type":"html-keyboard-response","trial_index":104,"plugin_version":"2.1.0","time_elapsed":187032,"subject_id":"90888","group":"Group2","condition":"1_Rep","full_date":"2026-03-13T23:57:06.844Z","date":"2026-03-13","time":"23:57:06"},{"task":"memory_phase","broad_category":"I","image_png":"I_Rhyolite_05.png","image_id":149,"category_name":"Rhyolite","category":10,"distinct_rating":3.02,"distinct_type":"Bottom","rt":null,"stimulus":"Stimuli_Rocks480/I_Rhyolite_05.png","response":null,"trial_type":"image-keyboard-response","trial_index":105,"plugin_version":"2.1.0","time_elapsed":189535,"subject_id":"90888","group":"Group2","condition":"1_Rep","full_date":"2026-03-13T23:57:06.844Z","date":"2026-03-13","time":"23:57:06"},{"rt":3384,"stimulus":"<div style=\"max-width: 760px; margin: auto; font-size: 20px; line-height: 1.5;\">\n      <h1 style=\"text-align:center; font-size: 30px;\">Instructions for the Test Phase</h1>\n      <p>\n        The study phase is now complete.\n      </p>\n      <p>\n        In the test phase, you will again see a series of rock images. \n        Some will be ones you saw before - during the study phase, while others will be new.  \n        <b>Your task</b> is to decide whether you have seen each image before by pressing the corresponding key on your keyboard:<br><br>\n          <b>A</b> - NO (you did not see this image before)<br>\n          <b>L</b> - YES (you saw this image before)<br><br>\n        The test will proceed at your own pace. You will receive feedback after each response.  \n        Please try to respond <b>as accurately as possible</b>.\n      </p>\n      <p>\n        <b>Reminder:</b> If your computer has multiple language settings (e.g., English and another language),\n        please ensure it is set to English during the test phase.\n      </p>\n      <p>\n        You can track your progress using the <b>completion bar</b> at the top of the screen.  \n        Note that it has been refreshed to reflect your progress during this final phase.\n      </p>\n      <p>\n        Press the button below when you are ready to continue.\n      </p>\n    </div>","response":0,"trial_type":"html-button-response","trial_index":106,"plugin_version":"2.1.0","time_elapsed":192922,"subject_id":"90888","group":"Group2","condition":"1_Rep","full_date":"2026-03-13T23:57:06.844Z","date":"2026-03-13","time":"23:57:06"},{"correct_response":"l","task":"test_phase","broad_category":"S","image_png":"S_Rock Salt_13.png","image_id":445,"category_name":"Rock Salt","category":28,"distinct_rating":7.58,"distinct_type":"Top","item_type":"Target","rt":3319,"stimulus":"Stimuli_Rocks480/S_Rock Salt_13.png","response":"a","trial_type":"image-keyboard-response","trial_index":107,"plugin_version":"2.1.0","time_elapsed":196244,"subject_id":"90888","group":"Group2","condition":"1_Rep","full_date":"2026-03-13T23:57:06.844Z","date":"2026-03-13","time":"23:57:06","cor_ans":false},{"trial_type":"html-keyboard-response","rt":null,"stimulus":"<p style=\"color: red; font-size: 50px; font-weight: bold;\">Incorrect</p>","response":null,"trial_index":108,"plugin_version":"2.1.0","time_elapsed":196746,"subject_id":"90888","group":"Group2","condition":"1_Rep","full_date":"2026-03-13T23:57:06.844Z","date":"2026-03-13","time":"23:57:06"},{"correct_response":"a","task":"test_phase","broad_category":"I","image_png":"I_Pegmatite_10.png","image_id":106,"category_name":"Pegmatite","category":7,"distinct_rating":7.66,"distinct_type":"Top","item_type":"Foil","rt":2233,"stimulus":"Stimuli_Rocks480/I_Pegmatite_10.png","response":"a","trial_type":"image-keyboard-response","trial_index":109,"plugin_version":"2.1.0","time_elapsed":198981,"subject_id":"90888","group":"Group2","condition":"1_Rep","full_date":"2026-03-13T23:57:06.844Z","date":"2026-03-13","time":"23:57:06","cor_ans":true},{"trial_type":"html-keyboard-response","rt":null,"stimulus":"<p style=\"color: green; font-size: 50px; font-weight: bold;\">Correct</p>","response":null,"trial_index":110,"plugin_version":"2.1.0","time_elapsed":199482,"subject_id":"90888","group":"Group2","condition":"1_Rep","full_date":"2026-03-13T23:57:06.844Z","date":"2026-03-13","time":"23:57:06"},{"correct_response":"l","task":"test_phase","broad_category":"M","image_png":"M_Marble_14.png","image_id":238,"category_name":"Marble","category":15,"distinct_rating":3.31,"distinct_type":"Bottom","item_type":"Target","rt":1637,"stimulus":"Stimuli_Rocks480/M_Marble_14.png","response":"l","trial_type":"image-keyboard-response","trial_index":111,"plugin_version":"2.1.0","time_elapsed":201121,"subject_id":"90888","group":"Group2","condition":"1_Rep","full_date":"2026-03-13T23:57:06.844Z","date":"2026-03-13","time":"23:57:06","cor_ans":true},{"trial_type":"html-keyboard-response","rt":null,"stimulus":"<p style=\"color: green; font-size: 50px; font-weight: bold;\">Correct</p>","response":null,"trial_index":112,"plugin_version":"2.1.0","time_elapsed":201622,"subject_id":"90888","group":"Group2","condition":"1_Rep","full_date":"2026-03-13T23:57:06.844Z","date":"2026-03-13","time":"23:57:06"},{"correct_response":"l","task":"test_phase","broad_category":"M","image_png":"M_Phyllite_02.png","image_id":258,"category_name":"Phyllite","category":17,"distinct_rating":2.89,"distinct_type":"Bottom","item_type":"Target","rt":1130,"stimulus":"Stimuli_Rocks480/M_Phyllite_02.png","response":"l","trial_type":"image-keyboard-response","trial_index":113,"plugin_version":"2.1.0","time_elapsed":202754,"subject_id":"90888","group":"Group2","condition":"1_Rep","full_date":"2026-03-13T23:57:06.844Z","date":"2026-03-13","time":"23:57:06","cor_ans":true},{"trial_type":"html-keyboard-response","rt":null,"stimulus":"<p style=\"color: green; font-size: 50px; font-weight: bold;\">Correct</p>","response":null,"trial_index":114,"plugin_version":"2.1.0","time_elapsed":203256,"subject_id":"90888","group":"Group2","condition":"1_Rep","full_date":"2026-03-13T23:57:06.844Z","date":"2026-03-13","time":"23:57:06"},{"correct_response":"l","task":"test_phase","broad_category":"S","image_png":"S_Chert_13.png","image_id":365,"category_name":"Chert","category":23,"distinct_rating":6.57,"distinct_type":"Top","item_type":"Target","rt":1007,"stimulus":"Stimuli_Rocks480/S_Chert_13.png","response":"l","trial_type":"image-keyboard-response","trial_index":115,"plugin_version":"2.1.0","time_elapsed":204265,"subject_id":"90888","group":"Group2","condition":"1_Rep","full_date":"2026-03-13T23:57:06.844Z","date":"2026-03-13","time":"23:57:06","cor_ans":true},{"trial_type":"html-keyboard-response","rt":null,"stimulus":"<p style=\"color: green; font-size: 50px; font-weight: bold;\">Correct</p>","response":null,"trial_index":116,"plugin_version":"2.1.0","time_elapsed":204765,"subject_id":"90888","group":"Group2","condition":"1_Rep","full_date":"2026-03-13T23:57:06.844Z","date":"2026-03-13","time":"23:57:06"},{"correct_response":"l","task":"test_phase","broad_category":"I","image_png":"I_Pegmatite_11.png","image_id":107,"category_name":"Pegmatite","category":7,"distinct_rating":7.11,"distinct_type":"Top","item_type":"Target","rt":870,"stimulus":"Stimuli_Rocks480/I_Pegmatite_11.png","response":"l","trial_type":"image-keyboard-response","trial_index":117,"plugin_version":"2.1.0","time_elapsed":205638,"subject_id":"90888","group":"Group2","condition":"1_Rep","full_date":"2026-03-13T23:57:06.844Z","date":"2026-03-13","time":"23:57:06","cor_ans":true},{"trial_type":"html-keyboard-response","rt":null,"stimulus":"<p style=\"color: green; font-size: 50px; font-weight: bold;\">Correct</p>","response":null,"trial_index":118,"plugin_version":"2.1.0","time_elapsed":206140,"subject_id":"90888","group":"Group2","condition":"1_Rep","full_date":"2026-03-13T23:57:06.844Z","date":"2026-03-13","time":"23:57:06"},{"correct_response":"l","task":"test_phase","broad_category":"S","image_png":"S_Rock Salt_15.png","image_id":447,"category_name":"Rock Salt","category":28,"distinct_rating":7.79,"distinct_type":"Top","item_type":"Target","rt":892,"stimulus":"Stimuli_Rocks480/S_Rock Salt_15.png","response":"a","trial_type":"image-keyboard-response","trial_index":119,"plugin_version":"2.1.0","time_elapsed":207034,"subject_id":"90888","group":"Group2","condition":"1_Rep","full_date":"2026-03-13T23:57:06.844Z","date":"2026-03-13","time":"23:57:06","cor_ans":false},{"trial_type":"html-keyboard-response","rt":null,"stimulus":"<p style=\"color: red; font-size: 50px; font-weight: bold;\">Incorrect</p>","response":null,"trial_index":120,"plugin_version":"2.1.0","time_elapsed":207535,"subject_id":"90888","group":"Group2","condition":"1_Rep","full_date":"2026-03-13T23:57:06.844Z","date":"2026-03-13","time":"23:57:06"},{"correct_response":"a","task":"test_phase","broad_category":"M","image_png":"M_Quartzite_13.png","image_id":285,"category_name":"Quartzite","category":18,"distinct_rating":2.27,"distinct_type":"Bottom","item_type":"Foil","rt":1024,"stimulus":"Stimuli_Rocks480/M_Quartzite_13.png","response":"l","trial_type":"image-keyboard-response","trial_index":121,"plugin_version":"2.1.0","time_elapsed":208561,"subject_id":"90888","group":"Group2","condition":"1_Rep","full_date":"2026-03-13T23:57:06.844Z","date":"2026-03-13","time":"23:57:06","cor_ans":false},{"trial_type":"html-keyboard-response","rt":null,"stimulus":"<p style=\"color: red; font-size: 50px; font-weight: bold;\">Incorrect</p>","response":null,"trial_index":122,"plugin_version":"2.1.0","time_elapsed":209062,"subject_id":"90888","group":"Group2","condition":"1_Rep","full_date":"2026-03-13T23:57:06.844Z","date":"2026-03-13","time":"23:57:06"},{"correct_response":"l","task":"test_phase","broad_category":"M","image_png":"M_Gneiss_10.png","image_id":202,"category_name":"Gneiss","category":13,"distinct_rating":3.09,"distinct_type":"Bottom","item_type":"Target","rt":990,"stimulus":"Stimuli_Rocks480/M_Gneiss_10.png","response":"l","trial_type":"image-keyboard-response","trial_index":123,"plugin_version":"2.1.0","time_elapsed":210054,"subject_id":"90888","group":"Group2","condition":"1_Rep","full_date":"2026-03-13T23:57:06.844Z","date":"2026-03-13","time":"23:57:06","cor_ans":true},{"trial_type":"html-keyboard-response","rt":null,"stimulus":"<p style=\"color: green; font-size: 50px; font-weight: bold;\">Correct</p>","response":null,"trial_index":124,"plugin_version":"2.1.0","time_elapsed":210556,"subject_id":"90888","group":"Group2","condition":"1_Rep","full_date":"2026-03-13T23:57:06.844Z","date":"2026-03-13","time":"23:57:06"},{"correct_response":"a","task":"test_phase","broad_category":"I","image_png":"I_Rhyolite_16.png","image_id":160,"category_name":"Rhyolite","category":10,"distinct_rating":2.19,"distinct_type":"Bottom","item_type":"Foil","rt":1347,"stimulus":"Stimuli_Rocks480/I_Rhyolite_16.png","response":"l","trial_type":"image-keyboard-response","trial_index":125,"plugin_version":"2.1.0","time_elapsed":211904,"subject_id":"90888","group":"Group2","condition":"1_Rep","full_date":"2026-03-13T23:57:06.844Z","date":"2026-03-13","time":"23:57:06","cor_ans":false},{"trial_type":"html-keyboard-response","rt":null,"stimulus":"<p style=\"color: red; font-size: 50px; font-weight: bold;\">Incorrect</p>","response":null,"trial_index":126,"plugin_version":"2.1.0","time_elapsed":212406,"subject_id":"90888","group":"Group2","condition":"1_Rep","full_date":"2026-03-13T23:57:06.844Z","date":"2026-03-13","time":"23:57:06"},{"correct_response":"l","task":"test_phase","broad_category":"I","image_png":"I_Rhyolite_05.png","image_id":149,"category_name":"Rhyolite","category":10,"distinct_rating":3.02,"distinct_type":"Bottom","item_type":"Target","rt":1096,"stimulus":"Stimuli_Rocks480/I_Rhyolite_05.png","response":"a","trial_type":"image-keyboard-response","trial_index":127,"plugin_version":"2.1.0","time_elapsed":213504,"subject_id":"90888","group":"Group2","condition":"1_Rep","full_date":"2026-03-13T23:57:06.844Z","date":"2026-03-13","time":"23:57:06","cor_ans":false},{"trial_type":"html-keyboard-response","rt":null,"stimulus":"<p style=\"color: red; font-size: 50px; font-weight: bold;\">Incorrect</p>","response":null,"trial_index":128,"plugin_version":"2.1.0","time_elapsed":214006,"subject_id":"90888","group":"Group2","condition":"1_Rep","full_date":"2026-03-13T23:57:06.844Z","date":"2026-03-13","time":"23:57:06"},{"correct_response":"a","task":"test_phase","broad_category":"S","image_png":"S_Dolomite_14.png","image_id":398,"category_name":"Dolomite","category":25,"distinct_rating":1.43,"distinct_type":"Bottom","item_type":"Foil","rt":1786,"stimulus":"Stimuli_Rocks480/S_Dolomite_14.png","response":"l","trial_type":"image-keyboard-response","trial_index":129,"plugin_version":"2.1.0","time_elapsed":215793,"subject_id":"90888","group":"Group2","condition":"1_Rep","full_date":"2026-03-13T23:57:06.844Z","date":"2026-03-13","time":"23:57:06","cor_ans":false},{"trial_type":"html-keyboard-response","rt":null,"stimulus":"<p style=\"color: red; font-size: 50px; font-weight: bold;\">Incorrect</p>","response":null,"trial_index":130,"plugin_version":"2.1.0","time_elapsed":216295,"subject_id":"90888","group":"Group2","condition":"1_Rep","full_date":"2026-03-13T23:57:06.844Z","date":"2026-03-13","time":"23:57:06"},{"correct_response":"a","task":"test_phase","broad_category":"I","image_png":"I_Pegmatite_16.png","image_id":112,"category_name":"Pegmatite","category":7,"distinct_rating":7.03,"distinct_type":"Top","item_type":"Foil","rt":968,"stimulus":"Stimuli_Rocks480/I_Pegmatite_16.png","response":"l","trial_type":"image-keyboard-response","trial_index":131,"plugin_version":"2.1.0","time_elapsed":217265,"subject_id":"90888","group":"Group2","condition":"1_Rep","full_date":"2026-03-13T23:57:06.844Z","date":"2026-03-13","time":"23:57:06","cor_ans":false},{"trial_type":"html-keyboard-response","rt":null,"stimulus":"<p style=\"color: red; font-size: 50px; font-weight: bold;\">Incorrect</p>","response":null,"trial_index":132,"plugin_version":"2.1.0","time_elapsed":217767,"subject_id":"90888","group":"Group2","condition":"1_Rep","full_date":"2026-03-13T23:57:06.844Z","date":"2026-03-13","time":"23:57:06"},{"correct_response":"a","task":"test_phase","broad_category":"M","image_png":"M_Slate_15.png","image_id":319,"category_name":"Slate","category":20,"distinct_rating":2.13,"distinct_type":"Bottom","item_type":"Foil","rt":923,"stimulus":"Stimuli_Rocks480/M_Slate_15.png","response":"l","trial_type":"image-keyboard-response","trial_index":133,"plugin_version":"2.1.0","time_elapsed":218691,"subject_id":"90888","group":"Group2","condition":"1_Rep","full_date":"2026-03-13T23:57:06.844Z","date":"2026-03-13","time":"23:57:06","cor_ans":false},{"trial_type":"html-keyboard-response","rt":null,"stimulus":"<p style=\"color: red; font-size: 50px; font-weight: bold;\">Incorrect</p>","response":null,"trial_index":134,"plugin_version":"2.1.0","time_elapsed":219193,"subject_id":"90888","group":"Group2","condition":"1_Rep","full_date":"2026-03-13T23:57:06.844Z","date":"2026-03-13","time":"23:57:06"},{"correct_response":"l","task":"test_phase","broad_category":"M","image_png":"M_Gneiss_14.png","image_id":206,"category_name":"Gneiss","category":13,"distinct_rating":3.41,"distinct_type":"Bottom","item_type":"Target","rt":843,"stimulus":"Stimuli_Rocks480/M_Gneiss_14.png","response":"a","trial_type":"image-keyboard-response","trial_index":135,"plugin_version":"2.1.0","time_elapsed":220037,"subject_id":"90888","group":"Group2","condition":"1_Rep","full_date":"2026-03-13T23:57:06.844Z","date":"2026-03-13","time":"23:57:06","cor_ans":false},{"trial_type":"html-keyboard-response","rt":null,"stimulus":"<p style=\"color: red; font-size: 50px; font-weight: bold;\">Incorrect</p>","response":null,"trial_index":136,"plugin_version":"2.1.0","time_elapsed":220539,"subject_id":"90888","group":"Group2","condition":"1_Rep","full_date":"2026-03-13T23:57:06.844Z","date":"2026-03-13","time":"23:57:06"},{"correct_response":"l","task":"test_phase","broad_category":"I","image_png":"I_Diorite_15.png","image_id":47,"category_name":"Diorite","category":3,"distinct_rating":3.05,"distinct_type":"Bottom","item_type":"Target","rt":794,"stimulus":"Stimuli_Rocks480/I_Diorite_15.png","response":"l","trial_type":"image-keyboard-response","trial_index":137,"plugin_version":"2.1.0","time_elapsed":221335,"subject_id":"90888","group":"Group2","condition":"1_Rep","full_date":"2026-03-13T23:57:06.844Z","date":"2026-03-13","time":"23:57:06","cor_ans":true},{"trial_type":"html-keyboard-response","rt":null,"stimulus":"<p style=\"color: green; font-size: 50px; font-weight: bold;\">Correct</p>","response":null,"trial_index":138,"plugin_version":"2.1.0","time_elapsed":221836,"subject_id":"90888","group":"Group2","condition":"1_Rep","full_date":"2026-03-13T23:57:06.844Z","date":"2026-03-13","time":"23:57:06"},{"correct_response":"l","task":"test_phase","broad_category":"M","image_png":"M_Quartzite_12.png","image_id":284,"category_name":"Quartzite","category":18,"distinct_rating":1.92,"distinct_type":"Bottom","item_type":"Target","rt":7924,"stimulus":"Stimuli_Rocks480/M_Quartzite_12.png","response":"a","trial_type":"image-keyboard-response","trial_index":139,"plugin_version":"2.1.0","time_elapsed":229762,"subject_id":"90888","group":"Group2","condition":"1_Rep","full_date":"2026-03-13T23:57:06.844Z","date":"2026-03-13","time":"23:57:06","cor_ans":false},{"trial_type":"html-keyboard-response","rt":null,"stimulus":"<p style=\"color: red; font-size: 50px; font-weight: bold;\">Incorrect</p>","response":null,"trial_index":140,"plugin_version":"2.1.0","time_elapsed":230264,"subject_id":"90888","group":"Group2","condition":"1_Rep","full_date":"2026-03-13T23:57:06.844Z","date":"2026-03-13","time":"23:57:06"},{"correct_response":"l","task":"test_phase","broad_category":"I","image_png":"I_Rhyolite_10.png","image_id":154,"category_name":"Rhyolite","category":10,"distinct_rating":2.88,"distinct_type":"Bottom","item_type":"Target","rt":948,"stimulus":"Stimuli_Rocks480/I_Rhyolite_10.png","response":"l","trial_type":"image-keyboard-response","trial_index":141,"plugin_version":"2.1.0","time_elapsed":231214,"subject_id":"90888","group":"Group2","condition":"1_Rep","full_date":"2026-03-13T23:57:06.844Z","date":"2026-03-13","time":"23:57:06","cor_ans":true},{"trial_type":"html-keyboard-response","rt":null,"stimulus":"<p style=\"color: green; font-size: 50px; font-weight: bold;\">Correct</p>","response":null,"trial_index":142,"plugin_version":"2.1.0","time_elapsed":231715,"subject_id":"90888","group":"Group2","condition":"1_Rep","full_date":"2026-03-13T23:57:06.844Z","date":"2026-03-13","time":"23:57:06"},{"correct_response":"l","task":"test_phase","broad_category":"I","image_png":"I_Pumice_14.png","image_id":142,"category_name":"Pumice","category":9,"distinct_rating":3.22,"distinct_type":"Bottom","item_type":"Target","rt":743,"stimulus":"Stimuli_Rocks480/I_Pumice_14.png","response":"l","trial_type":"image-keyboard-response","trial_index":143,"plugin_version":"2.1.0","time_elapsed":232460,"subject_id":"90888","group":"Group2","condition":"1_Rep","full_date":"2026-03-13T23:57:06.844Z","date":"2026-03-13","time":"23:57:06","cor_ans":true},{"trial_type":"html-keyboard-response","rt":null,"stimulus":"<p style=\"color: green; font-size: 50px; font-weight: bold;\">Correct</p>","response":null,"trial_index":144,"plugin_version":"2.1.0","time_elapsed":232962,"subject_id":"90888","group":"Group2","condition":"1_Rep","full_date":"2026-03-13T23:57:06.844Z","date":"2026-03-13","time":"23:57:06"},{"correct_response":"l","task":"test_phase","broad_category":"I","image_png":"I_Obsidian_06.png","image_id":86,"category_name":"Obsidian","category":6,"distinct_rating":8.01,"distinct_type":"Top","item_type":"Target","rt":2292,"stimulus":"Stimuli_Rocks480/I_Obsidian_06.png","response":"a","trial_type":"image-keyboard-response","trial_index":145,"plugin_version":"2.1.0","time_elapsed":235256,"subject_id":"90888","group":"Group2","condition":"1_Rep","full_date":"2026-03-13T23:57:06.844Z","date":"2026-03-13","time":"23:57:06","cor_ans":false},{"trial_type":"html-keyboard-response","rt":null,"stimulus":"<p style=\"color: red; font-size: 50px; font-weight: bold;\">Incorrect</p>","response":null,"trial_index":146,"plugin_version":"2.1.0","time_elapsed":235758,"subject_id":"90888","group":"Group2","condition":"1_Rep","full_date":"2026-03-13T23:57:06.844Z","date":"2026-03-13","time":"23:57:06"},{"correct_response":"l","task":"test_phase","broad_category":"I","image_png":"I_Pumice_13.png","image_id":141,"category_name":"Pumice","category":9,"distinct_rating":3.12,"distinct_type":"Bottom","item_type":"Target","rt":968,"stimulus":"Stimuli_Rocks480/I_Pumice_13.png","response":"l","trial_type":"image-keyboard-response","trial_index":147,"plugin_version":"2.1.0","time_elapsed":236728,"subject_id":"90888","group":"Group2","condition":"1_Rep","full_date":"2026-03-13T23:57:06.844Z","date":"2026-03-13","time":"23:57:06","cor_ans":true},{"trial_type":"html-keyboard-response","rt":null,"stimulus":"<p style=\"color: green; font-size: 50px; font-weight: bold;\">Correct</p>","response":null,"trial_index":148,"plugin_version":"2.1.0","time_elapsed":237230,"subject_id":"90888","group":"Group2","condition":"1_Rep","full_date":"2026-03-13T23:57:06.844Z","date":"2026-03-13","time":"23:57:06"},{"correct_response":"l","task":"test_phase","broad_category":"I","image_png":"I_Diorite_01.png","image_id":33,"category_name":"Diorite","category":3,"distinct_rating":2.97,"distinct_type":"Bottom","item_type":"Target","rt":743,"stimulus":"Stimuli_Rocks480/I_Diorite_01.png","response":"l","trial_type":"image-keyboard-response","trial_index":149,"plugin_version":"2.1.0","time_elapsed":237975,"subject_id":"90888","group":"Group2","condition":"1_Rep","full_date":"2026-03-13T23:57:06.844Z","date":"2026-03-13","time":"23:57:06","cor_ans":true},{"trial_type":"html-keyboard-response","rt":null,"stimulus":"<p style=\"color: green; font-size: 50px; font-weight: bold;\">Correct</p>","response":null,"trial_index":150,"plugin_version":"2.1.0","time_elapsed":238476,"subject_id":"90888","group":"Group2","condition":"1_Rep","full_date":"2026-03-13T23:57:06.844Z","date":"2026-03-13","time":"23:57:06"},{"correct_response":"l","task":"test_phase","broad_category":"M","image_png":"M_Slate_04.png","image_id":308,"category_name":"Slate","category":20,"distinct_rating":2.2,"distinct_type":"Bottom","item_type":"Target","rt":3530,"stimulus":"Stimuli_Rocks480/M_Slate_04.png","response":"l","trial_type":"image-keyboard-response","trial_index":151,"plugin_version":"2.1.0","time_elapsed":242008,"subject_id":"90888","group":"Group2","condition":"1_Rep","full_date":"2026-03-13T23:57:06.844Z","date":"2026-03-13","time":"23:57:06","cor_ans":true},{"trial_type":"html-keyboard-response","rt":null,"stimulus":"<p style=\"color: green; font-size: 50px; font-weight: bold;\">Correct</p>","response":null,"trial_index":152,"plugin_version":"2.1.0","time_elapsed":242510,"subject_id":"90888","group":"Group2","condition":"1_Rep","full_date":"2026-03-13T23:57:06.844Z","date":"2026-03-13","time":"23:57:06"},{"correct_response":"a","task":"test_phase","broad_category":"M","image_png":"M_Slate_11.png","image_id":315,"category_name":"Slate","category":20,"distinct_rating":2.75,"distinct_type":"Bottom","item_type":"Foil","rt":6255,"stimulus":"Stimuli_Rocks480/M_Slate_11.png","response":"l","trial_type":"image-keyboard-response","trial_index":153,"plugin_version":"2.1.0","time_elapsed":248767,"subject_id":"90888","group":"Group2","condition":"1_Rep","full_date":"2026-03-13T23:57:06.844Z","date":"2026-03-13","time":"23:57:06","cor_ans":false},{"trial_type":"html-keyboard-response","rt":null,"stimulus":"<p style=\"color: red; font-size: 50px; font-weight: bold;\">Incorrect</p>","response":null,"trial_index":154,"plugin_version":"2.1.0","time_elapsed":249268,"subject_id":"90888","group":"Group2","condition":"1_Rep","full_date":"2026-03-13T23:57:06.844Z","date":"2026-03-13","time":"23:57:06"},{"correct_response":"l","task":"test_phase","broad_category":"I","image_png":"I_Basalt_08.png","image_id":24,"category_name":"Basalt","category":2,"distinct_rating":2.31,"distinct_type":"Bottom","item_type":"Target","rt":751,"stimulus":"Stimuli_Rocks480/I_Basalt_08.png","response":"l","trial_type":"image-keyboard-response","trial_index":155,"plugin_version":"2.1.0","time_elapsed":250021,"subject_id":"90888","group":"Group2","condition":"1_Rep","full_date":"2026-03-13T23:57:06.844Z","date":"2026-03-13","time":"23:57:06","cor_ans":true},{"trial_type":"html-keyboard-response","rt":null,"stimulus":"<p style=\"color: green; font-size: 50px; font-weight: bold;\">Correct</p>","response":null,"trial_index":156,"plugin_version":"2.1.0","time_elapsed":250523,"subject_id":"90888","group":"Group2","condition":"1_Rep","full_date":"2026-03-13T23:57:06.844Z","date":"2026-03-13","time":"23:57:06"},{"correct_response":"l","task":"test_phase","broad_category":"I","image_png":"I_Andesite_04.png","image_id":4,"category_name":"Andesite","category":1,"distinct_rating":3.18,"distinct_type":"Bottom","item_type":"Target","rt":7501,"stimulus":"Stimuli_Rocks480/I_Andesite_04.png","response":"l","trial_type":"image-keyboard-response","trial_index":157,"plugin_version":"2.1.0","time_elapsed":258026,"subject_id":"90888","group":"Group2","condition":"1_Rep","full_date":"2026-03-13T23:57:06.844Z","date":"2026-03-13","time":"23:57:06","cor_ans":true},{"trial_type":"html-keyboard-response","rt":null,"stimulus":"<p style=\"color: green; font-size: 50px; font-weight: bold;\">Correct</p>","response":null,"trial_index":158,"plugin_version":"2.1.0","time_elapsed":258528,"subject_id":"90888","group":"Group2","condition":"1_Rep","full_date":"2026-03-13T23:57:06.844Z","date":"2026-03-13","time":"23:57:06"},{"correct_response":"l","task":"test_phase","broad_category":"M","image_png":"M_Marble_03.png","image_id":227,"category_name":"Marble","category":15,"distinct_rating":2.67,"distinct_type":"Bottom","item_type":"Target","rt":842,"stimulus":"Stimuli_Rocks480/M_Marble_03.png","response":"l","trial_type":"image-keyboard-response","trial_index":159,"plugin_version":"2.1.0","time_elapsed":259371,"subject_id":"90888","group":"Group2","condition":"1_Rep","full_date":"2026-03-13T23:57:06.844Z","date":"2026-03-13","time":"23:57:06","cor_ans":true},{"trial_type":"html-keyboard-response","rt":null,"stimulus":"<p style=\"color: green; font-size: 50px; font-weight: bold;\">Correct</p>","response":null,"trial_index":160,"plugin_version":"2.1.0","time_elapsed":259872,"subject_id":"90888","group":"Group2","condition":"1_Rep","full_date":"2026-03-13T23:57:06.844Z","date":"2026-03-13","time":"23:57:06"},{"correct_response":"a","task":"test_phase","broad_category":"M","image_png":"M_Marble_04.png","image_id":228,"category_name":"Marble","category":15,"distinct_rating":3.15,"distinct_type":"Bottom","item_type":"Foil","rt":561,"stimulus":"Stimuli_Rocks480/M_Marble_04.png","response":"l","trial_type":"image-keyboard-response","trial_index":161,"plugin_version":"2.1.0","time_elapsed":260434,"subject_id":"90888","group":"Group2","condition":"1_Rep","full_date":"2026-03-13T23:57:06.844Z","date":"2026-03-13","time":"23:57:06","cor_ans":false},{"trial_type":"html-keyboard-response","rt":null,"stimulus":"<p style=\"color: red; font-size: 50px; font-weight: bold;\">Incorrect</p>","response":null,"trial_index":162,"plugin_version":"2.1.0","time_elapsed":260936,"subject_id":"90888","group":"Group2","condition":"1_Rep","full_date":"2026-03-13T23:57:06.844Z","date":"2026-03-13","time":"23:57:06"},{"correct_response":"a","task":"test_phase","broad_category":"I","image_png":"I_Diorite_04.png","image_id":36,"category_name":"Diorite","category":3,"distinct_rating":2.98,"distinct_type":"Bottom","item_type":"Foil","rt":18524,"stimulus":"Stimuli_Rocks480/I_Diorite_04.png","response":"l","trial_type":"image-keyboard-response","trial_index":163,"plugin_version":"2.1.0","time_elapsed":279462,"subject_id":"90888","group":"Group2","condition":"1_Rep","full_date":"2026-03-13T23:57:06.844Z","date":"2026-03-13","time":"23:57:06","cor_ans":false},{"trial_type":"html-keyboard-response","rt":null,"stimulus":"<p style=\"color: red; font-size: 50px; font-weight: bold;\">Incorrect</p>","response":null,"trial_index":164,"plugin_version":"2.1.0","time_elapsed":279962,"subject_id":"90888","group":"Group2","condition":"1_Rep","full_date":"2026-03-13T23:57:06.844Z","date":"2026-03-13","time":"23:57:06"},{"correct_response":"a","task":"test_phase","broad_category":"I","image_png":"I_Gabbro_08.png","image_id":56,"category_name":"Gabbro","category":4,"distinct_rating":3.02,"distinct_type":"Bottom","item_type":"Foil","rt":752,"stimulus":"Stimuli_Rocks480/I_Gabbro_08.png","response":"l","trial_type":"image-keyboard-response","trial_index":165,"plugin_version":"2.1.0","time_elapsed":280716,"subject_id":"90888","group":"Group2","condition":"1_Rep","full_date":"2026-03-13T23:57:06.844Z","date":"2026-03-13","time":"23:57:06","cor_ans":false},{"trial_type":"html-keyboard-response","rt":null,"stimulus":"<p style=\"color: red; font-size: 50px; font-weight: bold;\">Incorrect</p>","response":null,"trial_index":166,"plugin_version":"2.1.0","time_elapsed":281217,"subject_id":"90888","group":"Group2","condition":"1_Rep","full_date":"2026-03-13T23:57:06.844Z","date":"2026-03-13","time":"23:57:06"},{"correct_response":"l","task":"test_phase","broad_category":"I","image_png":"I_Andesite_03.png","image_id":3,"category_name":"Andesite","category":1,"distinct_rating":3.17,"distinct_type":"Bottom","item_type":"Target","rt":735,"stimulus":"Stimuli_Rocks480/I_Andesite_03.png","response":"a","trial_type":"image-keyboard-response","trial_index":167,"plugin_version":"2.1.0","time_elapsed":281954,"subject_id":"90888","group":"Group2","condition":"1_Rep","full_date":"2026-03-13T23:57:06.844Z","date":"2026-03-13","time":"23:57:06","cor_ans":false},{"trial_type":"html-keyboard-response","rt":null,"stimulus":"<p style=\"color: red; font-size: 50px; font-weight: bold;\">Incorrect</p>","response":null,"trial_index":168,"plugin_version":"2.1.0","time_elapsed":282456,"subject_id":"90888","group":"Group2","condition":"1_Rep","full_date":"2026-03-13T23:57:06.844Z","date":"2026-03-13","time":"23:57:06"},{"correct_response":"a","task":"test_phase","broad_category":"S","image_png":"S_Rock Gypsum_04.png","image_id":420,"category_name":"Rock Gypsum","category":27,"distinct_rating":7.61,"distinct_type":"Top","item_type":"Foil","rt":610,"stimulus":"Stimuli_Rocks480/S_Rock Gypsum_04.png","response":"l","trial_type":"image-keyboard-response","trial_index":169,"plugin_version":"2.1.0","time_elapsed":283068,"subject_id":"90888","group":"Group2","condition":"1_Rep","full_date":"2026-03-13T23:57:06.844Z","date":"2026-03-13","time":"23:57:06","cor_ans":false},{"trial_type":"html-keyboard-response","rt":null,"stimulus":"<p style=\"color: red; font-size: 50px; font-weight: bold;\">Incorrect</p>","response":null,"trial_index":170,"plugin_version":"2.1.0","time_elapsed":283569,"subject_id":"90888","group":"Group2","condition":"1_Rep","full_date":"2026-03-13T23:57:06.844Z","date":"2026-03-13","time":"23:57:06"},{"correct_response":"l","task":"test_phase","broad_category":"S","image_png":"S_Sandstone_08.png","image_id":456,"category_name":"Sandstone","category":29,"distinct_rating":1.5,"distinct_type":"Bottom","item_type":"Target","rt":850,"stimulus":"Stimuli_Rocks480/S_Sandstone_08.png","response":"l","trial_type":"image-keyboard-response","trial_index":171,"plugin_version":"2.1.0","time_elapsed":284421,"subject_id":"90888","group":"Group2","condition":"1_Rep","full_date":"2026-03-13T23:57:06.844Z","date":"2026-03-13","time":"23:57:06","cor_ans":true},{"trial_type":"html-keyboard-response","rt":null,"stimulus":"<p style=\"color: green; font-size: 50px; font-weight: bold;\">Correct</p>","response":null,"trial_index":172,"plugin_version":"2.1.0","time_elapsed":284923,"subject_id":"90888","group":"Group2","condition":"1_Rep","full_date":"2026-03-13T23:57:06.844Z","date":"2026-03-13","time":"23:57:06"},{"correct_response":"a","task":"test_phase","broad_category":"M","image_png":"M_Quartzite_08.png","image_id":280,"category_name":"Quartzite","category":18,"distinct_rating":2.15,"distinct_type":"Bottom","item_type":"Foil","rt":649,"stimulus":"Stimuli_Rocks480/M_Quartzite_08.png","response":"l","trial_type":"image-keyboard-response","trial_index":173,"plugin_version":"2.1.0","time_elapsed":285573,"subject_id":"90888","group":"Group2","condition":"1_Rep","full_date":"2026-03-13T23:57:06.844Z","date":"2026-03-13","time":"23:57:06","cor_ans":false},{"trial_type":"html-keyboard-response","rt":null,"stimulus":"<p style=\"color: red; font-size: 50px; font-weight: bold;\">Incorrect</p>","response":null,"trial_index":174,"plugin_version":"2.1.0","time_elapsed":286075,"subject_id":"90888","group":"Group2","condition":"1_Rep","full_date":"2026-03-13T23:57:06.844Z","date":"2026-03-13","time":"23:57:06"},{"correct_response":"l","task":"test_phase","broad_category":"I","image_png":"I_Rhyolite_08.png","image_id":152,"category_name":"Rhyolite","category":10,"distinct_rating":1.38,"distinct_type":"Bottom","item_type":"Target","rt":622,"stimulus":"Stimuli_Rocks480/I_Rhyolite_08.png","response":"a","trial_type":"image-keyboard-response","trial_index":175,"plugin_version":"2.1.0","time_elapsed":286699,"subject_id":"90888","group":"Group2","condition":"1_Rep","full_date":"2026-03-13T23:57:06.844Z","date":"2026-03-13","time":"23:57:06","cor_ans":false},{"trial_type":"html-keyboard-response","rt":null,"stimulus":"<p style=\"color: red; font-size: 50px; font-weight: bold;\">Incorrect</p>","response":null,"trial_index":176,"plugin_version":"2.1.0","time_elapsed":287200,"subject_id":"90888","group":"Group2","condition":"1_Rep","full_date":"2026-03-13T23:57:06.844Z","date":"2026-03-13","time":"23:57:06"},{"correct_response":"a","task":"test_phase","broad_category":"I","image_png":"I_Pumice_12.png","image_id":140,"category_name":"Pumice","category":9,"distinct_rating":2.97,"distinct_type":"Bottom","item_type":"Foil","rt":560,"stimulus":"Stimuli_Rocks480/I_Pumice_12.png","response":"l","trial_type":"image-keyboard-response","trial_index":177,"plugin_version":"2.1.0","time_elapsed":287762,"subject_id":"90888","group":"Group2","condition":"1_Rep","full_date":"2026-03-13T23:57:06.844Z","date":"2026-03-13","time":"23:57:06","cor_ans":false},{"trial_type":"html-keyboard-response","rt":null,"stimulus":"<p style=\"color: red; font-size: 50px; font-weight: bold;\">Incorrect</p>","response":null,"trial_index":178,"plugin_version":"2.1.0","time_elapsed":288263,"subject_id":"90888","group":"Group2","condition":"1_Rep","full_date":"2026-03-13T23:57:06.844Z","date":"2026-03-13","time":"23:57:06"},{"correct_response":"a","task":"test_phase","broad_category":"S","image_png":"S_Shale_08.png","image_id":472,"category_name":"Shale","category":30,"distinct_rating":2.55,"distinct_type":"Bottom","item_type":"Foil","rt":613,"stimulus":"Stimuli_Rocks480/S_Shale_08.png","response":"l","trial_type":"image-keyboard-response","trial_index":179,"plugin_version":"2.1.0","time_elapsed":288878,"subject_id":"90888","group":"Group2","condition":"1_Rep","full_date":"2026-03-13T23:57:06.844Z","date":"2026-03-13","time":"23:57:06","cor_ans":false},{"trial_type":"html-keyboard-response","rt":null,"stimulus":"<p style=\"color: red; font-size: 50px; font-weight: bold;\">Incorrect</p>","response":null,"trial_index":180,"plugin_version":"2.1.0","time_elapsed":289379,"subject_id":"90888","group":"Group2","condition":"1_Rep","full_date":"2026-03-13T23:57:06.844Z","date":"2026-03-13","time":"23:57:06"},{"correct_response":"a","task":"test_phase","broad_category":"I","image_png":"I_Andesite_08.png","image_id":8,"category_name":"Andesite","category":1,"distinct_rating":1.95,"distinct_type":"Bottom","item_type":"Foil","rt":940,"stimulus":"Stimuli_Rocks480/I_Andesite_08.png","response":"a","trial_type":"image-keyboard-response","trial_index":181,"plugin_version":"2.1.0","time_elapsed":290321,"subject_id":"90888","group":"Group2","condition":"1_Rep","full_date":"2026-03-13T23:57:06.844Z","date":"2026-03-13","time":"23:57:06","cor_ans":true},{"trial_type":"html-keyboard-response","rt":null,"stimulus":"<p style=\"color: green; font-size: 50px; font-weight: bold;\">Correct</p>","response":null,"trial_index":182,"plugin_version":"2.1.0","time_elapsed":290822,"subject_id":"90888","group":"Group2","condition":"1_Rep","full_date":"2026-03-13T23:57:06.844Z","date":"2026-03-13","time":"23:57:06"},{"correct_response":"a","task":"test_phase","broad_category":"I","image_png":"I_Rhyolite_11.png","image_id":155,"category_name":"Rhyolite","category":10,"distinct_rating":1.73,"distinct_type":"Bottom","item_type":"Foil","rt":1657,"stimulus":"Stimuli_Rocks480/I_Rhyolite_11.png","response":"a","trial_type":"image-keyboard-response","trial_index":183,"plugin_version":"2.1.0","time_elapsed":292481,"subject_id":"90888","group":"Group2","condition":"1_Rep","full_date":"2026-03-13T23:57:06.844Z","date":"2026-03-13","time":"23:57:06","cor_ans":true},{"trial_type":"html-keyboard-response","rt":null,"stimulus":"<p style=\"color: green; font-size: 50px; font-weight: bold;\">Correct</p>","response":null,"trial_index":184,"plugin_version":"2.1.0","time_elapsed":292982,"subject_id":"90888","group":"Group2","condition":"1_Rep","full_date":"2026-03-13T23:57:06.844Z","date":"2026-03-13","time":"23:57:06"},{"correct_response":"a","task":"test_phase","broad_category":"I","image_png":"I_Gabbro_16.png","image_id":64,"category_name":"Gabbro","category":4,"distinct_rating":2.52,"distinct_type":"Bottom","item_type":"Foil","rt":708,"stimulus":"Stimuli_Rocks480/I_Gabbro_16.png","response":"a","trial_type":"image-keyboard-response","trial_index":185,"plugin_version":"2.1.0","time_elapsed":293691,"subject_id":"90888","group":"Group2","condition":"1_Rep","full_date":"2026-03-13T23:57:06.844Z","date":"2026-03-13","time":"23:57:06","cor_ans":true},{"trial_type":"html-keyboard-response","rt":null,"stimulus":"<p style=\"color: green; font-size: 50px; font-weight: bold;\">Correct</p>","response":null,"trial_index":186,"plugin_version":"2.1.0","time_elapsed":294193,"subject_id":"90888","group":"Group2","condition":"1_Rep","full_date":"2026-03-13T23:57:06.844Z","date":"2026-03-13","time":"23:57:06"},{"correct_response":"a","task":"test_phase","broad_category":"S","image_png":"S_Shale_12.png","image_id":476,"category_name":"Shale","category":30,"distinct_rating":2.48,"distinct_type":"Bottom","item_type":"Foil","rt":993,"stimulus":"Stimuli_Rocks480/S_Shale_12.png","response":"a","trial_type":"image-keyboard-response","trial_index":187,"plugin_version":"2.1.0","time_elapsed":295187,"subject_id":"90888","group":"Group2","condition":"1_Rep","full_date":"2026-03-13T23:57:06.844Z","date":"2026-03-13","time":"23:57:06","cor_ans":true},{"trial_type":"html-keyboard-response","rt":null,"stimulus":"<p style=\"color: green; font-size: 50px; font-weight: bold;\">Correct</p>","response":null,"trial_index":188,"plugin_version":"2.1.0","time_elapsed":295689,"subject_id":"90888","group":"Group2","condition":"1_Rep","full_date":"2026-03-13T23:57:06.844Z","date":"2026-03-13","time":"23:57:06"},{"correct_response":"a","task":"test_phase","broad_category":"I","image_png":"I_Basalt_01.png","image_id":17,"category_name":"Basalt","category":2,"distinct_rating":1.92,"distinct_type":"Bottom","item_type":"Foil","rt":1060,"stimulus":"Stimuli_Rocks480/I_Basalt_01.png","response":"l","trial_type":"image-keyboard-response","trial_index":189,"plugin_version":"2.1.0","time_elapsed":296750,"subject_id":"90888","group":"Group2","condition":"1_Rep","full_date":"2026-03-13T23:57:06.844Z","date":"2026-03-13","time":"23:57:06","cor_ans":false},{"trial_type":"html-keyboard-response","rt":null,"stimulus":"<p style=\"color: red; font-size: 50px; font-weight: bold;\">Incorrect</p>","response":null,"trial_index":190,"plugin_version":"2.1.0","time_elapsed":297252,"subject_id":"90888","group":"Group2","condition":"1_Rep","full_date":"2026-03-13T23:57:06.844Z","date":"2026-03-13","time":"23:57:06"},{"correct_response":"a","task":"test_phase","broad_category":"M","image_png":"M_Phyllite_03.png","image_id":259,"category_name":"Phyllite","category":17,"distinct_rating":2.5,"distinct_type":"Bottom","item_type":"Foil","rt":679,"stimulus":"Stimuli_Rocks480/M_Phyllite_03.png","response":"a","trial_type":"image-keyboard-response","trial_index":191,"plugin_version":"2.1.0","time_elapsed":297933,"subject_id":"90888","group":"Group2","condition":"1_Rep","full_date":"2026-03-13T23:57:06.844Z","date":"2026-03-13","time":"23:57:06","cor_ans":true},{"trial_type":"html-keyboard-response","rt":null,"stimulus":"<p style=\"color: green; font-size: 50px; font-weight: bold;\">Correct</p>","response":null,"trial_index":192,"plugin_version":"2.1.0","time_elapsed":298434,"subject_id":"90888","group":"Group2","condition":"1_Rep","full_date":"2026-03-13T23:57:06.844Z","date":"2026-03-13","time":"23:57:06"},{"correct_response":"l","task":"test_phase","broad_category":"S","image_png":"S_Dolomite_01.png","image_id":385,"category_name":"Dolomite","category":25,"distinct_rating":1.43,"distinct_type":"Bottom","item_type":"Target","rt":991,"stimulus":"Stimuli_Rocks480/S_Dolomite_01.png","response":"a","trial_type":"image-keyboard-response","trial_index":193,"plugin_version":"2.1.0","time_elapsed":299427,"subject_id":"90888","group":"Group2","condition":"1_Rep","full_date":"2026-03-13T23:57:06.844Z","date":"2026-03-13","time":"23:57:06","cor_ans":false},{"trial_type":"html-keyboard-response","rt":null,"stimulus":"<p style=\"color: red; font-size: 50px; font-weight: bold;\">Incorrect</p>","response":null,"trial_index":194,"plugin_version":"2.1.0","time_elapsed":299928,"subject_id":"90888","group":"Group2","condition":"1_Rep","full_date":"2026-03-13T23:57:06.844Z","date":"2026-03-13","time":"23:57:06"},{"correct_response":"l","task":"test_phase","broad_category":"M","image_png":"M_Quartzite_07.png","image_id":279,"category_name":"Quartzite","category":18,"distinct_rating":1.97,"distinct_type":"Bottom","item_type":"Target","rt":2027,"stimulus":"Stimuli_Rocks480/M_Quartzite_07.png","response":"l","trial_type":"image-keyboard-response","trial_index":195,"plugin_version":"2.1.0","time_elapsed":301958,"subject_id":"90888","group":"Group2","condition":"1_Rep","full_date":"2026-03-13T23:57:06.844Z","date":"2026-03-13","time":"23:57:06","cor_ans":true},{"trial_type":"html-keyboard-response","rt":null,"stimulus":"<p style=\"color: green; font-size: 50px; font-weight: bold;\">Correct</p>","response":null,"trial_index":196,"plugin_version":"2.1.0","time_elapsed":302459,"subject_id":"90888","group":"Group2","condition":"1_Rep","full_date":"2026-03-13T23:57:06.844Z","date":"2026-03-13","time":"23:57:06"},{"correct_response":"a","task":"test_phase","broad_category":"I","image_png":"I_Pumice_11.png","image_id":139,"category_name":"Pumice","category":9,"distinct_rating":1.74,"distinct_type":"Bottom","item_type":"Foil","rt":1841,"stimulus":"Stimuli_Rocks480/I_Pumice_11.png","response":"l","trial_type":"image-keyboard-response","trial_index":197,"plugin_version":"2.1.0","time_elapsed":304302,"subject_id":"90888","group":"Group2","condition":"1_Rep","full_date":"2026-03-13T23:57:06.844Z","date":"2026-03-13","time":"23:57:06","cor_ans":false},{"trial_type":"html-keyboard-response","rt":null,"stimulus":"<p style=\"color: red; font-size: 50px; font-weight: bold;\">Incorrect</p>","response":null,"trial_index":198,"plugin_version":"2.1.0","time_elapsed":304804,"subject_id":"90888","group":"Group2","condition":"1_Rep","full_date":"2026-03-13T23:57:06.844Z","date":"2026-03-13","time":"23:57:06"},{"correct_response":"l","task":"test_phase","broad_category":"M","image_png":"M_Gneiss_15.png","image_id":207,"category_name":"Gneiss","category":13,"distinct_rating":3.11,"distinct_type":"Bottom","item_type":"Target","rt":1149,"stimulus":"Stimuli_Rocks480/M_Gneiss_15.png","response":"l","trial_type":"image-keyboard-response","trial_index":199,"plugin_version":"2.1.0","time_elapsed":305954,"subject_id":"90888","group":"Group2","condition":"1_Rep","full_date":"2026-03-13T23:57:06.844Z","date":"2026-03-13","time":"23:57:06","cor_ans":true},{"trial_type":"html-keyboard-response","rt":null,"stimulus":"<p style=\"color: green; font-size: 50px; font-weight: bold;\">Correct</p>","response":null,"trial_index":200,"plugin_version":"2.1.0","time_elapsed":306456,"subject_id":"90888","group":"Group2","condition":"1_Rep","full_date":"2026-03-13T23:57:06.844Z","date":"2026-03-13","time":"23:57:06"},{"correct_response":"a","task":"test_phase","broad_category":"S","image_png":"S_Rock Salt_01.png","image_id":433,"category_name":"Rock Salt","category":28,"distinct_rating":7.18,"distinct_type":"Top","item_type":"Foil","rt":1160,"stimulus":"Stimuli_Rocks480/S_Rock Salt_01.png","response":"l","trial_type":"image-keyboard-response","trial_index":201,"plugin_version":"2.1.0","time_elapsed":307617,"subject_id":"90888","group":"Group2","condition":"1_Rep","full_date":"2026-03-13T23:57:06.844Z","date":"2026-03-13","time":"23:57:06","cor_ans":false},{"trial_type":"html-keyboard-response","rt":null,"stimulus":"<p style=\"color: red; font-size: 50px; font-weight: bold;\">Incorrect</p>","response":null,"trial_index":202,"plugin_version":"2.1.0","time_elapsed":308118,"subject_id":"90888","group":"Group2","condition":"1_Rep","full_date":"2026-03-13T23:57:06.844Z","date":"2026-03-13","time":"23:57:06"},{"correct_response":"l","task":"test_phase","broad_category":"I","image_png":"I_Diorite_10.png","image_id":42,"category_name":"Diorite","category":3,"distinct_rating":2.84,"distinct_type":"Bottom","item_type":"Target","rt":987,"stimulus":"Stimuli_Rocks480/I_Diorite_10.png","response":"l","trial_type":"image-keyboard-response","trial_index":203,"plugin_version":"2.1.0","time_elapsed":309107,"subject_id":"90888","group":"Group2","condition":"1_Rep","full_date":"2026-03-13T23:57:06.844Z","date":"2026-03-13","time":"23:57:06","cor_ans":true},{"trial_type":"html-keyboard-response","rt":null,"stimulus":"<p style=\"color: green; font-size: 50px; font-weight: bold;\">Correct</p>","response":null,"trial_index":204,"plugin_version":"2.1.0","time_elapsed":309609,"subject_id":"90888","group":"Group2","condition":"1_Rep","full_date":"2026-03-13T23:57:06.844Z","date":"2026-03-13","time":"23:57:06"},{"correct_response":"l","task":"test_phase","broad_category":"I","image_png":"I_Gabbro_14.png","image_id":62,"category_name":"Gabbro","category":4,"distinct_rating":2.95,"distinct_type":"Bottom","item_type":"Target","rt":710,"stimulus":"Stimuli_Rocks480/I_Gabbro_14.png","response":"l","trial_type":"image-keyboard-response","trial_index":205,"plugin_version":"2.1.0","time_elapsed":310321,"subject_id":"90888","group":"Group2","condition":"1_Rep","full_date":"2026-03-13T23:57:06.844Z","date":"2026-03-13","time":"23:57:06","cor_ans":true},{"trial_type":"html-keyboard-response","rt":null,"stimulus":"<p style=\"color: green; font-size: 50px; font-weight: bold;\">Correct</p>","response":null,"trial_index":206,"plugin_version":"2.1.0","time_elapsed":310823,"subject_id":"90888","group":"Group2","condition":"1_Rep","full_date":"2026-03-13T23:57:06.844Z","date":"2026-03-13","time":"23:57:06"},{"correct_response":"l","task":"test_phase","broad_category":"S","image_png":"S_Conglomerate_14.png","image_id":382,"category_name":"Conglomerate","category":24,"distinct_rating":6.86,"distinct_type":"Top","item_type":"Target","rt":867,"stimulus":"Stimuli_Rocks480/S_Conglomerate_14.png","response":"l","trial_type":"image-keyboard-response","trial_index":207,"plugin_version":"2.1.0","time_elapsed":311692,"subject_id":"90888","group":"Group2","condition":"1_Rep","full_date":"2026-03-13T23:57:06.844Z","date":"2026-03-13","time":"23:57:06","cor_ans":true},{"trial_type":"html-keyboard-response","rt":null,"stimulus":"<p style=\"color: green; font-size: 50px; font-weight: bold;\">Correct</p>","response":null,"trial_index":208,"plugin_version":"2.1.0","time_elapsed":312193,"subject_id":"90888","group":"Group2","condition":"1_Rep","full_date":"2026-03-13T23:57:06.844Z","date":"2026-03-13","time":"23:57:06"},{"correct_response":"l","task":"test_phase","broad_category":"S","image_png":"S_Shale_07.png","image_id":471,"category_name":"Shale","category":30,"distinct_rating":2.73,"distinct_type":"Bottom","item_type":"Target","rt":914,"stimulus":"Stimuli_Rocks480/S_Shale_07.png","response":"l","trial_type":"image-keyboard-response","trial_index":209,"plugin_version":"2.1.0","time_elapsed":313109,"subject_id":"90888","group":"Group2","condition":"1_Rep","full_date":"2026-03-13T23:57:06.844Z","date":"2026-03-13","time":"23:57:06","cor_ans":true},{"trial_type":"html-keyboard-response","rt":null,"stimulus":"<p style=\"color: green; font-size: 50px; font-weight: bold;\">Correct</p>","response":null,"trial_index":210,"plugin_version":"2.1.0","time_elapsed":313610,"subject_id":"90888","group":"Group2","condition":"1_Rep","full_date":"2026-03-13T23:57:06.844Z","date":"2026-03-13","time":"23:57:06"},{"correct_response":"a","task":"test_phase","broad_category":"S","image_png":"S_Dolomite_13.png","image_id":397,"category_name":"Dolomite","category":25,"distinct_rating":1.77,"distinct_type":"Bottom","item_type":"Foil","rt":1259,"stimulus":"Stimuli_Rocks480/S_Dolomite_13.png","response":"l","trial_type":"image-keyboard-response","trial_index":211,"plugin_version":"2.1.0","time_elapsed":314871,"subject_id":"90888","group":"Group2","condition":"1_Rep","full_date":"2026-03-13T23:57:06.844Z","date":"2026-03-13","time":"23:57:06","cor_ans":false},{"trial_type":"html-keyboard-response","rt":null,"stimulus":"<p style=\"color: red; font-size: 50px; font-weight: bold;\">Incorrect</p>","response":null,"trial_index":212,"plugin_version":"2.1.0","time_elapsed":315372,"subject_id":"90888","group":"Group2","condition":"1_Rep","full_date":"2026-03-13T23:57:06.844Z","date":"2026-03-13","time":"23:57:06"},{"correct_response":"a","task":"test_phase","broad_category":"M","image_png":"M_Slate_03.png","image_id":307,"category_name":"Slate","category":20,"distinct_rating":1.87,"distinct_type":"Bottom","item_type":"Foil","rt":1076,"stimulus":"Stimuli_Rocks480/M_Slate_03.png","response":"l","trial_type":"image-keyboard-response","trial_index":213,"plugin_version":"2.1.0","time_elapsed":316450,"subject_id":"90888","group":"Group2","condition":"1_Rep","full_date":"2026-03-13T23:57:06.844Z","date":"2026-03-13","time":"23:57:06","cor_ans":false},{"trial_type":"html-keyboard-response","rt":null,"stimulus":"<p style=\"color: red; font-size: 50px; font-weight: bold;\">Incorrect</p>","response":null,"trial_index":214,"plugin_version":"2.1.0","time_elapsed":316951,"subject_id":"90888","group":"Group2","condition":"1_Rep","full_date":"2026-03-13T23:57:06.844Z","date":"2026-03-13","time":"23:57:06"},{"correct_response":"a","task":"test_phase","broad_category":"I","image_png":"I_Basalt_09.png","image_id":25,"category_name":"Basalt","category":2,"distinct_rating":1.89,"distinct_type":"Bottom","item_type":"Foil","rt":1009,"stimulus":"Stimuli_Rocks480/I_Basalt_09.png","response":"a","trial_type":"image-keyboard-response","trial_index":215,"plugin_version":"2.1.0","time_elapsed":317962,"subject_id":"90888","group":"Group2","condition":"1_Rep","full_date":"2026-03-13T23:57:06.844Z","date":"2026-03-13","time":"23:57:06","cor_ans":true},{"trial_type":"html-keyboard-response","rt":null,"stimulus":"<p style=\"color: green; font-size: 50px; font-weight: bold;\">Correct</p>","response":null,"trial_index":216,"plugin_version":"2.1.0","time_elapsed":318463,"subject_id":"90888","group":"Group2","condition":"1_Rep","full_date":"2026-03-13T23:57:06.844Z","date":"2026-03-13","time":"23:57:06"},{"correct_response":"a","task":"test_phase","broad_category":"I","image_png":"I_Andesite_10.png","image_id":10,"category_name":"Andesite","category":1,"distinct_rating":3.15,"distinct_type":"Bottom","item_type":"Foil","rt":989,"stimulus":"Stimuli_Rocks480/I_Andesite_10.png","response":"l","trial_type":"image-keyboard-response","trial_index":217,"plugin_version":"2.1.0","time_elapsed":319454,"subject_id":"90888","group":"Group2","condition":"1_Rep","full_date":"2026-03-13T23:57:06.844Z","date":"2026-03-13","time":"23:57:06","cor_ans":false},{"trial_type":"html-keyboard-response","rt":null,"stimulus":"<p style=\"color: red; font-size: 50px; font-weight: bold;\">Incorrect</p>","response":null,"trial_index":218,"plugin_version":"2.1.0","time_elapsed":319955,"subject_id":"90888","group":"Group2","condition":"1_Rep","full_date":"2026-03-13T23:57:06.844Z","date":"2026-03-13","time":"23:57:06"},{"correct_response":"l","task":"test_phase","broad_category":"M","image_png":"M_Slate_10.png","image_id":314,"category_name":"Slate","category":20,"distinct_rating":1.94,"distinct_type":"Bottom","item_type":"Target","rt":971,"stimulus":"Stimuli_Rocks480/M_Slate_10.png","response":"l","trial_type":"image-keyboard-response","trial_index":219,"plugin_version":"2.1.0","time_elapsed":320928,"subject_id":"90888","group":"Group2","condition":"1_Rep","full_date":"2026-03-13T23:57:06.844Z","date":"2026-03-13","time":"23:57:06","cor_ans":true},{"trial_type":"html-keyboard-response","rt":null,"stimulus":"<p style=\"color: green; font-size: 50px; font-weight: bold;\">Correct</p>","response":null,"trial_index":220,"plugin_version":"2.1.0","time_elapsed":321429,"subject_id":"90888","group":"Group2","condition":"1_Rep","full_date":"2026-03-13T23:57:06.844Z","date":"2026-03-13","time":"23:57:06"},{"correct_response":"a","task":"test_phase","broad_category":"S","image_png":"S_Conglomerate_05.png","image_id":373,"category_name":"Conglomerate","category":24,"distinct_rating":7.32,"distinct_type":"Top","item_type":"Foil","rt":1160,"stimulus":"Stimuli_Rocks480/S_Conglomerate_05.png","response":"a","trial_type":"image-keyboard-response","trial_index":221,"plugin_version":"2.1.0","time_elapsed":322591,"subject_id":"90888","group":"Group2","condition":"1_Rep","full_date":"2026-03-13T23:57:06.844Z","date":"2026-03-13","time":"23:57:06","cor_ans":true},{"trial_type":"html-keyboard-response","rt":null,"stimulus":"<p style=\"color: green; font-size: 50px; font-weight: bold;\">Correct</p>","response":null,"trial_index":222,"plugin_version":"2.1.0","time_elapsed":323093,"subject_id":"90888","group":"Group2","condition":"1_Rep","full_date":"2026-03-13T23:57:06.844Z","date":"2026-03-13","time":"23:57:06"},{"correct_response":"l","task":"test_phase","broad_category":"I","image_png":"I_Gabbro_12.png","image_id":60,"category_name":"Gabbro","category":4,"distinct_rating":2.6,"distinct_type":"Bottom","item_type":"Target","rt":1161,"stimulus":"Stimuli_Rocks480/I_Gabbro_12.png","response":"l","trial_type":"image-keyboard-response","trial_index":223,"plugin_version":"2.1.0","time_elapsed":324255,"subject_id":"90888","group":"Group2","condition":"1_Rep","full_date":"2026-03-13T23:57:06.844Z","date":"2026-03-13","time":"23:57:06","cor_ans":true},{"trial_type":"html-keyboard-response","rt":null,"stimulus":"<p style=\"color: green; font-size: 50px; font-weight: bold;\">Correct</p>","response":null,"trial_index":224,"plugin_version":"2.1.0","time_elapsed":324757,"subject_id":"90888","group":"Group2","condition":"1_Rep","full_date":"2026-03-13T23:57:06.844Z","date":"2026-03-13","time":"23:57:06"},{"correct_response":"l","task":"test_phase","broad_category":"S","image_png":"S_San