[{"width":1324,"height":773,"webaudio":true,"browser":"safari","browser_version":"26.2.0","mobile":false,"os":"Mac OS","fullscreen":true,"vsync_rate":59.23,"webcam":true,"microphone":true,"trial_type":"browser-check","trial_index":0,"plugin_version":"2.1.0","time_elapsed":1022,"subject_id":"91589","group":"Group2","condition":"1_Rep","full_date":"2026-02-23T19:18:02.346Z","date":"2026-02-23","time":"19:18:02"},{"success":true,"timeout":false,"failed_images":[],"failed_audio":[],"failed_video":[],"trial_type":"preload","trial_index":1,"plugin_version":"2.1.0","time_elapsed":23311,"subject_id":"91589","group":"Group2","condition":"1_Rep","full_date":"2026-02-23T19:18:02.346Z","date":"2026-02-23","time":"19:18:02"},{"rt":11012,"url":"SONA_consent_memorability.html","trial_type":"external-html","trial_index":2,"plugin_version":"2.1.0","time_elapsed":34374,"subject_id":"91589","group":"Group2","condition":"1_Rep","full_date":"2026-02-23T19:18:02.346Z","date":"2026-02-23","time":"19:18:02"},{"success":true,"rt":1212,"trial_type":"fullscreen","trial_index":3,"plugin_version":"2.1.0","time_elapsed":36590,"subject_id":"91589","group":"Group2","condition":"1_Rep","full_date":"2026-02-23T19:18:02.346Z","date":"2026-02-23","time":"19:18:02"},{"rt":1730,"stimulus":"<div style=\"max-width: 760px; margin: auto; font-size: 20px; line-height: 1.5;\">\n      <h1 style=\"text-align:center; font-size: 30px;\">Instructions</h1>\n      <p>\n        Welcome to the study on <b>visual memory</b>. This experiment consists of <b>two phases</b>: \n        a <b>study phase</b> and a <b>test phase</b>.\n      </p>\n      <p>\n        In the study phase, you will see a series of rock images along with their category labels.\n        The images will appear one at a time.\n        <b>Your task</b> is to learn the categories to which the rock images belong \n        and to remember each image as accurately as possible.\n      </p> \n      <p>\n        Note that you will see each image only <b>once</b> during the study phase. \n          So, please pay close attention and try to remember each image carefully.\n      </p>\n      <p>\n        After the study phase, <b>your memory will be tested</b>. \n        Additional instructions for the test phase will be provided at that time.\n      </p>\n      <p>\n        If your computer has multiple <b>language settings</b> (e.g., English and another language),\n        please make sure it is set to English before starting.\n      </p>\n      <p>\n        You can track your progress using the <b>completion bar</b> at the top of the screen. \n        Please note that the bar will refresh when the test phase begins \n        to give you an accurate sense of your progress in both phases.\n      </p> \n      <p>\n        Press the button below when you are ready to begin.\n      </p>\n    </div>","response":0,"trial_type":"html-button-response","trial_index":4,"plugin_version":"2.1.0","time_elapsed":38323,"subject_id":"91589","group":"Group2","condition":"1_Rep","full_date":"2026-02-23T19:18:02.346Z","date":"2026-02-23","time":"19:18:02"},{"rt":null,"stimulus":"<p style=\"font-size: 50px; margin: 0; text-align: center;\">+</p>","response":null,"trial_type":"html-keyboard-response","trial_index":5,"plugin_version":"2.1.0","time_elapsed":39327,"subject_id":"91589","group":"Group2","condition":"1_Rep","full_date":"2026-02-23T19:18:02.346Z","date":"2026-02-23","time":"19:18:02"},{"task":"memory_phase","broad_category":"I","image_png":"I_Pumice_14.png","image_id":142,"category_name":"Pumice","category":9,"distinct_rating":3.22,"distinct_type":"Bottom","rt":null,"stimulus":"Stimuli_Rocks480/I_Pumice_14.png","response":null,"trial_type":"image-keyboard-response","trial_index":6,"plugin_version":"2.1.0","time_elapsed":41841,"subject_id":"91589","group":"Group2","condition":"1_Rep","full_date":"2026-02-23T19:18:02.346Z","date":"2026-02-23","time":"19:18:02"},{"rt":null,"stimulus":"<p style=\"font-size: 50px; margin: 0; text-align: center;\">+</p>","response":null,"trial_type":"html-keyboard-response","trial_index":7,"plugin_version":"2.1.0","time_elapsed":42843,"subject_id":"91589","group":"Group2","condition":"1_Rep","full_date":"2026-02-23T19:18:02.346Z","date":"2026-02-23","time":"19:18:02"},{"task":"memory_phase","broad_category":"S","image_png":"S_Shale_02.png","image_id":466,"category_name":"Shale","category":30,"distinct_rating":2.9,"distinct_type":"Bottom","rt":null,"stimulus":"Stimuli_Rocks480/S_Shale_02.png","response":null,"trial_type":"image-keyboard-response","trial_index":8,"plugin_version":"2.1.0","time_elapsed":45357,"subject_id":"91589","group":"Group2","condition":"1_Rep","full_date":"2026-02-23T19:18:02.346Z","date":"2026-02-23","time":"19:18:02"},{"rt":null,"stimulus":"<p style=\"font-size: 50px; margin: 0; text-align: center;\">+</p>","response":null,"trial_type":"html-keyboard-response","trial_index":9,"plugin_version":"2.1.0","time_elapsed":46359,"subject_id":"91589","group":"Group2","condition":"1_Rep","full_date":"2026-02-23T19:18:02.346Z","date":"2026-02-23","time":"19:18:02"},{"task":"memory_phase","broad_category":"I","image_png":"I_Rhyolite_05.png","image_id":149,"category_name":"Rhyolite","category":10,"distinct_rating":3.02,"distinct_type":"Bottom","rt":null,"stimulus":"Stimuli_Rocks480/I_Rhyolite_05.png","response":null,"trial_type":"image-keyboard-response","trial_index":10,"plugin_version":"2.1.0","time_elapsed":48874,"subject_id":"91589","group":"Group2","condition":"1_Rep","full_date":"2026-02-23T19:18:02.346Z","date":"2026-02-23","time":"19:18:02"},{"rt":null,"stimulus":"<p style=\"font-size: 50px; margin: 0; text-align: center;\">+</p>","response":null,"trial_type":"html-keyboard-response","trial_index":11,"plugin_version":"2.1.0","time_elapsed":49877,"subject_id":"91589","group":"Group2","condition":"1_Rep","full_date":"2026-02-23T19:18:02.346Z","date":"2026-02-23","time":"19:18:02"},{"task":"memory_phase","broad_category":"S","image_png":"S_Sandstone_11.png","image_id":459,"category_name":"Sandstone","category":29,"distinct_rating":1.82,"distinct_type":"Bottom","rt":null,"stimulus":"Stimuli_Rocks480/S_Sandstone_11.png","response":null,"trial_type":"image-keyboard-response","trial_index":12,"plugin_version":"2.1.0","time_elapsed":52394,"subject_id":"91589","group":"Group2","condition":"1_Rep","full_date":"2026-02-23T19:18:02.346Z","date":"2026-02-23","time":"19:18:02"},{"rt":null,"stimulus":"<p style=\"font-size: 50px; margin: 0; text-align: center;\">+</p>","response":null,"trial_type":"html-keyboard-response","trial_index":13,"plugin_version":"2.1.0","time_elapsed":53397,"subject_id":"91589","group":"Group2","condition":"1_Rep","full_date":"2026-02-23T19:18:02.346Z","date":"2026-02-23","time":"19:18:02"},{"task":"memory_phase","broad_category":"I","image_png":"I_Pegmatite_03.png","image_id":99,"category_name":"Pegmatite","category":7,"distinct_rating":7.24,"distinct_type":"Top","rt":null,"stimulus":"Stimuli_Rocks480/I_Pegmatite_03.png","response":null,"trial_type":"image-keyboard-response","trial_index":14,"plugin_version":"2.1.0","time_elapsed":55910,"subject_id":"91589","group":"Group2","condition":"1_Rep","full_date":"2026-02-23T19:18:02.346Z","date":"2026-02-23","time":"19:18:02"},{"rt":null,"stimulus":"<p style=\"font-size: 50px; margin: 0; text-align: center;\">+</p>","response":null,"trial_type":"html-keyboard-response","trial_index":15,"plugin_version":"2.1.0","time_elapsed":56913,"subject_id":"91589","group":"Group2","condition":"1_Rep","full_date":"2026-02-23T19:18:02.346Z","date":"2026-02-23","time":"19:18:02"},{"task":"memory_phase","broad_category":"I","image_png":"I_Pumice_13.png","image_id":141,"category_name":"Pumice","category":9,"distinct_rating":3.12,"distinct_type":"Bottom","rt":null,"stimulus":"Stimuli_Rocks480/I_Pumice_13.png","response":null,"trial_type":"image-keyboard-response","trial_index":16,"plugin_version":"2.1.0","time_elapsed":59428,"subject_id":"91589","group":"Group2","condition":"1_Rep","full_date":"2026-02-23T19:18:02.346Z","date":"2026-02-23","time":"19:18:02"},{"rt":null,"stimulus":"<p style=\"font-size: 50px; margin: 0; text-align: center;\">+</p>","response":null,"trial_type":"html-keyboard-response","trial_index":17,"plugin_version":"2.1.0","time_elapsed":60430,"subject_id":"91589","group":"Group2","condition":"1_Rep","full_date":"2026-02-23T19:18:02.346Z","date":"2026-02-23","time":"19:18:02"},{"task":"memory_phase","broad_category":"I","image_png":"I_Rhyolite_08.png","image_id":152,"category_name":"Rhyolite","category":10,"distinct_rating":1.38,"distinct_type":"Bottom","rt":null,"stimulus":"Stimuli_Rocks480/I_Rhyolite_08.png","response":null,"trial_type":"image-keyboard-response","trial_index":18,"plugin_version":"2.1.0","time_elapsed":62944,"subject_id":"91589","group":"Group2","condition":"1_Rep","full_date":"2026-02-23T19:18:02.346Z","date":"2026-02-23","time":"19:18:02"},{"rt":null,"stimulus":"<p style=\"font-size: 50px; margin: 0; text-align: center;\">+</p>","response":null,"trial_type":"html-keyboard-response","trial_index":19,"plugin_version":"2.1.0","time_elapsed":63946,"subject_id":"91589","group":"Group2","condition":"1_Rep","full_date":"2026-02-23T19:18:02.346Z","date":"2026-02-23","time":"19:18:02"},{"task":"memory_phase","broad_category":"M","image_png":"M_Slate_10.png","image_id":314,"category_name":"Slate","category":20,"distinct_rating":1.94,"distinct_type":"Bottom","rt":null,"stimulus":"Stimuli_Rocks480/M_Slate_10.png","response":null,"trial_type":"image-keyboard-response","trial_index":20,"plugin_version":"2.1.0","time_elapsed":66460,"subject_id":"91589","group":"Group2","condition":"1_Rep","full_date":"2026-02-23T19:18:02.346Z","date":"2026-02-23","time":"19:18:02"},{"rt":null,"stimulus":"<p style=\"font-size: 50px; margin: 0; text-align: center;\">+</p>","response":null,"trial_type":"html-keyboard-response","trial_index":21,"plugin_version":"2.1.0","time_elapsed":67462,"subject_id":"91589","group":"Group2","condition":"1_Rep","full_date":"2026-02-23T19:18:02.346Z","date":"2026-02-23","time":"19:18:02"},{"task":"memory_phase","broad_category":"I","image_png":"I_Basalt_13.png","image_id":29,"category_name":"Basalt","category":2,"distinct_rating":2.68,"distinct_type":"Bottom","rt":null,"stimulus":"Stimuli_Rocks480/I_Basalt_13.png","response":null,"trial_type":"image-keyboard-response","trial_index":22,"plugin_version":"2.1.0","time_elapsed":69975,"subject_id":"91589","group":"Group2","condition":"1_Rep","full_date":"2026-02-23T19:18:02.346Z","date":"2026-02-23","time":"19:18:02"},{"rt":null,"stimulus":"<p style=\"font-size: 50px; margin: 0; text-align: center;\">+</p>","response":null,"trial_type":"html-keyboard-response","trial_index":23,"plugin_version":"2.1.0","time_elapsed":70978,"subject_id":"91589","group":"Group2","condition":"1_Rep","full_date":"2026-02-23T19:18:02.346Z","date":"2026-02-23","time":"19:18:02"},{"task":"memory_phase","broad_category":"M","image_png":"M_Phyllite_05.png","image_id":261,"category_name":"Phyllite","category":17,"distinct_rating":2.14,"distinct_type":"Bottom","rt":null,"stimulus":"Stimuli_Rocks480/M_Phyllite_05.png","response":null,"trial_type":"image-keyboard-response","trial_index":24,"plugin_version":"2.1.0","time_elapsed":73490,"subject_id":"91589","group":"Group2","condition":"1_Rep","full_date":"2026-02-23T19:18:02.346Z","date":"2026-02-23","time":"19:18:02"},{"rt":null,"stimulus":"<p style=\"font-size: 50px; margin: 0; text-align: center;\">+</p>","response":null,"trial_type":"html-keyboard-response","trial_index":25,"plugin_version":"2.1.0","time_elapsed":74492,"subject_id":"91589","group":"Group2","condition":"1_Rep","full_date":"2026-02-23T19:18:02.346Z","date":"2026-02-23","time":"19:18:02"},{"task":"memory_phase","broad_category":"I","image_png":"I_Basalt_10.png","image_id":26,"category_name":"Basalt","category":2,"distinct_rating":2.76,"distinct_type":"Bottom","rt":null,"stimulus":"Stimuli_Rocks480/I_Basalt_10.png","response":null,"trial_type":"image-keyboard-response","trial_index":26,"plugin_version":"2.1.0","time_elapsed":77006,"subject_id":"91589","group":"Group2","condition":"1_Rep","full_date":"2026-02-23T19:18:02.346Z","date":"2026-02-23","time":"19:18:02"},{"rt":null,"stimulus":"<p style=\"font-size: 50px; margin: 0; text-align: center;\">+</p>","response":null,"trial_type":"html-keyboard-response","trial_index":27,"plugin_version":"2.1.0","time_elapsed":78008,"subject_id":"91589","group":"Group2","condition":"1_Rep","full_date":"2026-02-23T19:18:02.346Z","date":"2026-02-23","time":"19:18:02"},{"task":"memory_phase","broad_category":"S","image_png":"S_Conglomerate_14.png","image_id":382,"category_name":"Conglomerate","category":24,"distinct_rating":6.86,"distinct_type":"Top","rt":null,"stimulus":"Stimuli_Rocks480/S_Conglomerate_14.png","response":null,"trial_type":"image-keyboard-response","trial_index":28,"plugin_version":"2.1.0","time_elapsed":80524,"subject_id":"91589","group":"Group2","condition":"1_Rep","full_date":"2026-02-23T19:18:02.346Z","date":"2026-02-23","time":"19:18:02"},{"rt":null,"stimulus":"<p style=\"font-size: 50px; margin: 0; text-align: center;\">+</p>","response":null,"trial_type":"html-keyboard-response","trial_index":29,"plugin_version":"2.1.0","time_elapsed":81526,"subject_id":"91589","group":"Group2","condition":"1_Rep","full_date":"2026-02-23T19:18:02.346Z","date":"2026-02-23","time":"19:18:02"},{"task":"memory_phase","broad_category":"S","image_png":"S_Shale_07.png","image_id":471,"category_name":"Shale","category":30,"distinct_rating":2.73,"distinct_type":"Bottom","rt":null,"stimulus":"Stimuli_Rocks480/S_Shale_07.png","response":null,"trial_type":"image-keyboard-response","trial_index":30,"plugin_version":"2.1.0","time_elapsed":84039,"subject_id":"91589","group":"Group2","condition":"1_Rep","full_date":"2026-02-23T19:18:02.346Z","date":"2026-02-23","time":"19:18:02"},{"rt":null,"stimulus":"<p style=\"font-size: 50px; margin: 0; text-align: center;\">+</p>","response":null,"trial_type":"html-keyboard-response","trial_index":31,"plugin_version":"2.1.0","time_elapsed":85041,"subject_id":"91589","group":"Group2","condition":"1_Rep","full_date":"2026-02-23T19:18:02.346Z","date":"2026-02-23","time":"19:18:02"},{"task":"memory_phase","broad_category":"I","image_png":"I_Gabbro_14.png","image_id":62,"category_name":"Gabbro","category":4,"distinct_rating":2.95,"distinct_type":"Bottom","rt":null,"stimulus":"Stimuli_Rocks480/I_Gabbro_14.png","response":null,"trial_type":"image-keyboard-response","trial_index":32,"plugin_version":"2.1.0","time_elapsed":87558,"subject_id":"91589","group":"Group2","condition":"1_Rep","full_date":"2026-02-23T19:18:02.346Z","date":"2026-02-23","time":"19:18:02"},{"rt":null,"stimulus":"<p style=\"font-size: 50px; margin: 0; text-align: center;\">+</p>","response":null,"trial_type":"html-keyboard-response","trial_index":33,"plugin_version":"2.1.0","time_elapsed":88561,"subject_id":"91589","group":"Group2","condition":"1_Rep","full_date":"2026-02-23T19:18:02.346Z","date":"2026-02-23","time":"19:18:02"},{"task":"memory_phase","broad_category":"M","image_png":"M_Quartzite_07.png","image_id":279,"category_name":"Quartzite","category":18,"distinct_rating":1.97,"distinct_type":"Bottom","rt":null,"stimulus":"Stimuli_Rocks480/M_Quartzite_07.png","response":null,"trial_type":"image-keyboard-response","trial_index":34,"plugin_version":"2.1.0","time_elapsed":91079,"subject_id":"91589","group":"Group2","condition":"1_Rep","full_date":"2026-02-23T19:18:02.346Z","date":"2026-02-23","time":"19:18:02"},{"rt":null,"stimulus":"<p style=\"font-size: 50px; margin: 0; text-align: center;\">+</p>","response":null,"trial_type":"html-keyboard-response","trial_index":35,"plugin_version":"2.1.0","time_elapsed":92080,"subject_id":"91589","group":"Group2","condition":"1_Rep","full_date":"2026-02-23T19:18:02.346Z","date":"2026-02-23","time":"19:18:02"},{"task":"memory_phase","broad_category":"M","image_png":"M_Marble_03.png","image_id":227,"category_name":"Marble","category":15,"distinct_rating":2.67,"distinct_type":"Bottom","rt":null,"stimulus":"Stimuli_Rocks480/M_Marble_03.png","response":null,"trial_type":"image-keyboard-response","trial_index":36,"plugin_version":"2.1.0","time_elapsed":94594,"subject_id":"91589","group":"Group2","condition":"1_Rep","full_date":"2026-02-23T19:18:02.346Z","date":"2026-02-23","time":"19:18:02"},{"rt":null,"stimulus":"<p style=\"font-size: 50px; margin: 0; text-align: center;\">+</p>","response":null,"trial_type":"html-keyboard-response","trial_index":37,"plugin_version":"2.1.0","time_elapsed":95597,"subject_id":"91589","group":"Group2","condition":"1_Rep","full_date":"2026-02-23T19:18:02.346Z","date":"2026-02-23","time":"19:18:02"},{"task":"memory_phase","broad_category":"I","image_png":"I_Gabbro_12.png","image_id":60,"category_name":"Gabbro","category":4,"distinct_rating":2.6,"distinct_type":"Bottom","rt":null,"stimulus":"Stimuli_Rocks480/I_Gabbro_12.png","response":null,"trial_type":"image-keyboard-response","trial_index":38,"plugin_version":"2.1.0","time_elapsed":98114,"subject_id":"91589","group":"Group2","condition":"1_Rep","full_date":"2026-02-23T19:18:02.346Z","date":"2026-02-23","time":"19:18:02"},{"rt":null,"stimulus":"<p style=\"font-size: 50px; margin: 0; text-align: center;\">+</p>","response":null,"trial_type":"html-keyboard-response","trial_index":39,"plugin_version":"2.1.0","time_elapsed":99116,"subject_id":"91589","group":"Group2","condition":"1_Rep","full_date":"2026-02-23T19:18:02.346Z","date":"2026-02-23","time":"19:18:02"},{"task":"memory_phase","broad_category":"M","image_png":"M_Marble_14.png","image_id":238,"category_name":"Marble","category":15,"distinct_rating":3.31,"distinct_type":"Bottom","rt":null,"stimulus":"Stimuli_Rocks480/M_Marble_14.png","response":null,"trial_type":"image-keyboard-response","trial_index":40,"plugin_version":"2.1.0","time_elapsed":101631,"subject_id":"91589","group":"Group2","condition":"1_Rep","full_date":"2026-02-23T19:18:02.346Z","date":"2026-02-23","time":"19:18:02"},{"rt":null,"stimulus":"<p style=\"font-size: 50px; margin: 0; text-align: center;\">+</p>","response":null,"trial_type":"html-keyboard-response","trial_index":41,"plugin_version":"2.1.0","time_elapsed":102633,"subject_id":"91589","group":"Group2","condition":"1_Rep","full_date":"2026-02-23T19:18:02.346Z","date":"2026-02-23","time":"19:18:02"},{"task":"memory_phase","broad_category":"I","image_png":"I_Diorite_10.png","image_id":42,"category_name":"Diorite","category":3,"distinct_rating":2.84,"distinct_type":"Bottom","rt":null,"stimulus":"Stimuli_Rocks480/I_Diorite_10.png","response":null,"trial_type":"image-keyboard-response","trial_index":42,"plugin_version":"2.1.0","time_elapsed":105148,"subject_id":"91589","group":"Group2","condition":"1_Rep","full_date":"2026-02-23T19:18:02.346Z","date":"2026-02-23","time":"19:18:02"},{"rt":null,"stimulus":"<p style=\"font-size: 50px; margin: 0; text-align: center;\">+</p>","response":null,"trial_type":"html-keyboard-response","trial_index":43,"plugin_version":"2.1.0","time_elapsed":106150,"subject_id":"91589","group":"Group2","condition":"1_Rep","full_date":"2026-02-23T19:18:02.346Z","date":"2026-02-23","time":"19:18:02"},{"task":"memory_phase","broad_category":"M","image_png":"M_Gneiss_14.png","image_id":206,"category_name":"Gneiss","category":13,"distinct_rating":3.41,"distinct_type":"Bottom","rt":null,"stimulus":"Stimuli_Rocks480/M_Gneiss_14.png","response":null,"trial_type":"image-keyboard-response","trial_index":44,"plugin_version":"2.1.0","time_elapsed":108665,"subject_id":"91589","group":"Group2","condition":"1_Rep","full_date":"2026-02-23T19:18:02.346Z","date":"2026-02-23","time":"19:18:02"},{"rt":null,"stimulus":"<p style=\"font-size: 50px; margin: 0; text-align: center;\">+</p>","response":null,"trial_type":"html-keyboard-response","trial_index":45,"plugin_version":"2.1.0","time_elapsed":109667,"subject_id":"91589","group":"Group2","condition":"1_Rep","full_date":"2026-02-23T19:18:02.346Z","date":"2026-02-23","time":"19:18:02"},{"task":"memory_phase","broad_category":"M","image_png":"M_Slate_04.png","image_id":308,"category_name":"Slate","category":20,"distinct_rating":2.2,"distinct_type":"Bottom","rt":null,"stimulus":"Stimuli_Rocks480/M_Slate_04.png","response":null,"trial_type":"image-keyboard-response","trial_index":46,"plugin_version":"2.1.0","time_elapsed":112179,"subject_id":"91589","group":"Group2","condition":"1_Rep","full_date":"2026-02-23T19:18:02.346Z","date":"2026-02-23","time":"19:18:02"},{"rt":null,"stimulus":"<p style=\"font-size: 50px; margin: 0; text-align: center;\">+</p>","response":null,"trial_type":"html-keyboard-response","trial_index":47,"plugin_version":"2.1.0","time_elapsed":113181,"subject_id":"91589","group":"Group2","condition":"1_Rep","full_date":"2026-02-23T19:18:02.346Z","date":"2026-02-23","time":"19:18:02"},{"task":"memory_phase","broad_category":"I","image_png":"I_Basalt_08.png","image_id":24,"category_name":"Basalt","category":2,"distinct_rating":2.31,"distinct_type":"Bottom","rt":null,"stimulus":"Stimuli_Rocks480/I_Basalt_08.png","response":null,"trial_type":"image-keyboard-response","trial_index":48,"plugin_version":"2.1.0","time_elapsed":115703,"subject_id":"91589","group":"Group2","condition":"1_Rep","full_date":"2026-02-23T19:18:02.346Z","date":"2026-02-23","time":"19:18:02"},{"rt":null,"stimulus":"<p style=\"font-size: 50px; margin: 0; text-align: center;\">+</p>","response":null,"trial_type":"html-keyboard-response","trial_index":49,"plugin_version":"2.1.0","time_elapsed":116705,"subject_id":"91589","group":"Group2","condition":"1_Rep","full_date":"2026-02-23T19:18:02.346Z","date":"2026-02-23","time":"19:18:02"},{"task":"memory_phase","broad_category":"I","image_png":"I_Diorite_01.png","image_id":33,"category_name":"Diorite","category":3,"distinct_rating":2.97,"distinct_type":"Bottom","rt":null,"stimulus":"Stimuli_Rocks480/I_Diorite_01.png","response":null,"trial_type":"image-keyboard-response","trial_index":50,"plugin_version":"2.1.0","time_elapsed":119224,"subject_id":"91589","group":"Group2","condition":"1_Rep","full_date":"2026-02-23T19:18:02.346Z","date":"2026-02-23","time":"19:18:02"},{"rt":null,"stimulus":"<p style=\"font-size: 50px; margin: 0; text-align: center;\">+</p>","response":null,"trial_type":"html-keyboard-response","trial_index":51,"plugin_version":"2.1.0","time_elapsed":120225,"subject_id":"91589","group":"Group2","condition":"1_Rep","full_date":"2026-02-23T19:18:02.346Z","date":"2026-02-23","time":"19:18:02"},{"task":"memory_phase","broad_category":"M","image_png":"M_Quartzite_15.png","image_id":287,"category_name":"Quartzite","category":18,"distinct_rating":2.19,"distinct_type":"Bottom","rt":null,"stimulus":"Stimuli_Rocks480/M_Quartzite_15.png","response":null,"trial_type":"image-keyboard-response","trial_index":52,"plugin_version":"2.1.0","time_elapsed":122742,"subject_id":"91589","group":"Group2","condition":"1_Rep","full_date":"2026-02-23T19:18:02.346Z","date":"2026-02-23","time":"19:18:02"},{"rt":null,"stimulus":"<p style=\"font-size: 50px; margin: 0; text-align: center;\">+</p>","response":null,"trial_type":"html-keyboard-response","trial_index":53,"plugin_version":"2.1.0","time_elapsed":123745,"subject_id":"91589","group":"Group2","condition":"1_Rep","full_date":"2026-02-23T19:18:02.346Z","date":"2026-02-23","time":"19:18:02"},{"task":"memory_phase","broad_category":"I","image_png":"I_Andesite_09.png","image_id":9,"category_name":"Andesite","category":1,"distinct_rating":2.49,"distinct_type":"Bottom","rt":null,"stimulus":"Stimuli_Rocks480/I_Andesite_09.png","response":null,"trial_type":"image-keyboard-response","trial_index":54,"plugin_version":"2.1.0","time_elapsed":126261,"subject_id":"91589","group":"Group2","condition":"1_Rep","full_date":"2026-02-23T19:18:02.346Z","date":"2026-02-23","time":"19:18:02"},{"rt":1766,"stimulus":"<p style=\"max-width: 760px; margin: auto; font-size: 35px; line-height: 1.5;\">\n                Press SPACE to continue study phase\n              </p>","response":" ","trial_type":"html-keyboard-response","trial_index":55,"plugin_version":"2.1.0","time_elapsed":128029,"subject_id":"91589","group":"Group2","condition":"1_Rep","full_date":"2026-02-23T19:18:02.346Z","date":"2026-02-23","time":"19:18:02"},{"rt":null,"stimulus":"<p style=\"font-size: 50px; margin: 0; text-align: center;\">+</p>","response":null,"trial_type":"html-keyboard-response","trial_index":56,"plugin_version":"2.1.0","time_elapsed":129031,"subject_id":"91589","group":"Group2","condition":"1_Rep","full_date":"2026-02-23T19:18:02.346Z","date":"2026-02-23","time":"19:18:02"},{"task":"memory_phase","broad_category":"M","image_png":"M_Slate_14.png","image_id":318,"category_name":"Slate","category":20,"distinct_rating":2.58,"distinct_type":"Bottom","rt":null,"stimulus":"Stimuli_Rocks480/M_Slate_14.png","response":null,"trial_type":"image-keyboard-response","trial_index":57,"plugin_version":"2.1.0","time_elapsed":131541,"subject_id":"91589","group":"Group2","condition":"1_Rep","full_date":"2026-02-23T19:18:02.346Z","date":"2026-02-23","time":"19:18:02"},{"rt":null,"stimulus":"<p style=\"font-size: 50px; margin: 0; text-align: center;\">+</p>","response":null,"trial_type":"html-keyboard-response","trial_index":58,"plugin_version":"2.1.0","time_elapsed":132543,"subject_id":"91589","group":"Group2","condition":"1_Rep","full_date":"2026-02-23T19:18:02.346Z","date":"2026-02-23","time":"19:18:02"},{"task":"memory_phase","broad_category":"I","image_png":"I_Andesite_04.png","image_id":4,"category_name":"Andesite","category":1,"distinct_rating":3.18,"distinct_type":"Bottom","rt":null,"stimulus":"Stimuli_Rocks480/I_Andesite_04.png","response":null,"trial_type":"image-keyboard-response","trial_index":59,"plugin_version":"2.1.0","time_elapsed":135058,"subject_id":"91589","group":"Group2","condition":"1_Rep","full_date":"2026-02-23T19:18:02.346Z","date":"2026-02-23","time":"19:18:02"},{"rt":null,"stimulus":"<p style=\"font-size: 50px; margin: 0; text-align: center;\">+</p>","response":null,"trial_type":"html-keyboard-response","trial_index":60,"plugin_version":"2.1.0","time_elapsed":136060,"subject_id":"91589","group":"Group2","condition":"1_Rep","full_date":"2026-02-23T19:18:02.346Z","date":"2026-02-23","time":"19:18:02"},{"task":"memory_phase","broad_category":"M","image_png":"M_Phyllite_13.png","image_id":269,"category_name":"Phyllite","category":17,"distinct_rating":2.8,"distinct_type":"Bottom","rt":null,"stimulus":"Stimuli_Rocks480/M_Phyllite_13.png","response":null,"trial_type":"image-keyboard-response","trial_index":61,"plugin_version":"2.1.0","time_elapsed":138573,"subject_id":"91589","group":"Group2","condition":"1_Rep","full_date":"2026-02-23T19:18:02.346Z","date":"2026-02-23","time":"19:18:02"},{"rt":null,"stimulus":"<p style=\"font-size: 50px; margin: 0; text-align: center;\">+</p>","response":null,"trial_type":"html-keyboard-response","trial_index":62,"plugin_version":"2.1.0","time_elapsed":139576,"subject_id":"91589","group":"Group2","condition":"1_Rep","full_date":"2026-02-23T19:18:02.346Z","date":"2026-02-23","time":"19:18:02"},{"task":"memory_phase","broad_category":"S","image_png":"S_Rock Salt_15.png","image_id":447,"category_name":"Rock Salt","category":28,"distinct_rating":7.79,"distinct_type":"Top","rt":null,"stimulus":"Stimuli_Rocks480/S_Rock Salt_15.png","response":null,"trial_type":"image-keyboard-response","trial_index":63,"plugin_version":"2.1.0","time_elapsed":142089,"subject_id":"91589","group":"Group2","condition":"1_Rep","full_date":"2026-02-23T19:18:02.346Z","date":"2026-02-23","time":"19:18:02"},{"rt":null,"stimulus":"<p style=\"font-size: 50px; margin: 0; text-align: center;\">+</p>","response":null,"trial_type":"html-keyboard-response","trial_index":64,"plugin_version":"2.1.0","time_elapsed":143091,"subject_id":"91589","group":"Group2","condition":"1_Rep","full_date":"2026-02-23T19:18:02.346Z","date":"2026-02-23","time":"19:18:02"},{"task":"memory_phase","broad_category":"I","image_png":"I_Peridotite_13.png","image_id":125,"category_name":"Peridotite","category":8,"distinct_rating":7.28,"distinct_type":"Top","rt":null,"stimulus":"Stimuli_Rocks480/I_Peridotite_13.png","response":null,"trial_type":"image-keyboard-response","trial_index":65,"plugin_version":"2.1.0","time_elapsed":145609,"subject_id":"91589","group":"Group2","condition":"1_Rep","full_date":"2026-02-23T19:18:02.346Z","date":"2026-02-23","time":"19:18:02"},{"rt":null,"stimulus":"<p style=\"font-size: 50px; margin: 0; text-align: center;\">+</p>","response":null,"trial_type":"html-keyboard-response","trial_index":66,"plugin_version":"2.1.0","time_elapsed":146611,"subject_id":"91589","group":"Group2","condition":"1_Rep","full_date":"2026-02-23T19:18:02.346Z","date":"2026-02-23","time":"19:18:02"},{"task":"memory_phase","broad_category":"S","image_png":"S_Shale_03.png","image_id":467,"category_name":"Shale","category":30,"distinct_rating":1.95,"distinct_type":"Bottom","rt":null,"stimulus":"Stimuli_Rocks480/S_Shale_03.png","response":null,"trial_type":"image-keyboard-response","trial_index":67,"plugin_version":"2.1.0","time_elapsed":149127,"subject_id":"91589","group":"Group2","condition":"1_Rep","full_date":"2026-02-23T19:18:02.346Z","date":"2026-02-23","time":"19:18:02"},{"rt":null,"stimulus":"<p style=\"font-size: 50px; margin: 0; text-align: center;\">+</p>","response":null,"trial_type":"html-keyboard-response","trial_index":68,"plugin_version":"2.1.0","time_elapsed":150130,"subject_id":"91589","group":"Group2","condition":"1_Rep","full_date":"2026-02-23T19:18:02.346Z","date":"2026-02-23","time":"19:18:02"},{"task":"memory_phase","broad_category":"I","image_png":"I_Diorite_15.png","image_id":47,"category_name":"Diorite","category":3,"distinct_rating":3.05,"distinct_type":"Bottom","rt":null,"stimulus":"Stimuli_Rocks480/I_Diorite_15.png","response":null,"trial_type":"image-keyboard-response","trial_index":69,"plugin_version":"2.1.0","time_elapsed":152643,"subject_id":"91589","group":"Group2","condition":"1_Rep","full_date":"2026-02-23T19:18:02.346Z","date":"2026-02-23","time":"19:18:02"},{"rt":null,"stimulus":"<p style=\"font-size: 50px; margin: 0; text-align: center;\">+</p>","response":null,"trial_type":"html-keyboard-response","trial_index":70,"plugin_version":"2.1.0","time_elapsed":153645,"subject_id":"91589","group":"Group2","condition":"1_Rep","full_date":"2026-02-23T19:18:02.346Z","date":"2026-02-23","time":"19:18:02"},{"task":"memory_phase","broad_category":"S","image_png":"S_Dolomite_01.png","image_id":385,"category_name":"Dolomite","category":25,"distinct_rating":1.43,"distinct_type":"Bottom","rt":null,"stimulus":"Stimuli_Rocks480/S_Dolomite_01.png","response":null,"trial_type":"image-keyboard-response","trial_index":71,"plugin_version":"2.1.0","time_elapsed":156163,"subject_id":"91589","group":"Group2","condition":"1_Rep","full_date":"2026-02-23T19:18:02.346Z","date":"2026-02-23","time":"19:18:02"},{"rt":null,"stimulus":"<p style=\"font-size: 50px; margin: 0; text-align: center;\">+</p>","response":null,"trial_type":"html-keyboard-response","trial_index":72,"plugin_version":"2.1.0","time_elapsed":157165,"subject_id":"91589","group":"Group2","condition":"1_Rep","full_date":"2026-02-23T19:18:02.346Z","date":"2026-02-23","time":"19:18:02"},{"task":"memory_phase","broad_category":"S","image_png":"S_Rock Salt_13.png","image_id":445,"category_name":"Rock Salt","category":28,"distinct_rating":7.58,"distinct_type":"Top","rt":null,"stimulus":"Stimuli_Rocks480/S_Rock Salt_13.png","response":null,"trial_type":"image-keyboard-response","trial_index":73,"plugin_version":"2.1.0","time_elapsed":159683,"subject_id":"91589","group":"Group2","condition":"1_Rep","full_date":"2026-02-23T19:18:02.346Z","date":"2026-02-23","time":"19:18:02"},{"rt":null,"stimulus":"<p style=\"font-size: 50px; margin: 0; text-align: center;\">+</p>","response":null,"trial_type":"html-keyboard-response","trial_index":74,"plugin_version":"2.1.0","time_elapsed":160685,"subject_id":"91589","group":"Group2","condition":"1_Rep","full_date":"2026-02-23T19:18:02.346Z","date":"2026-02-23","time":"19:18:02"},{"task":"memory_phase","broad_category":"S","image_png":"S_Sandstone_08.png","image_id":456,"category_name":"Sandstone","category":29,"distinct_rating":1.5,"distinct_type":"Bottom","rt":null,"stimulus":"Stimuli_Rocks480/S_Sandstone_08.png","response":null,"trial_type":"image-keyboard-response","trial_index":75,"plugin_version":"2.1.0","time_elapsed":163199,"subject_id":"91589","group":"Group2","condition":"1_Rep","full_date":"2026-02-23T19:18:02.346Z","date":"2026-02-23","time":"19:18:02"},{"rt":null,"stimulus":"<p style=\"font-size: 50px; margin: 0; text-align: center;\">+</p>","response":null,"trial_type":"html-keyboard-response","trial_index":76,"plugin_version":"2.1.0","time_elapsed":164201,"subject_id":"91589","group":"Group2","condition":"1_Rep","full_date":"2026-02-23T19:18:02.346Z","date":"2026-02-23","time":"19:18:02"},{"task":"memory_phase","broad_category":"I","image_png":"I_Pumice_01.png","image_id":129,"category_name":"Pumice","category":9,"distinct_rating":3.25,"distinct_type":"Bottom","rt":null,"stimulus":"Stimuli_Rocks480/I_Pumice_01.png","response":null,"trial_type":"image-keyboard-response","trial_index":77,"plugin_version":"2.1.0","time_elapsed":166716,"subject_id":"91589","group":"Group2","condition":"1_Rep","full_date":"2026-02-23T19:18:02.346Z","date":"2026-02-23","time":"19:18:02"},{"rt":null,"stimulus":"<p style=\"font-size: 50px; margin: 0; text-align: center;\">+</p>","response":null,"trial_type":"html-keyboard-response","trial_index":78,"plugin_version":"2.1.0","time_elapsed":167718,"subject_id":"91589","group":"Group2","condition":"1_Rep","full_date":"2026-02-23T19:18:02.346Z","date":"2026-02-23","time":"19:18:02"},{"task":"memory_phase","broad_category":"I","image_png":"I_Obsidian_06.png","image_id":86,"category_name":"Obsidian","category":6,"distinct_rating":8.01,"distinct_type":"Top","rt":null,"stimulus":"Stimuli_Rocks480/I_Obsidian_06.png","response":null,"trial_type":"image-keyboard-response","trial_index":79,"plugin_version":"2.1.0","time_elapsed":170235,"subject_id":"91589","group":"Group2","condition":"1_Rep","full_date":"2026-02-23T19:18:02.346Z","date":"2026-02-23","time":"19:18:02"},{"rt":null,"stimulus":"<p style=\"font-size: 50px; margin: 0; text-align: center;\">+</p>","response":null,"trial_type":"html-keyboard-response","trial_index":80,"plugin_version":"2.1.0","time_elapsed":171236,"subject_id":"91589","group":"Group2","condition":"1_Rep","full_date":"2026-02-23T19:18:02.346Z","date":"2026-02-23","time":"19:18:02"},{"task":"memory_phase","broad_category":"S","image_png":"S_Chert_13.png","image_id":365,"category_name":"Chert","category":23,"distinct_rating":6.57,"distinct_type":"Top","rt":null,"stimulus":"Stimuli_Rocks480/S_Chert_13.png","response":null,"trial_type":"image-keyboard-response","trial_index":81,"plugin_version":"2.1.0","time_elapsed":173747,"subject_id":"91589","group":"Group2","condition":"1_Rep","full_date":"2026-02-23T19:18:02.346Z","date":"2026-02-23","time":"19:18:02"},{"rt":null,"stimulus":"<p style=\"font-size: 50px; margin: 0; text-align: center;\">+</p>","response":null,"trial_type":"html-keyboard-response","trial_index":82,"plugin_version":"2.1.0","time_elapsed":174749,"subject_id":"91589","group":"Group2","condition":"1_Rep","full_date":"2026-02-23T19:18:02.346Z","date":"2026-02-23","time":"19:18:02"},{"task":"memory_phase","broad_category":"I","image_png":"I_Gabbro_02.png","image_id":50,"category_name":"Gabbro","category":4,"distinct_rating":2.73,"distinct_type":"Bottom","rt":null,"stimulus":"Stimuli_Rocks480/I_Gabbro_02.png","response":null,"trial_type":"image-keyboard-response","trial_index":83,"plugin_version":"2.1.0","time_elapsed":177262,"subject_id":"91589","group":"Group2","condition":"1_Rep","full_date":"2026-02-23T19:18:02.346Z","date":"2026-02-23","time":"19:18:02"},{"rt":null,"stimulus":"<p style=\"font-size: 50px; margin: 0; text-align: center;\">+</p>","response":null,"trial_type":"html-keyboard-response","trial_index":84,"plugin_version":"2.1.0","time_elapsed":178264,"subject_id":"91589","group":"Group2","condition":"1_Rep","full_date":"2026-02-23T19:18:02.346Z","date":"2026-02-23","time":"19:18:02"},{"task":"memory_phase","broad_category":"M","image_png":"M_Phyllite_02.png","image_id":258,"category_name":"Phyllite","category":17,"distinct_rating":2.89,"distinct_type":"Bottom","rt":null,"stimulus":"Stimuli_Rocks480/M_Phyllite_02.png","response":null,"trial_type":"image-keyboard-response","trial_index":85,"plugin_version":"2.1.0","time_elapsed":180780,"subject_id":"91589","group":"Group2","condition":"1_Rep","full_date":"2026-02-23T19:18:02.346Z","date":"2026-02-23","time":"19:18:02"},{"rt":null,"stimulus":"<p style=\"font-size: 50px; margin: 0; text-align: center;\">+</p>","response":null,"trial_type":"html-keyboard-response","trial_index":86,"plugin_version":"2.1.0","time_elapsed":181782,"subject_id":"91589","group":"Group2","condition":"1_Rep","full_date":"2026-02-23T19:18:02.346Z","date":"2026-02-23","time":"19:18:02"},{"task":"memory_phase","broad_category":"S","image_png":"S_Dolomite_07.png","image_id":391,"category_name":"Dolomite","category":25,"distinct_rating":1.73,"distinct_type":"Bottom","rt":null,"stimulus":"Stimuli_Rocks480/S_Dolomite_07.png","response":null,"trial_type":"image-keyboard-response","trial_index":87,"plugin_version":"2.1.0","time_elapsed":184297,"subject_id":"91589","group":"Group2","condition":"1_Rep","full_date":"2026-02-23T19:18:02.346Z","date":"2026-02-23","time":"19:18:02"},{"rt":null,"stimulus":"<p style=\"font-size: 50px; margin: 0; text-align: center;\">+</p>","response":null,"trial_type":"html-keyboard-response","trial_index":88,"plugin_version":"2.1.0","time_elapsed":185300,"subject_id":"91589","group":"Group2","condition":"1_Rep","full_date":"2026-02-23T19:18:02.346Z","date":"2026-02-23","time":"19:18:02"},{"task":"memory_phase","broad_category":"S","image_png":"S_Sandstone_04.png","image_id":452,"category_name":"Sandstone","category":29,"distinct_rating":1.8,"distinct_type":"Bottom","rt":null,"stimulus":"Stimuli_Rocks480/S_Sandstone_04.png","response":null,"trial_type":"image-keyboard-response","trial_index":89,"plugin_version":"2.1.0","time_elapsed":187816,"subject_id":"91589","group":"Group2","condition":"1_Rep","full_date":"2026-02-23T19:18:02.346Z","date":"2026-02-23","time":"19:18:02"},{"rt":null,"stimulus":"<p style=\"font-size: 50px; margin: 0; text-align: center;\">+</p>","response":null,"trial_type":"html-keyboard-response","trial_index":90,"plugin_version":"2.1.0","time_elapsed":188818,"subject_id":"91589","group":"Group2","condition":"1_Rep","full_date":"2026-02-23T19:18:02.346Z","date":"2026-02-23","time":"19:18:02"},{"task":"memory_phase","broad_category":"S","image_png":"S_Dolomite_16.png","image_id":400,"category_name":"Dolomite","category":25,"distinct_rating":1.71,"distinct_type":"Bottom","rt":null,"stimulus":"Stimuli_Rocks480/S_Dolomite_16.png","response":null,"trial_type":"image-keyboard-response","trial_index":91,"plugin_version":"2.1.0","time_elapsed":191331,"subject_id":"91589","group":"Group2","condition":"1_Rep","full_date":"2026-02-23T19:18:02.346Z","date":"2026-02-23","time":"19:18:02"},{"rt":null,"stimulus":"<p style=\"font-size: 50px; margin: 0; text-align: center;\">+</p>","response":null,"trial_type":"html-keyboard-response","trial_index":92,"plugin_version":"2.1.0","time_elapsed":192333,"subject_id":"91589","group":"Group2","condition":"1_Rep","full_date":"2026-02-23T19:18:02.346Z","date":"2026-02-23","time":"19:18:02"},{"task":"memory_phase","broad_category":"I","image_png":"I_Rhyolite_10.png","image_id":154,"category_name":"Rhyolite","category":10,"distinct_rating":2.88,"distinct_type":"Bottom","rt":null,"stimulus":"Stimuli_Rocks480/I_Rhyolite_10.png","response":null,"trial_type":"image-keyboard-response","trial_index":93,"plugin_version":"2.1.0","time_elapsed":194854,"subject_id":"91589","group":"Group2","condition":"1_Rep","full_date":"2026-02-23T19:18:02.346Z","date":"2026-02-23","time":"19:18:02"},{"rt":null,"stimulus":"<p style=\"font-size: 50px; margin: 0; text-align: center;\">+</p>","response":null,"trial_type":"html-keyboard-response","trial_index":94,"plugin_version":"2.1.0","time_elapsed":195856,"subject_id":"91589","group":"Group2","condition":"1_Rep","full_date":"2026-02-23T19:18:02.346Z","date":"2026-02-23","time":"19:18:02"},{"task":"memory_phase","broad_category":"M","image_png":"M_Quartzite_12.png","image_id":284,"category_name":"Quartzite","category":18,"distinct_rating":1.92,"distinct_type":"Bottom","rt":null,"stimulus":"Stimuli_Rocks480/M_Quartzite_12.png","response":null,"trial_type":"image-keyboard-response","trial_index":95,"plugin_version":"2.1.0","time_elapsed":198369,"subject_id":"91589","group":"Group2","condition":"1_Rep","full_date":"2026-02-23T19:18:02.346Z","date":"2026-02-23","time":"19:18:02"},{"rt":null,"stimulus":"<p style=\"font-size: 50px; margin: 0; text-align: center;\">+</p>","response":null,"trial_type":"html-keyboard-response","trial_index":96,"plugin_version":"2.1.0","time_elapsed":199371,"subject_id":"91589","group":"Group2","condition":"1_Rep","full_date":"2026-02-23T19:18:02.346Z","date":"2026-02-23","time":"19:18:02"},{"task":"memory_phase","broad_category":"M","image_png":"M_Gneiss_10.png","image_id":202,"category_name":"Gneiss","category":13,"distinct_rating":3.09,"distinct_type":"Bottom","rt":null,"stimulus":"Stimuli_Rocks480/M_Gneiss_10.png","response":null,"trial_type":"image-keyboard-response","trial_index":97,"plugin_version":"2.1.0","time_elapsed":201891,"subject_id":"91589","group":"Group2","condition":"1_Rep","full_date":"2026-02-23T19:18:02.346Z","date":"2026-02-23","time":"19:18:02"},{"rt":null,"stimulus":"<p style=\"font-size: 50px; margin: 0; text-align: center;\">+</p>","response":null,"trial_type":"html-keyboard-response","trial_index":98,"plugin_version":"2.1.0","time_elapsed":202894,"subject_id":"91589","group":"Group2","condition":"1_Rep","full_date":"2026-02-23T19:18:02.346Z","date":"2026-02-23","time":"19:18:02"},{"task":"memory_phase","broad_category":"I","image_png":"I_Andesite_03.png","image_id":3,"category_name":"Andesite","category":1,"distinct_rating":3.17,"distinct_type":"Bottom","rt":null,"stimulus":"Stimuli_Rocks480/I_Andesite_03.png","response":null,"trial_type":"image-keyboard-response","trial_index":99,"plugin_version":"2.1.0","time_elapsed":205405,"subject_id":"91589","group":"Group2","condition":"1_Rep","full_date":"2026-02-23T19:18:02.346Z","date":"2026-02-23","time":"19:18:02"},{"rt":null,"stimulus":"<p style=\"font-size: 50px; margin: 0; text-align: center;\">+</p>","response":null,"trial_type":"html-keyboard-response","trial_index":100,"plugin_version":"2.1.0","time_elapsed":206407,"subject_id":"91589","group":"Group2","condition":"1_Rep","full_date":"2026-02-23T19:18:02.346Z","date":"2026-02-23","time":"19:18:02"},{"task":"memory_phase","broad_category":"I","image_png":"I_Pegmatite_11.png","image_id":107,"category_name":"Pegmatite","category":7,"distinct_rating":7.11,"distinct_type":"Top","rt":null,"stimulus":"Stimuli_Rocks480/I_Pegmatite_11.png","response":null,"trial_type":"image-keyboard-response","trial_index":101,"plugin_version":"2.1.0","time_elapsed":208924,"subject_id":"91589","group":"Group2","condition":"1_Rep","full_date":"2026-02-23T19:18:02.346Z","date":"2026-02-23","time":"19:18:02"},{"rt":null,"stimulus":"<p style=\"font-size: 50px; margin: 0; text-align: center;\">+</p>","response":null,"trial_type":"html-keyboard-response","trial_index":102,"plugin_version":"2.1.0","time_elapsed":209926,"subject_id":"91589","group":"Group2","condition":"1_Rep","full_date":"2026-02-23T19:18:02.346Z","date":"2026-02-23","time":"19:18:02"},{"task":"memory_phase","broad_category":"M","image_png":"M_Gneiss_15.png","image_id":207,"category_name":"Gneiss","category":13,"distinct_rating":3.11,"distinct_type":"Bottom","rt":null,"stimulus":"Stimuli_Rocks480/M_Gneiss_15.png","response":null,"trial_type":"image-keyboard-response","trial_index":103,"plugin_version":"2.1.0","time_elapsed":212436,"subject_id":"91589","group":"Group2","condition":"1_Rep","full_date":"2026-02-23T19:18:02.346Z","date":"2026-02-23","time":"19:18:02"},{"rt":null,"stimulus":"<p style=\"font-size: 50px; margin: 0; text-align: center;\">+</p>","response":null,"trial_type":"html-keyboard-response","trial_index":104,"plugin_version":"2.1.0","time_elapsed":213438,"subject_id":"91589","group":"Group2","condition":"1_Rep","full_date":"2026-02-23T19:18:02.346Z","date":"2026-02-23","time":"19:18:02"},{"task":"memory_phase","broad_category":"M","image_png":"M_Marble_02.png","image_id":226,"category_name":"Marble","category":15,"distinct_rating":3.2,"distinct_type":"Bottom","rt":null,"stimulus":"Stimuli_Rocks480/M_Marble_02.png","response":null,"trial_type":"image-keyboard-response","trial_index":105,"plugin_version":"2.1.0","time_elapsed":215953,"subject_id":"91589","group":"Group2","condition":"1_Rep","full_date":"2026-02-23T19:18:02.346Z","date":"2026-02-23","time":"19:18:02"},{"rt":2699,"stimulus":"<div style=\"max-width: 760px; margin: auto; font-size: 20px; line-height: 1.5;\">\n      <h1 style=\"text-align:center; font-size: 30px;\">Instructions for the Test Phase</h1>\n      <p>\n        The study phase is now complete.\n      </p>\n      <p>\n        In the test phase, you will again see a series of rock images. \n        Some will be ones you saw before - during the study phase, while others will be new.  \n        <b>Your task</b> is to decide whether you have seen each image before by pressing the corresponding key on your keyboard:<br><br>\n          <b>A</b> - NO (you did not see this image before)<br>\n          <b>L</b> - YES (you saw this image before)<br><br>\n        The test will proceed at your own pace. You will receive feedback after each response.  \n        Please try to respond <b>as accurately as possible</b>.\n      </p>\n      <p>\n        <b>Reminder:</b> If your computer has multiple language settings (e.g., English and another language),\n        please ensure it is set to English during the test phase.\n      </p>\n      <p>\n        You can track your progress using the <b>completion bar</b> at the top of the screen.  \n        Note that it has been refreshed to reflect your progress during this final phase.\n      </p>\n      <p>\n        Press the button below when you are ready to continue.\n      </p>\n    </div>","response":0,"trial_type":"html-button-response","trial_index":106,"plugin_version":"2.1.0","time_elapsed":218655,"subject_id":"91589","group":"Group2","condition":"1_Rep","full_date":"2026-02-23T19:18:02.346Z","date":"2026-02-23","time":"19:18:02"},{"correct_response":"a","task":"test_phase","broad_category":"I","image_png":"I_Rhyolite_16.png","image_id":160,"category_name":"Rhyolite","category":10,"distinct_rating":2.19,"distinct_type":"Bottom","item_type":"Foil","rt":1962,"stimulus":"Stimuli_Rocks480/I_Rhyolite_16.png","response":"l","trial_type":"image-keyboard-response","trial_index":107,"plugin_version":"2.1.0","time_elapsed":220628,"subject_id":"91589","group":"Group2","condition":"1_Rep","full_date":"2026-02-23T19:18:02.346Z","date":"2026-02-23","time":"19:18:02","cor_ans":false},{"trial_type":"html-keyboard-response","rt":null,"stimulus":"<p style=\"color: red; font-size: 50px; font-weight: bold;\">Incorrect</p>","response":null,"trial_index":108,"plugin_version":"2.1.0","time_elapsed":221131,"subject_id":"91589","group":"Group2","condition":"1_Rep","full_date":"2026-02-23T19:18:02.346Z","date":"2026-02-23","time":"19:18:02"},{"correct_response":"a","task":"test_phase","broad_category":"M","image_png":"M_Marble_04.png","image_id":228,"category_name":"Marble","category":15,"distinct_rating":3.15,"distinct_type":"Bottom","item_type":"Foil","rt":8553,"stimulus":"Stimuli_Rocks480/M_Marble_04.png","response":"a","trial_type":"image-keyboard-response","trial_index":109,"plugin_version":"2.1.0","time_elapsed":229699,"subject_id":"91589","group":"Group2","condition":"1_Rep","full_date":"2026-02-23T19:18:02.346Z","date":"2026-02-23","time":"19:18:02","cor_ans":true},{"trial_type":"html-keyboard-response","rt":null,"stimulus":"<p style=\"color: green; font-size: 50px; font-weight: bold;\">Correct</p>","response":null,"trial_index":110,"plugin_version":"2.1.0","time_elapsed":230201,"subject_id":"91589","group":"Group2","condition":"1_Rep","full_date":"2026-02-23T19:18:02.346Z","date":"2026-02-23","time":"19:18:02"},{"correct_response":"l","task":"test_phase","broad_category":"I","image_png":"I_Andesite_03.png","image_id":3,"category_name":"Andesite","category":1,"distinct_rating":3.17,"distinct_type":"Bottom","item_type":"Target","rt":2399,"stimulus":"Stimuli_Rocks480/I_Andesite_03.png","response":"a","trial_type":"image-keyboard-response","trial_index":111,"plugin_version":"2.1.0","time_elapsed":232602,"subject_id":"91589","group":"Group2","condition":"1_Rep","full_date":"2026-02-23T19:18:02.346Z","date":"2026-02-23","time":"19:18:02","cor_ans":false},{"trial_type":"html-keyboard-response","rt":null,"stimulus":"<p style=\"color: red; font-size: 50px; font-weight: bold;\">Incorrect</p>","response":null,"trial_index":112,"plugin_version":"2.1.0","time_elapsed":233104,"subject_id":"91589","group":"Group2","condition":"1_Rep","full_date":"2026-02-23T19:18:02.346Z","date":"2026-02-23","time":"19:18:02"},{"correct_response":"l","task":"test_phase","broad_category":"M","image_png":"M_Gneiss_14.png","image_id":206,"category_name":"Gneiss","category":13,"distinct_rating":3.41,"distinct_type":"Bottom","item_type":"Target","rt":525,"stimulus":"Stimuli_Rocks480/M_Gneiss_14.png","response":"l","trial_type":"image-keyboard-response","trial_index":113,"plugin_version":"2.1.0","time_elapsed":233645,"subject_id":"91589","group":"Group2","condition":"1_Rep","full_date":"2026-02-23T19:18:02.346Z","date":"2026-02-23","time":"19:18:02","cor_ans":true},{"trial_type":"html-keyboard-response","rt":null,"stimulus":"<p style=\"color: green; font-size: 50px; font-weight: bold;\">Correct</p>","response":null,"trial_index":114,"plugin_version":"2.1.0","time_elapsed":234147,"subject_id":"91589","group":"Group2","condition":"1_Rep","full_date":"2026-02-23T19:18:02.346Z","date":"2026-02-23","time":"19:18:02"},{"correct_response":"a","task":"test_phase","broad_category":"M","image_png":"M_Quartzite_13.png","image_id":285,"category_name":"Quartzite","category":18,"distinct_rating":2.27,"distinct_type":"Bottom","item_type":"Foil","rt":541,"stimulus":"Stimuli_Rocks480/M_Quartzite_13.png","response":"l","trial_type":"image-keyboard-response","trial_index":115,"plugin_version":"2.1.0","time_elapsed":234702,"subject_id":"91589","group":"Group2","condition":"1_Rep","full_date":"2026-02-23T19:18:02.346Z","date":"2026-02-23","time":"19:18:02","cor_ans":false},{"trial_type":"html-keyboard-response","rt":null,"stimulus":"<p style=\"color: red; font-size: 50px; font-weight: bold;\">Incorrect</p>","response":null,"trial_index":116,"plugin_version":"2.1.0","time_elapsed":235203,"subject_id":"91589","group":"Group2","condition":"1_Rep","full_date":"2026-02-23T19:18:02.346Z","date":"2026-02-23","time":"19:18:02"},{"correct_response":"l","task":"test_phase","broad_category":"S","image_png":"S_Sandstone_08.png","image_id":456,"category_name":"Sandstone","category":29,"distinct_rating":1.5,"distinct_type":"Bottom","item_type":"Target","rt":812,"stimulus":"Stimuli_Rocks480/S_Sandstone_08.png","response":"l","trial_type":"image-keyboard-response","trial_index":117,"plugin_version":"2.1.0","time_elapsed":236029,"subject_id":"91589","group":"Group2","condition":"1_Rep","full_date":"2026-02-23T19:18:02.346Z","date":"2026-02-23","time":"19:18:02","cor_ans":true},{"trial_type":"html-keyboard-response","rt":null,"stimulus":"<p style=\"color: green; font-size: 50px; font-weight: bold;\">Correct</p>","response":null,"trial_index":118,"plugin_version":"2.1.0","time_elapsed":236531,"subject_id":"91589","group":"Group2","condition":"1_Rep","full_date":"2026-02-23T19:18:02.346Z","date":"2026-02-23","time":"19:18:02"},{"correct_response":"l","task":"test_phase","broad_category":"I","image_png":"I_Pumice_01.png","image_id":129,"category_name":"Pumice","category":9,"distinct_rating":3.25,"distinct_type":"Bottom","item_type":"Target","rt":481,"stimulus":"Stimuli_Rocks480/I_Pumice_01.png","response":"l","trial_type":"image-keyboard-response","trial_index":119,"plugin_version":"2.1.0","time_elapsed":237026,"subject_id":"91589","group":"Group2","condition":"1_Rep","full_date":"2026-02-23T19:18:02.346Z","date":"2026-02-23","time":"19:18:02","cor_ans":true},{"trial_type":"html-keyboard-response","rt":null,"stimulus":"<p style=\"color: green; font-size: 50px; font-weight: bold;\">Correct</p>","response":null,"trial_index":120,"plugin_version":"2.1.0","time_elapsed":237528,"subject_id":"91589","group":"Group2","condition":"1_Rep","full_date":"2026-02-23T19:18:02.346Z","date":"2026-02-23","time":"19:18:02"},{"correct_response":"l","task":"test_phase","broad_category":"S","image_png":"S_Shale_02.png","image_id":466,"category_name":"Shale","category":30,"distinct_rating":2.9,"distinct_type":"Bottom","item_type":"Target","rt":705,"stimulus":"Stimuli_Rocks480/S_Shale_02.png","response":"a","trial_type":"image-keyboard-response","trial_index":121,"plugin_version":"2.1.0","time_elapsed":238244,"subject_id":"91589","group":"Group2","condition":"1_Rep","full_date":"2026-02-23T19:18:02.346Z","date":"2026-02-23","time":"19:18:02","cor_ans":false},{"trial_type":"html-keyboard-response","rt":null,"stimulus":"<p style=\"color: red; font-size: 50px; font-weight: bold;\">Incorrect</p>","response":null,"trial_index":122,"plugin_version":"2.1.0","time_elapsed":238747,"subject_id":"91589","group":"Group2","condition":"1_Rep","full_date":"2026-02-23T19:18:02.346Z","date":"2026-02-23","time":"19:18:02"},{"correct_response":"l","task":"test_phase","broad_category":"M","image_png":"M_Slate_10.png","image_id":314,"category_name":"Slate","category":20,"distinct_rating":1.94,"distinct_type":"Bottom","item_type":"Target","rt":992,"stimulus":"Stimuli_Rocks480/M_Slate_10.png","response":"a","trial_type":"image-keyboard-response","trial_index":123,"plugin_version":"2.1.0","time_elapsed":239749,"subject_id":"91589","group":"Group2","condition":"1_Rep","full_date":"2026-02-23T19:18:02.346Z","date":"2026-02-23","time":"19:18:02","cor_ans":false},{"trial_type":"html-keyboard-response","rt":null,"stimulus":"<p style=\"color: red; font-size: 50px; font-weight: bold;\">Incorrect</p>","response":null,"trial_index":124,"plugin_version":"2.1.0","time_elapsed":240251,"subject_id":"91589","group":"Group2","condition":"1_Rep","full_date":"2026-02-23T19:18:02.346Z","date":"2026-02-23","time":"19:18:02"},{"correct_response":"a","task":"test_phase","broad_category":"S","image_png":"S_Rock Salt_01.png","image_id":433,"category_name":"Rock Salt","category":28,"distinct_rating":7.18,"distinct_type":"Top","item_type":"Foil","rt":495,"stimulus":"Stimuli_Rocks480/S_Rock Salt_01.png","response":"l","trial_type":"image-keyboard-response","trial_index":125,"plugin_version":"2.1.0","time_elapsed":240762,"subject_id":"91589","group":"Group2","condition":"1_Rep","full_date":"2026-02-23T19:18:02.346Z","date":"2026-02-23","time":"19:18:02","cor_ans":false},{"trial_type":"html-keyboard-response","rt":null,"stimulus":"<p style=\"color: red; font-size: 50px; font-weight: bold;\">Incorrect</p>","response":null,"trial_index":126,"plugin_version":"2.1.0","time_elapsed":241264,"subject_id":"91589","group":"Group2","condition":"1_Rep","full_date":"2026-02-23T19:18:02.346Z","date":"2026-02-23","time":"19:18:02"},{"correct_response":"a","task":"test_phase","broad_category":"I","image_png":"I_Pegmatite_16.png","image_id":112,"category_name":"Pegmatite","category":7,"distinct_rating":7.03,"distinct_type":"Top","item_type":"Foil","rt":650,"stimulus":"Stimuli_Rocks480/I_Pegmatite_16.png","response":"a","trial_type":"image-keyboard-response","trial_index":127,"plugin_version":"2.1.0","time_elapsed":241928,"subject_id":"91589","group":"Group2","condition":"1_Rep","full_date":"2026-02-23T19:18:02.346Z","date":"2026-02-23","time":"19:18:02","cor_ans":true},{"trial_type":"html-keyboard-response","rt":null,"stimulus":"<p style=\"color: green; font-size: 50px; font-weight: bold;\">Correct</p>","response":null,"trial_index":128,"plugin_version":"2.1.0","time_elapsed":242430,"subject_id":"91589","group":"Group2","condition":"1_Rep","full_date":"2026-02-23T19:18:02.346Z","date":"2026-02-23","time":"19:18:02"},{"correct_response":"a","task":"test_phase","broad_category":"I","image_png":"I_Gabbro_16.png","image_id":64,"category_name":"Gabbro","category":4,"distinct_rating":2.52,"distinct_type":"Bottom","item_type":"Foil","rt":649,"stimulus":"Stimuli_Rocks480/I_Gabbro_16.png","response":"a","trial_type":"image-keyboard-response","trial_index":129,"plugin_version":"2.1.0","time_elapsed":243092,"subject_id":"91589","group":"Group2","condition":"1_Rep","full_date":"2026-02-23T19:18:02.346Z","date":"2026-02-23","time":"19:18:02","cor_ans":true},{"trial_type":"html-keyboard-response","rt":null,"stimulus":"<p style=\"color: green; font-size: 50px; font-weight: bold;\">Correct</p>","response":null,"trial_index":130,"plugin_version":"2.1.0","time_elapsed":243594,"subject_id":"91589","group":"Group2","condition":"1_Rep","full_date":"2026-02-23T19:18:02.346Z","date":"2026-02-23","time":"19:18:02"},{"correct_response":"l","task":"test_phase","broad_category":"I","image_png":"I_Pumice_13.png","image_id":141,"category_name":"Pumice","category":9,"distinct_rating":3.12,"distinct_type":"Bottom","item_type":"Target","rt":979,"stimulus":"Stimuli_Rocks480/I_Pumice_13.png","response":"l","trial_type":"image-keyboard-response","trial_index":131,"plugin_version":"2.1.0","time_elapsed":244589,"subject_id":"91589","group":"Group2","condition":"1_Rep","full_date":"2026-02-23T19:18:02.346Z","date":"2026-02-23","time":"19:18:02","cor_ans":true},{"trial_type":"html-keyboard-response","rt":null,"stimulus":"<p style=\"color: green; font-size: 50px; font-weight: bold;\">Correct</p>","response":null,"trial_index":132,"plugin_version":"2.1.0","time_elapsed":245091,"subject_id":"91589","group":"Group2","condition":"1_Rep","full_date":"2026-02-23T19:18:02.346Z","date":"2026-02-23","time":"19:18:02"},{"correct_response":"a","task":"test_phase","broad_category":"S","image_png":"S_Dolomite_13.png","image_id":397,"category_name":"Dolomite","category":25,"distinct_rating":1.77,"distinct_type":"Bottom","item_type":"Foil","rt":1034,"stimulus":"Stimuli_Rocks480/S_Dolomite_13.png","response":"l","trial_type":"image-keyboard-response","trial_index":133,"plugin_version":"2.1.0","time_elapsed":246137,"subject_id":"91589","group":"Group2","condition":"1_Rep","full_date":"2026-02-23T19:18:02.346Z","date":"2026-02-23","time":"19:18:02","cor_ans":false},{"trial_type":"html-keyboard-response","rt":null,"stimulus":"<p style=\"color: red; font-size: 50px; font-weight: bold;\">Incorrect</p>","response":null,"trial_index":134,"plugin_version":"2.1.0","time_elapsed":246639,"subject_id":"91589","group":"Group2","condition":"1_Rep","full_date":"2026-02-23T19:18:02.346Z","date":"2026-02-23","time":"19:18:02"},{"correct_response":"l","task":"test_phase","broad_category":"M","image_png":"M_Slate_14.png","image_id":318,"category_name":"Slate","category":20,"distinct_rating":2.58,"distinct_type":"Bottom","item_type":"Target","rt":570,"stimulus":"Stimuli_Rocks480/M_Slate_14.png","response":"a","trial_type":"image-keyboard-response","trial_index":135,"plugin_version":"2.1.0","time_elapsed":247219,"subject_id":"91589","group":"Group2","condition":"1_Rep","full_date":"2026-02-23T19:18:02.346Z","date":"2026-02-23","time":"19:18:02","cor_ans":false},{"trial_type":"html-keyboard-response","rt":null,"stimulus":"<p style=\"color: red; font-size: 50px; font-weight: bold;\">Incorrect</p>","response":null,"trial_index":136,"plugin_version":"2.1.0","time_elapsed":247722,"subject_id":"91589","group":"Group2","condition":"1_Rep","full_date":"2026-02-23T19:18:02.346Z","date":"2026-02-23","time":"19:18:02"},{"correct_response":"l","task":"test_phase","broad_category":"S","image_png":"S_Dolomite_16.png","image_id":400,"category_name":"Dolomite","category":25,"distinct_rating":1.71,"distinct_type":"Bottom","item_type":"Target","rt":1384,"stimulus":"Stimuli_Rocks480/S_Dolomite_16.png","response":"l","trial_type":"image-keyboard-response","trial_index":137,"plugin_version":"2.1.0","time_elapsed":249108,"subject_id":"91589","group":"Group2","condition":"1_Rep","full_date":"2026-02-23T19:18:02.346Z","date":"2026-02-23","time":"19:18:02","cor_ans":true},{"trial_type":"html-keyboard-response","rt":null,"stimulus":"<p style=\"color: green; font-size: 50px; font-weight: bold;\">Correct</p>","response":null,"trial_index":138,"plugin_version":"2.1.0","time_elapsed":249610,"subject_id":"91589","group":"Group2","condition":"1_Rep","full_date":"2026-02-23T19:18:02.346Z","date":"2026-02-23","time":"19:18:02"},{"correct_response":"a","task":"test_phase","broad_category":"S","image_png":"S_Shale_01.png","image_id":465,"category_name":"Shale","category":30,"distinct_rating":2.7,"distinct_type":"Bottom","item_type":"Foil","rt":1177,"stimulus":"Stimuli_Rocks480/S_Shale_01.png","response":"l","trial_type":"image-keyboard-response","trial_index":139,"plugin_version":"2.1.0","time_elapsed":250798,"subject_id":"91589","group":"Group2","condition":"1_Rep","full_date":"2026-02-23T19:18:02.346Z","date":"2026-02-23","time":"19:18:02","cor_ans":false},{"trial_type":"html-keyboard-response","rt":null,"stimulus":"<p style=\"color: red; font-size: 50px; font-weight: bold;\">Incorrect</p>","response":null,"trial_index":140,"plugin_version":"2.1.0","time_elapsed":251301,"subject_id":"91589","group":"Group2","condition":"1_Rep","full_date":"2026-02-23T19:18:02.346Z","date":"2026-02-23","time":"19:18:02"},{"correct_response":"l","task":"test_phase","broad_category":"M","image_png":"M_Marble_03.png","image_id":227,"category_name":"Marble","category":15,"distinct_rating":2.67,"distinct_type":"Bottom","item_type":"Target","rt":1152,"stimulus":"Stimuli_Rocks480/M_Marble_03.png","response":"a","trial_type":"image-keyboard-response","trial_index":141,"plugin_version":"2.1.0","time_elapsed":252466,"subject_id":"91589","group":"Group2","condition":"1_Rep","full_date":"2026-02-23T19:18:02.346Z","date":"2026-02-23","time":"19:18:02","cor_ans":false},{"trial_type":"html-keyboard-response","rt":null,"stimulus":"<p style=\"color: red; font-size: 50px; font-weight: bold;\">Incorrect</p>","response":null,"trial_index":142,"plugin_version":"2.1.0","time_elapsed":252969,"subject_id":"91589","group":"Group2","condition":"1_Rep","full_date":"2026-02-23T19:18:02.346Z","date":"2026-02-23","time":"19:18:02"},{"correct_response":"l","task":"test_phase","broad_category":"S","image_png":"S_Sandstone_11.png","image_id":459,"category_name":"Sandstone","category":29,"distinct_rating":1.82,"distinct_type":"Bottom","item_type":"Target","rt":637,"stimulus":"Stimuli_Rocks480/S_Sandstone_11.png","response":"l","trial_type":"image-keyboard-response","trial_index":143,"plugin_version":"2.1.0","time_elapsed":253621,"subject_id":"91589","group":"Group2","condition":"1_Rep","full_date":"2026-02-23T19:18:02.346Z","date":"2026-02-23","time":"19:18:02","cor_ans":true},{"trial_type":"html-keyboard-response","rt":null,"stimulus":"<p style=\"color: green; font-size: 50px; font-weight: bold;\">Correct</p>","response":null,"trial_index":144,"plugin_version":"2.1.0","time_elapsed":254123,"subject_id":"91589","group":"Group2","condition":"1_Rep","full_date":"2026-02-23T19:18:02.346Z","date":"2026-02-23","time":"19:18:02"},{"correct_response":"a","task":"test_phase","broad_category":"S","image_png":"S_Chert_10.png","image_id":362,"category_name":"Chert","category":23,"distinct_rating":7.17,"distinct_type":"Top","item_type":"Foil","rt":629,"stimulus":"Stimuli_Rocks480/S_Chert_10.png","response":"l","trial_type":"image-keyboard-response","trial_index":145,"plugin_version":"2.1.0","time_elapsed":254765,"subject_id":"91589","group":"Group2","condition":"1_Rep","full_date":"2026-02-23T19:18:02.346Z","date":"2026-02-23","time":"19:18:02","cor_ans":false},{"trial_type":"html-keyboard-response","rt":null,"stimulus":"<p style=\"color: red; font-size: 50px; font-weight: bold;\">Incorrect</p>","response":null,"trial_index":146,"plugin_version":"2.1.0","time_elapsed":255268,"subject_id":"91589","group":"Group2","condition":"1_Rep","full_date":"2026-02-23T19:18:02.346Z","date":"2026-02-23","time":"19:18:02"},{"correct_response":"a","task":"test_phase","broad_category":"I","image_png":"I_Pegmatite_10.png","image_id":106,"category_name":"Pegmatite","category":7,"distinct_rating":7.66,"distinct_type":"Top","item_type":"Foil","rt":971,"stimulus":"Stimuli_Rocks480/I_Pegmatite_10.png","response":"l","trial_type":"image-keyboard-response","trial_index":147,"plugin_version":"2.1.0","time_elapsed":256251,"subject_id":"91589","group":"Group2","condition":"1_Rep","full_date":"2026-02-23T19:18:02.346Z","date":"2026-02-23","time":"19:18:02","cor_ans":false},{"trial_type":"html-keyboard-response","rt":null,"stimulus":"<p style=\"color: red; font-size: 50px; font-weight: bold;\">Incorrect</p>","response":null,"trial_index":148,"plugin_version":"2.1.0","time_elapsed":256754,"subject_id":"91589","group":"Group2","condition":"1_Rep","full_date":"2026-02-23T19:18:02.346Z","date":"2026-02-23","time":"19:18:02"},{"correct_response":"l","task":"test_phase","broad_category":"I","image_png":"I_Pegmatite_03.png","image_id":99,"category_name":"Pegmatite","category":7,"distinct_rating":7.24,"distinct_type":"Top","item_type":"Target","rt":916,"stimulus":"Stimuli_Rocks480/I_Pegmatite_03.png","response":"l","trial_type":"image-keyboard-response","trial_index":149,"plugin_version":"2.1.0","time_elapsed":257685,"subject_id":"91589","group":"Group2","condition":"1_Rep","full_date":"2026-02-23T19:18:02.346Z","date":"2026-02-23","time":"19:18:02","cor_ans":true},{"trial_type":"html-keyboard-response","rt":null,"stimulus":"<p style=\"color: green; font-size: 50px; font-weight: bold;\">Correct</p>","response":null,"trial_index":150,"plugin_version":"2.1.0","time_elapsed":258188,"subject_id":"91589","group":"Group2","condition":"1_Rep","full_date":"2026-02-23T19:18:02.346Z","date":"2026-02-23","time":"19:18:02"},{"correct_response":"a","task":"test_phase","broad_category":"I","image_png":"I_Diorite_05.png","image_id":37,"category_name":"Diorite","category":3,"distinct_rating":3.08,"distinct_type":"Bottom","item_type":"Foil","rt":721,"stimulus":"Stimuli_Rocks480/I_Diorite_05.png","response":"l","trial_type":"image-keyboard-response","trial_index":151,"plugin_version":"2.1.0","time_elapsed":258923,"subject_id":"91589","group":"Group2","condition":"1_Rep","full_date":"2026-02-23T19:18:02.346Z","date":"2026-02-23","time":"19:18:02","cor_ans":false},{"trial_type":"html-keyboard-response","rt":null,"stimulus":"<p style=\"color: red; font-size: 50px; font-weight: bold;\">Incorrect</p>","response":null,"trial_index":152,"plugin_version":"2.1.0","time_elapsed":259426,"subject_id":"91589","group":"Group2","condition":"1_Rep","full_date":"2026-02-23T19:18:02.346Z","date":"2026-02-23","time":"19:18:02"},{"correct_response":"l","task":"test_phase","broad_category":"I","image_png":"I_Basalt_13.png","image_id":29,"category_name":"Basalt","category":2,"distinct_rating":2.68,"distinct_type":"Bottom","item_type":"Target","rt":859,"stimulus":"Stimuli_Rocks480/I_Basalt_13.png","response":"l","trial_type":"image-keyboard-response","trial_index":153,"plugin_version":"2.1.0","time_elapsed":260297,"subject_id":"91589","group":"Group2","condition":"1_Rep","full_date":"2026-02-23T19:18:02.346Z","date":"2026-02-23","time":"19:18:02","cor_ans":true},{"trial_type":"html-keyboard-response","rt":null,"stimulus":"<p style=\"color: green; font-size: 50px; font-weight: bold;\">Correct</p>","response":null,"trial_index":154,"plugin_version":"2.1.0","time_elapsed":260800,"subject_id":"91589","group":"Group2","condition":"1_Rep","full_date":"2026-02-23T19:18:02.346Z","date":"2026-02-23","time":"19:18:02"},{"correct_response":"a","task":"test_phase","broad_category":"S","image_png":"S_Shale_08.png","image_id":472,"category_name":"Shale","category":30,"distinct_rating":2.55,"distinct_type":"Bottom","item_type":"Foil","rt":3081,"stimulus":"Stimuli_Rocks480/S_Shale_08.png","response":"a","trial_type":"image-keyboard-response","trial_index":155,"plugin_version":"2.1.0","time_elapsed":263896,"subject_id":"91589","group":"Group2","condition":"1_Rep","full_date":"2026-02-23T19:18:02.346Z","date":"2026-02-23","time":"19:18:02","cor_ans":true},{"trial_type":"html-keyboard-response","rt":null,"stimulus":"<p style=\"color: green; font-size: 50px; font-weight: bold;\">Correct</p>","response":null,"trial_index":156,"plugin_version":"2.1.0","time_elapsed":264399,"subject_id":"91589","group":"Group2","condition":"1_Rep","full_date":"2026-02-23T19:18:02.346Z","date":"2026-02-23","time":"19:18:02"},{"correct_response":"a","task":"test_phase","broad_category":"I","image_png":"I_Obsidian_05.png","image_id":85,"category_name":"Obsidian","category":6,"distinct_rating":7.32,"distinct_type":"Top","item_type":"Foil","rt":844,"stimulus":"Stimuli_Rocks480/I_Obsidian_05.png","response":"a","trial_type":"image-keyboard-response","trial_index":157,"plugin_version":"2.1.0","time_elapsed":265257,"subject_id":"91589","group":"Group2","condition":"1_Rep","full_date":"2026-02-23T19:18:02.346Z","date":"2026-02-23","time":"19:18:02","cor_ans":true},{"trial_type":"html-keyboard-response","rt":null,"stimulus":"<p style=\"color: green; font-size: 50px; font-weight: bold;\">Correct</p>","response":null,"trial_index":158,"plugin_version":"2.1.0","time_elapsed":265759,"subject_id":"91589","group":"Group2","condition":"1_Rep","full_date":"2026-02-23T19:18:02.346Z","date":"2026-02-23","time":"19:18:02"},{"correct_response":"a","task":"test_phase","broad_category":"I","image_png":"I_Rhyolite_14.png","image_id":158,"category_name":"Rhyolite","category":10,"distinct_rating":2.59,"distinct_type":"Bottom","item_type":"Foil","rt":809,"stimulus":"Stimuli_Rocks480/I_Rhyolite_14.png","response":"l","trial_type":"image-keyboard-response","trial_index":159,"plugin_version":"2.1.0","time_elapsed":266580,"subject_id":"91589","group":"Group2","condition":"1_Rep","full_date":"2026-02-23T19:18:02.346Z","date":"2026-02-23","time":"19:18:02","cor_ans":false},{"trial_type":"html-keyboard-response","rt":null,"stimulus":"<p style=\"color: red; font-size: 50px; font-weight: bold;\">Incorrect</p>","response":null,"trial_index":160,"plugin_version":"2.1.0","time_elapsed":267082,"subject_id":"91589","group":"Group2","condition":"1_Rep","full_date":"2026-02-23T19:18:02.346Z","date":"2026-02-23","time":"19:18:02"},{"correct_response":"l","task":"test_phase","broad_category":"M","image_png":"M_Quartzite_12.png","image_id":284,"category_name":"Quartzite","category":18,"distinct_rating":1.92,"distinct_type":"Bottom","item_type":"Target","rt":783,"stimulus":"Stimuli_Rocks480/M_Quartzite_12.png","response":"l","trial_type":"image-keyboard-response","trial_index":161,"plugin_version":"2.1.0","time_elapsed":267878,"subject_id":"91589","group":"Group2","condition":"1_Rep","full_date":"2026-02-23T19:18:02.346Z","date":"2026-02-23","time":"19:18:02","cor_ans":true},{"trial_type":"html-keyboard-response","rt":null,"stimulus":"<p style=\"color: green; font-size: 50px; font-weight: bold;\">Correct</p>","response":null,"trial_index":162,"plugin_version":"2.1.0","time_elapsed":268381,"subject_id":"91589","group":"Group2","condition":"1_Rep","full_date":"2026-02-23T19:18:02.346Z","date":"2026-02-23","time":"19:18:02"},{"correct_response":"a","task":"test_phase","broad_category":"M","image_png":"M_Slate_03.png","image_id":307,"category_name":"Slate","category":20,"distinct_rating":1.87,"distinct_type":"Bottom","item_type":"Foil","rt":588,"stimulus":"Stimuli_Rocks480/M_Slate_03.png","response":"a","trial_type":"image-keyboard-response","trial_index":163,"plugin_version":"2.1.0","time_elapsed":268984,"subject_id":"91589","group":"Group2","condition":"1_Rep","full_date":"2026-02-23T19:18:02.346Z","date":"2026-02-23","time":"19:18:02","cor_ans":true},{"trial_type":"html-keyboard-response","rt":null,"stimulus":"<p style=\"color: green; font-size: 50px; font-weight: bold;\">Correct</p>","response":null,"trial_index":164,"plugin_version":"2.1.0","time_elapsed":269486,"subject_id":"91589","group":"Group2","condition":"1_Rep","full_date":"2026-02-23T19:18:02.346Z","date":"2026-02-23","time":"19:18:02"},{"correct_response":"a","task":"test_phase","broad_category":"M","image_png":"M_Quartzite_08.png","image_id":280,"category_name":"Quartzite","category":18,"distinct_rating":2.15,"distinct_type":"Bottom","item_type":"Foil","rt":1351,"stimulus":"Stimuli_Rocks480/M_Quartzite_08.png","response":"l","trial_type":"image-keyboard-response","trial_index":165,"plugin_version":"2.1.0","time_elapsed":270848,"subject_id":"91589","group":"Group2","condition":"1_Rep","full_date":"2026-02-23T19:18:02.346Z","date":"2026-02-23","time":"19:18:02","cor_ans":false},{"trial_type":"html-keyboard-response","rt":null,"stimulus":"<p style=\"color: red; font-size: 50px; font-weight: bold;\">Incorrect</p>","response":null,"trial_index":166,"plugin_version":"2.1.0","time_elapsed":271350,"subject_id":"91589","group":"Group2","condition":"1_Rep","full_date":"2026-02-23T19:18:02.346Z","date":"2026-02-23","time":"19:18:02"},{"correct_response":"a","task":"test_phase","broad_category":"M","image_png":"M_Gneiss_05.png","image_id":197,"category_name":"Gneiss","category":13,"distinct_rating":2.97,"distinct_type":"Bottom","item_type":"Foil","rt":676,"stimulus":"Stimuli_Rocks480/M_Gneiss_05.png","response":"l","trial_type":"image-keyboard-response","trial_index":167,"plugin_version":"2.1.0","time_elapsed":272047,"subject_id":"91589","group":"Group2","condition":"1_Rep","full_date":"2026-02-23T19:18:02.346Z","date":"2026-02-23","time":"19:18:02","cor_ans":false},{"trial_type":"html-keyboard-response","rt":null,"stimulus":"<p style=\"color: red; font-size: 50px; font-weight: bold;\">Incorrect</p>","response":null,"trial_index":168,"plugin_version":"2.1.0","time_elapsed":272549,"subject_id":"91589","group":"Group2","condition":"1_Rep","full_date":"2026-02-23T19:18:02.346Z","date":"2026-02-23","time":"19:18:02"},{"correct_response":"a","task":"test_phase","broad_category":"I","image_png":"I_Gabbro_11.png","image_id":59,"category_name":"Gabbro","category":4,"distinct_rating":1.99,"distinct_type":"Bottom","item_type":"Foil","rt":927,"stimulus":"Stimuli_Rocks480/I_Gabbro_11.png","response":"l","trial_type":"image-keyboard-response","trial_index":169,"plugin_version":"2.1.0","time_elapsed":273488,"subject_id":"91589","group":"Group2","condition":"1_Rep","full_date":"2026-02-23T19:18:02.346Z","date":"2026-02-23","time":"19:18:02","cor_ans":false},{"trial_type":"html-keyboard-response","rt":null,"stimulus":"<p style=\"color: red; font-size: 50px; font-weight: bold;\">Incorrect</p>","response":null,"trial_index":170,"plugin_version":"2.1.0","time_elapsed":273991,"subject_id":"91589","group":"Group2","condition":"1_Rep","full_date":"2026-02-23T19:18:02.346Z","date":"2026-02-23","time":"19:18:02"},{"correct_response":"l","task":"test_phase","broad_category":"S","image_png":"S_Shale_07.png","image_id":471,"category_name":"Shale","category":30,"distinct_rating":2.73,"distinct_type":"Bottom","item_type":"Target","rt":682,"stimulus":"Stimuli_Rocks480/S_Shale_07.png","response":"l","trial_type":"image-keyboard-response","trial_index":171,"plugin_version":"2.1.0","time_elapsed":274685,"subject_id":"91589","group":"Group2","condition":"1_Rep","full_date":"2026-02-23T19:18:02.346Z","date":"2026-02-23","time":"19:18:02","cor_ans":true},{"trial_type":"html-keyboard-response","rt":null,"stimulus":"<p style=\"color: green; font-size: 50px; font-weight: bold;\">Correct</p>","response":null,"trial_index":172,"plugin_version":"2.1.0","time_elapsed":275188,"subject_id":"91589","group":"Group2","condition":"1_Rep","full_date":"2026-02-23T19:18:02.346Z","date":"2026-02-23","time":"19:18:02"},{"correct_response":"l","task":"test_phase","broad_category":"M","image_png":"M_Phyllite_02.png","image_id":258,"category_name":"Phyllite","category":17,"distinct_rating":2.89,"distinct_type":"Bottom","item_type":"Target","rt":894,"stimulus":"Stimuli_Rocks480/M_Phyllite_02.png","response":"a","trial_type":"image-keyboard-response","trial_index":173,"plugin_version":"2.1.0","time_elapsed":276097,"subject_id":"91589","group":"Group2","condition":"1_Rep","full_date":"2026-02-23T19:18:02.346Z","date":"2026-02-23","time":"19:18:02","cor_ans":false},{"trial_type":"html-keyboard-response","rt":null,"stimulus":"<p style=\"color: red; font-size: 50px; font-weight: bold;\">Incorrect</p>","response":null,"trial_index":174,"plugin_version":"2.1.0","time_elapsed":276599,"subject_id":"91589","group":"Group2","condition":"1_Rep","full_date":"2026-02-23T19:18:02.346Z","date":"2026-02-23","time":"19:18:02"},{"correct_response":"a","task":"test_phase","broad_category":"S","image_png":"S_Shale_12.png","image_id":476,"category_name":"Shale","category":30,"distinct_rating":2.48,"distinct_type":"Bottom","item_type":"Foil","rt":742,"stimulus":"Stimuli_Rocks480/S_Shale_12.png","response":"l","trial_type":"image-keyboard-response","trial_index":175,"plugin_version":"2.1.0","time_elapsed":277357,"subject_id":"91589","group":"Group2","condition":"1_Rep","full_date":"2026-02-23T19:18:02.346Z","date":"2026-02-23","time":"19:18:02","cor_ans":false},{"trial_type":"html-keyboard-response","rt":null,"stimulus":"<p style=\"color: red; font-size: 50px; font-weight: bold;\">Incorrect</p>","response":null,"trial_index":176,"plugin_version":"2.1.0","time_elapsed":277859,"subject_id":"91589","group":"Group2","condition":"1_Rep","full_date":"2026-02-23T19:18:02.346Z","date":"2026-02-23","time":"19:18:02"},{"correct_response":"l","task":"test_phase","broad_category":"S","image_png":"S_Dolomite_07.png","image_id":391,"category_name":"Dolomite","category":25,"distinct_rating":1.73,"distinct_type":"Bottom","item_type":"Target","rt":596,"stimulus":"Stimuli_Rocks480/S_Dolomite_07.png","response":"l","trial_type":"image-keyboard-response","trial_index":177,"plugin_version":"2.1.0","time_elapsed":278469,"subject_id":"91589","group":"Group2","condition":"1_Rep","full_date":"2026-02-23T19:18:02.346Z","date":"2026-02-23","time":"19:18:02","cor_ans":true},{"trial_type":"html-keyboard-response","rt":null,"stimulus":"<p style=\"color: green; font-size: 50px; font-weight: bold;\">Correct</p>","response":null,"trial_index":178,"plugin_version":"2.1.0","time_elapsed":278971,"subject_id":"91589","group":"Group2","condition":"1_Rep","full_date":"2026-02-23T19:18:02.346Z","date":"2026-02-23","time":"19:18:02"},{"correct_response":"l","task":"test_phase","broad_category":"I","image_png":"I_Pumice_14.png","image_id":142,"category_name":"Pumice","category":9,"distinct_rating":3.22,"distinct_type":"Bottom","item_type":"Target","rt":598,"stimulus":"Stimuli_Rocks480/I_Pumice_14.png","response":"l","trial_type":"image-keyboard-response","trial_index":179,"plugin_version":"2.1.0","time_elapsed":279583,"subject_id":"91589","group":"Group2","condition":"1_Rep","full_date":"2026-02-23T19:18:02.346Z","date":"2026-02-23","time":"19:18:02","cor_ans":true},{"trial_type":"html-keyboard-response","rt":null,"stimulus":"<p style=\"color: green; font-size: 50px; font-weight: bold;\">Correct</p>","response":null,"trial_index":180,"plugin_version":"2.1.0","time_elapsed":280085,"subject_id":"91589","group":"Group2","condition":"1_Rep","full_date":"2026-02-23T19:18:02.346Z","date":"2026-02-23","time":"19:18:02"},{"correct_response":"a","task":"test_phase","broad_category":"S","image_png":"S_Dolomite_12.png","image_id":396,"category_name":"Dolomite","category":25,"distinct_rating":1.85,"distinct_type":"Bottom","item_type":"Foil","rt":798,"stimulus":"Stimuli_Rocks480/S_Dolomite_12.png","response":"l","trial_type":"image-keyboard-response","trial_index":181,"plugin_version":"2.1.0","time_elapsed":280897,"subject_id":"91589","group":"Group2","condition":"1_Rep","full_date":"2026-02-23T19:18:02.346Z","date":"2026-02-23","time":"19:18:02","cor_ans":false},{"trial_type":"html-keyboard-response","rt":null,"stimulus":"<p style=\"color: red; font-size: 50px; font-weight: bold;\">Incorrect</p>","response":null,"trial_index":182,"plugin_version":"2.1.0","time_elapsed":281400,"subject_id":"91589","group":"Group2","condition":"1_Rep","full_date":"2026-02-23T19:18:02.346Z","date":"2026-02-23","time":"19:18:02"},{"correct_response":"a","task":"test_phase","broad_category":"S","image_png":"S_Conglomerate_05.png","image_id":373,"category_name":"Conglomerate","category":24,"distinct_rating":7.32,"distinct_type":"Top","item_type":"Foil","rt":738,"stimulus":"Stimuli_Rocks480/S_Conglomerate_05.png","response":"l","trial_type":"image-keyboard-response","trial_index":183,"plugin_version":"2.1.0","time_elapsed":282153,"subject_id":"91589","group":"Group2","condition":"1_Rep","full_date":"2026-02-23T19:18:02.346Z","date":"2026-02-23","time":"19:18:02","cor_ans":false},{"trial_type":"html-keyboard-response","rt":null,"stimulus":"<p style=\"color: red; font-size: 50px; font-weight: bold;\">Incorrect</p>","response":null,"trial_index":184,"plugin_version":"2.1.0","time_elapsed":282655,"subject_id":"91589","group":"Group2","condition":"1_Rep","full_date":"2026-02-23T19:18:02.346Z","date":"2026-02-23","time":"19:18:02"},{"correct_response":"a","task":"test_phase","broad_category":"I","image_png":"I_Pumice_08.png","image_id":136,"category_name":"Pumice","category":9,"distinct_rating":3.1,"distinct_type":"Bottom","item_type":"Foil","rt":1650,"stimulus":"Stimuli_Rocks480/I_Pumice_08.png","response":"l","trial_type":"image-keyboard-response","trial_index":185,"plugin_version":"2.1.0","time_elapsed":284318,"subject_id":"91589","group":"Group2","condition":"1_Rep","full_date":"2026-02-23T19:18:02.346Z","date":"2026-02-23","time":"19:18:02","cor_ans":false},{"trial_type":"html-keyboard-response","rt":null,"stimulus":"<p style=\"color: red; font-size: 50px; font-weight: bold;\">Incorrect</p>","response":null,"trial_index":186,"plugin_version":"2.1.0","time_elapsed":284820,"subject_id":"91589","group":"Group2","condition":"1_Rep","full_date":"2026-02-23T19:18:02.346Z","date":"2026-02-23","time":"19:18:02"},{"correct_response":"a","task":"test_phase","broad_category":"I","image_png":"I_Basalt_02.png","image_id":18,"category_name":"Basalt","category":2,"distinct_rating":1.84,"distinct_type":"Bottom","item_type":"Foil","rt":1710,"stimulus":"Stimuli_Rocks480/I_Basalt_02.png","response":"l","trial_type":"image-keyboard-response","trial_index":187,"plugin_version":"2.1.0","time_elapsed":286544,"subject_id":"91589","group":"Group2","condition":"1_Rep","full_date":"2026-02-23T19:18:02.346Z","date":"2026-02-23","time":"19:18:02","cor_ans":false},{"trial_type":"html-keyboard-response","rt":null,"stimulus":"<p style=\"color: red; font-size: 50px; font-weight: bold;\">Incorrect</p>","response":null,"trial_index":188,"plugin_version":"2.1.0","time_elapsed":287046,"subject_id":"91589","group":"Group2","condition":"1_Rep","full_date":"2026-02-23T19:18:02.346Z","date":"2026-02-23","time":"19:18:02"},{"correct_response":"l","task":"test_phase","broad_category":"I","image_png":"I_Diorite_15.png","image_id":47,"category_name":"Diorite","category":3,"distinct_rating":3.05,"distinct_type":"Bottom","item_type":"Target","rt":734,"stimulus":"Stimuli_Rocks480/I_Diorite_15.png","response":"a","trial_type":"image-keyboard-response","trial_index":189,"plugin_version":"2.1.0","time_elapsed":287791,"subject_id":"91589","group":"Group2","condition":"1_Rep","full_date":"2026-02-23T19:18:02.346Z","date":"2026-02-23","time":"19:18:02","cor_ans":false},{"trial_type":"html-keyboard-response","rt":null,"stimulus":"<p style=\"color: red; font-size: 50px; font-weight: bold;\">Incorrect</p>","response":null,"trial_index":190,"plugin_version":"2.1.0","time_elapsed":288293,"subject_id":"91589","group":"Group2","condition":"1_Rep","full_date":"2026-02-23T19:18:02.346Z","date":"2026-02-23","time":"19:18:02"},{"correct_response":"l","task":"test_phase","broad_category":"S","image_png":"S_Shale_03.png","image_id":467,"category_name":"Shale","category":30,"distinct_rating":1.95,"distinct_type":"Bottom","item_type":"Target","rt":1404,"stimulus":"Stimuli_Rocks480/S_Shale_03.png","response":"l","trial_type":"image-keyboard-response","trial_index":191,"plugin_version":"2.1.0","time_elapsed":289716,"subject_id":"91589","group":"Group2","condition":"1_Rep","full_date":"2026-02-23T19:18:02.346Z","date":"2026-02-23","time":"19:18:02","cor_ans":true},{"trial_type":"html-keyboard-response","rt":null,"stimulus":"<p style=\"color: green; font-size: 50px; font-weight: bold;\">Correct</p>","response":null,"trial_index":192,"plugin_version":"2.1.0","time_elapsed":290218,"subject_id":"91589","group":"Group2","condition":"1_Rep","full_date":"2026-02-23T19:18:02.346Z","date":"2026-02-23","time":"19:18:02"},{"correct_response":"a","task":"test_phase","broad_category":"I","image_png":"I_Andesite_10.png","image_id":10,"category_name":"Andesite","category":1,"distinct_rating":3.15,"distinct_type":"Bottom","item_type":"Foil","rt":815,"stimulus":"Stimuli_Rocks480/I_Andesite_10.png","response":"a","trial_type":"image-keyboard-response","trial_index":193,"plugin_version":"2.1.0","time_elapsed":291045,"subject_id":"91589","group":"Group2","condition":"1_Rep","full_date":"2026-02-23T19:18:02.346Z","date":"2026-02-23","time":"19:18:02","cor_ans":true},{"trial_type":"html-keyboard-response","rt":null,"stimulus":"<p style=\"color: green; font-size: 50px; font-weight: bold;\">Correct</p>","response":null,"trial_index":194,"plugin_version":"2.1.0","time_elapsed":291546,"subject_id":"91589","group":"Group2","condition":"1_Rep","full_date":"2026-02-23T19:18:02.346Z","date":"2026-02-23","time":"19:18:02"},{"correct_response":"l","task":"test_phase","broad_category":"I","image_png":"I_Rhyolite_10.png","image_id":154,"category_name":"Rhyolite","category":10,"distinct_rating":2.88,"distinct_type":"Bottom","item_type":"Target","rt":511,"stimulus":"Stimuli_Rocks480/I_Rhyolite_10.png","response":"a","trial_type":"image-keyboard-response","trial_index":195,"plugin_version":"2.1.0","time_elapsed":292075,"subject_id":"91589","group":"Group2","condition":"1_Rep","full_date":"2026-02-23T19:18:02.346Z","date":"2026-02-23","time":"19:18:02","cor_ans":false},{"trial_type":"html-keyboard-response","rt":null,"stimulus":"<p style=\"color: red; font-size: 50px; font-weight: bold;\">Incorrect</p>","response":null,"trial_index":196,"plugin_version":"2.1.0","time_elapsed":292578,"subject_id":"91589","group":"Group2","condition":"1_Rep","full_date":"2026-02-23T19:18:02.346Z","date":"2026-02-23","time":"19:18:02"},{"correct_response":"a","task":"test_phase","broad_category":"S","image_png":"S_Dolomite_14.png","image_id":398,"category_name":"Dolomite","category":25,"distinct_rating":1.43,"distinct_type":"Bottom","item_type":"Foil","rt":822,"stimulus":"Stimuli_Rocks480/S_Dolomite_14.png","response":"l","trial_type":"image-keyboard-response","trial_index":197,"plugin_version":"2.1.0","time_elapsed":293414,"subject_id":"91589","group":"Group2","condition":"1_Rep","full_date":"2026-02-23T19:18:02.346Z","date":"2026-02-23","time":"19:18:02","cor_ans":false},{"trial_type":"html-keyboard-response","rt":null,"stimulus":"<p style=\"color: red; font-size: 50px; font-weight: bold;\">Incorrect</p>","response":null,"trial_index":198,"plugin_version":"2.1.0","time_elapsed":293917,"subject_id":"91589","group":"Group2","condition":"1_Rep","full_date":"2026-02-23T19:18:02.346Z","date":"2026-02-23","time":"19:18:02"},{"correct_response":"l","task":"test_phase","broad_category":"M","image_png":"M_Slate_04.png","image_id":308,"category_name":"Slate","category":20,"distinct_rating":2.2,"distinct_type":"Bottom","item_type":"Target","rt":343,"stimulus":"Stimuli_Rocks480/M_Slate_04.png","response":"a","trial_type":"image-keyboard-response","trial_index":199,"plugin_version":"2.1.0","time_elapsed":294271,"subject_id":"91589","group":"Group2","condition":"1_Rep","full_date":"2026-02-23T19:18:02.346Z","date":"2026-02-23","time":"19:18:02","cor_ans":false},{"trial_type":"html-keyboard-response","rt":null,"stimulus":"<p style=\"color: red; font-size: 50px; font-weight: bold;\">Incorrect</p>","response":null,"trial_index":200,"plugin_version":"2.1.0","time_elapsed":294774,"subject_id":"91589","group":"Group2","condition":"1_Rep","full_date":"2026-02-23T19:18:02.346Z","date":"2026-02-23","time":"19:18:02"},{"correct_response":"a","task":"test_phase","broad_category":"I","image_png":"I_Basalt_09.png","image_id":25,"category_name":"Basalt","category":2,"distinct_rating":1.89,"distinct_type":"Bottom","item_type":"Foil","rt":298,"stimulus":"Stimuli_Rocks480/I_Basalt_09.png","response":"a","trial_type":"image-keyboard-response","trial_index":201,"plugin_version":"2.1.0","time_elapsed":295083,"subject_id":"91589","group":"Group2","condition":"1_Rep","full_date":"2026-02-23T19:18:02.346Z","date":"2026-02-23","time":"19:18:02","cor_ans":true},{"trial_type":"html-keyboard-response","rt":null,"stimulus":"<p style=\"color: green; font-size: 50px; font-weight: bold;\">Correct</p>","response":null,"trial_index":202,"plugin_version":"2.1.0","time_elapsed":295585,"subject_id":"91589","group":"Group2","condition":"1_Rep","full_date":"2026-02-23T19:18:02.346Z","date":"2026-02-23","time":"19:18:02"},{"correct_response":"l","task":"test_phase","broad_category":"M","image_png":"M_Marble_14.png","image_id":238,"category_name":"Marble","category":15,"distinct_rating":3.31,"distinct_type":"Bottom","item_type":"Target","rt":332,"stimulus":"Stimuli_Rocks480/M_Marble_14.png","response":"a","trial_type":"image-keyboard-response","trial_index":203,"plugin_version":"2.1.0","time_elapsed":295930,"subject_id":"91589","group":"Group2","condition":"1_Rep","full_date":"2026-02-23T19:18:02.346Z","date":"2026-02-23","time":"19:18:02","cor_ans":false},{"trial_type":"html-keyboard-response","rt":null,"stimulus":"<p style=\"color: red; font-size: 50px; font-weight: bold;\">Incorrect</p>","response":null,"trial_index":204,"plugin_version":"2.1.0","time_elapsed":296432,"subject_id":"91589","group":"Group2","condition":"1_Rep","full_date":"2026-02-23T19:18:02.346Z","date":"2026-02-23","time":"19:18:02"},{"correct_response":"l","task":"test_phase","broad_category":"I","image_png":"I_Basalt_08.png","image_id":24,"category_name":"Basalt","category":2,"distinct_rating":2.31,"distinct_type":"Bottom","item_type":"Target","rt":578,"stimulus":"Stimuli_Rocks480/I_Basalt_08.png","response":"l","trial_type":"image-keyboard-response","trial_index":205,"plugin_version":"2.1.0","time_elapsed":297033,"subject_id":"91589","group":"Group2","condition":"1_Rep","full_date":"2026-02-23T19:18:02.346Z","date":"2026-02-23","time":"19:18:02","cor_ans":true},{"trial_type":"html-keyboard-response","rt":null,"stimulus":"<p style=\"color: green; font-size: 50px; font-weight: bold;\">Correct</p>","response":null,"trial_index":206,"plugin_version":"2.1.0","time_elapsed":297535,"subject_id":"91589","group":"Group2","condition":"1_Rep","full_date":"2026-02-23T19:18:02.346Z","date":"2026-02-23","time":"19:18:02"},{"correct_response":"l","task":"test_phase","broad_category":"M","image_png":"M_Phyllite_05.png","image_id":261,"category_name":"Phyllite","category":17,"distinct_rating":2.14,"distinct_type":"Bottom","item_type":"Target","rt":1538,"stimulus":"Stimuli_Rocks480/M_Phyllite_05.png","response":"a","trial_type":"image-keyboard-response","trial_index":207,"plugin_version":"2.1.0","time_elapsed":299087,"subject_id":"91589","group":"Group2","condition":"1_Rep","full_date":"2026-02-23T19:18:02.346Z","date":"2026-02-23","time":"19:18:02","cor_ans":false},{"trial_type":"html-keyboard-response","rt":null,"stimulus":"<p style=\"color: red; font-size: 50px; font-weight: bold;\">Incorrect</p>","response":null,"trial_index":208,"plugin_version":"2.1.0","time_elapsed":299589,"subject_id":"91589","group":"Group2","condition":"1_Rep","full_date":"2026-02-23T19:18:02.346Z","date":"2026-02-23","time":"19:18:02"},{"correct_response":"a","task":"test_phase","broad_category":"M","image_png":"M_Phyllite_07.png","image_id":263,"category_name":"Phyllite","category":17,"distinct_rating":2.59,"distinct_type":"Bottom","item_type":"Foil","rt":492,"stimulus":"Stimuli_Rocks480/M_Phyllite_07.png","response":"l","trial_type":"image-keyboard-response","trial_index":209,"plugin_version":"2.1.0","time_elapsed":300091,"subject_id":"91589","group":"Group2","condition":"1_Rep","full_date":"2026-02-23T19:18:02.346Z","date":"2026-02-23","time":"19:18:02","cor_ans":false},{"trial_type":"html-keyboard-response","rt":null,"stimulus":"<p style=\"color: red; font-size: 50px; font-weight: bold;\">Incorrect</p>","response":null,"trial_index":210,"plugin_version":"2.1.0","time_elapsed":300593,"subject_id":"91589","group":"Group2","condition":"1_Rep","full_date":"2026-02-23T19:18:02.346Z","date":"2026-02-23","time":"19:18:02"},{"correct_response":"a","task":"test_phase","broad_category":"I","image_png":"I_Pumice_11.png","image_id":139,"category_name":"Pumice","category":9,"distinct_rating":1.74,"distinct_type":"Bottom","item_type":"Foil","rt":252,"stimulus":"Stimuli_Rocks480/I_Pumice_11.png","response":"a","trial_type":"image-keyboard-response","trial_index":211,"plugin_version":"2.1.0","time_elapsed":300854,"subject_id":"91589","group":"Group2","condition":"1_Rep","full_date":"2026-02-23T19:18:02.346Z","date":"2026-02-23","time":"19:18:02","cor_ans":true},{"trial_type":"html-keyboard-response","rt":null,"stimulus":"<p style=\"color: green; font-size: 50px; font-weight: bold;\">Correct</p>","response":null,"trial_index":212,"plugin_version":"2.1.0","time_elapsed":301356,"subject_id":"91589","group":"Group2","condition":"1_Rep","full_date":"2026-02-23T19:18:02.346Z","date":"2026-02-23","time":"19:18:02"},{"correct_response":"a","task":"test_phase","broad_category":"M","image_png":"M_Gneiss_13.png","image_id":205,"category_name":"Gneiss","category":13,"distinct_rating":3.26,"distinct_type":"Bottom","item_type":"Foil","rt":91,"stimulus":"Stimuli_Rocks480/M_Gneiss_13.png","response":"a","trial_type":"image-keyboard-response","trial_index":213,"plugin_version":"2.1.0","time_elapsed":301458,"subject_id":"91589","group":"Group2","condition":"1_Rep","full_date":"2026-02-23T19:18:02.346Z","date":"2026-02-23","time":"19:18:02","cor_ans":true},{"trial_type":"html-keyboard-response","rt":null,"stimulus":"<p style=\"color: green; font-size: 50px; font-weight: bold;\">Correct</p>","response":null,"trial_index":214,"plugin_version":"2.1.0","time_elapsed":301960,"subject_id":"91589","group":"Group2","condition":"1_Rep","full_date":"2026-02-23T19:18:02.346Z","date":"2026-02-23","time":"19:18:02"},{"correct_response":"a","task":"test_phase","broad_category":"I","image_png":"I_Diorite_04.png","image_id":36,"category_name":"Diorite","category":3,"distinct_rating":2.98,"distinct_type":"Bottom","item_type":"Foil","rt":41,"stimulus":"Stimuli_Rocks480/I_Diorite_04.png","response":"l","trial_type":"image-keyboard-response","trial_index":215,"plugin_version":"2.1.0","time_elapsed":302016,"subject_id":"91589","group":"Group2","condition":"1_Rep","full_date":"2026-02-23T19:18:02.346Z","date":"2026-02-23","time":"19:18:02","cor_ans":false},{"trial_type":"html-keyboard-response","rt":null,"stimulus":"<p style=\"color: red; font-size: 50px; font-weight: bold;\">Incorrect</p>","response":null,"trial_index":216,"plugin_version":"2.1.0","time_elapsed":302518,"subject_id":"91589","group":"Group2","condition":"1_Rep","full_date":"2026-02-23T19:18:02.346Z","date":"2026-02-23","time":"19:18:02"},{"correct_response":"l","task":"test_phase","broad_category":"M","image_png":"M_Quartzite_15.png","image_id":287,"category_name":"Quartzite","category":18,"distinct_rating":2.19,"distinct_type":"Bottom","item_type":"Target","rt":48,"stimulus":"Stimuli_Rocks480/M_Quartzite_15.png","response":"l","trial_type":"image-keyboard-response","trial_index":217,"plugin_version":"2.1.0","time_elapsed":302578,"subject_id":"91589","group":"Group2","condition":"1_Rep","full_date":"2026-02-23T19:18:02.346Z","date":"2026-02-23","time":"19:18:02","cor_ans":true},{"trial_type":"html-keyboard-response","rt":null,"stimulus":"<p style=\"color: green; font-size: 50px; font-weight: bold;\">Correct</p>","response":null,"trial_index":218,"plugin_version":"2.1.0","time_elapsed":303079,"subject_id":"91589","group":"Group2","condition":"1_Rep","full_date":"2026-02-23T19:18:02.346Z","date":"2026-02-23","time":"19:18:02"},{"correct_response":"a","task":"test_phase","broad_category":"M","image_png":"M_Slate_15.png","image_id":319,"category_name":"Slate","category":20,"distinct_rating":2.13,"distinct_type":"Bottom","item_type":"Foil","rt":45,"stimulus":"Stimuli_Rocks480/M_Slate_15.png","response":"a","trial_type":"image-keyboard-response","trial_index":219,"plugin_version":"2.1.0","time_elapsed":303134,"subject_id":"91589","group":"Group2","condition":"1_Rep","full_date":"2026-02-23T19:18:02.346Z","date":"2026-02-23","time":"19:18:02","cor_ans":true},{"trial_type":"html-keyboard-response","rt":null,"stimulus":"<p style=\"color: green; font-size: 50px; font-weight: bold;\">Correct</p>","response":null,"trial_index":220,"plugin_version":"2.1.0","time_elapsed":303636,"subject_id":"91589","group":"Group2","condition":"1_Rep","full_date":"2026-02-23T19:18:02.346Z","date":"2026-02-23","time":"19:18:02"},{"correct_response":"l","task":"test_phase","broad_category":"I","image_png":"I_Basalt_10.png","image_id":26,"category_name":"Basalt","category":2,"distinct_rating":2.76,"distinct_type":"Bottom","item_type":"Target","rt":764,"stimulus":"Stimuli_Rocks480/I_Basalt_10.png","response":"l","trial_type":"image-keyboard-response","trial_index":221,"plugin_version":"2.1.0","time_elapsed":304415,"subject_id":"91589","group":"Group2","condition":"1_Rep","full_date":"2026-02-23T19:18:02.346Z","date":"2026-02-23","time":"19:18:02","cor_ans":true},{"trial_type":"html-keyboard-response","rt":null,"stimulus":"<p style=\"color: green; font-size: 50px; font-weight: bold;\">Correct</p>","response":null,"trial_index":222,"plugin_version":"2.1.0","time_elapsed":304917,"subject_id":"91589","group":"Group2","condition":"1_Rep","full_date":"2026-02-23T19:18:02.346Z","date":"2026-02-23","time":"19:18:02"},{"correct_response":"a","task":"test_phase","broad_category":"I","image_png":"I_Andesite_06.png","image_id":6,"category_name":"Andesite","category":1,"distinct_rating":3.17,"distinct_type":"Bottom","item_type":"Foil","rt":483,"stimulus":"Stimuli_Rocks480/I_Andesite_06.png","response":"l","trial_type":"image-keyboard-response","trial_index":223,"plugin_version":"2.1.0","time_elapsed":305414,"subject_id":"91589","group":"Group2","condition":"1_Rep","full_date":"2026-02-23T19:18:02.346Z","date":"2026-02-23","time":"19:18:02","cor_ans":false},{"trial_type":"html-keyboard-response","rt":null,"stimulus":"<p style=\"color: red; font-size: 50px; font-weight: bold;\">Incorrect</p>","response":null,"trial_index":224,"plugin_version":"2.1.0","time_elapsed":305916,"subject_id":"91589","group":"Group2","condition":"1_Rep","full_date":"2026-02-23T19:18:02.346Z","date":"2026-02-23","time":"19:18:02"},{"correct_response":"l","task":"test_phase","broad_category":"M","image_png":"M_Phyllite_13.png","image_id":269,"category_name":"Ph