[{"width":700,"height":740,"webaudio":true,"browser":"chrome","browser_version":"142.0.0","mobile":false,"os":"Mac OS","fullscreen":true,"vsync_rate":60.04,"webcam":true,"microphone":true,"trial_type":"browser-check","trial_index":0,"plugin_version":"2.1.0","time_elapsed":1014,"subject_id":"90798","group":"Group1","condition":"1_Rep","full_date":"2026-02-14T21:59:39.804Z","date":"2026-02-14","time":"21:59:39"},{"success":true,"timeout":false,"failed_images":[],"failed_audio":[],"failed_video":[],"trial_type":"preload","trial_index":1,"plugin_version":"2.1.0","time_elapsed":15945,"subject_id":"90798","group":"Group1","condition":"1_Rep","full_date":"2026-02-14T21:59:39.804Z","date":"2026-02-14","time":"21:59:39"},{"rt":68230,"url":"SONA_consent_memorability.html","trial_type":"external-html","trial_index":2,"plugin_version":"2.1.0","time_elapsed":84235,"subject_id":"90798","group":"Group1","condition":"1_Rep","full_date":"2026-02-14T21:59:39.804Z","date":"2026-02-14","time":"21:59:39"},{"success":true,"rt":1426,"trial_type":"fullscreen","trial_index":3,"plugin_version":"2.1.0","time_elapsed":86674,"subject_id":"90798","group":"Group1","condition":"1_Rep","full_date":"2026-02-14T21:59:39.804Z","date":"2026-02-14","time":"21:59:39"},{"rt":1804,"stimulus":"<div style=\"max-width: 760px; margin: auto; font-size: 20px; line-height: 1.5;\">\n      <h1 style=\"text-align:center; font-size: 30px;\">Instructions</h1>\n      <p>\n        Welcome to the study on <b>visual memory</b>. This experiment consists of <b>two phases</b>: \n        a <b>study phase</b> and a <b>test phase</b>.\n      </p>\n      <p>\n        In the study phase, you will see a series of rock images along with their category labels.\n        The images will appear one at a time.\n        <b>Your task</b> is to learn the categories to which the rock images belong \n        and to remember each image as accurately as possible.\n      </p> \n      <p>\n        Note that you will see each image only <b>once</b> during the study phase. \n          So, please pay close attention and try to remember each image carefully.\n      </p>\n      <p>\n        After the study phase, <b>your memory will be tested</b>. \n        Additional instructions for the test phase will be provided at that time.\n      </p>\n      <p>\n        If your computer has multiple <b>language settings</b> (e.g., English and another language),\n        please make sure it is set to English before starting.\n      </p>\n      <p>\n        You can track your progress using the <b>completion bar</b> at the top of the screen. \n        Please note that the bar will refresh when the test phase begins \n        to give you an accurate sense of your progress in both phases.\n      </p> \n      <p>\n        Press the button below when you are ready to begin.\n      </p>\n    </div>","response":0,"trial_type":"html-button-response","trial_index":4,"plugin_version":"2.1.0","time_elapsed":88500,"subject_id":"90798","group":"Group1","condition":"1_Rep","full_date":"2026-02-14T21:59:39.804Z","date":"2026-02-14","time":"21:59:39"},{"rt":null,"stimulus":"<p style=\"font-size: 50px; margin: 0; text-align: center;\">+</p>","response":null,"trial_type":"html-keyboard-response","trial_index":5,"plugin_version":"2.1.0","time_elapsed":89504,"subject_id":"90798","group":"Group1","condition":"1_Rep","full_date":"2026-02-14T21:59:39.804Z","date":"2026-02-14","time":"21:59:39"},{"task":"memory_phase","broad_category":"I","image_png":"I_Rhyolite_16.png","image_id":160,"category_name":"Rhyolite","category":10,"distinct_rating":2.19,"distinct_type":"Bottom","rt":null,"stimulus":"Stimuli_Rocks480/I_Rhyolite_16.png","response":null,"trial_type":"image-keyboard-response","trial_index":6,"plugin_version":"2.1.0","time_elapsed":92012,"subject_id":"90798","group":"Group1","condition":"1_Rep","full_date":"2026-02-14T21:59:39.804Z","date":"2026-02-14","time":"21:59:39"},{"rt":null,"stimulus":"<p style=\"font-size: 50px; margin: 0; text-align: center;\">+</p>","response":null,"trial_type":"html-keyboard-response","trial_index":7,"plugin_version":"2.1.0","time_elapsed":93014,"subject_id":"90798","group":"Group1","condition":"1_Rep","full_date":"2026-02-14T21:59:39.804Z","date":"2026-02-14","time":"21:59:39"},{"task":"memory_phase","broad_category":"S","image_png":"S_Dolomite_12.png","image_id":396,"category_name":"Dolomite","category":25,"distinct_rating":1.85,"distinct_type":"Bottom","rt":null,"stimulus":"Stimuli_Rocks480/S_Dolomite_12.png","response":null,"trial_type":"image-keyboard-response","trial_index":8,"plugin_version":"2.1.0","time_elapsed":95518,"subject_id":"90798","group":"Group1","condition":"1_Rep","full_date":"2026-02-14T21:59:39.804Z","date":"2026-02-14","time":"21:59:39"},{"rt":null,"stimulus":"<p style=\"font-size: 50px; margin: 0; text-align: center;\">+</p>","response":null,"trial_type":"html-keyboard-response","trial_index":9,"plugin_version":"2.1.0","time_elapsed":96521,"subject_id":"90798","group":"Group1","condition":"1_Rep","full_date":"2026-02-14T21:59:39.804Z","date":"2026-02-14","time":"21:59:39"},{"task":"memory_phase","broad_category":"I","image_png":"I_Diorite_03.png","image_id":35,"category_name":"Diorite","category":3,"distinct_rating":3.14,"distinct_type":"Bottom","rt":null,"stimulus":"Stimuli_Rocks480/I_Diorite_03.png","response":null,"trial_type":"image-keyboard-response","trial_index":10,"plugin_version":"2.1.0","time_elapsed":99025,"subject_id":"90798","group":"Group1","condition":"1_Rep","full_date":"2026-02-14T21:59:39.804Z","date":"2026-02-14","time":"21:59:39"},{"rt":null,"stimulus":"<p style=\"font-size: 50px; margin: 0; text-align: center;\">+</p>","response":null,"trial_type":"html-keyboard-response","trial_index":11,"plugin_version":"2.1.0","time_elapsed":100027,"subject_id":"90798","group":"Group1","condition":"1_Rep","full_date":"2026-02-14T21:59:39.804Z","date":"2026-02-14","time":"21:59:39"},{"task":"memory_phase","broad_category":"I","image_png":"I_Andesite_08.png","image_id":8,"category_name":"Andesite","category":1,"distinct_rating":1.95,"distinct_type":"Bottom","rt":null,"stimulus":"Stimuli_Rocks480/I_Andesite_08.png","response":null,"trial_type":"image-keyboard-response","trial_index":12,"plugin_version":"2.1.0","time_elapsed":102532,"subject_id":"90798","group":"Group1","condition":"1_Rep","full_date":"2026-02-14T21:59:39.804Z","date":"2026-02-14","time":"21:59:39"},{"rt":null,"stimulus":"<p style=\"font-size: 50px; margin: 0; text-align: center;\">+</p>","response":null,"trial_type":"html-keyboard-response","trial_index":13,"plugin_version":"2.1.0","time_elapsed":103534,"subject_id":"90798","group":"Group1","condition":"1_Rep","full_date":"2026-02-14T21:59:39.804Z","date":"2026-02-14","time":"21:59:39"},{"task":"memory_phase","broad_category":"I","image_png":"I_Gabbro_08.png","image_id":56,"category_name":"Gabbro","category":4,"distinct_rating":3.02,"distinct_type":"Bottom","rt":null,"stimulus":"Stimuli_Rocks480/I_Gabbro_08.png","response":null,"trial_type":"image-keyboard-response","trial_index":14,"plugin_version":"2.1.0","time_elapsed":106036,"subject_id":"90798","group":"Group1","condition":"1_Rep","full_date":"2026-02-14T21:59:39.804Z","date":"2026-02-14","time":"21:59:39"},{"rt":null,"stimulus":"<p style=\"font-size: 50px; margin: 0; text-align: center;\">+</p>","response":null,"trial_type":"html-keyboard-response","trial_index":15,"plugin_version":"2.1.0","time_elapsed":107039,"subject_id":"90798","group":"Group1","condition":"1_Rep","full_date":"2026-02-14T21:59:39.804Z","date":"2026-02-14","time":"21:59:39"},{"task":"memory_phase","broad_category":"M","image_png":"M_Quartzite_08.png","image_id":280,"category_name":"Quartzite","category":18,"distinct_rating":2.15,"distinct_type":"Bottom","rt":null,"stimulus":"Stimuli_Rocks480/M_Quartzite_08.png","response":null,"trial_type":"image-keyboard-response","trial_index":16,"plugin_version":"2.1.0","time_elapsed":109542,"subject_id":"90798","group":"Group1","condition":"1_Rep","full_date":"2026-02-14T21:59:39.804Z","date":"2026-02-14","time":"21:59:39"},{"rt":null,"stimulus":"<p style=\"font-size: 50px; margin: 0; text-align: center;\">+</p>","response":null,"trial_type":"html-keyboard-response","trial_index":17,"plugin_version":"2.1.0","time_elapsed":110545,"subject_id":"90798","group":"Group1","condition":"1_Rep","full_date":"2026-02-14T21:59:39.804Z","date":"2026-02-14","time":"21:59:39"},{"task":"memory_phase","broad_category":"S","image_png":"S_Sandstone_03.png","image_id":451,"category_name":"Sandstone","category":29,"distinct_rating":1.86,"distinct_type":"Bottom","rt":null,"stimulus":"Stimuli_Rocks480/S_Sandstone_03.png","response":null,"trial_type":"image-keyboard-response","trial_index":18,"plugin_version":"2.1.0","time_elapsed":113054,"subject_id":"90798","group":"Group1","condition":"1_Rep","full_date":"2026-02-14T21:59:39.804Z","date":"2026-02-14","time":"21:59:39"},{"rt":null,"stimulus":"<p style=\"font-size: 50px; margin: 0; text-align: center;\">+</p>","response":null,"trial_type":"html-keyboard-response","trial_index":19,"plugin_version":"2.1.0","time_elapsed":114057,"subject_id":"90798","group":"Group1","condition":"1_Rep","full_date":"2026-02-14T21:59:39.804Z","date":"2026-02-14","time":"21:59:39"},{"task":"memory_phase","broad_category":"M","image_png":"M_Slate_11.png","image_id":315,"category_name":"Slate","category":20,"distinct_rating":2.75,"distinct_type":"Bottom","rt":null,"stimulus":"Stimuli_Rocks480/M_Slate_11.png","response":null,"trial_type":"image-keyboard-response","trial_index":20,"plugin_version":"2.1.0","time_elapsed":116561,"subject_id":"90798","group":"Group1","condition":"1_Rep","full_date":"2026-02-14T21:59:39.804Z","date":"2026-02-14","time":"21:59:39"},{"rt":null,"stimulus":"<p style=\"font-size: 50px; margin: 0; text-align: center;\">+</p>","response":null,"trial_type":"html-keyboard-response","trial_index":21,"plugin_version":"2.1.0","time_elapsed":117564,"subject_id":"90798","group":"Group1","condition":"1_Rep","full_date":"2026-02-14T21:59:39.804Z","date":"2026-02-14","time":"21:59:39"},{"task":"memory_phase","broad_category":"I","image_png":"I_Basalt_09.png","image_id":25,"category_name":"Basalt","category":2,"distinct_rating":1.89,"distinct_type":"Bottom","rt":null,"stimulus":"Stimuli_Rocks480/I_Basalt_09.png","response":null,"trial_type":"image-keyboard-response","trial_index":22,"plugin_version":"2.1.0","time_elapsed":120070,"subject_id":"90798","group":"Group1","condition":"1_Rep","full_date":"2026-02-14T21:59:39.804Z","date":"2026-02-14","time":"21:59:39"},{"rt":null,"stimulus":"<p style=\"font-size: 50px; margin: 0; text-align: center;\">+</p>","response":null,"trial_type":"html-keyboard-response","trial_index":23,"plugin_version":"2.1.0","time_elapsed":121073,"subject_id":"90798","group":"Group1","condition":"1_Rep","full_date":"2026-02-14T21:59:39.804Z","date":"2026-02-14","time":"21:59:39"},{"task":"memory_phase","broad_category":"M","image_png":"M_Quartzite_05.png","image_id":277,"category_name":"Quartzite","category":18,"distinct_rating":2.23,"distinct_type":"Bottom","rt":null,"stimulus":"Stimuli_Rocks480/M_Quartzite_05.png","response":null,"trial_type":"image-keyboard-response","trial_index":24,"plugin_version":"2.1.0","time_elapsed":123577,"subject_id":"90798","group":"Group1","condition":"1_Rep","full_date":"2026-02-14T21:59:39.804Z","date":"2026-02-14","time":"21:59:39"},{"rt":null,"stimulus":"<p style=\"font-size: 50px; margin: 0; text-align: center;\">+</p>","response":null,"trial_type":"html-keyboard-response","trial_index":25,"plugin_version":"2.1.0","time_elapsed":124580,"subject_id":"90798","group":"Group1","condition":"1_Rep","full_date":"2026-02-14T21:59:39.804Z","date":"2026-02-14","time":"21:59:39"},{"task":"memory_phase","broad_category":"M","image_png":"M_Slate_15.png","image_id":319,"category_name":"Slate","category":20,"distinct_rating":2.13,"distinct_type":"Bottom","rt":null,"stimulus":"Stimuli_Rocks480/M_Slate_15.png","response":null,"trial_type":"image-keyboard-response","trial_index":26,"plugin_version":"2.1.0","time_elapsed":127084,"subject_id":"90798","group":"Group1","condition":"1_Rep","full_date":"2026-02-14T21:59:39.804Z","date":"2026-02-14","time":"21:59:39"},{"rt":null,"stimulus":"<p style=\"font-size: 50px; margin: 0; text-align: center;\">+</p>","response":null,"trial_type":"html-keyboard-response","trial_index":27,"plugin_version":"2.1.0","time_elapsed":128087,"subject_id":"90798","group":"Group1","condition":"1_Rep","full_date":"2026-02-14T21:59:39.804Z","date":"2026-02-14","time":"21:59:39"},{"task":"memory_phase","broad_category":"S","image_png":"S_Dolomite_14.png","image_id":398,"category_name":"Dolomite","category":25,"distinct_rating":1.43,"distinct_type":"Bottom","rt":null,"stimulus":"Stimuli_Rocks480/S_Dolomite_14.png","response":null,"trial_type":"image-keyboard-response","trial_index":28,"plugin_version":"2.1.0","time_elapsed":130591,"subject_id":"90798","group":"Group1","condition":"1_Rep","full_date":"2026-02-14T21:59:39.804Z","date":"2026-02-14","time":"21:59:39"},{"rt":null,"stimulus":"<p style=\"font-size: 50px; margin: 0; text-align: center;\">+</p>","response":null,"trial_type":"html-keyboard-response","trial_index":29,"plugin_version":"2.1.0","time_elapsed":131594,"subject_id":"90798","group":"Group1","condition":"1_Rep","full_date":"2026-02-14T21:59:39.804Z","date":"2026-02-14","time":"21:59:39"},{"task":"memory_phase","broad_category":"I","image_png":"I_Gabbro_11.png","image_id":59,"category_name":"Gabbro","category":4,"distinct_rating":1.99,"distinct_type":"Bottom","rt":null,"stimulus":"Stimuli_Rocks480/I_Gabbro_11.png","response":null,"trial_type":"image-keyboard-response","trial_index":30,"plugin_version":"2.1.0","time_elapsed":134098,"subject_id":"90798","group":"Group1","condition":"1_Rep","full_date":"2026-02-14T21:59:39.804Z","date":"2026-02-14","time":"21:59:39"},{"rt":null,"stimulus":"<p style=\"font-size: 50px; margin: 0; text-align: center;\">+</p>","response":null,"trial_type":"html-keyboard-response","trial_index":31,"plugin_version":"2.1.0","time_elapsed":135101,"subject_id":"90798","group":"Group1","condition":"1_Rep","full_date":"2026-02-14T21:59:39.804Z","date":"2026-02-14","time":"21:59:39"},{"task":"memory_phase","broad_category":"S","image_png":"S_Rock Gypsum_04.png","image_id":420,"category_name":"Rock Gypsum","category":27,"distinct_rating":7.61,"distinct_type":"Top","rt":null,"stimulus":"Stimuli_Rocks480/S_Rock Gypsum_04.png","response":null,"trial_type":"image-keyboard-response","trial_index":32,"plugin_version":"2.1.0","time_elapsed":137605,"subject_id":"90798","group":"Group1","condition":"1_Rep","full_date":"2026-02-14T21:59:39.804Z","date":"2026-02-14","time":"21:59:39"},{"rt":null,"stimulus":"<p style=\"font-size: 50px; margin: 0; text-align: center;\">+</p>","response":null,"trial_type":"html-keyboard-response","trial_index":33,"plugin_version":"2.1.0","time_elapsed":138608,"subject_id":"90798","group":"Group1","condition":"1_Rep","full_date":"2026-02-14T21:59:39.804Z","date":"2026-02-14","time":"21:59:39"},{"task":"memory_phase","broad_category":"I","image_png":"I_Gabbro_16.png","image_id":64,"category_name":"Gabbro","category":4,"distinct_rating":2.52,"distinct_type":"Bottom","rt":null,"stimulus":"Stimuli_Rocks480/I_Gabbro_16.png","response":null,"trial_type":"image-keyboard-response","trial_index":34,"plugin_version":"2.1.0","time_elapsed":141112,"subject_id":"90798","group":"Group1","condition":"1_Rep","full_date":"2026-02-14T21:59:39.804Z","date":"2026-02-14","time":"21:59:39"},{"rt":null,"stimulus":"<p style=\"font-size: 50px; margin: 0; text-align: center;\">+</p>","response":null,"trial_type":"html-keyboard-response","trial_index":35,"plugin_version":"2.1.0","time_elapsed":142116,"subject_id":"90798","group":"Group1","condition":"1_Rep","full_date":"2026-02-14T21:59:39.804Z","date":"2026-02-14","time":"21:59:39"},{"task":"memory_phase","broad_category":"M","image_png":"M_Phyllite_07.png","image_id":263,"category_name":"Phyllite","category":17,"distinct_rating":2.59,"distinct_type":"Bottom","rt":null,"stimulus":"Stimuli_Rocks480/M_Phyllite_07.png","response":null,"trial_type":"image-keyboard-response","trial_index":36,"plugin_version":"2.1.0","time_elapsed":144618,"subject_id":"90798","group":"Group1","condition":"1_Rep","full_date":"2026-02-14T21:59:39.804Z","date":"2026-02-14","time":"21:59:39"},{"rt":null,"stimulus":"<p style=\"font-size: 50px; margin: 0; text-align: center;\">+</p>","response":null,"trial_type":"html-keyboard-response","trial_index":37,"plugin_version":"2.1.0","time_elapsed":145621,"subject_id":"90798","group":"Group1","condition":"1_Rep","full_date":"2026-02-14T21:59:39.804Z","date":"2026-02-14","time":"21:59:39"},{"task":"memory_phase","broad_category":"S","image_png":"S_Sandstone_15.png","image_id":463,"category_name":"Sandstone","category":29,"distinct_rating":2,"distinct_type":"Bottom","rt":null,"stimulus":"Stimuli_Rocks480/S_Sandstone_15.png","response":null,"trial_type":"image-keyboard-response","trial_index":38,"plugin_version":"2.1.0","time_elapsed":148125,"subject_id":"90798","group":"Group1","condition":"1_Rep","full_date":"2026-02-14T21:59:39.804Z","date":"2026-02-14","time":"21:59:39"},{"rt":null,"stimulus":"<p style=\"font-size: 50px; margin: 0; text-align: center;\">+</p>","response":null,"trial_type":"html-keyboard-response","trial_index":39,"plugin_version":"2.1.0","time_elapsed":149127,"subject_id":"90798","group":"Group1","condition":"1_Rep","full_date":"2026-02-14T21:59:39.804Z","date":"2026-02-14","time":"21:59:39"},{"task":"memory_phase","broad_category":"S","image_png":"S_Dolomite_13.png","image_id":397,"category_name":"Dolomite","category":25,"distinct_rating":1.77,"distinct_type":"Bottom","rt":null,"stimulus":"Stimuli_Rocks480/S_Dolomite_13.png","response":null,"trial_type":"image-keyboard-response","trial_index":40,"plugin_version":"2.1.0","time_elapsed":151630,"subject_id":"90798","group":"Group1","condition":"1_Rep","full_date":"2026-02-14T21:59:39.804Z","date":"2026-02-14","time":"21:59:39"},{"rt":null,"stimulus":"<p style=\"font-size: 50px; margin: 0; text-align: center;\">+</p>","response":null,"trial_type":"html-keyboard-response","trial_index":41,"plugin_version":"2.1.0","time_elapsed":152633,"subject_id":"90798","group":"Group1","condition":"1_Rep","full_date":"2026-02-14T21:59:39.804Z","date":"2026-02-14","time":"21:59:39"},{"task":"memory_phase","broad_category":"I","image_png":"I_Pumice_11.png","image_id":139,"category_name":"Pumice","category":9,"distinct_rating":1.74,"distinct_type":"Bottom","rt":null,"stimulus":"Stimuli_Rocks480/I_Pumice_11.png","response":null,"trial_type":"image-keyboard-response","trial_index":42,"plugin_version":"2.1.0","time_elapsed":155137,"subject_id":"90798","group":"Group1","condition":"1_Rep","full_date":"2026-02-14T21:59:39.804Z","date":"2026-02-14","time":"21:59:39"},{"rt":null,"stimulus":"<p style=\"font-size: 50px; margin: 0; text-align: center;\">+</p>","response":null,"trial_type":"html-keyboard-response","trial_index":43,"plugin_version":"2.1.0","time_elapsed":156140,"subject_id":"90798","group":"Group1","condition":"1_Rep","full_date":"2026-02-14T21:59:39.804Z","date":"2026-02-14","time":"21:59:39"},{"task":"memory_phase","broad_category":"M","image_png":"M_Gneiss_06.png","image_id":198,"category_name":"Gneiss","category":13,"distinct_rating":2.65,"distinct_type":"Bottom","rt":null,"stimulus":"Stimuli_Rocks480/M_Gneiss_06.png","response":null,"trial_type":"image-keyboard-response","trial_index":44,"plugin_version":"2.1.0","time_elapsed":158644,"subject_id":"90798","group":"Group1","condition":"1_Rep","full_date":"2026-02-14T21:59:39.804Z","date":"2026-02-14","time":"21:59:39"},{"rt":null,"stimulus":"<p style=\"font-size: 50px; margin: 0; text-align: center;\">+</p>","response":null,"trial_type":"html-keyboard-response","trial_index":45,"plugin_version":"2.1.0","time_elapsed":159647,"subject_id":"90798","group":"Group1","condition":"1_Rep","full_date":"2026-02-14T21:59:39.804Z","date":"2026-02-14","time":"21:59:39"},{"task":"memory_phase","broad_category":"I","image_png":"I_Basalt_01.png","image_id":17,"category_name":"Basalt","category":2,"distinct_rating":1.92,"distinct_type":"Bottom","rt":null,"stimulus":"Stimuli_Rocks480/I_Basalt_01.png","response":null,"trial_type":"image-keyboard-response","trial_index":46,"plugin_version":"2.1.0","time_elapsed":162150,"subject_id":"90798","group":"Group1","condition":"1_Rep","full_date":"2026-02-14T21:59:39.804Z","date":"2026-02-14","time":"21:59:39"},{"rt":null,"stimulus":"<p style=\"font-size: 50px; margin: 0; text-align: center;\">+</p>","response":null,"trial_type":"html-keyboard-response","trial_index":47,"plugin_version":"2.1.0","time_elapsed":163152,"subject_id":"90798","group":"Group1","condition":"1_Rep","full_date":"2026-02-14T21:59:39.804Z","date":"2026-02-14","time":"21:59:39"},{"task":"memory_phase","broad_category":"I","image_png":"I_Rhyolite_14.png","image_id":158,"category_name":"Rhyolite","category":10,"distinct_rating":2.59,"distinct_type":"Bottom","rt":null,"stimulus":"Stimuli_Rocks480/I_Rhyolite_14.png","response":null,"trial_type":"image-keyboard-response","trial_index":48,"plugin_version":"2.1.0","time_elapsed":165657,"subject_id":"90798","group":"Group1","condition":"1_Rep","full_date":"2026-02-14T21:59:39.804Z","date":"2026-02-14","time":"21:59:39"},{"rt":null,"stimulus":"<p style=\"font-size: 50px; margin: 0; text-align: center;\">+</p>","response":null,"trial_type":"html-keyboard-response","trial_index":49,"plugin_version":"2.1.0","time_elapsed":166660,"subject_id":"90798","group":"Group1","condition":"1_Rep","full_date":"2026-02-14T21:59:39.804Z","date":"2026-02-14","time":"21:59:39"},{"task":"memory_phase","broad_category":"M","image_png":"M_Slate_03.png","image_id":307,"category_name":"Slate","category":20,"distinct_rating":1.87,"distinct_type":"Bottom","rt":null,"stimulus":"Stimuli_Rocks480/M_Slate_03.png","response":null,"trial_type":"image-keyboard-response","trial_index":50,"plugin_version":"2.1.0","time_elapsed":169164,"subject_id":"90798","group":"Group1","condition":"1_Rep","full_date":"2026-02-14T21:59:39.804Z","date":"2026-02-14","time":"21:59:39"},{"rt":null,"stimulus":"<p style=\"font-size: 50px; margin: 0; text-align: center;\">+</p>","response":null,"trial_type":"html-keyboard-response","trial_index":51,"plugin_version":"2.1.0","time_elapsed":170167,"subject_id":"90798","group":"Group1","condition":"1_Rep","full_date":"2026-02-14T21:59:39.804Z","date":"2026-02-14","time":"21:59:39"},{"task":"memory_phase","broad_category":"S","image_png":"S_Conglomerate_05.png","image_id":373,"category_name":"Conglomerate","category":24,"distinct_rating":7.32,"distinct_type":"Top","rt":null,"stimulus":"Stimuli_Rocks480/S_Conglomerate_05.png","response":null,"trial_type":"image-keyboard-response","trial_index":52,"plugin_version":"2.1.0","time_elapsed":172671,"subject_id":"90798","group":"Group1","condition":"1_Rep","full_date":"2026-02-14T21:59:39.804Z","date":"2026-02-14","time":"21:59:39"},{"rt":null,"stimulus":"<p style=\"font-size: 50px; margin: 0; text-align: center;\">+</p>","response":null,"trial_type":"html-keyboard-response","trial_index":53,"plugin_version":"2.1.0","time_elapsed":173674,"subject_id":"90798","group":"Group1","condition":"1_Rep","full_date":"2026-02-14T21:59:39.804Z","date":"2026-02-14","time":"21:59:39"},{"task":"memory_phase","broad_category":"S","image_png":"S_Shale_08.png","image_id":472,"category_name":"Shale","category":30,"distinct_rating":2.55,"distinct_type":"Bottom","rt":null,"stimulus":"Stimuli_Rocks480/S_Shale_08.png","response":null,"trial_type":"image-keyboard-response","trial_index":54,"plugin_version":"2.1.0","time_elapsed":176178,"subject_id":"90798","group":"Group1","condition":"1_Rep","full_date":"2026-02-14T21:59:39.804Z","date":"2026-02-14","time":"21:59:39"},{"rt":2071,"stimulus":"<p style=\"max-width: 760px; margin: auto; font-size: 35px; line-height: 1.5;\">\n                Press SPACE to continue study phase\n              </p>","response":" ","trial_type":"html-keyboard-response","trial_index":55,"plugin_version":"2.1.0","time_elapsed":178251,"subject_id":"90798","group":"Group1","condition":"1_Rep","full_date":"2026-02-14T21:59:39.804Z","date":"2026-02-14","time":"21:59:39"},{"rt":null,"stimulus":"<p style=\"font-size: 50px; margin: 0; text-align: center;\">+</p>","response":null,"trial_type":"html-keyboard-response","trial_index":56,"plugin_version":"2.1.0","time_elapsed":179253,"subject_id":"90798","group":"Group1","condition":"1_Rep","full_date":"2026-02-14T21:59:39.804Z","date":"2026-02-14","time":"21:59:39"},{"task":"memory_phase","broad_category":"M","image_png":"M_Phyllite_10.png","image_id":266,"category_name":"Phyllite","category":17,"distinct_rating":2.6,"distinct_type":"Bottom","rt":null,"stimulus":"Stimuli_Rocks480/M_Phyllite_10.png","response":null,"trial_type":"image-keyboard-response","trial_index":57,"plugin_version":"2.1.0","time_elapsed":181757,"subject_id":"90798","group":"Group1","condition":"1_Rep","full_date":"2026-02-14T21:59:39.804Z","date":"2026-02-14","time":"21:59:39"},{"rt":null,"stimulus":"<p style=\"font-size: 50px; margin: 0; text-align: center;\">+</p>","response":null,"trial_type":"html-keyboard-response","trial_index":58,"plugin_version":"2.1.0","time_elapsed":182759,"subject_id":"90798","group":"Group1","condition":"1_Rep","full_date":"2026-02-14T21:59:39.804Z","date":"2026-02-14","time":"21:59:39"},{"task":"memory_phase","broad_category":"S","image_png":"S_Sandstone_16.png","image_id":464,"category_name":"Sandstone","category":29,"distinct_rating":1.93,"distinct_type":"Bottom","rt":null,"stimulus":"Stimuli_Rocks480/S_Sandstone_16.png","response":null,"trial_type":"image-keyboard-response","trial_index":59,"plugin_version":"2.1.0","time_elapsed":185264,"subject_id":"90798","group":"Group1","condition":"1_Rep","full_date":"2026-02-14T21:59:39.804Z","date":"2026-02-14","time":"21:59:39"},{"rt":null,"stimulus":"<p style=\"font-size: 50px; margin: 0; text-align: center;\">+</p>","response":null,"trial_type":"html-keyboard-response","trial_index":60,"plugin_version":"2.1.0","time_elapsed":186266,"subject_id":"90798","group":"Group1","condition":"1_Rep","full_date":"2026-02-14T21:59:39.804Z","date":"2026-02-14","time":"21:59:39"},{"task":"memory_phase","broad_category":"S","image_png":"S_Shale_01.png","image_id":465,"category_name":"Shale","category":30,"distinct_rating":2.7,"distinct_type":"Bottom","rt":null,"stimulus":"Stimuli_Rocks480/S_Shale_01.png","response":null,"trial_type":"image-keyboard-response","trial_index":61,"plugin_version":"2.1.0","time_elapsed":188771,"subject_id":"90798","group":"Group1","condition":"1_Rep","full_date":"2026-02-14T21:59:39.804Z","date":"2026-02-14","time":"21:59:39"},{"rt":null,"stimulus":"<p style=\"font-size: 50px; margin: 0; text-align: center;\">+</p>","response":null,"trial_type":"html-keyboard-response","trial_index":62,"plugin_version":"2.1.0","time_elapsed":189774,"subject_id":"90798","group":"Group1","condition":"1_Rep","full_date":"2026-02-14T21:59:39.804Z","date":"2026-02-14","time":"21:59:39"},{"task":"memory_phase","broad_category":"M","image_png":"M_Gneiss_13.png","image_id":205,"category_name":"Gneiss","category":13,"distinct_rating":3.26,"distinct_type":"Bottom","rt":null,"stimulus":"Stimuli_Rocks480/M_Gneiss_13.png","response":null,"trial_type":"image-keyboard-response","trial_index":63,"plugin_version":"2.1.0","time_elapsed":192278,"subject_id":"90798","group":"Group1","condition":"1_Rep","full_date":"2026-02-14T21:59:39.804Z","date":"2026-02-14","time":"21:59:39"},{"rt":null,"stimulus":"<p style=\"font-size: 50px; margin: 0; text-align: center;\">+</p>","response":null,"trial_type":"html-keyboard-response","trial_index":64,"plugin_version":"2.1.0","time_elapsed":193281,"subject_id":"90798","group":"Group1","condition":"1_Rep","full_date":"2026-02-14T21:59:39.804Z","date":"2026-02-14","time":"21:59:39"},{"task":"memory_phase","broad_category":"I","image_png":"I_Pumice_08.png","image_id":136,"category_name":"Pumice","category":9,"distinct_rating":3.1,"distinct_type":"Bottom","rt":null,"stimulus":"Stimuli_Rocks480/I_Pumice_08.png","response":null,"trial_type":"image-keyboard-response","trial_index":65,"plugin_version":"2.1.0","time_elapsed":195785,"subject_id":"90798","group":"Group1","condition":"1_Rep","full_date":"2026-02-14T21:59:39.804Z","date":"2026-02-14","time":"21:59:39"},{"rt":null,"stimulus":"<p style=\"font-size: 50px; margin: 0; text-align: center;\">+</p>","response":null,"trial_type":"html-keyboard-response","trial_index":66,"plugin_version":"2.1.0","time_elapsed":196788,"subject_id":"90798","group":"Group1","condition":"1_Rep","full_date":"2026-02-14T21:59:39.804Z","date":"2026-02-14","time":"21:59:39"},{"task":"memory_phase","broad_category":"I","image_png":"I_Diorite_04.png","image_id":36,"category_name":"Diorite","category":3,"distinct_rating":2.98,"distinct_type":"Bottom","rt":null,"stimulus":"Stimuli_Rocks480/I_Diorite_04.png","response":null,"trial_type":"image-keyboard-response","trial_index":67,"plugin_version":"2.1.0","time_elapsed":199292,"subject_id":"90798","group":"Group1","condition":"1_Rep","full_date":"2026-02-14T21:59:39.804Z","date":"2026-02-14","time":"21:59:39"},{"rt":null,"stimulus":"<p style=\"font-size: 50px; margin: 0; text-align: center;\">+</p>","response":null,"trial_type":"html-keyboard-response","trial_index":68,"plugin_version":"2.1.0","time_elapsed":200295,"subject_id":"90798","group":"Group1","condition":"1_Rep","full_date":"2026-02-14T21:59:39.804Z","date":"2026-02-14","time":"21:59:39"},{"task":"memory_phase","broad_category":"I","image_png":"I_Pegmatite_10.png","image_id":106,"category_name":"Pegmatite","category":7,"distinct_rating":7.66,"distinct_type":"Top","rt":null,"stimulus":"Stimuli_Rocks480/I_Pegmatite_10.png","response":null,"trial_type":"image-keyboard-response","trial_index":69,"plugin_version":"2.1.0","time_elapsed":202799,"subject_id":"90798","group":"Group1","condition":"1_Rep","full_date":"2026-02-14T21:59:39.804Z","date":"2026-02-14","time":"21:59:39"},{"rt":null,"stimulus":"<p style=\"font-size: 50px; margin: 0; text-align: center;\">+</p>","response":null,"trial_type":"html-keyboard-response","trial_index":70,"plugin_version":"2.1.0","time_elapsed":203801,"subject_id":"90798","group":"Group1","condition":"1_Rep","full_date":"2026-02-14T21:59:39.804Z","date":"2026-02-14","time":"21:59:39"},{"task":"memory_phase","broad_category":"I","image_png":"I_Obsidian_05.png","image_id":85,"category_name":"Obsidian","category":6,"distinct_rating":7.32,"distinct_type":"Top","rt":null,"stimulus":"Stimuli_Rocks480/I_Obsidian_05.png","response":null,"trial_type":"image-keyboard-response","trial_index":71,"plugin_version":"2.1.0","time_elapsed":206304,"subject_id":"90798","group":"Group1","condition":"1_Rep","full_date":"2026-02-14T21:59:39.804Z","date":"2026-02-14","time":"21:59:39"},{"rt":null,"stimulus":"<p style=\"font-size: 50px; margin: 0; text-align: center;\">+</p>","response":null,"trial_type":"html-keyboard-response","trial_index":72,"plugin_version":"2.1.0","time_elapsed":207306,"subject_id":"90798","group":"Group1","condition":"1_Rep","full_date":"2026-02-14T21:59:39.804Z","date":"2026-02-14","time":"21:59:39"},{"task":"memory_phase","broad_category":"I","image_png":"I_Andesite_06.png","image_id":6,"category_name":"Andesite","category":1,"distinct_rating":3.17,"distinct_type":"Bottom","rt":null,"stimulus":"Stimuli_Rocks480/I_Andesite_06.png","response":null,"trial_type":"image-keyboard-response","trial_index":73,"plugin_version":"2.1.0","time_elapsed":209810,"subject_id":"90798","group":"Group1","condition":"1_Rep","full_date":"2026-02-14T21:59:39.804Z","date":"2026-02-14","time":"21:59:39"},{"rt":null,"stimulus":"<p style=\"font-size: 50px; margin: 0; text-align: center;\">+</p>","response":null,"trial_type":"html-keyboard-response","trial_index":74,"plugin_version":"2.1.0","time_elapsed":210813,"subject_id":"90798","group":"Group1","condition":"1_Rep","full_date":"2026-02-14T21:59:39.804Z","date":"2026-02-14","time":"21:59:39"},{"task":"memory_phase","broad_category":"S","image_png":"S_Chert_10.png","image_id":362,"category_name":"Chert","category":23,"distinct_rating":7.17,"distinct_type":"Top","rt":null,"stimulus":"Stimuli_Rocks480/S_Chert_10.png","response":null,"trial_type":"image-keyboard-response","trial_index":75,"plugin_version":"2.1.0","time_elapsed":213317,"subject_id":"90798","group":"Group1","condition":"1_Rep","full_date":"2026-02-14T21:59:39.804Z","date":"2026-02-14","time":"21:59:39"},{"rt":null,"stimulus":"<p style=\"font-size: 50px; margin: 0; text-align: center;\">+</p>","response":null,"trial_type":"html-keyboard-response","trial_index":76,"plugin_version":"2.1.0","time_elapsed":214321,"subject_id":"90798","group":"Group1","condition":"1_Rep","full_date":"2026-02-14T21:59:39.804Z","date":"2026-02-14","time":"21:59:39"},{"task":"memory_phase","broad_category":"I","image_png":"I_Rhyolite_11.png","image_id":155,"category_name":"Rhyolite","category":10,"distinct_rating":1.73,"distinct_type":"Bottom","rt":null,"stimulus":"Stimuli_Rocks480/I_Rhyolite_11.png","response":null,"trial_type":"image-keyboard-response","trial_index":77,"plugin_version":"2.1.0","time_elapsed":216824,"subject_id":"90798","group":"Group1","condition":"1_Rep","full_date":"2026-02-14T21:59:39.804Z","date":"2026-02-14","time":"21:59:39"},{"rt":null,"stimulus":"<p style=\"font-size: 50px; margin: 0; text-align: center;\">+</p>","response":null,"trial_type":"html-keyboard-response","trial_index":78,"plugin_version":"2.1.0","time_elapsed":217826,"subject_id":"90798","group":"Group1","condition":"1_Rep","full_date":"2026-02-14T21:59:39.804Z","date":"2026-02-14","time":"21:59:39"},{"task":"memory_phase","broad_category":"M","image_png":"M_Marble_04.png","image_id":228,"category_name":"Marble","category":15,"distinct_rating":3.15,"distinct_type":"Bottom","rt":null,"stimulus":"Stimuli_Rocks480/M_Marble_04.png","response":null,"trial_type":"image-keyboard-response","trial_index":79,"plugin_version":"2.1.0","time_elapsed":220330,"subject_id":"90798","group":"Group1","condition":"1_Rep","full_date":"2026-02-14T21:59:39.804Z","date":"2026-02-14","time":"21:59:39"},{"rt":null,"stimulus":"<p style=\"font-size: 50px; margin: 0; text-align: center;\">+</p>","response":null,"trial_type":"html-keyboard-response","trial_index":80,"plugin_version":"2.1.0","time_elapsed":221333,"subject_id":"90798","group":"Group1","condition":"1_Rep","full_date":"2026-02-14T21:59:39.804Z","date":"2026-02-14","time":"21:59:39"},{"task":"memory_phase","broad_category":"M","image_png":"M_Quartzite_13.png","image_id":285,"category_name":"Quartzite","category":18,"distinct_rating":2.27,"distinct_type":"Bottom","rt":null,"stimulus":"Stimuli_Rocks480/M_Quartzite_13.png","response":null,"trial_type":"image-keyboard-response","trial_index":81,"plugin_version":"2.1.0","time_elapsed":223838,"subject_id":"90798","group":"Group1","condition":"1_Rep","full_date":"2026-02-14T21:59:39.804Z","date":"2026-02-14","time":"21:59:39"},{"rt":null,"stimulus":"<p style=\"font-size: 50px; margin: 0; text-align: center;\">+</p>","response":null,"trial_type":"html-keyboard-response","trial_index":82,"plugin_version":"2.1.0","time_elapsed":224840,"subject_id":"90798","group":"Group1","condition":"1_Rep","full_date":"2026-02-14T21:59:39.804Z","date":"2026-02-14","time":"21:59:39"},{"task":"memory_phase","broad_category":"M","image_png":"M_Gneiss_05.png","image_id":197,"category_name":"Gneiss","category":13,"distinct_rating":2.97,"distinct_type":"Bottom","rt":null,"stimulus":"Stimuli_Rocks480/M_Gneiss_05.png","response":null,"trial_type":"image-keyboard-response","trial_index":83,"plugin_version":"2.1.0","time_elapsed":227345,"subject_id":"90798","group":"Group1","condition":"1_Rep","full_date":"2026-02-14T21:59:39.804Z","date":"2026-02-14","time":"21:59:39"},{"rt":null,"stimulus":"<p style=\"font-size: 50px; margin: 0; text-align: center;\">+</p>","response":null,"trial_type":"html-keyboard-response","trial_index":84,"plugin_version":"2.1.0","time_elapsed":228347,"subject_id":"90798","group":"Group1","condition":"1_Rep","full_date":"2026-02-14T21:59:39.804Z","date":"2026-02-14","time":"21:59:39"},{"task":"memory_phase","broad_category":"I","image_png":"I_Pegmatite_16.png","image_id":112,"category_name":"Pegmatite","category":7,"distinct_rating":7.03,"distinct_type":"Top","rt":null,"stimulus":"Stimuli_Rocks480/I_Pegmatite_16.png","response":null,"trial_type":"image-keyboard-response","trial_index":85,"plugin_version":"2.1.0","time_elapsed":230851,"subject_id":"90798","group":"Group1","condition":"1_Rep","full_date":"2026-02-14T21:59:39.804Z","date":"2026-02-14","time":"21:59:39"},{"rt":null,"stimulus":"<p style=\"font-size: 50px; margin: 0; text-align: center;\">+</p>","response":null,"trial_type":"html-keyboard-response","trial_index":86,"plugin_version":"2.1.0","time_elapsed":231854,"subject_id":"90798","group":"Group1","condition":"1_Rep","full_date":"2026-02-14T21:59:39.804Z","date":"2026-02-14","time":"21:59:39"},{"task":"memory_phase","broad_category":"M","image_png":"M_Phyllite_03.png","image_id":259,"category_name":"Phyllite","category":17,"distinct_rating":2.5,"distinct_type":"Bottom","rt":null,"stimulus":"Stimuli_Rocks480/M_Phyllite_03.png","response":null,"trial_type":"image-keyboard-response","trial_index":87,"plugin_version":"2.1.0","time_elapsed":234358,"subject_id":"90798","group":"Group1","condition":"1_Rep","full_date":"2026-02-14T21:59:39.804Z","date":"2026-02-14","time":"21:59:39"},{"rt":null,"stimulus":"<p style=\"font-size: 50px; margin: 0; text-align: center;\">+</p>","response":null,"trial_type":"html-keyboard-response","trial_index":88,"plugin_version":"2.1.0","time_elapsed":235361,"subject_id":"90798","group":"Group1","condition":"1_Rep","full_date":"2026-02-14T21:59:39.804Z","date":"2026-02-14","time":"21:59:39"},{"task":"memory_phase","broad_category":"I","image_png":"I_Pumice_12.png","image_id":140,"category_name":"Pumice","category":9,"distinct_rating":2.97,"distinct_type":"Bottom","rt":null,"stimulus":"Stimuli_Rocks480/I_Pumice_12.png","response":null,"trial_type":"image-keyboard-response","trial_index":89,"plugin_version":"2.1.0","time_elapsed":237865,"subject_id":"90798","group":"Group1","condition":"1_Rep","full_date":"2026-02-14T21:59:39.804Z","date":"2026-02-14","time":"21:59:39"},{"rt":null,"stimulus":"<p style=\"font-size: 50px; margin: 0; text-align: center;\">+</p>","response":null,"trial_type":"html-keyboard-response","trial_index":90,"plugin_version":"2.1.0","time_elapsed":238867,"subject_id":"90798","group":"Group1","condition":"1_Rep","full_date":"2026-02-14T21:59:39.804Z","date":"2026-02-14","time":"21:59:39"},{"task":"memory_phase","broad_category":"I","image_png":"I_Basalt_02.png","image_id":18,"category_name":"Basalt","category":2,"distinct_rating":1.84,"distinct_type":"Bottom","rt":null,"stimulus":"Stimuli_Rocks480/I_Basalt_02.png","response":null,"trial_type":"image-keyboard-response","trial_index":91,"plugin_version":"2.1.0","time_elapsed":241371,"subject_id":"90798","group":"Group1","condition":"1_Rep","full_date":"2026-02-14T21:59:39.804Z","date":"2026-02-14","time":"21:59:39"},{"rt":null,"stimulus":"<p style=\"font-size: 50px; margin: 0; text-align: center;\">+</p>","response":null,"trial_type":"html-keyboard-response","trial_index":92,"plugin_version":"2.1.0","time_elapsed":242373,"subject_id":"90798","group":"Group1","condition":"1_Rep","full_date":"2026-02-14T21:59:39.804Z","date":"2026-02-14","time":"21:59:39"},{"task":"memory_phase","broad_category":"I","image_png":"I_Andesite_10.png","image_id":10,"category_name":"Andesite","category":1,"distinct_rating":3.15,"distinct_type":"Bottom","rt":null,"stimulus":"Stimuli_Rocks480/I_Andesite_10.png","response":null,"trial_type":"image-keyboard-response","trial_index":93,"plugin_version":"2.1.0","time_elapsed":244879,"subject_id":"90798","group":"Group1","condition":"1_Rep","full_date":"2026-02-14T21:59:39.804Z","date":"2026-02-14","time":"21:59:39"},{"rt":null,"stimulus":"<p style=\"font-size: 50px; margin: 0; text-align: center;\">+</p>","response":null,"trial_type":"html-keyboard-response","trial_index":94,"plugin_version":"2.1.0","time_elapsed":245882,"subject_id":"90798","group":"Group1","condition":"1_Rep","full_date":"2026-02-14T21:59:39.804Z","date":"2026-02-14","time":"21:59:39"},{"task":"memory_phase","broad_category":"M","image_png":"M_Marble_06.png","image_id":230,"category_name":"Marble","category":15,"distinct_rating":3.4,"distinct_type":"Bottom","rt":null,"stimulus":"Stimuli_Rocks480/M_Marble_06.png","response":null,"trial_type":"image-keyboard-response","trial_index":95,"plugin_version":"2.1.0","time_elapsed":248386,"subject_id":"90798","group":"Group1","condition":"1_Rep","full_date":"2026-02-14T21:59:39.804Z","date":"2026-02-14","time":"21:59:39"},{"rt":null,"stimulus":"<p style=\"font-size: 50px; margin: 0; text-align: center;\">+</p>","response":null,"trial_type":"html-keyboard-response","trial_index":96,"plugin_version":"2.1.0","time_elapsed":249388,"subject_id":"90798","group":"Group1","condition":"1_Rep","full_date":"2026-02-14T21:59:39.804Z","date":"2026-02-14","time":"21:59:39"},{"task":"memory_phase","broad_category":"S","image_png":"S_Shale_12.png","image_id":476,"category_name":"Shale","category":30,"distinct_rating":2.48,"distinct_type":"Bottom","rt":null,"stimulus":"Stimuli_Rocks480/S_Shale_12.png","response":null,"trial_type":"image-keyboard-response","trial_index":97,"plugin_version":"2.1.0","time_elapsed":251892,"subject_id":"90798","group":"Group1","condition":"1_Rep","full_date":"2026-02-14T21:59:39.804Z","date":"2026-02-14","time":"21:59:39"},{"rt":null,"stimulus":"<p style=\"font-size: 50px; margin: 0; text-align: center;\">+</p>","response":null,"trial_type":"html-keyboard-response","trial_index":98,"plugin_version":"2.1.0","time_elapsed":252895,"subject_id":"90798","group":"Group1","condition":"1_Rep","full_date":"2026-02-14T21:59:39.804Z","date":"2026-02-14","time":"21:59:39"},{"task":"memory_phase","broad_category":"S","image_png":"S_Breccia_11.png","image_id":347,"category_name":"Breccia","category":22,"distinct_rating":6.7,"distinct_type":"Top","rt":null,"stimulus":"Stimuli_Rocks480/S_Breccia_11.png","response":null,"trial_type":"image-keyboard-response","trial_index":99,"plugin_version":"2.1.0","time_elapsed":255400,"subject_id":"90798","group":"Group1","condition":"1_Rep","full_date":"2026-02-14T21:59:39.804Z","date":"2026-02-14","time":"21:59:39"},{"rt":null,"stimulus":"<p style=\"font-size: 50px; margin: 0; text-align: center;\">+</p>","response":null,"trial_type":"html-keyboard-response","trial_index":100,"plugin_version":"2.1.0","time_elapsed":256403,"subject_id":"90798","group":"Group1","condition":"1_Rep","full_date":"2026-02-14T21:59:39.804Z","date":"2026-02-14","time":"21:59:39"},{"task":"memory_phase","broad_category":"M","image_png":"M_Marble_16.png","image_id":240,"category_name":"Marble","category":15,"distinct_rating":2.57,"distinct_type":"Bottom","rt":null,"stimulus":"Stimuli_Rocks480/M_Marble_16.png","response":null,"trial_type":"image-keyboard-response","trial_index":101,"plugin_version":"2.1.0","time_elapsed":258907,"subject_id":"90798","group":"Group1","condition":"1_Rep","full_date":"2026-02-14T21:59:39.804Z","date":"2026-02-14","time":"21:59:39"},{"rt":null,"stimulus":"<p style=\"font-size: 50px; margin: 0; text-align: center;\">+</p>","response":null,"trial_type":"html-keyboard-response","trial_index":102,"plugin_version":"2.1.0","time_elapsed":259910,"subject_id":"90798","group":"Group1","condition":"1_Rep","full_date":"2026-02-14T21:59:39.804Z","date":"2026-02-14","time":"21:59:39"},{"task":"memory_phase","broad_category":"S","image_png":"S_Rock Salt_01.png","image_id":433,"category_name":"Rock Salt","category":28,"distinct_rating":7.18,"distinct_type":"Top","rt":null,"stimulus":"Stimuli_Rocks480/S_Rock Salt_01.png","response":null,"trial_type":"image-keyboard-response","trial_index":103,"plugin_version":"2.1.0","time_elapsed":262413,"subject_id":"90798","group":"Group1","condition":"1_Rep","full_date":"2026-02-14T21:59:39.804Z","date":"2026-02-14","time":"21:59:39"},{"rt":null,"stimulus":"<p style=\"font-size: 50px; margin: 0; text-align: center;\">+</p>","response":null,"trial_type":"html-keyboard-response","trial_index":104,"plugin_version":"2.1.0","time_elapsed":263416,"subject_id":"90798","group":"Group1","condition":"1_Rep","full_date":"2026-02-14T21:59:39.804Z","date":"2026-02-14","time":"21:59:39"},{"task":"memory_phase","broad_category":"I","image_png":"I_Diorite_05.png","image_id":37,"category_name":"Diorite","category":3,"distinct_rating":3.08,"distinct_type":"Bottom","rt":null,"stimulus":"Stimuli_Rocks480/I_Diorite_05.png","response":null,"trial_type":"image-keyboard-response","trial_index":105,"plugin_version":"2.1.0","time_elapsed":265918,"subject_id":"90798","group":"Group1","condition":"1_Rep","full_date":"2026-02-14T21:59:39.804Z","date":"2026-02-14","time":"21:59:39"},{"rt":1758,"stimulus":"<div style=\"max-width: 760px; margin: auto; font-size: 20px; line-height: 1.5;\">\n      <h1 style=\"text-align:center; font-size: 30px;\">Instructions for the Test Phase</h1>\n      <p>\n        The study phase is now complete.\n      </p>\n      <p>\n        In the test phase, you will again see a series of rock images. \n        Some will be ones you saw before - during the study phase, while others will be new.  \n        <b>Your task</b> is to decide whether you have seen each image before by pressing the corresponding key on your keyboard:<br><br>\n          <b>A</b> - NO (you did not see this image before)<br>\n          <b>L</b> - YES (you saw this image before)<br><br>\n        The test will proceed at your own pace. You will receive feedback after each response.  \n        Please try to respond <b>as accurately as possible</b>.\n      </p>\n      <p>\n        <b>Reminder:</b> If your computer has multiple language settings (e.g., English and another language),\n        please ensure it is set to English during the test phase.\n      </p>\n      <p>\n        You can track your progress using the <b>completion bar</b> at the top of the screen.  \n        Note that it has been refreshed to reflect your progress during this final phase.\n      </p>\n      <p>\n        Press the button below when you are ready to continue.\n      </p>\n    </div>","response":0,"trial_type":"html-button-response","trial_index":106,"plugin_version":"2.1.0","time_elapsed":267682,"subject_id":"90798","group":"Group1","condition":"1_Rep","full_date":"2026-02-14T21:59:39.804Z","date":"2026-02-14","time":"21:59:39"},{"correct_response":"a","task":"test_phase","broad_category":"I","image_png":"I_Andesite_03.png","image_id":3,"category_name":"Andesite","category":1,"distinct_rating":3.17,"distinct_type":"Bottom","item_type":"Foil","rt":7799,"stimulus":"Stimuli_Rocks480/I_Andesite_03.png","response":"a","trial_type":"image-keyboard-response","trial_index":107,"plugin_version":"2.1.0","time_elapsed":275483,"subject_id":"90798","group":"Group1","condition":"1_Rep","full_date":"2026-02-14T21:59:39.804Z","date":"2026-02-14","time":"21:59:39","cor_ans":true},{"trial_type":"html-keyboard-response","rt":null,"stimulus":"<p style=\"color: green; font-size: 50px; font-weight: bold;\">Correct</p>","response":null,"trial_index":108,"plugin_version":"2.1.0","time_elapsed":275984,"subject_id":"90798","group":"Group1","condition":"1_Rep","full_date":"2026-02-14T21:59:39.804Z","date":"2026-02-14","time":"21:59:39"},{"correct_response":"l","task":"test_phase","broad_category":"S","image_png":"S_Dolomite_13.png","image_id":397,"category_name":"Dolomite","category":25,"distinct_rating":1.77,"distinct_type":"Bottom","item_type":"Target","rt":1756,"stimulus":"Stimuli_Rocks480/S_Dolomite_13.png","response":"l","trial_type":"image-keyboard-response","trial_index":109,"plugin_version":"2.1.0","time_elapsed":277741,"subject_id":"90798","group":"Group1","condition":"1_Rep","full_date":"2026-02-14T21:59:39.804Z","date":"2026-02-14","time":"21:59:39","cor_ans":true},{"trial_type":"html-keyboard-response","rt":null,"stimulus":"<p style=\"color: green; font-size: 50px; font-weight: bold;\">Correct</p>","response":null,"trial_index":110,"plugin_version":"2.1.0","time_elapsed":278243,"subject_id":"90798","group":"Group1","condition":"1_Rep","full_date":"2026-02-14T21:59:39.804Z","date":"2026-02-14","time":"21:59:39"},{"correct_response":"l","task":"test_phase","broad_category":"S","image_png":"S_Shale_12.png","image_id":476,"category_name":"Shale","category":30,"distinct_rating":2.48,"distinct_type":"Bottom","item_type":"Target","rt":1825,"stimulus":"Stimuli_Rocks480/S_Shale_12.png","response":"l","trial_type":"image-keyboard-response","trial_index":111,"plugin_version":"2.1.0","time_elapsed":280070,"subject_id":"90798","group":"Group1","condition":"1_Rep","full_date":"2026-02-14T21:59:39.804Z","date":"2026-02-14","time":"21:59:39","cor_ans":true},{"trial_type":"html-keyboard-response","rt":null,"stimulus":"<p style=\"color: green; font-size: 50px; font-weight: bold;\">Correct</p>","response":null,"trial_index":112,"plugin_version":"2.1.0","time_elapsed":280571,"subject_id":"90798","group":"Group1","condition":"1_Rep","full_date":"2026-02-14T21:59:39.804Z","date":"2026-02-14","time":"21:59:39"},{"correct_response":"l","task":"test_phase","broad_category":"I","image_png":"I_Diorite_05.png","image_id":37,"category_name":"Diorite","category":3,"distinct_rating":3.08,"distinct_type":"Bottom","item_type":"Target","rt":1251,"stimulus":"Stimuli_Rocks480/I_Diorite_05.png","response":"a","trial_type":"image-keyboard-response","trial_index":113,"plugin_version":"2.1.0","time_elapsed":281825,"subject_id":"90798","group":"Group1","condition":"1_Rep","full_date":"2026-02-14T21:59:39.804Z","date":"2026-02-14","time":"21:59:39","cor_ans":false},{"trial_type":"html-keyboard-response","rt":null,"stimulus":"<p style=\"color: red; font-size: 50px; font-weight: bold;\">Incorrect</p>","response":null,"trial_index":114,"plugin_version":"2.1.0","time_elapsed":282327,"subject_id":"90798","group":"Group1","condition":"1_Rep","full_date":"2026-02-14T21:59:39.804Z","date":"2026-02-14","time":"21:59:39"},{"correct_response":"l","task":"test_phase","broad_category":"I","image_png":"I_Basalt_02.png","image_id":18,"category_name":"Basalt","category":2,"distinct_rating":1.84,"distinct_type":"Bottom","item_type":"Target","rt":1487,"stimulus":"Stimuli_Rocks480/I_Basalt_02.png","response":"l","trial_type":"image-keyboard-response","trial_index":115,"plugin_version":"2.1.0","time_elapsed":283817,"subject_id":"90798","group":"Group1","condition":"1_Rep","full_date":"2026-02-14T21:59:39.804Z","date":"2026-02-14","time":"21:59:39","cor_ans":true},{"trial_type":"html-keyboard-response","rt":null,"stimulus":"<p style=\"color: green; font-size: 50px; font-weight: bold;\">Correct</p>","response":null,"trial_index":116,"plugin_version":"2.1.0","time_elapsed":284318,"subject_id":"90798","group":"Group1","condition":"1_Rep","full_date":"2026-02-14T21:59:39.804Z","date":"2026-02-14","time":"21:59:39"},{"correct_response":"a","task":"test_phase","broad_category":"I","image_png":"I_Rhyolite_10.png","image_id":154,"category_name":"Rhyolite","category":10,"distinct_rating":2.88,"distinct_type":"Bottom","item_type":"Foil","rt":1570,"stimulus":"Stimuli_Rocks480/I_Rhyolite_10.png","response":"a","trial_type":"image-keyboard-response","trial_index":117,"plugin_version":"2.1.0","time_elapsed":285889,"subject_id":"90798","group":"Group1","condition":"1_Rep","full_date":"2026-02-14T21:59:39.804Z","date":"2026-02-14","time":"21:59:39","cor_ans":true},{"trial_type":"html-keyboard-response","rt":null,"stimulus":"<p style=\"color: green; font-size: 50px; font-weight: bold;\">Correct</p>","response":null,"trial_index":118,"plugin_version":"2.1.0","time_elapsed":286391,"subject_id":"90798","group":"Group1","condition":"1_Rep","full_date":"2026-02-14T21:59:39.804Z","date":"2026-02-14","time":"21:59:39"},{"correct_response":"a","task":"test_phase","broad_category":"I","image_png":"I_Andesite_04.png","image_id":4,"category_name":"Andesite","category":1,"distinct_rating":3.18,"distinct_type":"Bottom","item_type":"Foil","rt":1691,"stimulus":"Stimuli_Rocks480/I_Andesite_04.png","response":"a","trial_type":"image-keyboard-response","trial_index":119,"plugin_version":"2.1.0","time_elapsed":288083,"subject_id":"90798","group":"Group1","condition":"1_Rep","full_date":"2026-02-14T21:59:39.804Z","date":"2026-02-14","time":"21:59:39","cor_ans":true},{"trial_type":"html-keyboard-response","rt":null,"stimulus":"<p style=\"color: green; font-size: 50px; font-weight: bold;\">Correct</p>","response":null,"trial_index":120,"plugin_version":"2.1.0","time_elapsed":288585,"subject_id":"90798","group":"Group1","condition":"1_Rep","full_date":"2026-02-14T21:59:39.804Z","date":"2026-02-14","time":"21:59:39"},{"correct_response":"a","task":"test_phase","broad_category":"I","image_png":"I_Pegmatite_11.png","image_id":107,"category_name":"Pegmatite","category":7,"distinct_rating":7.11,"distinct_type":"Top","item_type":"Foil","rt":1592,"stimulus":"Stimuli_Rocks480/I_Pegmatite_11.png","response":"a","trial_type":"image-keyboard-response","trial_index":121,"plugin_version":"2.1.0","time_elapsed":290179,"subject_id":"90798","group":"Group1","condition":"1_Rep","full_date":"2026-02-14T21:59:39.804Z","date":"2026-02-14","time":"21:59:39","cor_ans":true},{"trial_type":"html-keyboard-response","rt":null,"stimulus":"<p style=\"color: green; font-size: 50px; font-weight: bold;\">Correct</p>","response":null,"trial_index":122,"plugin_version":"2.1.0","time_elapsed":290680,"subject_id":"90798","group":"Group1","condition":"1_Rep","full_date":"2026-02-14T21:59:39.804Z","date":"2026-02-14","time":"21:59:39"},{"correct_response":"l","task":"test_phase","broad_category":"I","image_png":"I_Andesite_10.png","image_id":10,"category_name":"Andesite","category":1,"distinct_rating":3.15,"distinct_type":"Bottom","item_type":"Target","rt":1329,"stimulus":"Stimuli_Rocks480/I_Andesite_10.png","response":"a","trial_type":"image-keyboard-response","trial_index":123,"plugin_version":"2.1.0","time_elapsed":292011,"subject_id":"90798","group":"Group1","condition":"1_Rep","full_date":"2026-02-14T21:59:39.804Z","date":"2026-02-14","time":"21:59:39","cor_ans":false},{"trial_type":"html-keyboard-response","rt":null,"stimulus":"<p style=\"color: red; font-size: 50px; font-weight: bold;\">Incorrect</p>","response":null,"trial_index":124,"plugin_version":"2.1.0","time_elapsed":292513,"subject_id":"90798","group":"Group1","condition":"1_Rep","full_date":"2026-02-14T21:59:39.804Z","date":"2026-02-14","time":"21:59:39"},{"correct_response":"l","task":"test_phase","broad_category":"I","image_png":"I_Andesite_08.png","image_id":8,"category_name":"Andesite","category":1,"distinct_rating":1.95,"distinct_type":"Bottom","item_type":"Target","rt":1255,"stimulus":"Stimuli_Rocks480/I_Andesite_08.png","response":"l","trial_type":"image-keyboard-response","trial_index":125,"plugin_version":"2.1.0","time_elapsed":293770,"subject_id":"90798","group":"Group1","condition":"1_Rep","full_date":"2026-02-14T21:59:39.804Z","date":"2026-02-14","time":"21:59:39","cor_ans":true},{"trial_type":"html-keyboard-response","rt":null,"stimulus":"<p style=\"color: green; font-size: 50px; font-weight: bold;\">Correct</p>","response":null,"trial_index":126,"plugin_version":"2.1.0","time_elapsed":294271,"subject_id":"90798","group":"Group1","condition":"1_Rep","full_date":"2026-02-14T21:59:39.804Z","date":"2026-02-14","time":"21:59:39"},{"correct_response":"a","task":"test_phase","broad_category":"I","image_png":"I_Gabbro_02.png","image_id":50,"category_name":"Gabbro","category":4,"distinct_rating":2.73,"distinct_type":"Bottom","item_type":"Foil","rt":1136,"stimulus":"Stimuli_Rocks480/I_Gabbro_02.png","response":"l","trial_type":"image-keyboard-response","trial_index":127,"plugin_version":"2.1.0","time_elapsed":295408,"subject_id":"90798","group":"Group1","condition":"1_Rep","full_date":"2026-02-14T21:59:39.804Z","date":"2026-02-14","time":"21:59:39","cor_ans":false},{"trial_type":"html-keyboard-response","rt":null,"stimulus":"<p style=\"color: red; font-size: 50px; font-weight: bold;\">Incorrect</p>","response":null,"trial_index":128,"plugin_version":"2.1.0","time_elapsed":295909,"subject_id":"90798","group":"Group1","condition":"1_Rep","full_date":"2026-02-14T21:59:39.804Z","date":"2026-02-14","time":"21:59:39"},{"correct_response":"a","task":"test_phase","broad_category":"I","image_png":"I_Gabbro_14.png","image_id":62,"category_name":"Gabbro","category":4,"distinct_rating":2.95,"distinct_type":"Bottom","item_type":"Foil","rt":1211,"stimulus":"Stimuli_Rocks480/I_Gabbro_14.png","response":"l","trial_type":"image-keyboard-response","trial_index":129,"plugin_version":"2.1.0","time_elapsed":297123,"subject_id":"90798","group":"Group1","condition":"1_Rep","full_date":"2026-02-14T21:59:39.804Z","date":"2026-02-14","time":"21:59:39","cor_ans":false},{"trial_type":"html-keyboard-response","rt":null,"stimulus":"<p style=\"color: red; font-size: 50px; font-weight: bold;\">Incorrect</p>","response":null,"trial_index":130,"plugin_version":"2.1.0","time_elapsed":297624,"subject_id":"90798","group":"Group1","condition":"1_Rep","full_date":"2026-02-14T21:59:39.804Z","date":"2026-02-14","time":"21:59:39"},{"correct_response":"l","task":"test_phase","broad_category":"I","image_png":"I_Rhyolite_16.png","image_id":160,"category_name":"Rhyolite","category":10,"distinct_rating":2.19,"distinct_type":"Bottom","item_type":"Target","rt":1084,"stimulus":"Stimuli_Rocks480/I_Rhyolite_16.png","response":"a","trial_type":"image-keyboard-response","trial_index":131,"plugin_version":"2.1.0","time_elapsed":298711,"subject_id":"90798","group":"Group1","condition":"1_Rep","full_date":"2026-02-14T21:59:39.804Z","date":"2026-02-14","time":"21:59:39","cor_ans":false},{"trial_type":"html-keyboard-response","rt":null,"stimulus":"<p style=\"color: red; font-size: 50px; font-weight: bold;\">Incorrect</p>","response":null,"trial_index":132,"plugin_version":"2.1.0","time_elapsed":299212,"subject_id":"90798","group":"Group1","condition":"1_Rep","full_date":"2026-02-14T21:59:39.804Z","date":"2026-02-14","time":"21:59:39"},{"correct_response":"a","task":"test_phase","broad_category":"M","image_png":"M_Quartzite_07.png","image_id":279,"category_name":"Quartzite","category":18,"distinct_rating":1.97,"distinct_type":"Bottom","item_type":"Foil","rt":1028,"stimulus":"Stimuli_Rocks480/M_Quartzite_07.png","response":"l","trial_type":"image-keyboard-response","trial_index":133,"plugin_version":"2.1.0","time_elapsed":300241,"subject_id":"90798","group":"Group1","condition":"1_Rep","full_date":"2026-02-14T21:59:39.804Z","date":"2026-02-14","time":"21:59:39","cor_ans":false},{"trial_type":"html-keyboard-response","rt":null,"stimulus":"<p style=\"color: red; font-size: 50px; font-weight: bold;\">Incorrect</p>","response":null,"trial_index":134,"plugin_version":"2.1.0","time_elapsed":300742,"subject_id":"90798","group":"Group1","condition":"1_Rep","full_date":"2026-02-14T21:59:39.804Z","date":"2026-02-14","time":"21:59:39"},{"correct_response":"l","task":"test_phase","broad_category":"S","image_png":"S_Chert_10.png","image_id":362,"category_name":"Chert","category":23,"distinct_rating":7.17,"distinct_type":"Top","item_type":"Target","rt":845,"stimulus":"Stimuli_Rocks480/S_Chert_10.png","response":"a","trial_type":"image-keyboard-response","trial_index":135,"plugin_version":"2.1.0","time_elapsed":301590,"subject_id":"90798","group":"Group1","condition":"1_Rep","full_date":"2026-02-14T21:59:39.804Z","date":"2026-02-14","time":"21:59:39","cor_ans":false},{"trial_type":"html-keyboard-response","rt":null,"stimulus":"<p style=\"color: red; font-size: 50px; font-weight: bold;\">Incorrect</p>","response":null,"trial_index":136,"plugin_version":"2.1.0","time_elapsed":302090,"subject_id":"90798","group":"Group1","condition":"1_Rep","full_date":"2026-02-14T21:59:39.804Z","date":"2026-02-14","time":"21:59:39"},{"correct_response":"a","task":"test_phase","broad_category":"I","image_png":"I_Diorite_15.png","image_id":47,"category_name":"Diorite","category":3,"distinct_rating":3.05,"distinct_type":"Bottom","item_type":"Foil","rt":3109,"stimulus":"Stimuli_Rocks480/I_Diorite_15.png","response":"a","trial_type":"image-keyboard-response","trial_index":137,"plugin_version":"2.1.0","time_elapsed":305201,"subject_id":"90798","group":"Group1","condition":"1_Rep","full_date":"2026-02-14T21:59:39.804Z","date":"2026-02-14","time":"21:59:39","cor_ans":true},{"trial_type":"html-keyboard-response","rt":null,"stimulus":"<p style=\"color: green; font-size: 50px; font-weight: bold;\">Correct</p>","response":null,"trial_index":138,"plugin_version":"2.1.0","time_elapsed":305702,"subject_id":"90798","group":"Group1","condition":"1_Rep","full_date":"2026-02-14T21:59:39.804Z","date":"2026-02-14","time":"21:59:39"},{"correct_response":"a","task":"test_phase","broad_category":"I","image_png":"I_Diorite_10.png","image_id":42,"category_name":"Diorite","category":3,"distinct_rating":2.84,"distinct_type":"Bottom","item_type":"Foil","rt":1869,"stimulus":"Stimuli_Rocks480/I_Diorite_10.png","response":"l","trial_type":"image-keyboard-response","trial_index":139,"plugin_version":"2.1.0","time_elapsed":307574,"subject_id":"90798","group":"Group1","condition":"1_Rep","full_date":"2026-02-14T21:59:39.804Z","date":"2026-02-14","time":"21:59:39","cor_ans":false},{"trial_type":"html-keyboard-response","rt":null,"stimulus":"<p style=\"color: red; font-size: 50px; font-weight: bold;\">Incorrect</p>","response":null,"trial_index":140,"plugin_version":"2.1.0","time_elapsed":308076,"subject_id":"90798","group":"Group1","condition":"1_Rep","full_date":"2026-02-14T21:59:39.804Z","date":"2026-02-14","time":"21:59:39"},{"correct_response":"l","task":"test_phase","broad_category":"S","image_png":"S_Conglomerate_05.png","image_id":373,"category_name":"Conglomerate","category":24,"distinct_rating":7.32,"distinct_type":"Top","item_type":"Target","rt":906,"stimulus":"Stimuli_Rocks480/S_Conglomerate_05.png","response":"l","trial_type":"image-keyboard-response","trial_index":141,"plugin_version":"2.1.0","time_elapsed":308984,"subject_id":"90798","group":"Group1","condition":"1_Rep","full_date":"2026-02-14T21:59:39.804Z","date":"2026-02-14","time":"21:59:39","cor_ans":true},{"trial_type":"html-keyboard-response","rt":null,"stimulus":"<p style=\"color: green; font-size: 50px; font-weight: bold;\">Correct</p>","response":null,"trial_index":142,"plugin_version":"2.1.0","time_elapsed":309486,"subject_id":"90798","group":"Group1","condition":"1_Rep","full_date":"2026-02-14T21:59:39.804Z","date":"2026-02-14","time":"21:59:39"},{"correct_response":"l","task":"test_phase","broad_category":"M","image_png":"M_Phyllite_07.png","image_id":263,"category_name":"Phyllite","category":17,"distinct_rating":2.59,"distinct_type":"Bottom","item_type":"Target","rt":1151,"stimulus":"Stimuli_Rocks480/M_Phyllite_07.png","response":"l","trial_type":"image-keyboard-response","trial_index":143,"plugin_version":"2.1.0","time_elapsed":310639,"subject_id":"90798","group":"Group1","condition":"1_Rep","full_date":"2026-02-14T21:59:39.804Z","date":"2026-02-14","time":"21:59:39","cor_ans":true},{"trial_type":"html-keyboard-response","rt":null,"stimulus":"<p style=\"color: green; font-size: 50px; font-weight: bold;\">Correct</p>","response":null,"trial_index":144,"plugin_version":"2.1.0","time_elapsed":311141,"subject_id":"90798","group":"Group1","condition":"1_Rep","full_date":"2026-02-14T21:59:39.804Z","date":"2026-02-14","time":"21:59:39"},{"correct_response":"a","task":"test_phase","broad_category":"S","image_png":"S_Sandstone_04.png","image_id":452,"category_name":"Sandstone","category":29,"distinct_rating":1.8,"distinct_type":"Bottom","item_type":"Foil","rt":1429,"stimulus":"Stimuli_Rocks480/S_Sandstone_04.png","response":"l","trial_type":"image-keyboard-response","trial_index":145,"plugin_version":"2.1.0","time_elapsed":312573,"subject_id":"90798","group":"Group1","condition":"1_Rep","full_date":"2026-02-14T21:59:39.804Z","date":"2026-02-14","time":"21:59:39","cor_ans":false},{"trial_type":"html-keyboard-response","rt":null,"stimulus":"<p style=\"color: red; font-size: 50px; font-weight: bold;\">Incorrect</p>","response":null,"trial_index":146,"plugin_version":"2.1.0","time_elapsed":313075,"subject_id":"90798","group":"Group1","condition":"1_Rep","full_date":"2026-02-14T21:59:39.804Z","date":"2026-02-14","time":"21:59:39"},{"correct_response":"l","task":"test_phase","broad_category":"M","image_png":"M_Marble_06.png","image_id":230,"category_name":"Marble","category":15,"distinct_rating":3.4,"distinct_type":"Bottom","item_type":"Target","rt":992,"stimulus":"Stimuli_Rocks480/M_Marble_06.png","response":"a","trial_type":"image-keyboard-response","trial_index":147,"plugin_version":"2.1.0","time_elapsed":314069,"subject_id":"90798","group":"Group1","condition":"1_Rep","full_date":"2026-02-14T21:59:39.804Z","date":"2026-02-14","time":"21:59:39","cor_ans":false},{"trial_type":"html-keyboard-response","rt":null,"stimulus":"<p style=\"color: red; font-size: 50px; font-weight: bold;\">Incorrect</p>","response":null,"trial_index":148,"plugin_version":"2.1.0","time_elapsed":314571,"subject_id":"90798","group":"Group1","condition":"1_Rep","full_date":"2026-02-14T21:59:39.804Z","date":"2026-02-14","time":"21:59:39"},{"correct_response":"a","task":"test_phase","broad_category":"I","image_png":"I_Peridotite_13.png","image_id":125,"category_name":"Peridotite","category":8,"distinct_rating":7.28,"distinct_type":"Top","item_type":"Foil","rt":1226,"stimulus":"Stimuli_Rocks480/I_Peridotite_13.png","response":"a","trial_type":"image-keyboard-response","trial_index":149,"plugin_version":"2.1.0","time_elapsed":315799,"subject_id":"90798","group":"Group1","condition":"1_Rep","full_date":"2026-02-14T21:59:39.804Z","date":"2026-02-14","time":"21:59:39","cor_ans":true},{"trial_type":"html-keyboard-response","rt":null,"stimulus":"<p style=\"color: green; font-size: 50px; font-weight: bold;\">Correct</p>","response":null,"trial_index":150,"plugin_version":"2.1.0","time_elapsed":316301,"subject_id":"90798","group":"Group1","condition":"1_Rep","full_date":"2026-02-14T21:59:39.804Z","date":"2026-02-14","time":"21:59:39"},{"correct_response":"a","task":"test_phase","broad_category":"S","image_png":"S_Shale_02.png","image_id":466,"category_name":"Shale","category":30,"distinct_rating":2.9,"distinct_type":"Bottom","item_type":"Foil","rt":1197,"stimulus":"Stimuli_Rocks480/S_Shale_02.png","response":"l","trial_type":"image-keyboard-response","trial_index":151,"plugin_version":"2.1.0","time_elapsed":317501,"subject_id":"90798","group":"Group1","condition":"1_Rep","full_date":"2026-02-14T21:59:39.804Z","date":"2026-02-14","time":"21:59:39","cor_ans":false},{"trial_type":"html-keyboard-response","rt":null,"stimulus":"<p style=\"color: red; font-size: 50px; font-weight: bold;\">Incorrect</p>","response":null,"trial_index":152,"plugin_version":"2.1.0","time_elapsed":318002,"subject_id":"90798","group":"Group1","condition":"1_Rep","full_date":"2026-02-14T21:59:39.804Z","date":"2026-02-14","time":"21:59:39"},{"correct_response":"l","task":"test_phase","broad_category":"M","image_png":"M_Phyllite_03.png","image_id":259,"category_name":"Phyllite","category":17,"distinct_rating":2.5,"distinct_type":"Bottom","item_type":"Target","rt":1299,"stimulus":"Stimuli_Rocks480/M_Phyllite_03.png","response":"l","trial_type":"image-keyboard-response","trial_index":153,"plugin_version":"2.1.0","time_elapsed":319304,"subject_id":"90798","group":"Group1","condition":"1_Rep","full_date":"2026-02-14T21:59:39.804Z","date":"2026-02-14","time":"21:59:39","cor_ans":true},{"trial_type":"html-keyboard-response","rt":null,"stimulus":"<p style=\"color: green; font-size: 50px; font-weight: bold;\">Correct</p>","response":null,"trial_index":154,"plugin_version":"2.1.0","time_elapsed":319805,"subject_id":"90798","group":"Group1","condition":"1_Rep","full_date":"2026-02-14T21:59:39.804Z","date":"2026-02-14","time":"21:59:39"},{"correct_response":"l","task":"test_phase","broad_category":"I","image_png":"I_Rhyolite_11.png","image_id":155,"category_name":"Rhyolite","category":10,"distinct_rating":1.73,"distinct_type":"Bottom","item_type":"Target","rt":1001,"stimulus":"Stimuli_Rocks480/I_Rhyolite_11.png","response":"l","trial_type":"image-keyboard-response","trial_index":155,"plugin_version":"2.1.0","time_elapsed":320808,"subject_id":"90798","group":"Group1","condition":"1_Rep","full_date":"2026-02-14T21:59:39.804Z","date":"2026-02-14","time":"21:59:39","cor_ans":true},{"trial_type":"html-keyboard-response","rt":null,"stimulus":"<p style=\"color: green; font-size: 50px; font-weight: bold;\">Correct</p>","response":null,"trial_index":156,"plugin_version":"2.1.0","time_elapsed":321310,"subject_id":"90798","group":"Group1","condition":"1_Rep","full_date":"2026-02-14T21:59:39.804Z","date":"2026-02-14","time":"21:59:39"},{"correct_response":"l","task":"test_phase","broad_category":"M","image_png":"M_Quartzite_08.png","image_id":280,"category_name":"Quartzite","category":18,"distinct_rating":2.15,"distinct_type":"Bottom","item_type":"Target","rt":687,"stimulus":"Stimuli_Rocks480/M_Quartzite_08.png","response":"l","trial_type":"image-keyboard-response","trial_index":157,"plugin_version":"2.1.0","time_elapsed":321999,"subject_id":"90798","group":"Group1","condition":"1_Rep","full_date":"2026-02-14T21:59:39.804Z","date":"2026-02-14","time":"21:59:39","cor_ans":true},{"trial_type":"html-keyboard-response","rt":null,"stimulus":"<p style=\"color: green; font-size: 50px; font-weight: bold;\">Correct</p>","response":null,"trial_index":158,"plugin_version":"2.1.0","time_elapsed":322501,"subject_id":"90798","group":"Group1","condition":"1_Rep","full_date":"2026-02-14T21:59:39.804Z","date":"2026-02-14","time":"21:59:39"},{"correct_response":"l","task":"test_phase","broad_category":"M","image_png":"M_Slate_15.png","image_id":319,"category_name":"Slate","category":20,"distinct_rating":2.13,"distinct_type":"Bottom","item_type":"Target","rt":956,"stimulus":"Stimuli_Rocks480/M_Slate_15.png","response":"l","trial_type":"image-keyboard-response","trial_index":159,"plugin_version":"2.1.0","time_elapsed":323459,"subject_id":"90798","group":"Group1","condition":"1_Rep","full_date":"2026-02-14T21:59:39.804Z","date":"2026-02-14","time":"21:59:39","cor_ans":true},{"trial_type":"html-keyboard-response","rt":null,"stimulus":"<p style=\"color: green; font-size: 50px; font-weight: bold;\">Correct</p>","response":null,"trial_index":160,"plugin_version":"2.1.0","time_elapsed":323961,"subject_id":"90798","group":"Group1","condition":"1_Rep","full_date":"2026-02-14T21:59:39.804Z","date":"2026-02-14","time":"21:59:39"},{"correct_response":"l","task":"test_phase","broad_category":"I","image_png":"I_Pegmatite_10.png","image_id":106,"category_name":"Pegmatite","category":7,"distinct_rating":7.66,"distinct_type":"Top","item_type":"Target","rt":925,"stimulus":"Stimuli_Rocks480/I_Pegmatite_10.png","response":"a","trial_type":"image-keyboard-response","trial_index":161,"plugin_version":"2.1.0","time_elapsed":324888,"subject_id":"90798","group":"Group1","condition":"1_Rep","full_date":"2026-02-14T21:59:39.804Z","date":"2026-02-14","time":"21:59:39","cor_ans":false},{"trial_type":"html-keyboard-response","rt":null,"stimulus":"<p style=\"color: red; font-size: 50px; font-weight: bold;\">Incorrect</p>","response":null,"trial_index":162,"plugin_version":"2.1.0","time_elapsed":325390,"subject_id":"90798","group":"Group1","condition":"1_Rep","full_date":"2026-02-14T21:59:39.804Z","date":"2026-02-14","time":"21:59:39"},{"correct_response":"a","task":"test_phase","broad_category":"M","image_png":"M_Marble_14.png","image_id":238,"category_name":"Marble","category":15,"distinct_rating":3.31,"distinct_type":"Bottom","item_type":"Foil","rt":7460,"stimulus":"Stimuli_Rocks480/M_Marble_14.png","response":"a","trial_type":"image-keyboard-response","trial_index":163,"plugin_version":"2.1.0","time_elapsed":332853,"subject_id":"90798","group":"Group1","condition":"1_Rep","full_date":"2026-02-14T21:59:39.804Z","date":"2026-02-14","time":"21:59:39","cor_ans":true},{"trial_type":"html-keyboard-response","rt":null,"stimulus":"<p style=\"color: green; font-size: 50px; font-weight: bold;\">Correct</p>","response":null,"trial_index":164,"plugin_version":"2.1.0","time_elapsed":333355,"subject_id":"90798","group":"Group1","condition":"1_Rep","full_date":"2026-02-14T21:59:39.804Z","date":"2026-02-14","time":"21:59:39"},{"correct_response":"a","task":"test_phase","broad_category":"I","image_png":"I_Diorite_01.png","image_id":33,"category_name":"Diorite","category":3,"distinct_rating":2.97,"distinct_type":"Bottom","item_type":"Foil","rt":759,"stimulus":"Stimuli_Rocks480/I_Diorite_01.png","response":"l","trial_type":"image-keyboard-response","trial_index":165,"plugin_version":"2.1.0","time_elapsed":334116,"subject_id":"90798","group":"Group1","condition":"1_Rep","full_date":"2026-02-14T21:59:39.804Z","date":"2026-02-14","time":"21:59:39","cor_ans":false},{"trial_type":"html-keyboard-response","rt":null,"stimulus":"<p style=\"color: red; font-size: 50px; font-weight: bold;\">Incorrect</p>","response":null,"trial_index":166,"plugin_version":"2.1.0","time_elapsed":334617,"subject_id":"90798","group":"Group1","condition":"1_Rep","full_date":"2026-02-14T21:59:39.804Z","date":"2026-02-14","time":"21:59:39"},{"correct_response":"a","task":"test_phase","broad_category":"S","image_png":"S_Dolomite_07.png","image_id":391,"category_name":"Dolomite","category":25,"distinct_rating":1.73,"distinct_type":"Bottom","item_type":"Foil","rt":1309,"stimulus":"Stimuli_Rocks480/S_Dolomite_07.png","response":"l","trial_type":"image-keyboard-response","trial_index":167,"plugin_version":"2.1.0","time_elapsed":335928,"subject_id":"90798","group":"Group1","condition":"1_Rep","full_date":"2026-02-14T21:59:39.804Z","date":"2026-02-14","time":"21:59:39","cor_ans":false},{"trial_type":"html-keyboard-response","rt":null,"stimulus":"<p style=\"color: red; font-size: 50px; font-weight: bold;\">Incorrect</p>","response":null,"trial_index":168,"plugin_version":"2.1.0","time_elapsed":336431,"subject_id":"90798","group":"Group1","condition":"1_Rep","full_date":"2026-02-14T21:59:39.804Z","date":"2026-02-14","time":"21:59:39"},{"correct_response":"l","task":"test_phase","broad_category":"S","image_png":"S_Rock Salt_01.png","image_id":433,"category_name":"Rock Salt","category":28,"distinct_rating":7.18,"distinct_type":"Top","item_type":"Target","rt":785,"stimulus":"Stimuli_Rocks480/S_Rock Salt_01.png","response":"a","trial_type":"image-keyboard-response","trial_index":169,"plugin_version":"2.1.0","time_elapsed":337219,"subject_id":"90798","group":"Group1","condition":"1_Rep","full_date":"2026-02-14T21:59:39.804Z","date":"2026-02-14","time":"21:59:39","cor_ans":false},{"trial_type":"html-keyboard-response","rt":null,"stimulus":"<p style=\"color: red; font-size: 50px; font-weight: bold;\">Incorrect</p>","response":null,"trial_index":170,"plugin_version":"2.1.0","time_elapsed":337721,"subject_id":"90798","group":"Group1","condition":"1_Rep","full_date":"2026-02-14T21:59:39.804Z","date":"2026-02-14","time":"21:59:39"},{"correct_response":"l","task":"test_phase","broad_category":"I","image_png":"I_Gabbro_08.png","image_id":56,"category_name":"Gabbro","category":4,"distinct_rating":3.02,"distinct_type":"Bottom","item_type":"Target","rt":5507,"stimulus":"Stimuli_Rocks480/I_Gabbro_08.png","response":"l","trial_type":"image-keyboard-response","trial_index":171,"plugin_version":"2.1.0","time_elapsed":343229,"subject_id":"90798","group":"Group1","condition":"1_Rep","full_date":"2026-02-14T21:59:39.804Z","date":"2026-02-14","time":"21:59:39","cor_ans":true},{"trial_type":"html-keyboard-response","rt":null,"stimulus":"<p style=\"color: green; font-size: 50px; font-weight: bold;\">Correct</p>","response":null,"trial_index":172,"plugin_version":"2.1.0","time_elapsed":343731,"subject_id":"90798","group":"Group1","condition":"1_Rep","full_date":"2026-02-14T21:59:39.804Z","date":"2026-02-14","time":"21:59:39"},{"correct_response":"l","task":"test_phase","broad_category":"I","image_png":"I_Rhyolite_14.png","image_id":158,"category_name":"Rhyolite","category":10,"distinct_rating":2.59,"distinct_type":"Bottom","item_type":"Target","rt":1071,"stimulus":"Stimuli_Rocks480/I_Rhyolite_14.png","response":"l","trial_type":"image-keyboard-response","trial_index":173,"plugin_version":"2.1.0","time_elapsed":344804,"subject_id":"90798","group":"Group1","condition":"1_Rep","full_date":"2026-02-14T21:59:39.804Z","date":"2026-02-14","time":"21:59:39","cor_ans":true},{"trial_type":"html-keyboard-response","rt":null,"stimulus":"<p style=\"color: green; font-size: 50px; font-weight: bold;\">Correct</p>","response":null,"trial_index":174,"plugin_version":"2.1.0","time_elapsed":345305,"subject_id":"90798","group":"Group1","condition":"1_Rep","full_date":"2026-02-14T21:59:39.804Z","date":"2026-02-14","time":"21:59:39"},{"correct_response":"l","task":"test_phase","broad_category":"I","image_png":"I_Obsidian_05.png","image_id":85,"category_name":"Obsidian","category":6,"distinct_rating":7.32,"distinct_type":"Top","item_type":"Target","rt":1029,"stimulus":"Stimuli_Rocks480/I_Obsidian_05.png","response":"l","trial_type":"image-keyboard-response","trial_index":175,"plugin_version":"2.1.0","time_elapsed":346337,"subject_id":"90798","group":"Group1","condition":"1_Rep","full_date":"2026-02-14T21:59:39.804Z","date":"2026-02-14","time":"21:59:39","cor_ans":true},{"trial_type":"html-keyboard-response","rt":null,"stimulus":"<p style=\"color: green; font-size: 50px; font-weight: bold;\">Correct</p>","response":null,"trial_index":176,"plugin_version":"2.1.0","time_elapsed":346839,"subject_id":"90798","group":"Group1","condition":"1_Rep","full_date":"2026-02-14T21:59:39.804Z","date":"2026-02-14","time":"21:59:39"},{"correct_response":"a","task":"test_phase","broad_category":"S","image_png":"S_Conglomerate_14.png","image_id":382,"category_name":"Conglomerate","category":24,"distinct_rating":6.86,"distinct_type":"Top","item_type":"Foil","rt":1025,"stimulus":"Stimuli_Rocks480/S_Conglomerate_14.png","response":"a","trial_type":"image-keyboard-response","trial_index":177,"plugin_version":"2.1.0","time_elapsed":347866,"subject_id":"90798","group":"Group1","condition":"1_Rep","full_date":"2026-02-14T21:59:39.804Z","date":"2026-02-14","time":"21:59:39","cor_ans":true},{"trial_type":"html-keyboard-response","rt":null,"stimulus":"<p style=\"color: green; font-size: 50px; font-weight: bold;\">Correct</p>","response":null,"trial_index":178,"plugin_version":"2.1.0","time_elapsed":348368,"subject_id":"90798","group":"Group1","condition":"1_Rep","full_date":"2026-02-14T21:59:39.804Z","date":"2026-02-14","time":"21:59:39"},{"correct_response":"a","task":"test_phase","broad_category":"S","image_png":"S_Dolomite_16.png","image_id":400,"category_name":"Dolomite","category":25,"distinct_rating":1.71,"distinct_type":"Bottom","item_type":"Foil","rt":1413,"stimulus":"Stimuli_Rocks480/S_Dolomite_16.png","response":"a","trial_type":"image-keyboard-response","trial_index":179,"plugin_version":"2.1.0","time_elapsed":349783,"subject_id":"90798","group":"Group1","condition":"1_Rep","full_date":"2026-02-14T21:59:39.804Z","date":"2026-02-14","time":"21:59:39","cor_ans":true},{"trial_type":"html-keyboard-response","rt":null,"stimulus":"<p style=\"color: green; font-size: 50px; font-weight: bold;\">Correct</p>","response":null,"trial_index":180,"plugin_version":"2.1.0","time_elapsed":350284,"subject_id":"90798","group":"Group1","condition":"1_Rep","full_date":"2026-02-14T21:59:39.804Z","date":"2026-02-14","time":"21:59:39"},{"correct_response":"a","task":"test_phase","broad_category":"I","image_png":"I_Andesite_09.png","image_id":9,"category_name":"Andesite","category":1,"distinct_rating":2.49,"distinct_type":"Bottom","item_type":"Foil","rt":716,"stimulus":"Stimuli_Rocks480/I_Andesite_09.png","response":"l","trial_type":"image-keyboard-response","trial_index":181,"plugin_version":"2.1.0","time_elapsed":351001,"subject_id":"90798","group":"Group1","condition":"1_Rep","full_date":"2026-02-14T21:59:39.804Z","date":"2026-02-14","time":"21:59:39","cor_ans":false},{"trial_type":"html-keyboard-response","rt":null,"stimulus":"<p style=\"color: red; font-size: 50px; font-weight: bold;\">Incorrect</p>","response":null,"trial_index":182,"plugin_version":"2.1.0","time_elapsed":351503,"subject_id":"90798","group":"Group1","condition":"1_Rep","full_date":"2026-02-14T21:59:39.804Z","date":"2026-02-14","time":"21:59:39"},{"correct_response":"a","task":"test_phase","broad_category":"I","image_png":"I_Rhyolite_05.png","image_id":149,"category_name":"Rhyolite","category":10,"distinct_rating":3.02,"distinct_type":"Bottom","item_type":"Foil","rt":894,"stimulus":"Stimuli_Rocks480/I_Rhyolite_05.png","response":"a","trial_type":"image-keyboard-response","trial_index":183,"plugin_version":"2.1.0","time_elapsed":352400,"subject_id":"90798","group":"Group1","condition":"1_Rep","full_date":"2026-02-14T21:59:39.804Z","date":"2026-02-14","time":"21:59:39","cor_ans":true},{"trial_type":"html-keyboard-response","rt":null,"stimulus":"<p style=\"color: green; font-size: 50px; font-weight: bold;\">Correct</p>","response":null,"trial_index":184,"plugin_version":"2.1.0","time_elapsed":352901,"subject_id":"90798","group":"Group1","condition":"1_Rep","full_date":"2026-02-14T21:59:39.804Z","date":"2026-02-14","time":"21:59:39"},{"correct_response":"a","task":"test_phase","broad_category":"M","image_png":"M_Slate_04.png","image_id":308,"category_name":"Slate","category":20,"distinct_rating":2.2,"distinct_type":"Bottom","item_type":"Foil","rt":733,"stimulus":"Stimuli_Rocks480/M_Slate_04.png","response":"l","trial_type":"image-keyboard-response","trial_index":185,"plugin_version":"2.1.0","time_elapsed":353635,"subject_id":"90798","group":"Group1","condition":"1_Rep","full_date":"2026-02-14T21:59:39.804Z","date":"2026-02-14","time":"21:59:39","cor_ans":false},{"trial_type":"html-keyboard-response","rt":null,"stimulus":"<p style=\"color: red; font-size: 50px; font-weight: bold;\">Incorrect</p>","response":null,"trial_index":186,"plugin_version":"2.1.0","time_elapsed":354137,"subject_id":"90798","group":"Group1","condition":"1_Rep","full_date":"2026-02-14T21:59:39.804Z","date":"2026-02-14","time":"21:59:39"},{"correct_response":"a","task":"test_phase","broad_category":"I","image_png":"I_Obsidian_06.png","image_id":86,"category_name":"Obsidian","category":6,"distinct_rating":8.01,"distinct_type":"Top","item_type":"Foil","rt":963,"stimulus":"Stimuli_Rocks480/I_Obsidian_06.png","response":"a","trial_type":"image-keyboard-response","trial_index":187,"plugin_version":"2.1.0","time_elapsed":355102,"subject_id":"90798","group":"Group1","condition":"1_Rep","full_date":"2026-02-14T21:59:39.804Z","date":"2026-02-14","time":"21:59:39","cor_ans":true},{"trial_type":"html-keyboard-response","rt":null,"stimulus":"<p style=\"color: green; font-size: 50px; font-weight: bold;\">Correct</p>","response":null,"trial_index":188,"plugin_version":"2.1.0","time_elapsed":355603,"subject_id":"90798","group":"Group1","condition":"1_Rep","full_date":"2026-02-14T21:59:39.804Z","date":"2026-02-14","time":"21:59:39"},{"correct_response":"a","task":"test_phase","broad_category":"I","image_png":"I_Pumice_01.png","image_id":129,"category_name":"Pumice","category":9,"distinct_rating":3.25,"distinct_type":"Bottom","item_type":"Foil","rt":1019,"stimulus":"Stimuli_Rocks480/I_Pumice_01.png","response":"a","trial_type":"image-keyboard-response","trial_index":189,"plugin_version":"2.1.0","time_elapsed":356625,"subject_id":"90798","group":"Group1","condition":"1_Rep","full_date":"2026-02-14T21:59:39.804Z","date":"2026-02-14","time":"21:59:39","cor_ans":true},{"trial_type":"html-keyboard-response","rt":null,"stimulus":"<p style=\"color: green; font-size: 50px; font-weight: bold;\">Correct</p>","response":null,"trial_index":190,"plugin_version":"2.1.0","time_elapsed":357127,"subject_id":"90798","group":"Group1","condition":"1_Rep","full_date":"2026-02-14T21:59:39.804Z","date":"2026-02-14","time":"21:59:39"},{"correct_response":"a","task":"test_phase","broad_category":"S","image_png":"S_Shale_07.png","image_id":471,"category_name":"Shale","category":30,"distinct_rating":2.73,"distinct_type":"Bottom","item_type":"Foil","rt":676,"stimulus":"Stimuli_Rocks480/S_Shale_07.png","response":"l","trial_type":"image-keyboard-response","trial_index":191,"plugin_version":"2.1.0","time_elapsed":357805,"subject_id":"90798","group":"Group1","condition":"1_Rep","full_date":"2026-02-14T21:59:39.804Z","date":"2026-02-14","time":"21:59:39","cor_ans":false},{"trial_type":"html-keyboard-response","rt":null,"stimulus":"<p style=\"color: red; font-size: 50px; font-weight: bold;\">Incorrect</p>","response":null,"trial_index":192,"plugin_version":"2.1.0","time_elapsed":358307,"subject_id":"90798","group":"Group1","condition":"1_Rep","full_date":"2026-02-14T21:59:39.804Z","date":"2026-02-14","time":"21:59:39"},{"correct_response":"l","task":"test_phase","broad_category":"S","image_png":"S_Breccia_11.png","image_id":347,"category_name":"Breccia","category":22,"distinct_rating":6.7,"distinct_type":"Top","item_type":"Target","rt":1009,"stimulus":"Stimuli_Rocks480/S_Breccia_11.png","response":"a","trial_type":"image-keyboard-response","trial_index":193,"plugin_version":"2.1.0","time_elapsed":359318,"subject_id":"90798","group":"Group1","condition":"1_Rep","full_date":"2026-02-14T21:59:39.804Z","date":"2026-02-14","time":"21:59:39","cor_ans":false},{"trial_type":"html-keyboard-response","rt":null,"stimulus":"<p style=\"color: red; font-size: 50px; font-weight: bold;\">Incorrect</p>","response":null,"trial_index":194,"plugin_version":"2.1.0","time_elapsed":359820,"subject_id":"90798","group":"Group1","condition":"1_Rep","full_date":"2026-02-14T21:59:39.804Z","date":"2026-02-14","time":"21:59:39"},{"correct_response":"l","task":"test_phase","broad_category":"M","image_png":"M_Marble_16.png","image_id":240,"category_name":"Marble","category":15,"distinct_rating":2.57,"distinct_type":"Bottom","item_type":"Target","rt":820,"stimulus":"Stimuli_Rocks480/M_Marble_16.png","response":"l","trial_type":"image-keyboard-response","trial_index":195,"plugin_version":"2.1.0","time_elapsed":360642,"subject_id":"90798","group":"Group1","condition":"1_Rep","full_date":"2026-02-14T21:59:39.804Z","date":"2026-02-14","time":"21:59:39","cor_ans":true},{"trial_type":"html-keyboard-response","rt":null,"stimulus":"<p style=\"color: green; font-size: 50px; font-weight: bold;\">Correct</p>","response":null,"trial_index":196,"plugin_version":"2.1.0","time_elapsed":361144,"subject_id":"90798","group":"Group1","condition":"1_Rep","full_date":"2026-02-14T21:59:39.804Z","date":"2026-02-14","time":"21:59:39"},{"correct_response":"l","task":"test_phase","broad_category":"M","image_png":"M_Slate_03.png","image_id":307,"category_name":"Slate","category":20,"distinct_rating":1.87,"distinct_type":"Bottom","item_type":"Target","rt":526,"stimulus":"Stimuli_Rocks480/M_Slate_03.png","response":"l","trial_type":"image-keyboard-response","trial_index":197,"plugin_version":"2.1.0","time_elapsed":361672,"subject_id":"90798","group":"Group1","condition":"1_Rep","full_date":"2026-02-14T21:59:39.804Z","date":"2026-02-14","time":"21:59:39","cor_ans":true},{"trial_type":"html-keyboard-response","rt":null,"stimulus":"<p style=\"color: green; font-size: 50px; font-weight: bold;\">Correct</p>","response":null,"trial_index":198,"plugin_version":"2.1.0","time_elapsed":362174,"subject_id":"90798","group":"Group1","condition":"1_Rep","full_date":"2026-02-14T21:59:39.804Z","date":"2026-02-14","time":"21:59:39"},{"correct_response":"a","task":"test_phase","broad_category":"S","image_png":"S_Rock Salt_15.png","image_id":447,"category_name":"Rock Salt","category":28,"distinct_rating":7.79,"distinct_type":"Top","item_type":"Foil","rt":687,"stimulus":"Stimuli_Rocks480/S_Rock Salt_15.png","response":"l","trial_type":"image-keyboard-response","trial_index":199,"plugin_version":"2.1.0","time_elapsed":362862,"subject_id":"90798","group":"Group1","condition":"1_Rep","full_date":"2026-02-14T21:59:39.804Z","date":"2026-02-14","time":"21:59:39","cor_ans":false},{"trial_type":"html-keyboard-response","rt":null,"stimulus":"<p style=\"color: red; font-size: 50px; font-weight: bold;\">Incorrect</p>","response":null,"trial_index":200,"plugin_version":"2.1.0","time_elapsed":363363,"subject_id":"90798","group":"Group1","condition":"1_Rep","full_date":"2026-02-14T21:59:39.804Z","date":"2026-02-14","time":"21:59:39"},{"correct_response":"a","task":"test_phase","broad_category":"I","image_png":"I_Pumice_14.png","image_id":142,"category_name":"Pumice","category":9,"distinct_rating":3.22,"distinct_type":"Bottom","item_type":"Foil","rt":1174,"stimulus":"Stimuli_Rocks480/I_Pumice_14.png","response":"l","trial_type":"image-keyboard-response","trial_index":201,"plugin_version":"2.1.0","time_elapsed":364538,"subject_id":"90798","group":"Group1","condition":"1_Rep","full_date":"2026-02-14T21:59:39.804Z","date":"2026-02-14","time":"21:59:39","cor_ans":false},{"trial_type":"html-keyboard-response","rt":null,"stimulus":"<p style=\"color: red; font-size: 50px; font-weight: bold;\">Incorrect</p>","response":null,"trial_index":202,"plugin_version":"2.1.0","time_elapsed":365040,"subject_id":"90798","group":"Group1","condition":"1_Rep","full_date":"2026-02-14T21:59:39.804Z","date":"2026-02-14","time":"21:59:39"},{"correct_response":"a","task":"test_phase","broad_category":"M","image_png":"M_Marble_03.png","image_id":227,"category_name":"Marble","category":15,"distinct_rating":2.67,"distinct_type":"Bottom","item_type":"Foil","rt":645,"stimulus":"Stimuli_Rocks480/M_Marble_03.png","response":"a","trial_type":"image-keyboard-response","trial_index":203,"plugin_version":"2.1.0","time_elapsed":365687,"subject_id":"90798","group":"Group1","condition":"1_Rep","full_date":"2026-02-14T21:59:39.804Z","date":"2026-02-14","time":"21:59:39","cor_ans":true},{"trial_type":"html-keyboard-response","rt":null,"stimulus":"<p style=\"color: green; font-size: 50px; font-weight: bold;\">Correct</p>","response":null,"trial_index":204,"plugin_version":"2.1.0","time_elapsed":366189,"subject_id":"90798","group":"Group1","condition":"1_Rep","full_date":"2026-02-14T21:59:39.804Z","date":"2026-02-14","time":"21:59:39"},{"correct_response":"l","task":"test_phase","broad_category":"S","image_png":"S_Dolomite_14.png","image_id":398,"category_name":"Dolomite","category":25,"distinct_rating":1.43,"distinct_type":"Bottom","item_type":"Target","rt":1068,"stimulus":"Stimuli_Rocks480/S_Dolomite_14.png","response":"a","trial_type":"image-keyboard-response","trial_index":205,"plugin_version":"2.1.0","time_elapsed":367260,"subject_id":"90798","group":"Group1","condition":"1_Rep","full_date":"2026-02-14T21:59:39.804Z","date":"2026-02-14","time":"21:59:39","cor_ans":false},{"trial_type":"html-keyboard-response","rt":null,"stimulus":"<p style=\"color: red; font-size: 50px; font-weight: bold;\">Incorrect</p>","response":null,"trial_index":206,"plugin_version":"2.1.0","time_elapsed":367762,"subject_id":"90798","group":"Group1","condition":"1_Rep","full_date":"2026-02-14T21:59:39.804Z","date":"2026-02-14","time":"21:59:39"},{"correct_response":"a","task":"test_phase","broad_category":"S","image_png":"S_Sandstone_08.png","image_id":456,"category_name":"Sandstone","category":29,"distinct_rating":1.5,"distinct_type":"Bottom","item_type":"Foil","rt":643,"stimulus":"Stimuli_Rocks480/S_Sandstone_08.png","response":"l","trial_type":"image-keyboard-response","trial_index":207,"plugin_version":"2.1.0","time_elapsed":368407,"subject_id":"90798","group":"Group1","condition":"1_Rep","full_date":"2026-02-14T21:59:39.804Z","date":"2026-02-14","time":"21:59:39","cor_ans":false},{"trial_type":"html-keyboard-response","rt":null,"stimulus":"<p style=\"color: red; font-size: 50px; font-weight: bold;\">Incorrect</p>","response":null,"trial_index":208,"plugin_version":"2.1.0","time_elapsed":368908,"subject_id":"90798","group":"Group1","condition":"1_Rep","full_date":"2026-02-14T21:59:39.804Z","date":"2026-02-14","time":"21:59:39"},{"correct_response":"l","task":"test_phase","broad_category":"M","image_png":"M_Gneiss_13.png","image_id":205,"category_name":"Gneiss","category":13,"distinct_rating":3.26,"distinct_type":"Bottom","item_type":"Target","rt":842,"stimulus":"Stimuli_Rocks480/M_Gneiss_13.png","response":"l","trial_type":"image-keyboard-response","trial_index":209,"plugin_version":"2.1.0","time_elapsed":369752,"subject_id":"90798","group":"Group1","condition":"1_Rep","full_date":"2026-02-14T21:59:39.804Z","date":"2026-02-14","time":"21:59:39","cor_ans":true},{"trial_type":"html-keyboard-response","rt":null,"stimulus":"<p style=\"color: green; font-size: 50px; font-weight: bold;\">Correct</p>","response":null,"trial_index":210,"plugin_version":"2.1.0","time_elapsed":370256,"subject_id":"90798","group":"Group1","condition":"1_Rep","full_date":"2026-02-14T21:59:39.804Z","date":"2026-02-14","time":"21:59:39"},{"correct_response":"l","task":"test_phase","broad_category":"I","image_png":"I_Pumice_11.png","image_id":139,"category_name":"Pumice","category":9,"distinct_rating":1.74,"distinct_type":"Bottom","item_type":"Target","rt":852,"stimulus":"Stimuli_Rocks480/I_Pumice_11.png","response":"l","trial_type":"image-keyboard-response","trial_index":211,"plugin_version":"2.1.0","time_elapsed":371110,"subject_id":"90798","group":"Group1","condition":"1_Rep","full_date":"2026-02-14T21:59:39.804Z","date":"2026-02-14","time":"21:59:39","cor_ans":true},{"trial_type":"html-keyboard-response","rt":null,"stimulus":"<p style=\"color: green; font-size: 50px; font-weight: bold;\">Correct</p>","response":null,"trial_index":212,"plugin_version":"2.1.0","time_elapsed":371612,"subject_id":"90798","group":"Group1","condition":"1_Rep","full_date":"2026-02-14T21:59:39.804Z","date":"2026-02-14","time":"21:59:39"},{"correct_response":"l","task":"test_phase","broad_category":"S","image_png":"S_Sandstone_16.png","image_id":464,"category_name":"Sandstone","category":29,"distinct_rating":1.93,"distinct_type":"Bottom","item_type":"Target","rt":689,"stimulus":"Stimuli_Rocks480/S_Sandstone_16.png","response":"l","trial_type":"image-keyboard-response","trial_index":213,"plugin_version":"2.1.0","time_elapsed":372303,"subject_id":"90798","group":"Group1","condition":"1_Rep","full_date":"2026-02-14T21:59:39.804Z","date":"2026-02-14","time":"21:59:39","cor_ans":true},{"trial_type":"html-keyboard-response","rt":null,"stimulus":"<p style=\"color: green; font-size: 50px; font-weight: bold;\">Correct</p>","response":null,"trial_index":214,"plugin_version":"2.1.0","time_elapsed":372804,"subject_id":"90798","group":"Group1","condition":"1_Rep","full_date":"2026-02-14T21:59:39.804Z","date":"2026-02-14","time":"21:59:39"},{"correct_response":"l","task":"test_phase","broad_category":"M","image_png":"M_Quartzite_05.png","image_id":277,"category_name":"Quartzite","category":18,"distinct_rating":2.23,"distinct_type":"Bottom","item_type":"Target","rt":813,"stimulus":"Stimuli_Rocks480/M_Quartzite_05.png","response":"l","trial_type":"image-keyboard-response","trial_index":215,"plugin_version":"2.1.0","time_elapsed":373618,"subject_id":"90798","group":"Group1","condition":"1_Rep","full_date":"2026-02-14T21:59:39.804Z","date":"2026-02-14","time":"21:59:39","cor_ans":true},{"trial_type":"html-keyboard-response","rt":null,"stimulus":"<p style=\"color: green; font-size: 50px; font-weight: bold;\">Correct</p>","response":null,"trial_index":216,"plugin_version":"2.1.0","time_elapsed":374120,"subject_id":"90798","group":"Group1","condition":"1_Rep","full_date":"2026-02-14T21:59:39.804Z","date":"2026-02-14","time":"21:59:39"},{"correct_response":"l","task":"test_phase","broad_category":"S","image_png":"S_Shale_08.png","image_id":472,"category_name":"Shale","category":30,"distinct_rating":2.55,"distinct_type":"Bottom","item_type":"Target","rt":565,"stimulus":"Stimuli_Rocks480/S_Shale_08.png","response":"a","trial_type":"image-keyboard-response","trial_index":217,"plugin_version":"2.1.0","time_elapsed":374688,"subject_id":"90798","group":"Group1","condition":"1_Rep","full_date":"2026-02-14T21:59:39.804Z","date":"2026-02-14","time":"21:59:39","cor_ans":false},{"trial_type":"html-keyboard-response","rt":null,"stimulus":"<p style=\"color: red; font-size: 50px; font-weight: bold;\">Incorrect</p>","response":null,"trial_index":218,"plugin_version":"2.1.0","time_elapsed":375190,"subject_id":"90798","group":"Group1","condition":"1_Rep","full_date":"2026-02-14T21:59:39.804Z","date":"2026-02-14","time":"21:59:39"},{"correct_response":"l","task":"test_phase","broad_category":"S","image_png":"S_Rock Gypsum_04.png","image_id":420,"category_name":"Rock Gypsum","category":27,"distinct_rating":7.61,"distinct_type":"Top","item_type":"Target","rt":942,"stimulus":"Stimuli_Rocks480/S_Rock Gypsum_04.png","response":"l","trial_type":"image-keyboard-response","trial_index":219,"plugin_version":"2.1.0","time_elapsed":376134,"subject_id":"90798","group":"Group1","condition":"1_Rep","full_date":"2026-02-14T21:59:39.804Z","date":"2026-02-14","time":"21:59:39","cor_ans":true},{"trial_type":"html-keyboard-response","rt":null,"stimulus":"<p style=\"color: green; font-size: 50px; font-weight: bold;\">Correct</p>","response":null,"trial_index":220,"plugin_version":"2.1.0","time_elapsed":376636,"subject_id":"90798","group":"Group1","condition":"1_Rep","full_date":"2026-02-14T21:59:39.804Z","date":"2026-02-14","time":"21:59:39"},{"correct_response":"l","task":"test_phase","broad_category":"S","image_png":"S_Dolomite_12.png","image_id":396,"category_name":"Dolomite","category":25,"distinct_rating":1.85,"distinct_type":"Bottom","item_type":"Target","rt":777,"stimulus":"Stimuli_Rocks480/S_Dolomite_12.png","response":"l","trial_type":"image-keyboard-response","trial_index":221,"plugin_version":"2.1.0","time_elapsed":377416,"subject_id":"90798","group":"Group1","condition":"1_Rep","full_date":"2026-02-14T21:59:39.804Z","date":"2026-02-14","time":"21:59:39","cor_ans":true},{"trial_type":"html-keyboard-response","rt":null,"stimulus":"<p style=\"color: green; font-size: 50px; font-weight: bold;\">Correct</p>","response":null,"trial_index":222,"plugin_version":"2.1.0","time_elapsed":377918,"subject_id":"90798","group":"Group1","condition":"1_Rep","full_date":"2026-02-14T21:59:39.804Z","date":"2026-02-14","time":"21:59:39"},{"correct_response":"a","task":"test_phase","broad_category":"S","image_png":"S_Rock Salt_13.png","image_id":445,"category_name":"Rock Salt","category":28,"distinct_rating":7.58,"distinct_type":"Top","item_type":"Foil","rt":709,"stimulus":"Stimuli_Rocks480/S_Rock Salt_13.png","response":"a","trial_type":"image-keyboard-response","trial_index":223,"plugin_version":"2.1.0","time_elapsed":378630,"subject_id":"90798","group":"Group1","condition":"1_Rep","full_date":"2026-02-14T21:59:39.804Z","date":"2026-02-14","time":"21:59:39","cor_ans":true},{"trial_type":"html-keyboard-response","rt":null,"stimulus":"<p style=\"color: green; font-size: 50px; font-weight: bold;\">Correct</p>","response":null,"trial_index":224,"plugin_version":"2.1.0","time_elapsed":379131,"subject_id":"90798","group":"Group1","condition":"1_Rep","full_date":"2026-02-14T21:59:39.804Z","date":"2026-02-14","time":"21:59:39"},{"cor