[{"width":1512,"height":801,"webaudio":true,"browser":"chrome","browser_version":"143.0.0","mobile":false,"os":"Mac OS","fullscreen":true,"vsync_rate":120.31,"webcam":true,"microphone":true,"trial_type":"browser-check","trial_index":0,"plugin_version":"2.1.0","time_elapsed":508,"subject_id":"91746","group":"Group2","condition":"3_Rep","full_date":"2026-01-30T19:36:37.805Z","date":"2026-01-30","time":"19:36:37"},{"success":true,"timeout":false,"failed_images":[],"failed_audio":[],"failed_video":[],"trial_type":"preload","trial_index":1,"plugin_version":"2.1.0","time_elapsed":119980,"subject_id":"91746","group":"Group2","condition":"3_Rep","full_date":"2026-01-30T19:36:37.805Z","date":"2026-01-30","time":"19:36:37"},{"rt":5695,"url":"SONA_consent_memorability.html","trial_type":"external-html","trial_index":2,"plugin_version":"2.1.0","time_elapsed":125740,"subject_id":"91746","group":"Group2","condition":"3_Rep","full_date":"2026-01-30T19:36:37.805Z","date":"2026-01-30","time":"19:36:37"},{"success":true,"rt":2030,"trial_type":"fullscreen","trial_index":3,"plugin_version":"2.1.0","time_elapsed":128774,"subject_id":"91746","group":"Group2","condition":"3_Rep","full_date":"2026-01-30T19:36:37.805Z","date":"2026-01-30","time":"19:36:37"},{"rt":36874,"stimulus":"<div style=\"max-width: 760px; margin: auto; font-size: 20px; line-height: 1.5;\">\n      <h1 style=\"text-align:center; font-size: 30px;\">Instructions</h1>\n      <p>\n        Welcome to the study on <b>visual memory</b>. This experiment consists of <b>two phases</b>: \n        a <b>study phase</b> and a <b>test phase</b>.\n      </p>\n      <p>\n        In the study phase, you will see a series of rock images along with their category labels.\n        The images will appear one at a time.\n        <b>Your task</b> is to learn the categories to which the rock images belong \n        and to remember each image as accurately as possible.\n      </p> \n      <p>\n        Note that we will repeat the study phase <b>3 times</b>, \n             so you will have multiple opportunities to see and remember each image.\n      </p>\n      <p>\n        After the study phase, <b>your memory will be tested</b>. \n        Additional instructions for the test phase will be provided at that time.\n      </p>\n      <p>\n        If your computer has multiple <b>language settings</b> (e.g., English and another language),\n        please make sure it is set to English before starting.\n      </p>\n      <p>\n        You can track your progress using the <b>completion bar</b> at the top of the screen. \n        Please note that the bar will refresh when the test phase begins \n        to give you an accurate sense of your progress in both phases.\n      </p> \n      <p>\n        Press the button below when you are ready to begin.\n      </p>\n    </div>","response":0,"trial_type":"html-button-response","trial_index":4,"plugin_version":"2.1.0","time_elapsed":165650,"subject_id":"91746","group":"Group2","condition":"3_Rep","full_date":"2026-01-30T19:36:37.805Z","date":"2026-01-30","time":"19:36:37"},{"rt":null,"stimulus":"<p style=\"font-size: 50px; margin: 0; text-align: center;\">+</p>","response":null,"trial_type":"html-keyboard-response","trial_index":5,"plugin_version":"2.1.0","time_elapsed":166655,"subject_id":"91746","group":"Group2","condition":"3_Rep","full_date":"2026-01-30T19:36:37.805Z","date":"2026-01-30","time":"19:36:37"},{"task":"memory_phase","broad_category":"S","image_png":"S_Sandstone_04.png","image_id":452,"category_name":"Sandstone","category":29,"distinct_rating":1.8,"distinct_type":"Bottom","rt":null,"stimulus":"Stimuli_Rocks480/S_Sandstone_04.png","response":null,"trial_type":"image-keyboard-response","trial_index":6,"plugin_version":"2.1.0","time_elapsed":169162,"subject_id":"91746","group":"Group2","condition":"3_Rep","full_date":"2026-01-30T19:36:37.805Z","date":"2026-01-30","time":"19:36:37"},{"rt":null,"stimulus":"<p style=\"font-size: 50px; margin: 0; text-align: center;\">+</p>","response":null,"trial_type":"html-keyboard-response","trial_index":7,"plugin_version":"2.1.0","time_elapsed":170164,"subject_id":"91746","group":"Group2","condition":"3_Rep","full_date":"2026-01-30T19:36:37.805Z","date":"2026-01-30","time":"19:36:37"},{"task":"memory_phase","broad_category":"I","image_png":"I_Basalt_10.png","image_id":26,"category_name":"Basalt","category":2,"distinct_rating":2.76,"distinct_type":"Bottom","rt":null,"stimulus":"Stimuli_Rocks480/I_Basalt_10.png","response":null,"trial_type":"image-keyboard-response","trial_index":8,"plugin_version":"2.1.0","time_elapsed":172668,"subject_id":"91746","group":"Group2","condition":"3_Rep","full_date":"2026-01-30T19:36:37.805Z","date":"2026-01-30","time":"19:36:37"},{"rt":null,"stimulus":"<p style=\"font-size: 50px; margin: 0; text-align: center;\">+</p>","response":null,"trial_type":"html-keyboard-response","trial_index":9,"plugin_version":"2.1.0","time_elapsed":173673,"subject_id":"91746","group":"Group2","condition":"3_Rep","full_date":"2026-01-30T19:36:37.805Z","date":"2026-01-30","time":"19:36:37"},{"task":"memory_phase","broad_category":"S","image_png":"S_Chert_13.png","image_id":365,"category_name":"Chert","category":23,"distinct_rating":6.57,"distinct_type":"Top","rt":null,"stimulus":"Stimuli_Rocks480/S_Chert_13.png","response":null,"trial_type":"image-keyboard-response","trial_index":10,"plugin_version":"2.1.0","time_elapsed":176177,"subject_id":"91746","group":"Group2","condition":"3_Rep","full_date":"2026-01-30T19:36:37.805Z","date":"2026-01-30","time":"19:36:37"},{"rt":null,"stimulus":"<p style=\"font-size: 50px; margin: 0; text-align: center;\">+</p>","response":null,"trial_type":"html-keyboard-response","trial_index":11,"plugin_version":"2.1.0","time_elapsed":177180,"subject_id":"91746","group":"Group2","condition":"3_Rep","full_date":"2026-01-30T19:36:37.805Z","date":"2026-01-30","time":"19:36:37"},{"task":"memory_phase","broad_category":"I","image_png":"I_Diorite_10.png","image_id":42,"category_name":"Diorite","category":3,"distinct_rating":2.84,"distinct_type":"Bottom","rt":null,"stimulus":"Stimuli_Rocks480/I_Diorite_10.png","response":null,"trial_type":"image-keyboard-response","trial_index":12,"plugin_version":"2.1.0","time_elapsed":179685,"subject_id":"91746","group":"Group2","condition":"3_Rep","full_date":"2026-01-30T19:36:37.805Z","date":"2026-01-30","time":"19:36:37"},{"rt":null,"stimulus":"<p style=\"font-size: 50px; margin: 0; text-align: center;\">+</p>","response":null,"trial_type":"html-keyboard-response","trial_index":13,"plugin_version":"2.1.0","time_elapsed":180687,"subject_id":"91746","group":"Group2","condition":"3_Rep","full_date":"2026-01-30T19:36:37.805Z","date":"2026-01-30","time":"19:36:37"},{"task":"memory_phase","broad_category":"S","image_png":"S_Conglomerate_14.png","image_id":382,"category_name":"Conglomerate","category":24,"distinct_rating":6.86,"distinct_type":"Top","rt":null,"stimulus":"Stimuli_Rocks480/S_Conglomerate_14.png","response":null,"trial_type":"image-keyboard-response","trial_index":14,"plugin_version":"2.1.0","time_elapsed":183191,"subject_id":"91746","group":"Group2","condition":"3_Rep","full_date":"2026-01-30T19:36:37.805Z","date":"2026-01-30","time":"19:36:37"},{"rt":null,"stimulus":"<p style=\"font-size: 50px; margin: 0; text-align: center;\">+</p>","response":null,"trial_type":"html-keyboard-response","trial_index":15,"plugin_version":"2.1.0","time_elapsed":184195,"subject_id":"91746","group":"Group2","condition":"3_Rep","full_date":"2026-01-30T19:36:37.805Z","date":"2026-01-30","time":"19:36:37"},{"task":"memory_phase","broad_category":"S","image_png":"S_Rock Salt_15.png","image_id":447,"category_name":"Rock Salt","category":28,"distinct_rating":7.79,"distinct_type":"Top","rt":null,"stimulus":"Stimuli_Rocks480/S_Rock Salt_15.png","response":null,"trial_type":"image-keyboard-response","trial_index":16,"plugin_version":"2.1.0","time_elapsed":186699,"subject_id":"91746","group":"Group2","condition":"3_Rep","full_date":"2026-01-30T19:36:37.805Z","date":"2026-01-30","time":"19:36:37"},{"rt":null,"stimulus":"<p style=\"font-size: 50px; margin: 0; text-align: center;\">+</p>","response":null,"trial_type":"html-keyboard-response","trial_index":17,"plugin_version":"2.1.0","time_elapsed":187702,"subject_id":"91746","group":"Group2","condition":"3_Rep","full_date":"2026-01-30T19:36:37.805Z","date":"2026-01-30","time":"19:36:37"},{"task":"memory_phase","broad_category":"I","image_png":"I_Gabbro_14.png","image_id":62,"category_name":"Gabbro","category":4,"distinct_rating":2.95,"distinct_type":"Bottom","rt":null,"stimulus":"Stimuli_Rocks480/I_Gabbro_14.png","response":null,"trial_type":"image-keyboard-response","trial_index":18,"plugin_version":"2.1.0","time_elapsed":190207,"subject_id":"91746","group":"Group2","condition":"3_Rep","full_date":"2026-01-30T19:36:37.805Z","date":"2026-01-30","time":"19:36:37"},{"rt":null,"stimulus":"<p style=\"font-size: 50px; margin: 0; text-align: center;\">+</p>","response":null,"trial_type":"html-keyboard-response","trial_index":19,"plugin_version":"2.1.0","time_elapsed":191211,"subject_id":"91746","group":"Group2","condition":"3_Rep","full_date":"2026-01-30T19:36:37.805Z","date":"2026-01-30","time":"19:36:37"},{"task":"memory_phase","broad_category":"S","image_png":"S_Sandstone_11.png","image_id":459,"category_name":"Sandstone","category":29,"distinct_rating":1.82,"distinct_type":"Bottom","rt":null,"stimulus":"Stimuli_Rocks480/S_Sandstone_11.png","response":null,"trial_type":"image-keyboard-response","trial_index":20,"plugin_version":"2.1.0","time_elapsed":193715,"subject_id":"91746","group":"Group2","condition":"3_Rep","full_date":"2026-01-30T19:36:37.805Z","date":"2026-01-30","time":"19:36:37"},{"rt":null,"stimulus":"<p style=\"font-size: 50px; margin: 0; text-align: center;\">+</p>","response":null,"trial_type":"html-keyboard-response","trial_index":21,"plugin_version":"2.1.0","time_elapsed":194717,"subject_id":"91746","group":"Group2","condition":"3_Rep","full_date":"2026-01-30T19:36:37.805Z","date":"2026-01-30","time":"19:36:37"},{"task":"memory_phase","broad_category":"S","image_png":"S_Shale_02.png","image_id":466,"category_name":"Shale","category":30,"distinct_rating":2.9,"distinct_type":"Bottom","rt":null,"stimulus":"Stimuli_Rocks480/S_Shale_02.png","response":null,"trial_type":"image-keyboard-response","trial_index":22,"plugin_version":"2.1.0","time_elapsed":197222,"subject_id":"91746","group":"Group2","condition":"3_Rep","full_date":"2026-01-30T19:36:37.805Z","date":"2026-01-30","time":"19:36:37"},{"rt":null,"stimulus":"<p style=\"font-size: 50px; margin: 0; text-align: center;\">+</p>","response":null,"trial_type":"html-keyboard-response","trial_index":23,"plugin_version":"2.1.0","time_elapsed":198225,"subject_id":"91746","group":"Group2","condition":"3_Rep","full_date":"2026-01-30T19:36:37.805Z","date":"2026-01-30","time":"19:36:37"},{"task":"memory_phase","broad_category":"M","image_png":"M_Phyllite_05.png","image_id":261,"category_name":"Phyllite","category":17,"distinct_rating":2.14,"distinct_type":"Bottom","rt":null,"stimulus":"Stimuli_Rocks480/M_Phyllite_05.png","response":null,"trial_type":"image-keyboard-response","trial_index":24,"plugin_version":"2.1.0","time_elapsed":200730,"subject_id":"91746","group":"Group2","condition":"3_Rep","full_date":"2026-01-30T19:36:37.805Z","date":"2026-01-30","time":"19:36:37"},{"rt":null,"stimulus":"<p style=\"font-size: 50px; margin: 0; text-align: center;\">+</p>","response":null,"trial_type":"html-keyboard-response","trial_index":25,"plugin_version":"2.1.0","time_elapsed":201732,"subject_id":"91746","group":"Group2","condition":"3_Rep","full_date":"2026-01-30T19:36:37.805Z","date":"2026-01-30","time":"19:36:37"},{"task":"memory_phase","broad_category":"S","image_png":"S_Sandstone_08.png","image_id":456,"category_name":"Sandstone","category":29,"distinct_rating":1.5,"distinct_type":"Bottom","rt":null,"stimulus":"Stimuli_Rocks480/S_Sandstone_08.png","response":null,"trial_type":"image-keyboard-response","trial_index":26,"plugin_version":"2.1.0","time_elapsed":204237,"subject_id":"91746","group":"Group2","condition":"3_Rep","full_date":"2026-01-30T19:36:37.805Z","date":"2026-01-30","time":"19:36:37"},{"rt":null,"stimulus":"<p style=\"font-size: 50px; margin: 0; text-align: center;\">+</p>","response":null,"trial_type":"html-keyboard-response","trial_index":27,"plugin_version":"2.1.0","time_elapsed":205240,"subject_id":"91746","group":"Group2","condition":"3_Rep","full_date":"2026-01-30T19:36:37.805Z","date":"2026-01-30","time":"19:36:37"},{"task":"memory_phase","broad_category":"I","image_png":"I_Pegmatite_03.png","image_id":99,"category_name":"Pegmatite","category":7,"distinct_rating":7.24,"distinct_type":"Top","rt":null,"stimulus":"Stimuli_Rocks480/I_Pegmatite_03.png","response":null,"trial_type":"image-keyboard-response","trial_index":28,"plugin_version":"2.1.0","time_elapsed":207744,"subject_id":"91746","group":"Group2","condition":"3_Rep","full_date":"2026-01-30T19:36:37.805Z","date":"2026-01-30","time":"19:36:37"},{"rt":null,"stimulus":"<p style=\"font-size: 50px; margin: 0; text-align: center;\">+</p>","response":null,"trial_type":"html-keyboard-response","trial_index":29,"plugin_version":"2.1.0","time_elapsed":208747,"subject_id":"91746","group":"Group2","condition":"3_Rep","full_date":"2026-01-30T19:36:37.805Z","date":"2026-01-30","time":"19:36:37"},{"task":"memory_phase","broad_category":"I","image_png":"I_Basalt_13.png","image_id":29,"category_name":"Basalt","category":2,"distinct_rating":2.68,"distinct_type":"Bottom","rt":null,"stimulus":"Stimuli_Rocks480/I_Basalt_13.png","response":null,"trial_type":"image-keyboard-response","trial_index":30,"plugin_version":"2.1.0","time_elapsed":211251,"subject_id":"91746","group":"Group2","condition":"3_Rep","full_date":"2026-01-30T19:36:37.805Z","date":"2026-01-30","time":"19:36:37"},{"rt":null,"stimulus":"<p style=\"font-size: 50px; margin: 0; text-align: center;\">+</p>","response":null,"trial_type":"html-keyboard-response","trial_index":31,"plugin_version":"2.1.0","time_elapsed":212254,"subject_id":"91746","group":"Group2","condition":"3_Rep","full_date":"2026-01-30T19:36:37.805Z","date":"2026-01-30","time":"19:36:37"},{"task":"memory_phase","broad_category":"M","image_png":"M_Gneiss_10.png","image_id":202,"category_name":"Gneiss","category":13,"distinct_rating":3.09,"distinct_type":"Bottom","rt":null,"stimulus":"Stimuli_Rocks480/M_Gneiss_10.png","response":null,"trial_type":"image-keyboard-response","trial_index":32,"plugin_version":"2.1.0","time_elapsed":214758,"subject_id":"91746","group":"Group2","condition":"3_Rep","full_date":"2026-01-30T19:36:37.805Z","date":"2026-01-30","time":"19:36:37"},{"rt":null,"stimulus":"<p style=\"font-size: 50px; margin: 0; text-align: center;\">+</p>","response":null,"trial_type":"html-keyboard-response","trial_index":33,"plugin_version":"2.1.0","time_elapsed":215762,"subject_id":"91746","group":"Group2","condition":"3_Rep","full_date":"2026-01-30T19:36:37.805Z","date":"2026-01-30","time":"19:36:37"},{"task":"memory_phase","broad_category":"M","image_png":"M_Marble_03.png","image_id":227,"category_name":"Marble","category":15,"distinct_rating":2.67,"distinct_type":"Bottom","rt":null,"stimulus":"Stimuli_Rocks480/M_Marble_03.png","response":null,"trial_type":"image-keyboard-response","trial_index":34,"plugin_version":"2.1.0","time_elapsed":218268,"subject_id":"91746","group":"Group2","condition":"3_Rep","full_date":"2026-01-30T19:36:37.805Z","date":"2026-01-30","time":"19:36:37"},{"rt":null,"stimulus":"<p style=\"font-size: 50px; margin: 0; text-align: center;\">+</p>","response":null,"trial_type":"html-keyboard-response","trial_index":35,"plugin_version":"2.1.0","time_elapsed":219271,"subject_id":"91746","group":"Group2","condition":"3_Rep","full_date":"2026-01-30T19:36:37.805Z","date":"2026-01-30","time":"19:36:37"},{"task":"memory_phase","broad_category":"I","image_png":"I_Pumice_01.png","image_id":129,"category_name":"Pumice","category":9,"distinct_rating":3.25,"distinct_type":"Bottom","rt":null,"stimulus":"Stimuli_Rocks480/I_Pumice_01.png","response":null,"trial_type":"image-keyboard-response","trial_index":36,"plugin_version":"2.1.0","time_elapsed":221775,"subject_id":"91746","group":"Group2","condition":"3_Rep","full_date":"2026-01-30T19:36:37.805Z","date":"2026-01-30","time":"19:36:37"},{"rt":null,"stimulus":"<p style=\"font-size: 50px; margin: 0; text-align: center;\">+</p>","response":null,"trial_type":"html-keyboard-response","trial_index":37,"plugin_version":"2.1.0","time_elapsed":222778,"subject_id":"91746","group":"Group2","condition":"3_Rep","full_date":"2026-01-30T19:36:37.805Z","date":"2026-01-30","time":"19:36:37"},{"task":"memory_phase","broad_category":"I","image_png":"I_Gabbro_12.png","image_id":60,"category_name":"Gabbro","category":4,"distinct_rating":2.6,"distinct_type":"Bottom","rt":null,"stimulus":"Stimuli_Rocks480/I_Gabbro_12.png","response":null,"trial_type":"image-keyboard-response","trial_index":38,"plugin_version":"2.1.0","time_elapsed":225283,"subject_id":"91746","group":"Group2","condition":"3_Rep","full_date":"2026-01-30T19:36:37.805Z","date":"2026-01-30","time":"19:36:37"},{"rt":null,"stimulus":"<p style=\"font-size: 50px; margin: 0; text-align: center;\">+</p>","response":null,"trial_type":"html-keyboard-response","trial_index":39,"plugin_version":"2.1.0","time_elapsed":226287,"subject_id":"91746","group":"Group2","condition":"3_Rep","full_date":"2026-01-30T19:36:37.805Z","date":"2026-01-30","time":"19:36:37"},{"task":"memory_phase","broad_category":"S","image_png":"S_Shale_03.png","image_id":467,"category_name":"Shale","category":30,"distinct_rating":1.95,"distinct_type":"Bottom","rt":null,"stimulus":"Stimuli_Rocks480/S_Shale_03.png","response":null,"trial_type":"image-keyboard-response","trial_index":40,"plugin_version":"2.1.0","time_elapsed":228791,"subject_id":"91746","group":"Group2","condition":"3_Rep","full_date":"2026-01-30T19:36:37.805Z","date":"2026-01-30","time":"19:36:37"},{"rt":null,"stimulus":"<p style=\"font-size: 50px; margin: 0; text-align: center;\">+</p>","response":null,"trial_type":"html-keyboard-response","trial_index":41,"plugin_version":"2.1.0","time_elapsed":229793,"subject_id":"91746","group":"Group2","condition":"3_Rep","full_date":"2026-01-30T19:36:37.805Z","date":"2026-01-30","time":"19:36:37"},{"task":"memory_phase","broad_category":"I","image_png":"I_Pegmatite_11.png","image_id":107,"category_name":"Pegmatite","category":7,"distinct_rating":7.11,"distinct_type":"Top","rt":null,"stimulus":"Stimuli_Rocks480/I_Pegmatite_11.png","response":null,"trial_type":"image-keyboard-response","trial_index":42,"plugin_version":"2.1.0","time_elapsed":232297,"subject_id":"91746","group":"Group2","condition":"3_Rep","full_date":"2026-01-30T19:36:37.805Z","date":"2026-01-30","time":"19:36:37"},{"rt":null,"stimulus":"<p style=\"font-size: 50px; margin: 0; text-align: center;\">+</p>","response":null,"trial_type":"html-keyboard-response","trial_index":43,"plugin_version":"2.1.0","time_elapsed":233301,"subject_id":"91746","group":"Group2","condition":"3_Rep","full_date":"2026-01-30T19:36:37.805Z","date":"2026-01-30","time":"19:36:37"},{"task":"memory_phase","broad_category":"I","image_png":"I_Obsidian_06.png","image_id":86,"category_name":"Obsidian","category":6,"distinct_rating":8.01,"distinct_type":"Top","rt":null,"stimulus":"Stimuli_Rocks480/I_Obsidian_06.png","response":null,"trial_type":"image-keyboard-response","trial_index":44,"plugin_version":"2.1.0","time_elapsed":235805,"subject_id":"91746","group":"Group2","condition":"3_Rep","full_date":"2026-01-30T19:36:37.805Z","date":"2026-01-30","time":"19:36:37"},{"rt":null,"stimulus":"<p style=\"font-size: 50px; margin: 0; text-align: center;\">+</p>","response":null,"trial_type":"html-keyboard-response","trial_index":45,"plugin_version":"2.1.0","time_elapsed":236809,"subject_id":"91746","group":"Group2","condition":"3_Rep","full_date":"2026-01-30T19:36:37.805Z","date":"2026-01-30","time":"19:36:37"},{"task":"memory_phase","broad_category":"I","image_png":"I_Andesite_03.png","image_id":3,"category_name":"Andesite","category":1,"distinct_rating":3.17,"distinct_type":"Bottom","rt":null,"stimulus":"Stimuli_Rocks480/I_Andesite_03.png","response":null,"trial_type":"image-keyboard-response","trial_index":46,"plugin_version":"2.1.0","time_elapsed":239312,"subject_id":"91746","group":"Group2","condition":"3_Rep","full_date":"2026-01-30T19:36:37.805Z","date":"2026-01-30","time":"19:36:37"},{"rt":null,"stimulus":"<p style=\"font-size: 50px; margin: 0; text-align: center;\">+</p>","response":null,"trial_type":"html-keyboard-response","trial_index":47,"plugin_version":"2.1.0","time_elapsed":240316,"subject_id":"91746","group":"Group2","condition":"3_Rep","full_date":"2026-01-30T19:36:37.805Z","date":"2026-01-30","time":"19:36:37"},{"task":"memory_phase","broad_category":"S","image_png":"S_Dolomite_01.png","image_id":385,"category_name":"Dolomite","category":25,"distinct_rating":1.43,"distinct_type":"Bottom","rt":null,"stimulus":"Stimuli_Rocks480/S_Dolomite_01.png","response":null,"trial_type":"image-keyboard-response","trial_index":48,"plugin_version":"2.1.0","time_elapsed":242819,"subject_id":"91746","group":"Group2","condition":"3_Rep","full_date":"2026-01-30T19:36:37.805Z","date":"2026-01-30","time":"19:36:37"},{"rt":null,"stimulus":"<p style=\"font-size: 50px; margin: 0; text-align: center;\">+</p>","response":null,"trial_type":"html-keyboard-response","trial_index":49,"plugin_version":"2.1.0","time_elapsed":243823,"subject_id":"91746","group":"Group2","condition":"3_Rep","full_date":"2026-01-30T19:36:37.805Z","date":"2026-01-30","time":"19:36:37"},{"task":"memory_phase","broad_category":"I","image_png":"I_Pumice_13.png","image_id":141,"category_name":"Pumice","category":9,"distinct_rating":3.12,"distinct_type":"Bottom","rt":null,"stimulus":"Stimuli_Rocks480/I_Pumice_13.png","response":null,"trial_type":"image-keyboard-response","trial_index":50,"plugin_version":"2.1.0","time_elapsed":246326,"subject_id":"91746","group":"Group2","condition":"3_Rep","full_date":"2026-01-30T19:36:37.805Z","date":"2026-01-30","time":"19:36:37"},{"rt":null,"stimulus":"<p style=\"font-size: 50px; margin: 0; text-align: center;\">+</p>","response":null,"trial_type":"html-keyboard-response","trial_index":51,"plugin_version":"2.1.0","time_elapsed":247329,"subject_id":"91746","group":"Group2","condition":"3_Rep","full_date":"2026-01-30T19:36:37.805Z","date":"2026-01-30","time":"19:36:37"},{"task":"memory_phase","broad_category":"I","image_png":"I_Andesite_09.png","image_id":9,"category_name":"Andesite","category":1,"distinct_rating":2.49,"distinct_type":"Bottom","rt":null,"stimulus":"Stimuli_Rocks480/I_Andesite_09.png","response":null,"trial_type":"image-keyboard-response","trial_index":52,"plugin_version":"2.1.0","time_elapsed":249834,"subject_id":"91746","group":"Group2","condition":"3_Rep","full_date":"2026-01-30T19:36:37.805Z","date":"2026-01-30","time":"19:36:37"},{"rt":null,"stimulus":"<p style=\"font-size: 50px; margin: 0; text-align: center;\">+</p>","response":null,"trial_type":"html-keyboard-response","trial_index":53,"plugin_version":"2.1.0","time_elapsed":250837,"subject_id":"91746","group":"Group2","condition":"3_Rep","full_date":"2026-01-30T19:36:37.805Z","date":"2026-01-30","time":"19:36:37"},{"task":"memory_phase","broad_category":"M","image_png":"M_Slate_10.png","image_id":314,"category_name":"Slate","category":20,"distinct_rating":1.94,"distinct_type":"Bottom","rt":null,"stimulus":"Stimuli_Rocks480/M_Slate_10.png","response":null,"trial_type":"image-keyboard-response","trial_index":54,"plugin_version":"2.1.0","time_elapsed":253341,"subject_id":"91746","group":"Group2","condition":"3_Rep","full_date":"2026-01-30T19:36:37.805Z","date":"2026-01-30","time":"19:36:37"},{"rt":861,"stimulus":"<p style=\"max-width: 760px; margin: auto; font-size: 35px; line-height: 1.5;\">\n                Press SPACE to continue study phase\n              </p>","response":" ","trial_type":"html-keyboard-response","trial_index":55,"plugin_version":"2.1.0","time_elapsed":254205,"subject_id":"91746","group":"Group2","condition":"3_Rep","full_date":"2026-01-30T19:36:37.805Z","date":"2026-01-30","time":"19:36:37"},{"rt":null,"stimulus":"<p style=\"font-size: 50px; margin: 0; text-align: center;\">+</p>","response":null,"trial_type":"html-keyboard-response","trial_index":56,"plugin_version":"2.1.0","time_elapsed":255207,"subject_id":"91746","group":"Group2","condition":"3_Rep","full_date":"2026-01-30T19:36:37.805Z","date":"2026-01-30","time":"19:36:37"},{"task":"memory_phase","broad_category":"I","image_png":"I_Pumice_14.png","image_id":142,"category_name":"Pumice","category":9,"distinct_rating":3.22,"distinct_type":"Bottom","rt":null,"stimulus":"Stimuli_Rocks480/I_Pumice_14.png","response":null,"trial_type":"image-keyboard-response","trial_index":57,"plugin_version":"2.1.0","time_elapsed":257712,"subject_id":"91746","group":"Group2","condition":"3_Rep","full_date":"2026-01-30T19:36:37.805Z","date":"2026-01-30","time":"19:36:37"},{"rt":null,"stimulus":"<p style=\"font-size: 50px; margin: 0; text-align: center;\">+</p>","response":null,"trial_type":"html-keyboard-response","trial_index":58,"plugin_version":"2.1.0","time_elapsed":258716,"subject_id":"91746","group":"Group2","condition":"3_Rep","full_date":"2026-01-30T19:36:37.805Z","date":"2026-01-30","time":"19:36:37"},{"task":"memory_phase","broad_category":"S","image_png":"S_Dolomite_07.png","image_id":391,"category_name":"Dolomite","category":25,"distinct_rating":1.73,"distinct_type":"Bottom","rt":null,"stimulus":"Stimuli_Rocks480/S_Dolomite_07.png","response":null,"trial_type":"image-keyboard-response","trial_index":59,"plugin_version":"2.1.0","time_elapsed":261220,"subject_id":"91746","group":"Group2","condition":"3_Rep","full_date":"2026-01-30T19:36:37.805Z","date":"2026-01-30","time":"19:36:37"},{"rt":null,"stimulus":"<p style=\"font-size: 50px; margin: 0; text-align: center;\">+</p>","response":null,"trial_type":"html-keyboard-response","trial_index":60,"plugin_version":"2.1.0","time_elapsed":262224,"subject_id":"91746","group":"Group2","condition":"3_Rep","full_date":"2026-01-30T19:36:37.805Z","date":"2026-01-30","time":"19:36:37"},{"task":"memory_phase","broad_category":"I","image_png":"I_Rhyolite_10.png","image_id":154,"category_name":"Rhyolite","category":10,"distinct_rating":2.88,"distinct_type":"Bottom","rt":null,"stimulus":"Stimuli_Rocks480/I_Rhyolite_10.png","response":null,"trial_type":"image-keyboard-response","trial_index":61,"plugin_version":"2.1.0","time_elapsed":264728,"subject_id":"91746","group":"Group2","condition":"3_Rep","full_date":"2026-01-30T19:36:37.805Z","date":"2026-01-30","time":"19:36:37"},{"rt":null,"stimulus":"<p style=\"font-size: 50px; margin: 0; text-align: center;\">+</p>","response":null,"trial_type":"html-keyboard-response","trial_index":62,"plugin_version":"2.1.0","time_elapsed":265732,"subject_id":"91746","group":"Group2","condition":"3_Rep","full_date":"2026-01-30T19:36:37.805Z","date":"2026-01-30","time":"19:36:37"},{"task":"memory_phase","broad_category":"M","image_png":"M_Quartzite_12.png","image_id":284,"category_name":"Quartzite","category":18,"distinct_rating":1.92,"distinct_type":"Bottom","rt":null,"stimulus":"Stimuli_Rocks480/M_Quartzite_12.png","response":null,"trial_type":"image-keyboard-response","trial_index":63,"plugin_version":"2.1.0","time_elapsed":268235,"subject_id":"91746","group":"Group2","condition":"3_Rep","full_date":"2026-01-30T19:36:37.805Z","date":"2026-01-30","time":"19:36:37"},{"rt":null,"stimulus":"<p style=\"font-size: 50px; margin: 0; text-align: center;\">+</p>","response":null,"trial_type":"html-keyboard-response","trial_index":64,"plugin_version":"2.1.0","time_elapsed":269239,"subject_id":"91746","group":"Group2","condition":"3_Rep","full_date":"2026-01-30T19:36:37.805Z","date":"2026-01-30","time":"19:36:37"},{"task":"memory_phase","broad_category":"I","image_png":"I_Basalt_08.png","image_id":24,"category_name":"Basalt","category":2,"distinct_rating":2.31,"distinct_type":"Bottom","rt":null,"stimulus":"Stimuli_Rocks480/I_Basalt_08.png","response":null,"trial_type":"image-keyboard-response","trial_index":65,"plugin_version":"2.1.0","time_elapsed":271743,"subject_id":"91746","group":"Group2","condition":"3_Rep","full_date":"2026-01-30T19:36:37.805Z","date":"2026-01-30","time":"19:36:37"},{"rt":null,"stimulus":"<p style=\"font-size: 50px; margin: 0; text-align: center;\">+</p>","response":null,"trial_type":"html-keyboard-response","trial_index":66,"plugin_version":"2.1.0","time_elapsed":272747,"subject_id":"91746","group":"Group2","condition":"3_Rep","full_date":"2026-01-30T19:36:37.805Z","date":"2026-01-30","time":"19:36:37"},{"task":"memory_phase","broad_category":"M","image_png":"M_Quartzite_07.png","image_id":279,"category_name":"Quartzite","category":18,"distinct_rating":1.97,"distinct_type":"Bottom","rt":null,"stimulus":"Stimuli_Rocks480/M_Quartzite_07.png","response":null,"trial_type":"image-keyboard-response","trial_index":67,"plugin_version":"2.1.0","time_elapsed":275250,"subject_id":"91746","group":"Group2","condition":"3_Rep","full_date":"2026-01-30T19:36:37.805Z","date":"2026-01-30","time":"19:36:37"},{"rt":null,"stimulus":"<p style=\"font-size: 50px; margin: 0; text-align: center;\">+</p>","response":null,"trial_type":"html-keyboard-response","trial_index":68,"plugin_version":"2.1.0","time_elapsed":276254,"subject_id":"91746","group":"Group2","condition":"3_Rep","full_date":"2026-01-30T19:36:37.805Z","date":"2026-01-30","time":"19:36:37"},{"task":"memory_phase","broad_category":"I","image_png":"I_Rhyolite_08.png","image_id":152,"category_name":"Rhyolite","category":10,"distinct_rating":1.38,"distinct_type":"Bottom","rt":null,"stimulus":"Stimuli_Rocks480/I_Rhyolite_08.png","response":null,"trial_type":"image-keyboard-response","trial_index":69,"plugin_version":"2.1.0","time_elapsed":278758,"subject_id":"91746","group":"Group2","condition":"3_Rep","full_date":"2026-01-30T19:36:37.805Z","date":"2026-01-30","time":"19:36:37"},{"rt":null,"stimulus":"<p style=\"font-size: 50px; margin: 0; text-align: center;\">+</p>","response":null,"trial_type":"html-keyboard-response","trial_index":70,"plugin_version":"2.1.0","time_elapsed":279762,"subject_id":"91746","group":"Group2","condition":"3_Rep","full_date":"2026-01-30T19:36:37.805Z","date":"2026-01-30","time":"19:36:37"},{"task":"memory_phase","broad_category":"M","image_png":"M_Marble_14.png","image_id":238,"category_name":"Marble","category":15,"distinct_rating":3.31,"distinct_type":"Bottom","rt":null,"stimulus":"Stimuli_Rocks480/M_Marble_14.png","response":null,"trial_type":"image-keyboard-response","trial_index":71,"plugin_version":"2.1.0","time_elapsed":282266,"subject_id":"91746","group":"Group2","condition":"3_Rep","full_date":"2026-01-30T19:36:37.805Z","date":"2026-01-30","time":"19:36:37"},{"rt":null,"stimulus":"<p style=\"font-size: 50px; margin: 0; text-align: center;\">+</p>","response":null,"trial_type":"html-keyboard-response","trial_index":72,"plugin_version":"2.1.0","time_elapsed":283270,"subject_id":"91746","group":"Group2","condition":"3_Rep","full_date":"2026-01-30T19:36:37.805Z","date":"2026-01-30","time":"19:36:37"},{"task":"memory_phase","broad_category":"M","image_png":"M_Gneiss_15.png","image_id":207,"category_name":"Gneiss","category":13,"distinct_rating":3.11,"distinct_type":"Bottom","rt":null,"stimulus":"Stimuli_Rocks480/M_Gneiss_15.png","response":null,"trial_type":"image-keyboard-response","trial_index":73,"plugin_version":"2.1.0","time_elapsed":285774,"subject_id":"91746","group":"Group2","condition":"3_Rep","full_date":"2026-01-30T19:36:37.805Z","date":"2026-01-30","time":"19:36:37"},{"rt":null,"stimulus":"<p style=\"font-size: 50px; margin: 0; text-align: center;\">+</p>","response":null,"trial_type":"html-keyboard-response","trial_index":74,"plugin_version":"2.1.0","time_elapsed":286778,"subject_id":"91746","group":"Group2","condition":"3_Rep","full_date":"2026-01-30T19:36:37.805Z","date":"2026-01-30","time":"19:36:37"},{"task":"memory_phase","broad_category":"I","image_png":"I_Andesite_04.png","image_id":4,"category_name":"Andesite","category":1,"distinct_rating":3.18,"distinct_type":"Bottom","rt":null,"stimulus":"Stimuli_Rocks480/I_Andesite_04.png","response":null,"trial_type":"image-keyboard-response","trial_index":75,"plugin_version":"2.1.0","time_elapsed":289283,"subject_id":"91746","group":"Group2","condition":"3_Rep","full_date":"2026-01-30T19:36:37.805Z","date":"2026-01-30","time":"19:36:37"},{"rt":null,"stimulus":"<p style=\"font-size: 50px; margin: 0; text-align: center;\">+</p>","response":null,"trial_type":"html-keyboard-response","trial_index":76,"plugin_version":"2.1.0","time_elapsed":290286,"subject_id":"91746","group":"Group2","condition":"3_Rep","full_date":"2026-01-30T19:36:37.805Z","date":"2026-01-30","time":"19:36:37"},{"task":"memory_phase","broad_category":"M","image_png":"M_Phyllite_13.png","image_id":269,"category_name":"Phyllite","category":17,"distinct_rating":2.8,"distinct_type":"Bottom","rt":null,"stimulus":"Stimuli_Rocks480/M_Phyllite_13.png","response":null,"trial_type":"image-keyboard-response","trial_index":77,"plugin_version":"2.1.0","time_elapsed":292789,"subject_id":"91746","group":"Group2","condition":"3_Rep","full_date":"2026-01-30T19:36:37.805Z","date":"2026-01-30","time":"19:36:37"},{"rt":null,"stimulus":"<p style=\"font-size: 50px; margin: 0; text-align: center;\">+</p>","response":null,"trial_type":"html-keyboard-response","trial_index":78,"plugin_version":"2.1.0","time_elapsed":293792,"subject_id":"91746","group":"Group2","condition":"3_Rep","full_date":"2026-01-30T19:36:37.805Z","date":"2026-01-30","time":"19:36:37"},{"task":"memory_phase","broad_category":"M","image_png":"M_Quartzite_15.png","image_id":287,"category_name":"Quartzite","category":18,"distinct_rating":2.19,"distinct_type":"Bottom","rt":null,"stimulus":"Stimuli_Rocks480/M_Quartzite_15.png","response":null,"trial_type":"image-keyboard-response","trial_index":79,"plugin_version":"2.1.0","time_elapsed":296297,"subject_id":"91746","group":"Group2","condition":"3_Rep","full_date":"2026-01-30T19:36:37.805Z","date":"2026-01-30","time":"19:36:37"},{"rt":null,"stimulus":"<p style=\"font-size: 50px; margin: 0; text-align: center;\">+</p>","response":null,"trial_type":"html-keyboard-response","trial_index":80,"plugin_version":"2.1.0","time_elapsed":297300,"subject_id":"91746","group":"Group2","condition":"3_Rep","full_date":"2026-01-30T19:36:37.805Z","date":"2026-01-30","time":"19:36:37"},{"task":"memory_phase","broad_category":"M","image_png":"M_Gneiss_14.png","image_id":206,"category_name":"Gneiss","category":13,"distinct_rating":3.41,"distinct_type":"Bottom","rt":null,"stimulus":"Stimuli_Rocks480/M_Gneiss_14.png","response":null,"trial_type":"image-keyboard-response","trial_index":81,"plugin_version":"2.1.0","time_elapsed":299804,"subject_id":"91746","group":"Group2","condition":"3_Rep","full_date":"2026-01-30T19:36:37.805Z","date":"2026-01-30","time":"19:36:37"},{"rt":null,"stimulus":"<p style=\"font-size: 50px; margin: 0; text-align: center;\">+</p>","response":null,"trial_type":"html-keyboard-response","trial_index":82,"plugin_version":"2.1.0","time_elapsed":300807,"subject_id":"91746","group":"Group2","condition":"3_Rep","full_date":"2026-01-30T19:36:37.805Z","date":"2026-01-30","time":"19:36:37"},{"task":"memory_phase","broad_category":"I","image_png":"I_Rhyolite_05.png","image_id":149,"category_name":"Rhyolite","category":10,"distinct_rating":3.02,"distinct_type":"Bottom","rt":null,"stimulus":"Stimuli_Rocks480/I_Rhyolite_05.png","response":null,"trial_type":"image-keyboard-response","trial_index":83,"plugin_version":"2.1.0","time_elapsed":303311,"subject_id":"91746","group":"Group2","condition":"3_Rep","full_date":"2026-01-30T19:36:37.805Z","date":"2026-01-30","time":"19:36:37"},{"rt":null,"stimulus":"<p style=\"font-size: 50px; margin: 0; text-align: center;\">+</p>","response":null,"trial_type":"html-keyboard-response","trial_index":84,"plugin_version":"2.1.0","time_elapsed":304314,"subject_id":"91746","group":"Group2","condition":"3_Rep","full_date":"2026-01-30T19:36:37.805Z","date":"2026-01-30","time":"19:36:37"},{"task":"memory_phase","broad_category":"S","image_png":"S_Rock Salt_13.png","image_id":445,"category_name":"Rock Salt","category":28,"distinct_rating":7.58,"distinct_type":"Top","rt":null,"stimulus":"Stimuli_Rocks480/S_Rock Salt_13.png","response":null,"trial_type":"image-keyboard-response","trial_index":85,"plugin_version":"2.1.0","time_elapsed":306818,"subject_id":"91746","group":"Group2","condition":"3_Rep","full_date":"2026-01-30T19:36:37.805Z","date":"2026-01-30","time":"19:36:37"},{"rt":null,"stimulus":"<p style=\"font-size: 50px; margin: 0; text-align: center;\">+</p>","response":null,"trial_type":"html-keyboard-response","trial_index":86,"plugin_version":"2.1.0","time_elapsed":307821,"subject_id":"91746","group":"Group2","condition":"3_Rep","full_date":"2026-01-30T19:36:37.805Z","date":"2026-01-30","time":"19:36:37"},{"task":"memory_phase","broad_category":"S","image_png":"S_Dolomite_16.png","image_id":400,"category_name":"Dolomite","category":25,"distinct_rating":1.71,"distinct_type":"Bottom","rt":null,"stimulus":"Stimuli_Rocks480/S_Dolomite_16.png","response":null,"trial_type":"image-keyboard-response","trial_index":87,"plugin_version":"2.1.0","time_elapsed":310325,"subject_id":"91746","group":"Group2","condition":"3_Rep","full_date":"2026-01-30T19:36:37.805Z","date":"2026-01-30","time":"19:36:37"},{"rt":null,"stimulus":"<p style=\"font-size: 50px; margin: 0; text-align: center;\">+</p>","response":null,"trial_type":"html-keyboard-response","trial_index":88,"plugin_version":"2.1.0","time_elapsed":311330,"subject_id":"91746","group":"Group2","condition":"3_Rep","full_date":"2026-01-30T19:36:37.805Z","date":"2026-01-30","time":"19:36:37"},{"task":"memory_phase","broad_category":"I","image_png":"I_Peridotite_13.png","image_id":125,"category_name":"Peridotite","category":8,"distinct_rating":7.28,"distinct_type":"Top","rt":null,"stimulus":"Stimuli_Rocks480/I_Peridotite_13.png","response":null,"trial_type":"image-keyboard-response","trial_index":89,"plugin_version":"2.1.0","time_elapsed":313834,"subject_id":"91746","group":"Group2","condition":"3_Rep","full_date":"2026-01-30T19:36:37.805Z","date":"2026-01-30","time":"19:36:37"},{"rt":null,"stimulus":"<p style=\"font-size: 50px; margin: 0; text-align: center;\">+</p>","response":null,"trial_type":"html-keyboard-response","trial_index":90,"plugin_version":"2.1.0","time_elapsed":314838,"subject_id":"91746","group":"Group2","condition":"3_Rep","full_date":"2026-01-30T19:36:37.805Z","date":"2026-01-30","time":"19:36:37"},{"task":"memory_phase","broad_category":"M","image_png":"M_Marble_02.png","image_id":226,"category_name":"Marble","category":15,"distinct_rating":3.2,"distinct_type":"Bottom","rt":null,"stimulus":"Stimuli_Rocks480/M_Marble_02.png","response":null,"trial_type":"image-keyboard-response","trial_index":91,"plugin_version":"2.1.0","time_elapsed":317342,"subject_id":"91746","group":"Group2","condition":"3_Rep","full_date":"2026-01-30T19:36:37.805Z","date":"2026-01-30","time":"19:36:37"},{"rt":null,"stimulus":"<p style=\"font-size: 50px; margin: 0; text-align: center;\">+</p>","response":null,"trial_type":"html-keyboard-response","trial_index":92,"plugin_version":"2.1.0","time_elapsed":318345,"subject_id":"91746","group":"Group2","condition":"3_Rep","full_date":"2026-01-30T19:36:37.805Z","date":"2026-01-30","time":"19:36:37"},{"task":"memory_phase","broad_category":"M","image_png":"M_Phyllite_02.png","image_id":258,"category_name":"Phyllite","category":17,"distinct_rating":2.89,"distinct_type":"Bottom","rt":null,"stimulus":"Stimuli_Rocks480/M_Phyllite_02.png","response":null,"trial_type":"image-keyboard-response","trial_index":93,"plugin_version":"2.1.0","time_elapsed":320849,"subject_id":"91746","group":"Group2","condition":"3_Rep","full_date":"2026-01-30T19:36:37.805Z","date":"2026-01-30","time":"19:36:37"},{"rt":null,"stimulus":"<p style=\"font-size: 50px; margin: 0; text-align: center;\">+</p>","response":null,"trial_type":"html-keyboard-response","trial_index":94,"plugin_version":"2.1.0","time_elapsed":321853,"subject_id":"91746","group":"Group2","condition":"3_Rep","full_date":"2026-01-30T19:36:37.805Z","date":"2026-01-30","time":"19:36:37"},{"task":"memory_phase","broad_category":"I","image_png":"I_Diorite_01.png","image_id":33,"category_name":"Diorite","category":3,"distinct_rating":2.97,"distinct_type":"Bottom","rt":null,"stimulus":"Stimuli_Rocks480/I_Diorite_01.png","response":null,"trial_type":"image-keyboard-response","trial_index":95,"plugin_version":"2.1.0","time_elapsed":324357,"subject_id":"91746","group":"Group2","condition":"3_Rep","full_date":"2026-01-30T19:36:37.805Z","date":"2026-01-30","time":"19:36:37"},{"rt":null,"stimulus":"<p style=\"font-size: 50px; margin: 0; text-align: center;\">+</p>","response":null,"trial_type":"html-keyboard-response","trial_index":96,"plugin_version":"2.1.0","time_elapsed":325360,"subject_id":"91746","group":"Group2","condition":"3_Rep","full_date":"2026-01-30T19:36:37.805Z","date":"2026-01-30","time":"19:36:37"},{"task":"memory_phase","broad_category":"M","image_png":"M_Slate_14.png","image_id":318,"category_name":"Slate","category":20,"distinct_rating":2.58,"distinct_type":"Bottom","rt":null,"stimulus":"Stimuli_Rocks480/M_Slate_14.png","response":null,"trial_type":"image-keyboard-response","trial_index":97,"plugin_version":"2.1.0","time_elapsed":327864,"subject_id":"91746","group":"Group2","condition":"3_Rep","full_date":"2026-01-30T19:36:37.805Z","date":"2026-01-30","time":"19:36:37"},{"rt":null,"stimulus":"<p style=\"font-size: 50px; margin: 0; text-align: center;\">+</p>","response":null,"trial_type":"html-keyboard-response","trial_index":98,"plugin_version":"2.1.0","time_elapsed":328866,"subject_id":"91746","group":"Group2","condition":"3_Rep","full_date":"2026-01-30T19:36:37.805Z","date":"2026-01-30","time":"19:36:37"},{"task":"memory_phase","broad_category":"S","image_png":"S_Shale_07.png","image_id":471,"category_name":"Shale","category":30,"distinct_rating":2.73,"distinct_type":"Bottom","rt":null,"stimulus":"Stimuli_Rocks480/S_Shale_07.png","response":null,"trial_type":"image-keyboard-response","trial_index":99,"plugin_version":"2.1.0","time_elapsed":331370,"subject_id":"91746","group":"Group2","condition":"3_Rep","full_date":"2026-01-30T19:36:37.805Z","date":"2026-01-30","time":"19:36:37"},{"rt":null,"stimulus":"<p style=\"font-size: 50px; margin: 0; text-align: center;\">+</p>","response":null,"trial_type":"html-keyboard-response","trial_index":100,"plugin_version":"2.1.0","time_elapsed":332374,"subject_id":"91746","group":"Group2","condition":"3_Rep","full_date":"2026-01-30T19:36:37.805Z","date":"2026-01-30","time":"19:36:37"},{"task":"memory_phase","broad_category":"M","image_png":"M_Slate_04.png","image_id":308,"category_name":"Slate","category":20,"distinct_rating":2.2,"distinct_type":"Bottom","rt":null,"stimulus":"Stimuli_Rocks480/M_Slate_04.png","response":null,"trial_type":"image-keyboard-response","trial_index":101,"plugin_version":"2.1.0","time_elapsed":334878,"subject_id":"91746","group":"Group2","condition":"3_Rep","full_date":"2026-01-30T19:36:37.805Z","date":"2026-01-30","time":"19:36:37"},{"rt":null,"stimulus":"<p style=\"font-size: 50px; margin: 0; text-align: center;\">+</p>","response":null,"trial_type":"html-keyboard-response","trial_index":102,"plugin_version":"2.1.0","time_elapsed":335882,"subject_id":"91746","group":"Group2","condition":"3_Rep","full_date":"2026-01-30T19:36:37.805Z","date":"2026-01-30","time":"19:36:37"},{"task":"memory_phase","broad_category":"I","image_png":"I_Diorite_15.png","image_id":47,"category_name":"Diorite","category":3,"distinct_rating":3.05,"distinct_type":"Bottom","rt":null,"stimulus":"Stimuli_Rocks480/I_Diorite_15.png","response":null,"trial_type":"image-keyboard-response","trial_index":103,"plugin_version":"2.1.0","time_elapsed":338386,"subject_id":"91746","group":"Group2","condition":"3_Rep","full_date":"2026-01-30T19:36:37.805Z","date":"2026-01-30","time":"19:36:37"},{"rt":null,"stimulus":"<p style=\"font-size: 50px; margin: 0; text-align: center;\">+</p>","response":null,"trial_type":"html-keyboard-response","trial_index":104,"plugin_version":"2.1.0","time_elapsed":339389,"subject_id":"91746","group":"Group2","condition":"3_Rep","full_date":"2026-01-30T19:36:37.805Z","date":"2026-01-30","time":"19:36:37"},{"task":"memory_phase","broad_category":"I","image_png":"I_Gabbro_02.png","image_id":50,"category_name":"Gabbro","category":4,"distinct_rating":2.73,"distinct_type":"Bottom","rt":null,"stimulus":"Stimuli_Rocks480/I_Gabbro_02.png","response":null,"trial_type":"image-keyboard-response","trial_index":105,"plugin_version":"2.1.0","time_elapsed":341893,"subject_id":"91746","group":"Group2","condition":"3_Rep","full_date":"2026-01-30T19:36:37.805Z","date":"2026-01-30","time":"19:36:37"},{"rt":2668,"stimulus":"<p style=\"max-width: 760px; margin: auto; font-size: 35px; line-height: 1.5;\">\n                You have completed 1 study phase. \n                Now, we'll show you all the images again 2 more times.\n                <br><br>Press SPACE to continue\n              </p>","response":" ","trial_type":"html-keyboard-response","trial_index":106,"plugin_version":"2.1.0","time_elapsed":344563,"subject_id":"91746","group":"Group2","condition":"3_Rep","full_date":"2026-01-30T19:36:37.805Z","date":"2026-01-30","time":"19:36:37"},{"rt":null,"stimulus":"<p style=\"font-size: 50px; margin: 0; text-align: center;\">+</p>","response":null,"trial_type":"html-keyboard-response","trial_index":107,"plugin_version":"2.1.0","time_elapsed":345566,"subject_id":"91746","group":"Group2","condition":"3_Rep","full_date":"2026-01-30T19:36:37.805Z","date":"2026-01-30","time":"19:36:37"},{"task":"memory_phase","broad_category":"I","image_png":"I_Andesite_09.png","image_id":9,"category_name":"Andesite","category":1,"distinct_rating":2.49,"distinct_type":"Bottom","rt":null,"stimulus":"Stimuli_Rocks480/I_Andesite_09.png","response":null,"trial_type":"image-keyboard-response","trial_index":108,"plugin_version":"2.1.0","time_elapsed":348071,"subject_id":"91746","group":"Group2","condition":"3_Rep","full_date":"2026-01-30T19:36:37.805Z","date":"2026-01-30","time":"19:36:37"},{"rt":null,"stimulus":"<p style=\"font-size: 50px; margin: 0; text-align: center;\">+</p>","response":null,"trial_type":"html-keyboard-response","trial_index":109,"plugin_version":"2.1.0","time_elapsed":349074,"subject_id":"91746","group":"Group2","condition":"3_Rep","full_date":"2026-01-30T19:36:37.805Z","date":"2026-01-30","time":"19:36:37"},{"task":"memory_phase","broad_category":"I","image_png":"I_Pumice_13.png","image_id":141,"category_name":"Pumice","category":9,"distinct_rating":3.12,"distinct_type":"Bottom","rt":null,"stimulus":"Stimuli_Rocks480/I_Pumice_13.png","response":null,"trial_type":"image-keyboard-response","trial_index":110,"plugin_version":"2.1.0","time_elapsed":351577,"subject_id":"91746","group":"Group2","condition":"3_Rep","full_date":"2026-01-30T19:36:37.805Z","date":"2026-01-30","time":"19:36:37"},{"rt":null,"stimulus":"<p style=\"font-size: 50px; margin: 0; text-align: center;\">+</p>","response":null,"trial_type":"html-keyboard-response","trial_index":111,"plugin_version":"2.1.0","time_elapsed":352581,"subject_id":"91746","group":"Group2","condition":"3_Rep","full_date":"2026-01-30T19:36:37.805Z","date":"2026-01-30","time":"19:36:37"},{"task":"memory_phase","broad_category":"M","image_png":"M_Gneiss_15.png","image_id":207,"category_name":"Gneiss","category":13,"distinct_rating":3.11,"distinct_type":"Bottom","rt":null,"stimulus":"Stimuli_Rocks480/M_Gneiss_15.png","response":null,"trial_type":"image-keyboard-response","trial_index":112,"plugin_version":"2.1.0","time_elapsed":355086,"subject_id":"91746","group":"Group2","condition":"3_Rep","full_date":"2026-01-30T19:36:37.805Z","date":"2026-01-30","time":"19:36:37"},{"rt":null,"stimulus":"<p style=\"font-size: 50px; margin: 0; text-align: center;\">+</p>","response":null,"trial_type":"html-keyboard-response","trial_index":113,"plugin_version":"2.1.0","time_elapsed":356089,"subject_id":"91746","group":"Group2","condition":"3_Rep","full_date":"2026-01-30T19:36:37.805Z","date":"2026-01-30","time":"19:36:37"},{"task":"memory_phase","broad_category":"I","image_png":"I_Rhyolite_10.png","image_id":154,"category_name":"Rhyolite","category":10,"distinct_rating":2.88,"distinct_type":"Bottom","rt":null,"stimulus":"Stimuli_Rocks480/I_Rhyolite_10.png","response":null,"trial_type":"image-keyboard-response","trial_index":114,"plugin_version":"2.1.0","time_elapsed":358593,"subject_id":"91746","group":"Group2","condition":"3_Rep","full_date":"2026-01-30T19:36:37.805Z","date":"2026-01-30","time":"19:36:37"},{"rt":null,"stimulus":"<p style=\"font-size: 50px; margin: 0; text-align: center;\">+</p>","response":null,"trial_type":"html-keyboard-response","trial_index":115,"plugin_version":"2.1.0","time_elapsed":359596,"subject_id":"91746","group":"Group2","condition":"3_Rep","full_date":"2026-01-30T19:36:37.805Z","date":"2026-01-30","time":"19:36:37"},{"task":"memory_phase","broad_category":"I","image_png":"I_Pumice_14.png","image_id":142,"category_name":"Pumice","category":9,"distinct_rating":3.22,"distinct_type":"Bottom","rt":null,"stimulus":"Stimuli_Rocks480/I_Pumice_14.png","response":null,"trial_type":"image-keyboard-response","trial_index":116,"plugin_version":"2.1.0","time_elapsed":362100,"subject_id":"91746","group":"Group2","condition":"3_Rep","full_date":"2026-01-30T19:36:37.805Z","date":"2026-01-30","time":"19:36:37"},{"rt":null,"stimulus":"<p style=\"font-size: 50px; margin: 0; text-align: center;\">+</p>","response":null,"trial_type":"html-keyboard-response","trial_index":117,"plugin_version":"2.1.0","time_elapsed":363104,"subject_id":"91746","group":"Group2","condition":"3_Rep","full_date":"2026-01-30T19:36:37.805Z","date":"2026-01-30","time":"19:36:37"},{"task":"memory_phase","broad_category":"I","image_png":"I_Basalt_10.png","image_id":26,"category_name":"Basalt","category":2,"distinct_rating":2.76,"distinct_type":"Bottom","rt":null,"stimulus":"Stimuli_Rocks480/I_Basalt_10.png","response":null,"trial_type":"image-keyboard-response","trial_index":118,"plugin_version":"2.1.0","time_elapsed":365608,"subject_id":"91746","group":"Group2","condition":"3_Rep","full_date":"2026-01-30T19:36:37.805Z","date":"2026-01-30","time":"19:36:37"},{"rt":null,"stimulus":"<p style=\"font-size: 50px; margin: 0; text-align: center;\">+</p>","response":null,"trial_type":"html-keyboard-response","trial_index":119,"plugin_version":"2.1.0","time_elapsed":366610,"subject_id":"91746","group":"Group2","condition":"3_Rep","full_date":"2026-01-30T19:36:37.805Z","date":"2026-01-30","time":"19:36:37"},{"task":"memory_phase","broad_category":"M","image_png":"M_Marble_14.png","image_id":238,"category_name":"Marble","category":15,"distinct_rating":3.31,"distinct_type":"Bottom","rt":null,"stimulus":"Stimuli_Rocks480/M_Marble_14.png","response":null,"trial_type":"image-keyboard-response","trial_index":120,"plugin_version":"2.1.0","time_elapsed":369115,"subject_id":"91746","group":"Group2","condition":"3_Rep","full_date":"2026-01-30T19:36:37.805Z","date":"2026-01-30","time":"19:36:37"},{"rt":null,"stimulus":"<p style=\"font-size: 50px; margin: 0; text-align: center;\">+</p>","response":null,"trial_type":"html-keyboard-response","trial_index":121,"plugin_version":"2.1.0","time_elapsed":370118,"subject_id":"91746","group":"Group2","condition":"3_Rep","full_date":"2026-01-30T19:36:37.805Z","date":"2026-01-30","time":"19:36:37"},{"task":"memory_phase","broad_category":"I","image_png":"I_Pumice_01.png","image_id":129,"category_name":"Pumice","category":9,"distinct_rating":3.25,"distinct_type":"Bottom","rt":null,"stimulus":"Stimuli_Rocks480/I_Pumice_01.png","response":null,"trial_type":"image-keyboard-response","trial_index":122,"plugin_version":"2.1.0","time_elapsed":372622,"subject_id":"91746","group":"Group2","condition":"3_Rep","full_date":"2026-01-30T19:36:37.805Z","date":"2026-01-30","time":"19:36:37"},{"rt":null,"stimulus":"<p style=\"font-size: 50px; margin: 0; text-align: center;\">+</p>","response":null,"trial_type":"html-keyboard-response","trial_index":123,"plugin_version":"2.1.0","time_elapsed":373626,"subject_id":"91746","group":"Group2","condition":"3_Rep","full_date":"2026-01-30T19:36:37.805Z","date":"2026-01-30","time":"19:36:37"},{"task":"memory_phase","broad_category":"M","image_png":"M_Quartzite_07.png","image_id":279,"category_name":"Quartzite","category":18,"distinct_rating":1.97,"distinct_type":"Bottom","rt":null,"stimulus":"Stimuli_Rocks480/M_Quartzite_07.png","response":null,"trial_type":"image-keyboard-response","trial_index":124,"plugin_version":"2.1.0","time_elapsed":376130,"subject_id":"91746","group":"Group2","condition":"3_Rep","full_date":"2026-01-30T19:36:37.805Z","date":"2026-01-30","time":"19:36:37"},{"rt":null,"stimulus":"<p style=\"font-size: 50px; margin: 0; text-align: center;\">+</p>","response":null,"trial_type":"html-keyboard-response","trial_index":125,"plugin_version":"2.1.0","time_elapsed":377133,"subject_id":"91746","group":"Group2","condition":"3_Rep","full_date":"2026-01-30T19:36:37.805Z","date":"2026-01-30","time":"19:36:37"},{"task":"memory_phase","broad_category":"S","image_png":"S_Sandstone_08.png","image_id":456,"category_name":"Sandstone","category":29,"distinct_rating":1.5,"distinct_type":"Bottom","rt":null,"stimulus":"Stimuli_Rocks480/S_Sandstone_08.png","response":null,"trial_type":"image-keyboard-response","trial_index":126,"plugin_version":"2.1.0","time_elapsed":379637,"subject_id":"91746","group":"Group2","condition":"3_Rep","full_date":"2026-01-30T19:36:37.805Z","date":"2026-01-30","time":"19:36:37"},{"rt":null,"stimulus":"<p style=\"font-size: 50px; margin: 0; text-align: center;\">+</p>","response":null,"trial_type":"html-keyboard-response","trial_index":127,"plugin_version":"2.1.0","time_elapsed":380639,"subject_id":"91746","group":"Group2","condition":"3_Rep","full_date":"2026-01-30T19:36:37.805Z","date":"2026-01-30","time":"19:36:37"},{"task":"memory_phase","broad_category":"S","image_png":"S_Dolomite_16.png","image_id":400,"category_name":"Dolomite","category":25,"distinct_rating":1.71,"distinct_type":"Bottom","rt":null,"stimulus":"Stimuli_Rocks480/S_Dolomite_16.png","response":null,"trial_type":"image-keyboard-response","trial_index":128,"plugin_version":"2.1.0","time_elapsed":383143,"subject_id":"91746","group":"Group2","condition":"3_Rep","full_date":"2026-01-30T19:36:37.805Z","date":"2026-01-30","time":"19:36:37"},{"rt":null,"stimulus":"<p style=\"font-size: 50px; margin: 0; text-align: center;\">+</p>","response":null,"trial_type":"html-keyboard-response","trial_index":129,"plugin_version":"2.1.0","time_elapsed":384146,"subject_id":"91746","group":"Group2","condition":"3_Rep","full_date":"2026-01-30T19:36:37.805Z","date":"2026-01-30","time":"19:36:37"},{"task":"memory_phase","broad_category":"I","image_png":"I_Gabbro_02.png","image_id":50,"category_name":"Gabbro","category":4,"distinct_rating":2.73,"distinct_type":"Bottom","rt":null,"stimulus":"Stimuli_Rocks480/I_Gabbro_02.png","response":null,"trial_type":"image-keyboard-response","trial_index":130,"plugin_version":"2.1.0","time_elapsed":386650,"subject_id":"91746","group":"Group2","condition":"3_Rep","full_date":"2026-01-30T19:36:37.805Z","date":"2026-01-30","time":"19:36:37"},{"rt":null,"stimulus":"<p style=\"font-size: 50px; margin: 0; text-align: center;\">+</p>","response":null,"trial_type":"html-keyboard-response","trial_index":131,"plugin_version":"2.1.0","time_elapsed":387652,"subject_id":"91746","group":"Group2","condition":"3_Rep","full_date":"2026-01-30T19:36:37.805Z","date":"2026-01-30","time":"19:36:37"},{"task":"memory_phase","broad_category":"I","image_png":"I_Obsidian_06.png","image_id":86,"category_name":"Obsidian","category":6,"distinct_rating":8.01,"distinct_type":"Top","rt":null,"stimulus":"Stimuli_Rocks480/I_Obsidian_06.png","response":null,"trial_type":"image-keyboard-response","trial_index":132,"plugin_version":"2.1.0","time_elapsed":390155,"subject_id":"91746","group":"Group2","condition":"3_Rep","full_date":"2026-01-30T19:36:37.805Z","date":"2026-01-30","time":"19:36:37"},{"rt":null,"stimulus":"<p style=\"font-size: 50px; margin: 0; text-align: center;\">+</p>","response":null,"trial_type":"html-keyboard-response","trial_index":133,"plugin_version":"2.1.0","time_elapsed":391158,"subject_id":"91746","group":"Group2","condition":"3_Rep","full_date":"2026-01-30T19:36:37.805Z","date":"2026-01-30","time":"19:36:37"},{"task":"memory_phase","broad_category":"I","image_png":"I_Pegmatite_11.png","image_id":107,"category_name":"Pegmatite","category":7,"distinct_rating":7.11,"distinct_type":"Top","rt":null,"stimulus":"Stimuli_Rocks480/I_Pegmatite_11.png","response":null,"trial_type":"image-keyboard-response","trial_index":134,"plugin_version":"2.1.0","time_elapsed":393663,"subject_id":"91746","group":"Group2","condition":"3_Rep","full_date":"2026-01-30T19:36:37.805Z","date":"2026-01-30","time":"19:36:37"},{"rt":null,"stimulus":"<p style=\"font-size: 50px; margin: 0; text-align: center;\">+</p>","response":null,"trial_type":"html-keyboard-response","trial_index":135,"plugin_version":"2.1.0","time_elapsed":394666,"subject_id":"91746","group":"Group2","condition":"3_Rep","full_date":"2026-01-30T19:36:37.805Z","date":"2026-01-30","time":"19:36:37"},{"task":"memory_phase","broad_category":"M","image_png":"M_Slate_14.png","image_id":318,"category_name":"Slate","category":20,"distinct_rating":2.58,"distinct_type":"Bottom","rt":null,"stimulus":"Stimuli_Rocks480/M_Slate_14.png","response":null,"trial_type":"image-keyboard-response","trial_index":136,"plugin_version":"2.1.0","time_elapsed":397169,"subject_id":"91746","group":"Group2","condition":"3_Rep","full_date":"2026-01-30T19:36:37.805Z","date":"2026-01-30","time":"19:36:37"},{"rt":null,"stimulus":"<p style=\"font-size: 50px; margin: 0; text-align: center;\">+</p>","response":null,"trial_type":"html-keyboard-response","trial_index":137,"plugin_version":"2.1.0","time_elapsed":398174,"subject_id":"91746","group":"Group2","condition":"3_Rep","full_date":"2026-01-30T19:36:37.805Z","date":"2026-01-30","time":"19:36:37"},{"task":"memory_phase","broad_category":"M","image_png":"M_Phyllite_05.png","image_id":261,"category_name":"Phyllite","category":17,"distinct_rating":2.14,"distinct_type":"Bottom","rt":null,"stimulus":"Stimuli_Rocks480/M_Phyllite_05.png","response":null,"trial_type":"image-keyboard-response","trial_index":138,"plugin_version":"2.1.0","time_elapsed":400678,"subject_id":"91746","group":"Group2","condition":"3_Rep","full_date":"2026-01-30T19:36:37.805Z","date":"2026-01-30","time":"19:36:37"},{"rt":null,"stimulus":"<p style=\"font-size: 50px; margin: 0; text-align: center;\">+</p>","response":null,"trial_type":"html-keyboard-response","trial_index":139,"plugin_version":"2.1.0","time_elapsed":401681,"subject_id":"91746","group":"Group2","condition":"3_Rep","full_date":"2026-01-30T19:36:37.805Z","date":"2026-01-30","time":"19:36:37"},{"task":"memory_phase","broad_category":"I","image_png":"I_Gabbro_12.png","image_id":60,"category_name":"Gabbro","category":4,"distinct_rating":2.6,"distinct_type":"Bottom","rt":null,"stimulus":"Stimuli_Rocks480/I_Gabbro_12.png","response":null,"trial_type":"image-keyboard-response","trial_index":140,"plugin_version":"2.1.0","time_elapsed":404187,"subject_id":"91746","group":"Group2","condition":"3_Rep","full_date":"2026-01-30T19:36:37.805Z","date":"2026-01-30","time":"19:36:37"},{"rt":null,"stimulus":"<p style=\"font-size: 50px; margin: 0; text-align: center;\">+</p>","response":null,"trial_type":"html-keyboard-response","trial_index":141,"plugin_version":"2.1.0","time_elapsed":405189,"subject_id":"91746","group":"Group2","condition":"3_Rep","full_date":"2026-01-30T19:36:37.805Z","date":"2026-01-30","time":"19:36:37"},{"task":"memory_phase","broad_category":"M","image_png":"M_Quartzite_15.png","image_id":287,"category_name":"Quartzite","category":18,"distinct_rating":2.19,"distinct_type":"Bottom","rt":null,"stimulus":"Stimuli_Rocks480/M_Quartzite_15.png","response":null,"trial_type":"image-keyboard-response","trial_index":142,"plugin_version":"2.1.0","time_elapsed":407693,"subject_id":"91746","group":"Group2","condition":"3_Rep","full_date":"2026-01-30T19:36:37.805Z","date":"2026-01-30","time":"19:36:37"},{"rt":null,"stimulus":"<p style=\"font-size: 50px; margin: 0; text-align: center;\">+</p>","response":null,"trial_type":"html-keyboard-response","trial_index":143,"plugin_version":"2.1.0","time_elapsed":408696,"subject_id":"91746","group":"Group2","condition":"3_Rep","full_date":"2026-01-30T19:36:37.805Z","date":"2026-01-30","time":"19:36:37"},{"task":"memory_phase","broad_category":"M","image_png":"M_Gneiss_14.png","image_id":206,"category_name":"Gneiss","category":13,"distinct_rating":3.41,"distinct_type":"Bottom","rt":null,"stimulus":"Stimuli_Rocks480/M_Gneiss_14.png","response":null,"trial_type":"image-keyboard-response","trial_index":144,"plugin_version":"2.1.0","time_elapsed":411200,"subject_id":"91746","group":"Group2","condition":"3_Rep","full_date":"2026-01-30T19:36:37.805Z","date":"2026-01-30","time":"19:36:37"},{"rt":null,"stimulus":"<p style=\"font-size: 50px; margin: 0; text-align: center;\">+</p>","response":null,"trial_type":"html-keyboard-response","trial_index":145,"plugin_version":"2.1.0","time_elapsed":412203,"subject_id":"91746","group":"Group2","condition":"3_Rep","full_date":"2026-01-30T19:36:37.805Z","date":"2026-01-30","time":"19:36:37"},{"task":"memory_phase","broad_category":"S","image_png":"S_Sandstone_04.png","image_id":452,"category_name":"Sandstone","category":29,"distinct_rating":1.8,"distinct_type":"Bottom","rt":null,"stimulus":"Stimuli_Rocks480/S_Sandstone_04.png","response":null,"trial_type":"image-keyboard-response","trial_index":146,"plugin_version":"2.1.0","time_elapsed":414707,"subject_id":"91746","group":"Group2","condition":"3_Rep","full_date":"2026-01-30T19:36:37.805Z","date":"2026-01-30","time":"19:36:37"},{"rt":null,"stimulus":"<p style=\"font-size: 50px; margin: 0; text-align: center;\">+</p>","response":null,"trial_type":"html-keyboard-response","trial_index":147,"plugin_version":"2.1.0","time_elapsed":415711,"subject_id":"91746","group":"Group2","condition":"3_Rep","full_date":"2026-01-30T19:36:37.805Z","date":"2026-01-30","time":"19:36:37"},{"task":"memory_phase","broad_category":"S","image_png":"S_Conglomerate_14.png","image_id":382,"category_name":"Conglomerate","category":24,"distinct_rating":6.86,"distinct_type":"Top","rt":null,"stimulus":"Stimuli_Rocks480/S_Conglomerate_14.png","response":null,"trial_type":"image-keyboard-response","trial_index":148,"plugin_version":"2.1.0","time_elapsed":418215,"subject_id":"91746","group":"Group2","condition":"3_Rep","full_date":"2026-01-30T19:36:37.805Z","date":"2026-01-30","time":"19:36:37"},{"rt":null,"stimulus":"<p style=\"font-size: 50px; margin: 0; text-align: center;\">+</p>","response":null,"trial_type":"html-keyboard-response","trial_index":149,"plugin_version":"2.1.0","time_elapsed":419218,"subject_id":"91746","group":"Group2","condition":"3_Rep","full_date":"2026-01-30T19:36:37.805Z","date":"2026-01-30","time":"19:36:37"},{"task":"memory_phase","broad_category":"S","image_png":"S_Rock Salt_15.png","image_id":447,"category_name":"Rock Salt","category":28,"distinct_rating":7.79,"distinct_type":"Top","rt":null,"stimulus":"Stimuli_Rocks480/S_Rock Salt_15.png","response":null,"trial_type":"image-keyboard-response","trial_index":150,"plugin_version":"2.1.0","time_elapsed":421721,"subject_id":"91746","group":"Group2","condition":"3_Rep","full_date":"2026-01-30T19:36:37.805Z","date":"2026-01-30","time":"19:36:37"},{"rt":null,"stimulus":"<p style=\"font-size: 50px; margin: 0; text-align: center;\">+</p>","response":null,"trial_type":"html-keyboard-response","trial_index":151,"plugin_version":"2.1.0","time_elapsed":422724,"subject_id":"91746","group":"Group2","condition":"3_Rep","full_date":"2026-01-30T19:36:37.805Z","date":"2026-01-30","time":"19:36:37"},{"task":"memory_phase","broad_category":"I","image_png":"I_Diorite_10.png","image_id":42,"category_name":"Diorite","category":3,"distinct_rating":2.84,"distinct_type":"Bottom","rt":null,"stimulus":"Stimuli_Rocks480/I_Diorite_10.png","response":null,"trial_type":"image-keyboard-response","trial_index":152,"plugin_version":"2.1.0","time_elapsed":425229,"subject_id":"91746","group":"Group2","condition":"3_Rep","full_date":"2026-01-30T19:36:37.805Z","date":"2026-01-30","time":"19:36:37"},{"rt":null,"stimulus":"<p style=\"font-size: 50px; margin: 0; text-align: center;\">+</p>","response":null,"trial_type":"html-keyboard-response","trial_index":153,"plugin_version":"2.1.0","time_elapsed":426232,"subject_id":"91746","group":"Group2","condition":"3_Rep","full_date":"2026-01-30T19:36:37.805Z","date":"2026-01-30","time":"19:36:37"},{"task":"memory_phase","broad_category":"M","image_png":"M_Slate_10.png","image_id":314,"category_name":"Slate","category":20,"distinct_rating":1.94,"distinct_type":"Bottom","rt":null,"stimulus":"Stimuli_Rocks480/M_Slate_10.png","response":null,"trial_type":"image-keyboard-response","trial_index":154,"plugin_version":"2.1.0","time_elapsed":428736,"subject_id":"91746","group":"Group2","condition":"3_Rep","full_date":"2026-01-30T19:36:37.805Z","date":"2026-01-30","time":"19:36:37"},{"rt":null,"stimulus":"<p style=\"font-size: 50px; margin: 0; text-align: center;\">+</p>","response":null,"trial_type":"html-keyboard-response","trial_index":155,"plugin_version":"2.1.0","time_elapsed":429738,"subject_id":"91746","group":"Group2","condition":"3_Rep","full_date":"2026-01-30T19:36:37.805Z","date":"2026-01-30","time":"19:36:37"},{"task":"memory_phase","broad_category":"S","image_png":"S_Shale_02.png","image_id":466,"category_name":"Shale","category":30,"distinct_rating":2.9,"distinct_type":"Bottom","rt":null,"stimulus":"Stimuli_Rocks480/S_Shale_02.png","response":null,"trial_type":"image-keyboard-response","trial_index":156,"plugin_version":"2.1.0","time_elapsed":432242,"subject_id":"91746","group":"Group2","condition":"3_Rep","full_date":"2026-01-30T19:36:37.805Z","date":"2026-01-30","time":"19:36:37"},{"rt":1876,"stimulus":"<p style=\"max-width: 760px; margin: auto; font-size: 35px; line-height: 1.5;\">\n                Press SPACE to continue study phase\n              </p>","response":" ","trial_type":"html-keyboard-response","trial_index":157,"plugin_version":"2.1.0","time_elapsed":434120,"subject_id":"91746","group":"Group2","condition":"3_Rep","full_date":"2026-01-30T19:36:37.805Z","date":"2026-01-30","time":"19:36:37"},{"rt":null,"stimulus":"<p style=\"font-size: 50px; margin: 0; text-align: center;\">+</p>","response":null,"trial_type":"html-keyboard-response","trial_index":158,"plugin_version":"2.1.0","time_elapsed":435122,"subject_id":"91746","group":"Group2","condition":"3_Rep","full_date":"2026-01-30T19:36:37.805Z","date":"2026-01-30","time":"19:36:37"},{"task":"memory_phase","broad_category":"S","image_png":"S_Shale_03.png","image_id":467,"category_name":"Shale","category":30,"distinct_rating":1.95,"distinct_type":"Bottom","rt":null,"stimulus":"Stimuli_Rocks480/S_Shale_03.png","response":null,"trial_type":"image-keyboard-response","trial_index":159,"plugin_version":"2.1.0","time_elapsed":437625,"subject_id":"91746","group":"Group2","condition":"3_Rep","full_date":"2026-01-30T19:36:37.805Z","date":"2026-01-30","time":"19:36:37"},{"rt":null,"stimulus":"<p style=\"font-size: 50px; margin: 0; text-align: center;\">+</p>","response":null,"trial_type":"html-keyboard-response","trial_index":160,"plugin_version":"2.1.0","time_elapsed":438628,"subject_id":"91746","group":"Group2","condition":"3_Rep","full_date":"2026-01-30T19:36:37.805Z","date":"2026-01-30","time":"19:36:37"},{"task":"memory_phase","broad_category":"I","image_png":"I_Basalt_08.png","image_id":24,"category_name":"Basalt","category":2,"distinct_rating":2.31,"distinct_type":"Bottom","rt":null,"stimulus":"Stimuli_Rocks480/I_Basalt_08.png","response":null,"trial_type":"image-keyboard-response","trial_index":161,"plugin_version":"2.1.0","time_elapsed":441132,"subject_id":"91746","group":"Group2","condition":"3_Rep","full_date":"2026-01-30T19:36:37.805Z","date":"2026-01-30","time":"19:36:37"},{"rt":null,"stimulus":"<p style=\"font-size: 50px; margin: 0; text-align: center;\">+</p>","response":null,"trial_type":"html-keyboard-response","trial_index":162,"plugin_version":"2.1.0","time_elapsed":442136,"subject_id":"91746","group":"Group2","condition":"3_Rep","full_date":"2026-01-30T19:36:37.805Z","date":"2026-01-30","time":"19:36:37"},{"task":"memory_phase","broad_category":"I","image_png":"I_Andesite_04.png","image_id":4,"category_name":"Andesite","category":1,"distinct_rating":3.18,"distinct_type":"Bottom","rt":null,"stimulus":"Stimuli_Rocks480/I_Andesite_04.png","response":null,"trial_type":"image-keyboard-response","trial_index":163,"plugin_version":"2.1.0","time_elapsed":444640,"subject_id":"91746","group":"Group2","condition":"3_Rep","full_date":"2026-01-30T19:36:37.805Z","date":"2026-01-30","time":"19:36:37"},{"rt":null,"stimulus":"<p style=\"font-size: 50px; margin: 0; text-align: center;\">+</p>","response":null,"trial_type":"html-keyboard-response","trial_index":164,"plugin_version":"2.1.0","time_elapsed":445643,"subject_id":"91746","group":"Group2","condition":"3_Rep","full_date":"2026-01-30T19:36:37.805Z","date":"2026-01-30","time":"19:36:37"},{"task":"memory_phase","broad_category":"I","image_png":"I_Rhyolite_05.png","image_id":149,"category_name":"Rhyolite","category":10,"distinct_rating":3.02,"distinct_type":"Bottom","rt":null,"stimulus":"Stimuli_Rocks480/I_Rhyolite_05.png","response":null,"trial_type":"image-keyboard-response","trial_index":165,"plugin_version":"2.1.0","time_elapsed":448147,"subject_id":"91746","group":"Group2","condition":"3_Rep","full_date":"2026-01-30T19:36:37.805Z","date":"2026-01-30","time":"19:36:37"},{"rt":null,"stimulus":"<p style=\"font-size: 50px; margin: 0; text-align: center;\">+</p>","response":null,"trial_type":"html-keyboard-response","trial_index":166,"plugin_version":"2.1.0","time_elapsed":449151,"subject_id":"91746","group":"Group2","condition":"3_Rep","full_date":"2026-01-30T19:36:37.805Z","date":"2026-01-30","time":"19:36:37"},{"task":"memory_phase","broad_category":"M","image_png":"M_Phyllite_13.png","image_id":269,"category_name":"Phyllite","category":17,"distinct_rating":2.8,"distinct_type":"Bottom","rt":null,"stimulus":"Stimuli_Rocks480/M_Phyllite_13.png","response":null,"trial_type":"image-keyboard-response","trial_index":167,"plugin_version":"2.1.0","time_elapsed":451655,"subject_id":"91746","group":"Group2","condition":"3_Rep","full_date":"2026-01-30T19:36:37.805Z","date":"2026-01-30","time":"19:36:37"},{"rt":null,"stimulus":"<p style=\"font-size: 50px; margin: 0; text-align: center;\">+</p>","response":null,"trial_type":"html-keyboard-response","trial_index":168,"plugin_version":"2.1.0","time_elapsed":452659,"subject_id":"91746","group":"Group2","condition":"3_Rep","full_date":"2026-01-30T19:36:37.805Z","date":"2026-01-30","time":"19:36:37"},{"task":"memory_phase","broad_category":"M","image_png":"M_Marble_03.png","image_id":227,"category_name":"Marble","category":15,"distinct_rating":2.67,"distinct_type":"Bottom","rt":null,"stimulus":"Stimuli_Rocks480/M_Marble_03.png","response":null,"trial_type":"image-keyboard-response","trial_index":169,"plugin_version":"2.1.0","time_elapsed":455163,"subject_id":"91746","group":"Group2","condition":"3_Rep","full_date":"2026-01-30T19:36:37.805Z","date":"2026-01-30","time":"19:36:37"},{"rt":null,"stimulus":"<p style=\"font-size: 50px; margin: 0; text-align: center;\">+</p>","response":null,"trial_type":"html-keyboard-response","trial_index":170,"plugin_version":"2.1.0","time_elapsed":456167,"subject_id":"91746","group":"Group2","condition":"3_Rep","full_date":"2026-01-30T19:36:37.805Z","date":"2026-01-30","time":"19:36:37"},{"task":"memory_phase","broad_category":"S","image_png":"S_Dolomite_07.png","image_id":391,"category_name":"Dolomite","category":25,"distinct_rating":1.73,"distinct_type":"Bottom","rt":null,"stimulus":"Stimuli_Rocks480/S_Dolomite_07.png","response":null,"trial_type":"image-keyboard-response","trial_index":171,"plugin_version":"2.1.0","time_elapsed":458671,"subject_id":"91746","group":"Group2","condition":"3_Rep","full_date":"2026-01-30T19:36:37.805Z","date":"2026-01-30","time":"19:36:37"},{"rt":null,"stimulus":"<p style=\"font-size: 50px; margin: 0; text-align: center;\">+</p>","response":null,"trial_type":"html-keyboard-response","trial_index":172,"plugin_version":"2.1.0","time_elapsed":459674,"subject_id":"91746","group":"Group2","condition":"3_Rep","full_date":"2026-01-30T19:36:37.805Z","date":"2026-01-30","time":"19:36:37"},{"task":"memory_phase","broad_category":"M","image_png":"M_Marble_02.png","image_id":226,"category_name":"Marble","category":15,"distinct_rating":3.2,"distinct_type":"Bottom","rt":null,"stimulus":"Stimuli_Rocks480/M_Marble_02.png","response":null,"trial_type":"image-keyboard-response","trial_index":173,"plugin_version":"2.1.0","time_elapsed":462178,"subject_id":"91746","group":"Group2","condition":"3_Rep","full_date":"2026-01-30T19:36:37.805Z","date":"2026-01-30","time":"19:36:37"},{"rt":null,"stimulus":"<p style=\"font-size: 50px; margin: 0; text-align: center;\">+</p>","response":null,"trial_type":"html-keyboard-response","trial_index":174,"plugin_version":"2.1.0","time_elapsed":463182,"subject_id":"91746","group":"Group2","condition":"3_Rep","full_date":"2026-01-30T19:36:37.805Z","date":"2026-01-30","time":"19:36:37"},{"task":"memory_phase","broad_category":"I","image_png":"I_Gabbro_14.png","image_id":62,"category_name":"Gabbro","category":4,"distinct_rating":2.95,"distinct_type":"Bottom","rt":null,"stimulus":"Stimuli_Rocks480/I_Gabbro_14.png","response":null,"trial_type":"image-keyboard-response","trial_index":175,"plugin_version":"2.1.0","time_elapsed":465685,"subject_id":"91746","group":"Group2","condition":"3_Rep","full_date":"2026-01-30T19:36:37.805Z","date":"2026-01-30","time":"19:36:37"},{"rt":null,"stimulus":"<p style=\"font-size: 50px; margin: 0; text-align: center;\">+</p>","response":null,"trial_type":"html-keyboard-response","trial_index":176,"plugin_version":"2.1.0","time_elapsed":466688,"subject_id":"91746","group":"Group2","condition":"3_Rep","full_date":"2026-01-30T19:36:37.805Z","date":"2026-01-30","time":"19:36:37"},{"task":"memory_phase","broad_category":"I","image_png":"I_Basalt_13.png","image_id":29,"category_name":"Basalt","category":2,"distinct_rating":2.68,"distinct_type":"Bottom","rt":null,"stimulus":"Stimuli_Rocks480/I_Basalt_13.png","response":null,"trial_type":"image-keyboard-response","trial_index":177,"plugin_version":"2.1.0","time_elapsed":469192,"subject_id":"91746","group":"Group2","condition":"3_Rep","full_date":"2026-01-30T19:36:37.805Z","date":"2026-01-30","time":"19:36:37"},{"rt":null,"stimulus":"<p style=\"font-size: 50px; margin: 0; text-align: center;\">+</p>","response":null,"trial_type":"html-keyboard-response","trial_index":178,"plugin_version":"2.1.0","time_elapsed":470195,"subject_id":"91746","group":"Group2","condition":"3_Rep","full_date":"2026-01-30T19:36:37.805Z","date":"2026-01-30","time":"19:36:37"},{"task":"memory_phase","broad_category":"M","image_png":"M_Slate_04.png","image_id":308,"category_name":"Slate","category":20,"distinct_rating":2.2,"distinct_type":"Bottom","rt":null,"stimulus":"Stimuli_Rocks480/M_Slate_04.png","response":null,"trial_type":"image-keyboard-response","trial_index":179,"plugin_version":"2.1.0","time_elapsed":472699,"subject_id":"91746","group":"Group2","condition":"3_Rep","full_date":"2026-01-30T19:36:37.805Z","date":"2026-01-30","time":"19:36:37"},{"rt":null,"stimulus":"<p style=\"font-size: 50px; margin: 0; text-align: center;\">+</p>","response":null,"trial_type":"html-keyboard-response","trial_index":180,"plugin_version":"2.1.0","time_elapsed":473702,"subject_id":"91746","group":"Group2","condition":"3_Rep","full_date":"2026-01-30T19:36:37.805Z","date":"2026-01-30","time":"19:36:37"},{"task":"memory_phase","broad_category":"I","image_png":"I_Andesite_03.png","image_id":3,"category_name":"Andesite","category":1,"distinct_rating":3.17,"distinct_type":"Bottom","rt":null,"stimulus":"Stimuli_Rocks480/I_Andesite_03.png","response":null,"trial_type":"image-keyboard-response","trial_index":181,"plugin_version":"2.1.0","time_elapsed":476207,"subject_id":"91746","group":"Group2","condition":"3_Rep","full_date":"2026-01-30T19:36:37.805Z","date":"2026-01-30","time":"19:36:37"},{"rt":null,"stimulus":"<p style=\"font-size: 50px; margin: 0; text-align: center;\">+</p>","response":null,"trial_type":"html-keyboard-response","trial_index":182,"plugin_version":"2.1.0","time_elapsed":477210,"subject_id":"91746","group":"Group2","condition":"3_Rep","full_date":"2026-01-30T19:36:37.805Z","date":"2026-01-30","time":"19:36:37"},{"task":"memory_phase","broad_category":"S","image_png":"S_Sandstone_11.png","image_id":459,"category_name":"Sandstone","category":29,"distinct_rating":1.82,"distinct_type":"Bottom","rt":null,"stimulus":"Stimuli_Rocks480/S_Sandstone_11.png","response":null,"trial_type":"image-keyboard-response","trial_index":183,"plugin_version":"2.1.0","time_elapsed":479714,"subject_id":"91746","group":"Group2","condition":"3_Rep","full_date":"2026-01-30T19:36:37.805Z","date":"2026-01-30","time":"19:36:37"},{"rt":null,"stimulus":"<p style=\"font-size: 50px; margin: 0; text-align: center;\">+</p>","response":null,"trial_type":"html-keyboard-response","trial_index":184,"plugin_version":"2.1.0","time_elapsed":480718,"subject_id":"91746","group":"Group2","condition":"3_Rep","full_date":"2026-01-30T19:36:37.805Z","date":"2026-01-30","time":"19:36:37"},{"task":"memory_phase","broad_category":"I","image_png":"I_Diorite_01.png","image_id":33,"category_name":"Diorite","category":3,"distinct_rating":2.97,"distinct_type":"Bottom","rt":null,"stimulus":"Stimuli_Rocks480/I_Diorite_01.png","response":null,"trial_type":"image-keyboard-response","trial_index":185,"plugin_version":"2.1.0","time_elapsed":483222,"subject_id":"91746","group":"Group2","condition":"3_Rep","full_date":"2026-01-30T19:36:37.805Z","date":"2026-01-30","time":"19:36:37"},{"rt":null,"stimulus":"<p style=\"font-size: 50px; margin: 0; text-align: center;\">+</p>","response":null,"trial_type":"html-keyboard-response","trial_index":186,"plugin_version":"2.1.0","time_elapsed":484226,"subject_id":"91746","group":"Group2","condition":"3_Rep","full_date":"2026-01-30T19:36:37.805Z","date":"2026-01-30","time":"19:36:37"},{"task":"memory_phase","broad_category":"S","image_png":"S_Dolomite_01.png","image_id":385,"category_name":"Dolomite","category":25,"distinct_rating":1.43,"distinct_type":"Bottom","rt":null,"stimulus":"Stimuli_Rocks480/S_Dolomite_01.png","response":null,"trial_type":"image-keyboard-response","trial_index":187,"plugin_version":"2.1.0","time_elapsed":486730,"subject_id":"91746","group":"Group2","condition":"3_Rep","full_date":"2026-01-30T19:36:37.805Z","date":"2026-01-30","time":"19:36:37"},{"rt":null,"stimulus":"<p style=\"font-size: 50px; margin: 0; text-align: center;\">+</p>","response":null,"trial_type":"html-keyboard-response","trial_index":188,"plugin_version":"2.1.0","time_elapsed":487734,"subject_id":"91746","group":"Group2","condition":"3_Rep","full_date":"2026-01-30T19:36:37.805Z","date":"2026-01-30","time":"19:36:37"},{"task":"memory_phase","broad_category":"I","image_png":"I_Rhyolite_08.png","image_id":152,"category_name":"Rhyolite","category":10,"distinct_rating":1.38,"distinct_type":"Bottom","rt":null,"stimulus":"Stimuli_Rocks480/I_Rhyolite_08.png","response":null,"trial_type":"image-keyboard-response","trial_index":189,"plugin_version":"2.1.0","time_elapsed":490238,"subject_id":"91746","group":"Group2","condition":"3_Rep","full_date":"2026-01-30T19:36:37.805Z","date":"2026-01-30","time":"19:36:37"},{"rt":null,"stimulus":"<p style=\"font-size: 50px; margin: 0; text-align: center;\">+</p>","response":null,"trial_type":"html-keyboard-response","trial_index":190,"plugin_version":"2.1.0","time_elapsed":491242,"subject_id":"91746","group":"Group2","condition":"3_Rep","full_date":"2026-01-30T19:36:37.805Z","date":"2026-01-30","time":"19:36:37"},{"task":"memory_phase","broad_category":"I","image_png":"I_Pegmatite_03.png","image_id":99,"category_name":"Pegmatite","category":7,"distinct_rating":7.24,"distinct_type":"Top","rt":null,"stimulus":"Stimuli_Rocks480/I_Pegmatite_03.png","response":null,"trial_type":"image-keyboard-response","trial_index":191,"plugin_version":"2.1.0","time_elapsed":493745,"subject_id":"91746","group":"Group2","condition":"3_Rep","full_date":"2026-01-30T19:36:37.805Z","date":"2026-01-30","time":"19:36:37"},{"rt":null,"stimulus":"<p style=\"font-size: 50px; margin: 0; text-align: center;\">+</p>","response":null,"trial_type":"html-keyboard-response","trial_index":192,"plugin_version":"2.1.0","time_elapsed":494747,"subject_id":"91746","group":"Group2","condition":"3_Rep","full_date":"2026-01-30T19:36:37.805Z","date":"2026-01-30","time":"19:36:37"},{"task":"memory_phase","broad_category":"M","image_png":"M_Quartzite_12.png","image_id":284,"category_name":"Quartzite","category":18,"distinct_rating":1.92,"distinct_type":"Bottom","rt":null,"stimulus":"Stimuli_Rocks480/M_Quartzite_12.png","response":null,"trial_type":"image-keyboard-response","trial_index":193,"plugin_version":"2.1.0","time_elapsed":497252,"subject_id":"91746","group":"Group2","condition":"3_Rep","full_date":"2026-01-30T19:36:37.805Z","date":"2026-01-30","time":"19:36:37"},{"rt":null,"stimulus":"<p style=\"font-size: 50px; margin: 0; text-align: center;\">+</p>","response":null,"trial_type":"html-keyboard-response","trial_index":194,"plugin_version":"2.1.0","time_elapsed":498255,"subject_id":"91746","group":"Group2","condition":"3_Rep","full_date":"2026-01-30T19:36:37.805Z","date":"2026-01-30","time":"19:36:37"},{"task":"memory_phase","broad_category":"S","image_png":"S_Chert_13.png","image_id":365,"category_name":"Chert","category":23,"distinct_rating":6.57,"distinct_type":"Top","rt":null,"stimulus":"Stimuli_Rocks480/S_Chert_13.png","response":null,"trial_type":"image-keyboard-response","trial_index":195,"plugin_version":"2.1.0","time_elapsed":500760,"subject_id":"91746","group":"Group2","condition":"3_Rep","full_date":"2026-01-30T19:36:37.805Z","date":"2026-01-30","time":"19:36:37"},{"rt":null,"stimulus":"<p style=\"font-size: 50px; margin: 0; text-align: center;\">+</p>","response":null,"trial_type":"html-keyboard-response","trial_index":196,"plugin_version":"2.1.0","time_elapsed":501763,"subject_id":"91746","group":"Group2","condition":"3_Rep","full_date":"2026-01-30T19:36:37.805Z","date":"2026-01-30","time":"19:36:37"},{"task":"memory_phase","broad_category":"I","image_png":"I_Peridotite_13.png","image_id":125,"category_name":"Peridotite","category":8,"distinct_rating":7.28,"distinct_type":"Top","rt":null,"stimulus":"Stimuli_Rocks480/I_Peridotite_13.png","response":null,"trial_type":"image-keyboard-response","trial_index":197,"plugin_version":"2.1.0","time_elapsed":504268,"subject_id":"91746","group":"Group2","condition":"3_Rep","full_date":"2026-01-30T19:36:37.805Z","date":"2026-01-30","time":"19:36:37"},{"rt":null,"stimulus":"<p style=\"font-size: 50px; margin: 0; text-align: center;\">+</p>","response":null,"trial_type":"html-keyboard-response","trial_index":198,"plugin_version":"2.1.0","time_elapsed":505271,"subject_id":"91746","group":"Group2","condition":"3_Rep","full_date":"2026-01-30T19:36:37.805Z","date":"2026-01-30","time":"19:36:37"},{"task":"memory_phase","broad_category":"M","image_png":"M_Gneiss_10.png","image_id":202,"category_name":"Gneiss","category":13,"distinct_rating":3.09,"distinct_type":"Bottom","rt":null,"stimulus":"Stimuli_Rocks480/M_Gneiss_10.png","response":null,"trial_type":"image-keyboard-response","trial_index":199,"plugin_version":"2.1.0","time_elapsed":507775,"subject_id":"91746","group":"Group2","condition":"3_Rep","full_date":"2026-01-30T19:36:37.805Z","date":"2026-01-30","time":"19:36:37"},{"rt":null,"stimulus":"<p style=\"font-size: 50px; margin: 0; text-align: center;\">+</p>","response":null,"trial_type":"html-keyboard-response","trial_index":200,"plugin_version":"2.1.0","time_elapsed":508779,"subject_id":"91746","group":"Group2","condition":"3_Rep","full_date":"2026-01-30T19:36:37.805Z","date":"2026-01-30","time":"19:36:37"},{"task":"memory_phase","broad_category":"S","image_png":"S_Rock Salt_13.png","image_id":445,"category_name":"Rock Salt","category":28,"distinct_rating":7.58,"distinct_type":"Top","rt":null,"stimulus":"Stimuli_Rocks480/S_Rock Salt_13.png","response":null,"trial_type":"image-keyboard-response","trial_index":201,"plugin_version":"2.1.0","time_elapsed":511283,"subject_id":"91746","group":"Group2","condition":"3_Rep","full_date":"2026-01-30T19:36:37.805Z","date":"2026-01-30","time":"19:36:37"},{"rt":null,"stimulus":"<p style=\"font-size: 50px; margin: 0; text-align: center;\">+</p>","response":null,"trial_type":"html-keyboard-response","trial_index":202,"plugin_version":"2.1.0","time_elapsed":512286,"subject_id":"91746","group":"Group2","condition":"3_Rep","full_date":"2026-01-30T19:36:37.805Z","date":"2026-01-30","time":"19:36:37"},{"task":"memory_phase","broad_category":"S","image_png":"S_Shale_07.png","image_id":471,"category_name":"Shale","category":30,"distinct_rating":2.73,"distinct_type":"Bottom","rt":null,"stimulus":"Stimuli_Rocks480/S_Shale_07.png","response":null,"trial_type":"image-keyboard-response","trial_index":203,"plugin_version":"2.1.0","time_elapsed":514789,"subject_id":"91746","group":"Group2","condition":"3_Rep","full_date":"2026-01-30T19:36:37.805Z","date":"2026-01-30","time":"19:36:37"},{"rt":null,"stimulus":"<p style=\"font-size: 50px; margin: 0; text-align: center;\">+</p>","response":null,"trial_type":"html-keyboard-response","trial_index":204,"plugin_version":"2.1.0","time_elapsed":515793,"subject_id":"91746","group":"Group2","condition":"3_Rep","full_date":"2026-01-30T19:36:37.805Z","date":"2026-01-30","time":"19:36:37"},{"task":"memory_phase","broad_category":"M","image_png":"M_Phyllite_02.png","image_id":258,"category_name":"Phyllite","category":17,"distinct_rating":2.89,"distinct_type":"Bottom","rt":null,"stimulus":"Stimuli_Rocks480/M_Phyllite_02.png","response":null,"trial_type":"image-keyboard-response","trial_index":205,"plugin_version":"2.1.0","time_elapsed":518297,"subject_id":"91746","group":"Group2","condition":"3_Rep","full_date":"2026-01-30T19:36:37.805Z","date":"2026-01-30","time":"19:36:37"},{"rt":null,"stimulus":"<p style=\"font-size: 50px; margin: 0; text-align: center;\">+</p>","response":null,"trial_type":"html-keyboard-response","trial_index":206,"plugin_version":"2.1.0","time_elapsed":519301,"subject_id":"91746","group":"Group2","condition":"3_Rep","full_date":"2026-01-30T19:36:37.805Z","date":"2026-01-30","time":"19:36:37"},{"task":"memory_phase","broad_category":"I","image_png":"I_Diorite_15.png","image_id":47,"category_name":"Diorite","category":3,"distinct_rating":3.05,"distinct_type":"Bottom","rt":null,"stimulus":"Stimuli_Rocks480/I_Diorite_15.png","response":null,"trial_type":"image-keyboard-response","trial_index":207,"plugin_version":"2.1.0","time_elapsed":521805,"subject_id":"91746","group":"Group2","condition":"3_Rep","full_date":"2026-01-30T19:36:37.805Z","date":"2026-01-30","time":"19:36:37"},{"rt":4823,"stimulus":"<p style=\"max-width: 760px; margin: auto; font-size: 35px; line-height: 1.5;\">\n                You have completed 2 study phases. \n                Now, we'll show you all the images again 1 more time.\n                <br><br>Press SPACE to continue\n              </p>","response":" ","trial_type":"html-keyboard-response","trial_index":208,"plugin_version":"2.1.0","time_elapsed":526630,"subject_id":"91746","group":"Group2","condition":"3_Rep","full_date":"2026-01-30T19:36:37.805Z","date":"2026-01-30","time":"19:36:37"},{"rt":null,"stimulus":"<p style=\"font-size: 50px; margin: 0; text-align: center;\">+</p>","response":null,"trial_type":"html-keyboard-response","trial_index":209,"plugin_version":"2.1.0","time_elapsed":527633,"subject_id":"91746","group":"Group2","condition":"3_Rep","full_date":"2026-01-30T19:36:37.805Z","date":"2026-01-30","time":"19:36:37"},{"task":"memory_phase","broad_category":"I","image_png":"I_Gabbro_02.png","image_id":50,"category_name":"Gabbro","category":4,"distinct_rating":2.73,"distinct_type":"Bottom","rt":null,"stimulus":"Stimuli_Rocks480/I_Gabbro_02.png","response":null,"trial_type":"image-keyboard-response","trial_index":210,"plugin_version":"2.1.0","time_elapsed":530137,"subject_id":"91746","group":"Group2","condition":"3_Rep","full_date":"2026-01-30T19:36:37.805Z","date":"2026-01-30","time":"19:36:37"},{"rt":null,"stimulus":"<p style=\"font-size: 50px; margin: 0; text-align: center;\">+</p>","response":null,"trial_type":"html-keyboard-response","trial_index":211,"plugin_version":"2.1.0","time_elapsed":531141,"subject_id":"91746","group":"Group2","condition":"3_Rep","full_date":"2026-01-30T19:36:37.805Z","date":"2026-01-30","time":"19:36:37"},{"task":"memory_phase","broad_category":"M","image_png":"M_Slate_04.png","image_id":308,"category_name":"Slate","category":20,"distinct_rating":2.2,"distinct_type":"Bottom","rt":null,"stimulus":"Stimuli_Rocks480/M_Slate_04.png","response":null,"trial_type":"image-keyboard-response","trial_index":212,"plugin_version":"2.1.0","time_elapsed":533645,"subject_id":"91746","group":"Group2","condition":"3_Rep","full_date":"2026-01-30T19:36:37.805Z","date":"2026-01-30","time":"19:36:37"},{"rt":null,"stimulus":"<p style=\"font-size: 50px; margin: 0; text-align: center;\">+</p>","response":null,"trial_type":"html-keyboard-response","trial_index":213,"plugin_version":"2.1.0","time_elapsed":534648,"subject_id":"91746","group":"Group2","condition":"3_Rep","full_date":"2026-01-30T19:36:37.805Z","date":"2026-01-30","time":"19:36:37"},{"task":"memory_phase","broad_category":"I","image_png":"I_Diorite_15.png","image_id":47,"category_name":"Diorite","category":3,"distinct_rating":3.05,"distinct_type":"Bottom","rt":null,"stimulus":"Stimuli_Rocks480/I_Diorite_15.png","response":null,"trial_type":"image-keyboard-response","trial_index":214,"plugin_version":"2.1.0","time_elapsed":537153,"subject_id":"91746","group":"Group2","condition":"3_Rep","full_date":"2026-01-30T19:36:37.805Z","date":"2026-01-30","time":"19:36:37"},{"rt":null,"stimulus":"<p style=\"font-size: 50px; margin: 0; text-align: center;\">+</p>","response":null,"trial_type":"html-keyboard-response","trial_index":215,"plugin_version":"2.1.0","time_elapsed":538155,"subject_id":"91746","group":"Group2","condition":"3_Rep","full_date":"2026-01-30T19:36:37.805Z","date":"2026-01-30","time":"19:36:37"},{"task":"memory_phase","broad_category":"M","image_png":"M_Phyllite_13.png","image_id":269,"category_name":"Phyllite","category":17,"distinct_rating":2.8,"distinct_type":"Bottom","rt":null,"stimulus":"Stimuli_Rocks480/M_Phyllite_13.png","response":null,"trial_type":"image-keyboard-response","trial_index":216,"plugin_version":"2.1.0","time_elapsed":540660,"subject_id":"91746","group":"Group2","condition":"3_Rep","full_date":"2026-01-30T19:36:37.805Z","date":"2026-01-30","time":"19:36:37"},{"rt":null,"stimulus":"<p style=\"font-size: 50px; margin: 0; text-align: center;\">+</p>","response":null,"trial_type":"html-keyboard-response","trial_index":217,"plugin_version":"2.1.0","time_elapsed":541664,"subject_id":"91746","group":"Group2","condition":"3_Rep","full_date":"2026-01-30T19:36:37.805Z","date":"2026-01-30","time":"19:36:37"},{"task":"memory_phase","broad_category":"I","image_png":"I_Peridotite_13.png","image_id":125,"category_name":"Peridotite","category":8,"distinct_rating":7.28,"distinct_type":"Top","rt":null,"stimulus":"Stimuli_Rocks480/I_Peridotite_13.png","response":null,"trial_type":"image-keyboard-response","trial_index":218,"plugin_version":"2.1.0","time_elapsed":544168,"subject_id":"91746","group":"Group2","condition":"3_Rep","full_date":"2026-01-30T19:36:37.805Z","date":"2026-01-30","time":"19:36:37"},{"rt":null,"stimulus":"<p style=\"font-size: 50px; margin: 0; text-align: center;\">+</p>","response":null,"trial_type":"html-keyboard-response","trial_index":219,"plugin_version":"2.1.0","time_elapsed":545172,"subject_id":"91746","group":"Group2","condition":"3_Rep","full_date":"2026-01-30T19:36:37.805Z","date":"2026-01-30","time":"19:36:37"},{"task":"memory_phase","broad_category":"M","image_png":"M_Quartzite_12.png","image_id":284,"category_name":"Quartzite","category":18,"distinct_rating":1.92,"distinct_type":"Bottom","rt":null,"stimulus":"Stimuli_Rocks480/M_Quartzite_12.png","response":null,"trial_type":"image-keyboard-response","trial_index":220,"plugin_version":"2.1.0","time_elapsed":547677,"subject_id":"91746","group":"Group2","condition":"3_Rep","full_date":"2026-01-30T19:36:37.805Z","date":"2026-01-30","time":"19:36:37"},{"rt":null,"stimulus":"<p style=\"font-size: 50px; margin: 0; text-align: center;\">+</p>","response":null,"trial_type":"html-keyboard-response","trial_index":221,"plugin_version":"2.1.0","time_elapsed":548681,"subject_id":"91746","group":"Group2","condition":"3_Rep","full_date":"2026-01-30T19:36:37.805Z","date":"2026-01-30","time":"19:36:37"},{"task":"memory_phase","broad_category":"S","image_png":"S_Rock Salt_15.png","image_id":447,"category_name":"Rock Salt","category":28,"distinct_rating":7.79,"distinct_type":"Top","rt":null,"stimulus":"Stimuli_Rocks480/S_Rock Salt_15.png","response":null,"trial_type":"image-keyboard-response","trial_index":222,"plugin_version":"2.1.0","time_elapsed":551185,"subject_id":"91746","group":"Group2","condition":"3_Rep","full_date":"2026-01-30T19:36:37.805Z","date":"2026-01-30","time":"19:36:37"},{"rt":null,"stimulus":"<p style=\"font-size: 50px; margin: 0; text-align: center;\">+</p>","response":null,"trial_type":"html-keyboard-response","trial_index":223,"plugin_version":"2.1.0","time_elapsed":552188,"subject_id":"91746","group":"Group2","condition":"3_Rep","full_date":"2026-01-30T19:36:37.805Z","date":"2026-01-30","time":"19:36:37"},{"task":"memory_phase","broad_category":"I","image_png":"I_Basalt_13.png","image_id":29,"category_name":"Basalt","category":2,"distinct_rating":2.68,"distinct_type":"Bottom","rt":null,"stimulus":"Stimuli_Rocks480/I_Basalt_13.png","response":null,"trial_type":"image-keyboard-response","trial_index":224,"plugin_version":"2.1.0","time_elapsed":554692,"subject_id":"91746","group":"Group2","condition":"3_Rep","full_date":"2026-01-30T19:36:37.805Z","date":"2026-01-30","time":"19:36:37"},{"rt":null,"stimulus":"<p style=\"font-size: 50px; margin: 0; text-align: center;\">+</p>","response":null,"trial_type":"html-keyboard-response","trial_index":225,"plugin_version":"2.1.0","time_elapsed":555695,"subject_id":"91746","group":"Group2","condition":"3_Rep","full_date":"2026-01-30T19:36:37.805Z","date":"2026-01-30","time":"19:36:37"},{"task":"memory_phase","broad_category":"I","image_png":"I_Diorite_10.png","image_id":42,"category_name":"Diorite","category":3,"distinct_rating":2.84,"distinct_type":"Bottom","rt":null,"stimulus":"Stimuli_Rocks480/I_Diorite_10.png","response":null,"trial_type":"image-keyboard-response","trial_index":226,"plugin_version":"2.1.0","time_elapsed":558199,"subject_id":"91746","group":"Group2","condition":"3_Rep","full_date":"2026-01-30T19:36:37.805Z","date":"2026-01-30","time":"19:36:37"},{"rt":null,"stimulus":"<p style=\"font-size: 50px; margin: 0; text-align: center;\">+</p>","response":null,"trial_type":"html-keyboard-response","trial_index":227,"plugin_version":"2.1.0","time_elapsed":559202,"subject_id":"91746","group":"Group2","condition":"3_Rep","full_date":"2026-01-30T19:36:37.805Z","date":"2026-01-30","time":"19:36:37"},{"task":"memory_phase","broad_category":"M","image_png":"M_Phyllite_05.png","image_id":261,"category_name":"Phyllite","category":17,"distinct_rating":2.14,"distinct_type":"Bottom","rt":null,"stimulus":"Stimuli_Rocks480/M_Phyllite_05.png","response":null,"trial_type":"image-keyboard-response","trial_index":228,"plugin_version":"2.1.0","time_elapsed":561707,"subject_id":"91746","group":"Group2","condition":"3_Rep","full_date":"2026-01-30T19:36:37.805Z","date":"2026-01-30","time":"19:36:37"},{"rt":null,"stimulus":"<p style=\"font-size: 50px; margin: 0; text-align: center;\">+</p>","response":null,"trial_type":"html-keyboard-response","trial_index":229,"plugin_version":"2.1.0","time_elapsed":562711,"subject_id":"91746","group":"Group2","condition":"3_Rep","full_date":"2026-01-30T19:36:37.805Z","date":"2026-01-30","time":"19:36:37"},{"task":"memory_phase","broad_category":"S","image_png":"S_Sandstone_11.png","image_id":459,"category_name":"Sandstone","category":29,"distinct_rating":1.82,"distinct_type":"Bottom","rt":null,"stimulus":"Stimuli_Rocks480/S_Sandstone_11.png","response":null,"trial_type":"image-keyboard-response","trial_index":230,"plugin_version":"2.1.0","time_elapsed":565216,"subject_id":"91746","group":"Group2","condition":"3_Rep","full_date":"2026-01-30T19:36:37.805Z","date":"2026-01-30","time":"19:36:37"},{"rt":null,"stimulus":"<p style=\"font-size: 50px; margin: 0; text-align: center;\">+</p>","response":null,"trial_type":"html-keyboard-response","trial_index":231,"plugin_version":"2.1.0","time_elapsed":566220,"subject_id":"91746","group":"Group2","condition":"3_Rep","full_date":"2026-01-30T19:36:37.805Z","date":"2026-01-30","time":"19:36:37"},{"task":"memory_phase","broad_category":"I","image_png":"I_Obsidian_06.png","image_id":86,"category_name":"Obsidian","category":6,"distinct_rating":8.01,"distinct_type":"Top","rt":null,"stimulus":"Stimuli_Rocks480/I_Obsidian_06.png","response":null,"trial_type":"image-keyboard-response","trial_index":232,"plugin_version":"2.1.0","time_elapsed":568724,"subject_id":"91746","group":"Group2","condition":"3_Rep","full_date":"2026-01-30T19:36:37.805Z","date":"2026-01-30","time":"19:36:37"},{"rt":null,"stimulus":"<p style=\"font-size: 50px; margin: 0; text-align: center;\">+</p>","response":null,"trial_type":"html-keyboard-response","trial_index":233,"plugin_version":"2.1.0","time_elapsed":569728,"subject_id":"91746","group":"Group2","condition":"3_Rep","full_date":"2026-01-30T19:36:37.805Z","date":"2026-01-30","time":"19:36:37"},{"task":"memory_phase","broad_category":"S","image_png":"S_Shale_07.png","image_id":471,"category_name":"Shale","category":30,"distinct_rating":2.73,"distinct_type":"Bottom","rt":null,"stimulus":"Stimuli_Rocks480/S_Shale_07.png","response":null,"trial_type":"image-keyboard-response","trial_index":234,"plugin_version":"2.1.0","time_elapsed":572233,"subject_id":"91746","group":"Group2","condition":"3_Rep","full_date":"2026-01-30T19:36:37.805Z","date":"2026-01-30","time":"19:36:37"},{"rt":null,"stimulus":"<p style=\"font-size: 50px; margin: 0; text-align: center;\">+</p>","response":null,"trial_type":"html-keyboard-response","trial_index":235,"plugin_version":"2.1.0","time_elapsed":573237,"subject_id":"91746","group":"Group2","condition":"3_Rep","full_date":"2026-01-30T19:36:37.805Z","date":"2026-01-30","time":"19:36:37"},{"task":"memory_phase","broad_category":"I","image_png":"I_Rhyolite_05.png","image_id":149,"category_name":"Rhyolite","category":10,"distinct_rating":3.02,"distinct_type":"Bottom","rt":