[{"width":1280,"height":631,"webaudio":true,"browser":"chrome","browser_version":"143.0.0","mobile":false,"os":"Windows 10","fullscreen":true,"vsync_rate":60.54,"webcam":true,"microphone":true,"trial_type":"browser-check","trial_index":0,"plugin_version":"2.1.0","time_elapsed":1010,"subject_id":"92022","group":"Group1","condition":"1_Rep","full_date":"2026-02-01T19:58:47.648Z","date":"2026-02-01","time":"19:58:47"},{"success":true,"timeout":false,"failed_images":[],"failed_audio":[],"failed_video":[],"trial_type":"preload","trial_index":1,"plugin_version":"2.1.0","time_elapsed":5552,"subject_id":"92022","group":"Group1","condition":"1_Rep","full_date":"2026-02-01T19:58:47.648Z","date":"2026-02-01","time":"19:58:47"},{"rt":76914,"url":"SONA_consent_memorability.html","trial_type":"external-html","trial_index":2,"plugin_version":"2.1.0","time_elapsed":82521,"subject_id":"92022","group":"Group1","condition":"1_Rep","full_date":"2026-02-01T19:58:47.648Z","date":"2026-02-01","time":"19:58:47"},{"success":true,"rt":2067,"trial_type":"fullscreen","trial_index":3,"plugin_version":"2.1.0","time_elapsed":85612,"subject_id":"92022","group":"Group1","condition":"1_Rep","full_date":"2026-02-01T19:58:47.648Z","date":"2026-02-01","time":"19:58:47"},{"rt":313364,"stimulus":"<div style=\"max-width: 760px; margin: auto; font-size: 20px; line-height: 1.5;\">\n      <h1 style=\"text-align:center; font-size: 30px;\">Instructions</h1>\n      <p>\n        Welcome to the study on <b>visual memory</b>. This experiment consists of <b>two phases</b>: \n        a <b>study phase</b> and a <b>test phase</b>.\n      </p>\n      <p>\n        In the study phase, you will see a series of rock images along with their category labels.\n        The images will appear one at a time.\n        <b>Your task</b> is to learn the categories to which the rock images belong \n        and to remember each image as accurately as possible.\n      </p> \n      <p>\n        Note that you will see each image only <b>once</b> during the study phase. \n          So, please pay close attention and try to remember each image carefully.\n      </p>\n      <p>\n        After the study phase, <b>your memory will be tested</b>. \n        Additional instructions for the test phase will be provided at that time.\n      </p>\n      <p>\n        If your computer has multiple <b>language settings</b> (e.g., English and another language),\n        please make sure it is set to English before starting.\n      </p>\n      <p>\n        You can track your progress using the <b>completion bar</b> at the top of the screen. \n        Please note that the bar will refresh when the test phase begins \n        to give you an accurate sense of your progress in both phases.\n      </p> \n      <p>\n        Press the button below when you are ready to begin.\n      </p>\n    </div>","response":0,"trial_type":"html-button-response","trial_index":4,"plugin_version":"2.1.0","time_elapsed":398979,"subject_id":"92022","group":"Group1","condition":"1_Rep","full_date":"2026-02-01T19:58:47.648Z","date":"2026-02-01","time":"19:58:47"},{"rt":null,"stimulus":"<p style=\"font-size: 50px; margin: 0; text-align: center;\">+</p>","response":null,"trial_type":"html-keyboard-response","trial_index":5,"plugin_version":"2.1.0","time_elapsed":399984,"subject_id":"92022","group":"Group1","condition":"1_Rep","full_date":"2026-02-01T19:58:47.648Z","date":"2026-02-01","time":"19:58:47"},{"task":"memory_phase","broad_category":"I","image_png":"I_Andesite_06.png","image_id":6,"category_name":"Andesite","category":1,"distinct_rating":3.17,"distinct_type":"Bottom","rt":null,"stimulus":"Stimuli_Rocks480/I_Andesite_06.png","response":null,"trial_type":"image-keyboard-response","trial_index":6,"plugin_version":"2.1.0","time_elapsed":402497,"subject_id":"92022","group":"Group1","condition":"1_Rep","full_date":"2026-02-01T19:58:47.648Z","date":"2026-02-01","time":"19:58:47"},{"rt":null,"stimulus":"<p style=\"font-size: 50px; margin: 0; text-align: center;\">+</p>","response":null,"trial_type":"html-keyboard-response","trial_index":7,"plugin_version":"2.1.0","time_elapsed":403511,"subject_id":"92022","group":"Group1","condition":"1_Rep","full_date":"2026-02-01T19:58:47.648Z","date":"2026-02-01","time":"19:58:47"},{"task":"memory_phase","broad_category":"I","image_png":"I_Gabbro_08.png","image_id":56,"category_name":"Gabbro","category":4,"distinct_rating":3.02,"distinct_type":"Bottom","rt":null,"stimulus":"Stimuli_Rocks480/I_Gabbro_08.png","response":null,"trial_type":"image-keyboard-response","trial_index":8,"plugin_version":"2.1.0","time_elapsed":406014,"subject_id":"92022","group":"Group1","condition":"1_Rep","full_date":"2026-02-01T19:58:47.648Z","date":"2026-02-01","time":"19:58:47"},{"rt":null,"stimulus":"<p style=\"font-size: 50px; margin: 0; text-align: center;\">+</p>","response":null,"trial_type":"html-keyboard-response","trial_index":9,"plugin_version":"2.1.0","time_elapsed":407020,"subject_id":"92022","group":"Group1","condition":"1_Rep","full_date":"2026-02-01T19:58:47.648Z","date":"2026-02-01","time":"19:58:47"},{"task":"memory_phase","broad_category":"I","image_png":"I_Diorite_04.png","image_id":36,"category_name":"Diorite","category":3,"distinct_rating":2.98,"distinct_type":"Bottom","rt":null,"stimulus":"Stimuli_Rocks480/I_Diorite_04.png","response":null,"trial_type":"image-keyboard-response","trial_index":10,"plugin_version":"2.1.0","time_elapsed":409534,"subject_id":"92022","group":"Group1","condition":"1_Rep","full_date":"2026-02-01T19:58:47.648Z","date":"2026-02-01","time":"19:58:47"},{"rt":null,"stimulus":"<p style=\"font-size: 50px; margin: 0; text-align: center;\">+</p>","response":null,"trial_type":"html-keyboard-response","trial_index":11,"plugin_version":"2.1.0","time_elapsed":410537,"subject_id":"92022","group":"Group1","condition":"1_Rep","full_date":"2026-02-01T19:58:47.648Z","date":"2026-02-01","time":"19:58:47"},{"task":"memory_phase","broad_category":"M","image_png":"M_Marble_04.png","image_id":228,"category_name":"Marble","category":15,"distinct_rating":3.15,"distinct_type":"Bottom","rt":null,"stimulus":"Stimuli_Rocks480/M_Marble_04.png","response":null,"trial_type":"image-keyboard-response","trial_index":12,"plugin_version":"2.1.0","time_elapsed":413051,"subject_id":"92022","group":"Group1","condition":"1_Rep","full_date":"2026-02-01T19:58:47.648Z","date":"2026-02-01","time":"19:58:47"},{"rt":null,"stimulus":"<p style=\"font-size: 50px; margin: 0; text-align: center;\">+</p>","response":null,"trial_type":"html-keyboard-response","trial_index":13,"plugin_version":"2.1.0","time_elapsed":414061,"subject_id":"92022","group":"Group1","condition":"1_Rep","full_date":"2026-02-01T19:58:47.648Z","date":"2026-02-01","time":"19:58:47"},{"task":"memory_phase","broad_category":"M","image_png":"M_Marble_06.png","image_id":230,"category_name":"Marble","category":15,"distinct_rating":3.4,"distinct_type":"Bottom","rt":null,"stimulus":"Stimuli_Rocks480/M_Marble_06.png","response":null,"trial_type":"image-keyboard-response","trial_index":14,"plugin_version":"2.1.0","time_elapsed":416564,"subject_id":"92022","group":"Group1","condition":"1_Rep","full_date":"2026-02-01T19:58:47.648Z","date":"2026-02-01","time":"19:58:47"},{"rt":null,"stimulus":"<p style=\"font-size: 50px; margin: 0; text-align: center;\">+</p>","response":null,"trial_type":"html-keyboard-response","trial_index":15,"plugin_version":"2.1.0","time_elapsed":417572,"subject_id":"92022","group":"Group1","condition":"1_Rep","full_date":"2026-02-01T19:58:47.648Z","date":"2026-02-01","time":"19:58:47"},{"task":"memory_phase","broad_category":"I","image_png":"I_Pumice_11.png","image_id":139,"category_name":"Pumice","category":9,"distinct_rating":1.74,"distinct_type":"Bottom","rt":null,"stimulus":"Stimuli_Rocks480/I_Pumice_11.png","response":null,"trial_type":"image-keyboard-response","trial_index":16,"plugin_version":"2.1.0","time_elapsed":420085,"subject_id":"92022","group":"Group1","condition":"1_Rep","full_date":"2026-02-01T19:58:47.648Z","date":"2026-02-01","time":"19:58:47"},{"rt":null,"stimulus":"<p style=\"font-size: 50px; margin: 0; text-align: center;\">+</p>","response":null,"trial_type":"html-keyboard-response","trial_index":17,"plugin_version":"2.1.0","time_elapsed":421101,"subject_id":"92022","group":"Group1","condition":"1_Rep","full_date":"2026-02-01T19:58:47.648Z","date":"2026-02-01","time":"19:58:47"},{"task":"memory_phase","broad_category":"S","image_png":"S_Sandstone_03.png","image_id":451,"category_name":"Sandstone","category":29,"distinct_rating":1.86,"distinct_type":"Bottom","rt":null,"stimulus":"Stimuli_Rocks480/S_Sandstone_03.png","response":null,"trial_type":"image-keyboard-response","trial_index":18,"plugin_version":"2.1.0","time_elapsed":423618,"subject_id":"92022","group":"Group1","condition":"1_Rep","full_date":"2026-02-01T19:58:47.648Z","date":"2026-02-01","time":"19:58:47"},{"rt":null,"stimulus":"<p style=\"font-size: 50px; margin: 0; text-align: center;\">+</p>","response":null,"trial_type":"html-keyboard-response","trial_index":19,"plugin_version":"2.1.0","time_elapsed":424628,"subject_id":"92022","group":"Group1","condition":"1_Rep","full_date":"2026-02-01T19:58:47.648Z","date":"2026-02-01","time":"19:58:47"},{"task":"memory_phase","broad_category":"S","image_png":"S_Shale_08.png","image_id":472,"category_name":"Shale","category":30,"distinct_rating":2.55,"distinct_type":"Bottom","rt":null,"stimulus":"Stimuli_Rocks480/S_Shale_08.png","response":null,"trial_type":"image-keyboard-response","trial_index":20,"plugin_version":"2.1.0","time_elapsed":427143,"subject_id":"92022","group":"Group1","condition":"1_Rep","full_date":"2026-02-01T19:58:47.648Z","date":"2026-02-01","time":"19:58:47"},{"rt":null,"stimulus":"<p style=\"font-size: 50px; margin: 0; text-align: center;\">+</p>","response":null,"trial_type":"html-keyboard-response","trial_index":21,"plugin_version":"2.1.0","time_elapsed":428156,"subject_id":"92022","group":"Group1","condition":"1_Rep","full_date":"2026-02-01T19:58:47.648Z","date":"2026-02-01","time":"19:58:47"},{"task":"memory_phase","broad_category":"M","image_png":"M_Slate_03.png","image_id":307,"category_name":"Slate","category":20,"distinct_rating":1.87,"distinct_type":"Bottom","rt":null,"stimulus":"Stimuli_Rocks480/M_Slate_03.png","response":null,"trial_type":"image-keyboard-response","trial_index":22,"plugin_version":"2.1.0","time_elapsed":430669,"subject_id":"92022","group":"Group1","condition":"1_Rep","full_date":"2026-02-01T19:58:47.648Z","date":"2026-02-01","time":"19:58:47"},{"rt":null,"stimulus":"<p style=\"font-size: 50px; margin: 0; text-align: center;\">+</p>","response":null,"trial_type":"html-keyboard-response","trial_index":23,"plugin_version":"2.1.0","time_elapsed":431672,"subject_id":"92022","group":"Group1","condition":"1_Rep","full_date":"2026-02-01T19:58:47.648Z","date":"2026-02-01","time":"19:58:47"},{"task":"memory_phase","broad_category":"M","image_png":"M_Quartzite_05.png","image_id":277,"category_name":"Quartzite","category":18,"distinct_rating":2.23,"distinct_type":"Bottom","rt":null,"stimulus":"Stimuli_Rocks480/M_Quartzite_05.png","response":null,"trial_type":"image-keyboard-response","trial_index":24,"plugin_version":"2.1.0","time_elapsed":434176,"subject_id":"92022","group":"Group1","condition":"1_Rep","full_date":"2026-02-01T19:58:47.648Z","date":"2026-02-01","time":"19:58:47"},{"rt":null,"stimulus":"<p style=\"font-size: 50px; margin: 0; text-align: center;\">+</p>","response":null,"trial_type":"html-keyboard-response","trial_index":25,"plugin_version":"2.1.0","time_elapsed":435190,"subject_id":"92022","group":"Group1","condition":"1_Rep","full_date":"2026-02-01T19:58:47.648Z","date":"2026-02-01","time":"19:58:47"},{"task":"memory_phase","broad_category":"M","image_png":"M_Quartzite_08.png","image_id":280,"category_name":"Quartzite","category":18,"distinct_rating":2.15,"distinct_type":"Bottom","rt":null,"stimulus":"Stimuli_Rocks480/M_Quartzite_08.png","response":null,"trial_type":"image-keyboard-response","trial_index":26,"plugin_version":"2.1.0","time_elapsed":437697,"subject_id":"92022","group":"Group1","condition":"1_Rep","full_date":"2026-02-01T19:58:47.648Z","date":"2026-02-01","time":"19:58:47"},{"rt":null,"stimulus":"<p style=\"font-size: 50px; margin: 0; text-align: center;\">+</p>","response":null,"trial_type":"html-keyboard-response","trial_index":27,"plugin_version":"2.1.0","time_elapsed":438703,"subject_id":"92022","group":"Group1","condition":"1_Rep","full_date":"2026-02-01T19:58:47.648Z","date":"2026-02-01","time":"19:58:47"},{"task":"memory_phase","broad_category":"I","image_png":"I_Rhyolite_16.png","image_id":160,"category_name":"Rhyolite","category":10,"distinct_rating":2.19,"distinct_type":"Bottom","rt":null,"stimulus":"Stimuli_Rocks480/I_Rhyolite_16.png","response":null,"trial_type":"image-keyboard-response","trial_index":28,"plugin_version":"2.1.0","time_elapsed":441219,"subject_id":"92022","group":"Group1","condition":"1_Rep","full_date":"2026-02-01T19:58:47.648Z","date":"2026-02-01","time":"19:58:47"},{"rt":null,"stimulus":"<p style=\"font-size: 50px; margin: 0; text-align: center;\">+</p>","response":null,"trial_type":"html-keyboard-response","trial_index":29,"plugin_version":"2.1.0","time_elapsed":442235,"subject_id":"92022","group":"Group1","condition":"1_Rep","full_date":"2026-02-01T19:58:47.648Z","date":"2026-02-01","time":"19:58:47"},{"task":"memory_phase","broad_category":"I","image_png":"I_Diorite_03.png","image_id":35,"category_name":"Diorite","category":3,"distinct_rating":3.14,"distinct_type":"Bottom","rt":null,"stimulus":"Stimuli_Rocks480/I_Diorite_03.png","response":null,"trial_type":"image-keyboard-response","trial_index":30,"plugin_version":"2.1.0","time_elapsed":444751,"subject_id":"92022","group":"Group1","condition":"1_Rep","full_date":"2026-02-01T19:58:47.648Z","date":"2026-02-01","time":"19:58:47"},{"rt":null,"stimulus":"<p style=\"font-size: 50px; margin: 0; text-align: center;\">+</p>","response":null,"trial_type":"html-keyboard-response","trial_index":31,"plugin_version":"2.1.0","time_elapsed":445753,"subject_id":"92022","group":"Group1","condition":"1_Rep","full_date":"2026-02-01T19:58:47.648Z","date":"2026-02-01","time":"19:58:47"},{"task":"memory_phase","broad_category":"S","image_png":"S_Dolomite_13.png","image_id":397,"category_name":"Dolomite","category":25,"distinct_rating":1.77,"distinct_type":"Bottom","rt":null,"stimulus":"Stimuli_Rocks480/S_Dolomite_13.png","response":null,"trial_type":"image-keyboard-response","trial_index":32,"plugin_version":"2.1.0","time_elapsed":448257,"subject_id":"92022","group":"Group1","condition":"1_Rep","full_date":"2026-02-01T19:58:47.648Z","date":"2026-02-01","time":"19:58:47"},{"rt":null,"stimulus":"<p style=\"font-size: 50px; margin: 0; text-align: center;\">+</p>","response":null,"trial_type":"html-keyboard-response","trial_index":33,"plugin_version":"2.1.0","time_elapsed":449259,"subject_id":"92022","group":"Group1","condition":"1_Rep","full_date":"2026-02-01T19:58:47.648Z","date":"2026-02-01","time":"19:58:47"},{"task":"memory_phase","broad_category":"I","image_png":"I_Pumice_08.png","image_id":136,"category_name":"Pumice","category":9,"distinct_rating":3.1,"distinct_type":"Bottom","rt":null,"stimulus":"Stimuli_Rocks480/I_Pumice_08.png","response":null,"trial_type":"image-keyboard-response","trial_index":34,"plugin_version":"2.1.0","time_elapsed":451778,"subject_id":"92022","group":"Group1","condition":"1_Rep","full_date":"2026-02-01T19:58:47.648Z","date":"2026-02-01","time":"19:58:47"},{"rt":null,"stimulus":"<p style=\"font-size: 50px; margin: 0; text-align: center;\">+</p>","response":null,"trial_type":"html-keyboard-response","trial_index":35,"plugin_version":"2.1.0","time_elapsed":452785,"subject_id":"92022","group":"Group1","condition":"1_Rep","full_date":"2026-02-01T19:58:47.648Z","date":"2026-02-01","time":"19:58:47"},{"task":"memory_phase","broad_category":"S","image_png":"S_Dolomite_14.png","image_id":398,"category_name":"Dolomite","category":25,"distinct_rating":1.43,"distinct_type":"Bottom","rt":null,"stimulus":"Stimuli_Rocks480/S_Dolomite_14.png","response":null,"trial_type":"image-keyboard-response","trial_index":36,"plugin_version":"2.1.0","time_elapsed":455302,"subject_id":"92022","group":"Group1","condition":"1_Rep","full_date":"2026-02-01T19:58:47.648Z","date":"2026-02-01","time":"19:58:47"},{"rt":null,"stimulus":"<p style=\"font-size: 50px; margin: 0; text-align: center;\">+</p>","response":null,"trial_type":"html-keyboard-response","trial_index":37,"plugin_version":"2.1.0","time_elapsed":456308,"subject_id":"92022","group":"Group1","condition":"1_Rep","full_date":"2026-02-01T19:58:47.648Z","date":"2026-02-01","time":"19:58:47"},{"task":"memory_phase","broad_category":"S","image_png":"S_Sandstone_16.png","image_id":464,"category_name":"Sandstone","category":29,"distinct_rating":1.93,"distinct_type":"Bottom","rt":null,"stimulus":"Stimuli_Rocks480/S_Sandstone_16.png","response":null,"trial_type":"image-keyboard-response","trial_index":38,"plugin_version":"2.1.0","time_elapsed":458814,"subject_id":"92022","group":"Group1","condition":"1_Rep","full_date":"2026-02-01T19:58:47.648Z","date":"2026-02-01","time":"19:58:47"},{"rt":null,"stimulus":"<p style=\"font-size: 50px; margin: 0; text-align: center;\">+</p>","response":null,"trial_type":"html-keyboard-response","trial_index":39,"plugin_version":"2.1.0","time_elapsed":459825,"subject_id":"92022","group":"Group1","condition":"1_Rep","full_date":"2026-02-01T19:58:47.648Z","date":"2026-02-01","time":"19:58:47"},{"task":"memory_phase","broad_category":"I","image_png":"I_Rhyolite_11.png","image_id":155,"category_name":"Rhyolite","category":10,"distinct_rating":1.73,"distinct_type":"Bottom","rt":null,"stimulus":"Stimuli_Rocks480/I_Rhyolite_11.png","response":null,"trial_type":"image-keyboard-response","trial_index":40,"plugin_version":"2.1.0","time_elapsed":462332,"subject_id":"92022","group":"Group1","condition":"1_Rep","full_date":"2026-02-01T19:58:47.648Z","date":"2026-02-01","time":"19:58:47"},{"rt":null,"stimulus":"<p style=\"font-size: 50px; margin: 0; text-align: center;\">+</p>","response":null,"trial_type":"html-keyboard-response","trial_index":41,"plugin_version":"2.1.0","time_elapsed":463349,"subject_id":"92022","group":"Group1","condition":"1_Rep","full_date":"2026-02-01T19:58:47.648Z","date":"2026-02-01","time":"19:58:47"},{"task":"memory_phase","broad_category":"M","image_png":"M_Phyllite_07.png","image_id":263,"category_name":"Phyllite","category":17,"distinct_rating":2.59,"distinct_type":"Bottom","rt":null,"stimulus":"Stimuli_Rocks480/M_Phyllite_07.png","response":null,"trial_type":"image-keyboard-response","trial_index":42,"plugin_version":"2.1.0","time_elapsed":465858,"subject_id":"92022","group":"Group1","condition":"1_Rep","full_date":"2026-02-01T19:58:47.648Z","date":"2026-02-01","time":"19:58:47"},{"rt":null,"stimulus":"<p style=\"font-size: 50px; margin: 0; text-align: center;\">+</p>","response":null,"trial_type":"html-keyboard-response","trial_index":43,"plugin_version":"2.1.0","time_elapsed":466868,"subject_id":"92022","group":"Group1","condition":"1_Rep","full_date":"2026-02-01T19:58:47.648Z","date":"2026-02-01","time":"19:58:47"},{"task":"memory_phase","broad_category":"I","image_png":"I_Obsidian_05.png","image_id":85,"category_name":"Obsidian","category":6,"distinct_rating":7.32,"distinct_type":"Top","rt":null,"stimulus":"Stimuli_Rocks480/I_Obsidian_05.png","response":null,"trial_type":"image-keyboard-response","trial_index":44,"plugin_version":"2.1.0","time_elapsed":469373,"subject_id":"92022","group":"Group1","condition":"1_Rep","full_date":"2026-02-01T19:58:47.648Z","date":"2026-02-01","time":"19:58:47"},{"rt":null,"stimulus":"<p style=\"font-size: 50px; margin: 0; text-align: center;\">+</p>","response":null,"trial_type":"html-keyboard-response","trial_index":45,"plugin_version":"2.1.0","time_elapsed":470379,"subject_id":"92022","group":"Group1","condition":"1_Rep","full_date":"2026-02-01T19:58:47.648Z","date":"2026-02-01","time":"19:58:47"},{"task":"memory_phase","broad_category":"M","image_png":"M_Gneiss_05.png","image_id":197,"category_name":"Gneiss","category":13,"distinct_rating":2.97,"distinct_type":"Bottom","rt":null,"stimulus":"Stimuli_Rocks480/M_Gneiss_05.png","response":null,"trial_type":"image-keyboard-response","trial_index":46,"plugin_version":"2.1.0","time_elapsed":472883,"subject_id":"92022","group":"Group1","condition":"1_Rep","full_date":"2026-02-01T19:58:47.648Z","date":"2026-02-01","time":"19:58:47"},{"rt":null,"stimulus":"<p style=\"font-size: 50px; margin: 0; text-align: center;\">+</p>","response":null,"trial_type":"html-keyboard-response","trial_index":47,"plugin_version":"2.1.0","time_elapsed":473891,"subject_id":"92022","group":"Group1","condition":"1_Rep","full_date":"2026-02-01T19:58:47.648Z","date":"2026-02-01","time":"19:58:47"},{"task":"memory_phase","broad_category":"I","image_png":"I_Pumice_12.png","image_id":140,"category_name":"Pumice","category":9,"distinct_rating":2.97,"distinct_type":"Bottom","rt":null,"stimulus":"Stimuli_Rocks480/I_Pumice_12.png","response":null,"trial_type":"image-keyboard-response","trial_index":48,"plugin_version":"2.1.0","time_elapsed":476401,"subject_id":"92022","group":"Group1","condition":"1_Rep","full_date":"2026-02-01T19:58:47.648Z","date":"2026-02-01","time":"19:58:47"},{"rt":null,"stimulus":"<p style=\"font-size: 50px; margin: 0; text-align: center;\">+</p>","response":null,"trial_type":"html-keyboard-response","trial_index":49,"plugin_version":"2.1.0","time_elapsed":477407,"subject_id":"92022","group":"Group1","condition":"1_Rep","full_date":"2026-02-01T19:58:47.648Z","date":"2026-02-01","time":"19:58:47"},{"task":"memory_phase","broad_category":"S","image_png":"S_Rock Gypsum_04.png","image_id":420,"category_name":"Rock Gypsum","category":27,"distinct_rating":7.61,"distinct_type":"Top","rt":null,"stimulus":"Stimuli_Rocks480/S_Rock Gypsum_04.png","response":null,"trial_type":"image-keyboard-response","trial_index":50,"plugin_version":"2.1.0","time_elapsed":479910,"subject_id":"92022","group":"Group1","condition":"1_Rep","full_date":"2026-02-01T19:58:47.648Z","date":"2026-02-01","time":"19:58:47"},{"rt":null,"stimulus":"<p style=\"font-size: 50px; margin: 0; text-align: center;\">+</p>","response":null,"trial_type":"html-keyboard-response","trial_index":51,"plugin_version":"2.1.0","time_elapsed":480927,"subject_id":"92022","group":"Group1","condition":"1_Rep","full_date":"2026-02-01T19:58:47.648Z","date":"2026-02-01","time":"19:58:47"},{"task":"memory_phase","broad_category":"I","image_png":"I_Rhyolite_14.png","image_id":158,"category_name":"Rhyolite","category":10,"distinct_rating":2.59,"distinct_type":"Bottom","rt":null,"stimulus":"Stimuli_Rocks480/I_Rhyolite_14.png","response":null,"trial_type":"image-keyboard-response","trial_index":52,"plugin_version":"2.1.0","time_elapsed":483437,"subject_id":"92022","group":"Group1","condition":"1_Rep","full_date":"2026-02-01T19:58:47.648Z","date":"2026-02-01","time":"19:58:47"},{"rt":null,"stimulus":"<p style=\"font-size: 50px; margin: 0; text-align: center;\">+</p>","response":null,"trial_type":"html-keyboard-response","trial_index":53,"plugin_version":"2.1.0","time_elapsed":484442,"subject_id":"92022","group":"Group1","condition":"1_Rep","full_date":"2026-02-01T19:58:47.648Z","date":"2026-02-01","time":"19:58:47"},{"task":"memory_phase","broad_category":"I","image_png":"I_Basalt_01.png","image_id":17,"category_name":"Basalt","category":2,"distinct_rating":1.92,"distinct_type":"Bottom","rt":null,"stimulus":"Stimuli_Rocks480/I_Basalt_01.png","response":null,"trial_type":"image-keyboard-response","trial_index":54,"plugin_version":"2.1.0","time_elapsed":486948,"subject_id":"92022","group":"Group1","condition":"1_Rep","full_date":"2026-02-01T19:58:47.648Z","date":"2026-02-01","time":"19:58:47"},{"rt":41557,"stimulus":"<p style=\"max-width: 760px; margin: auto; font-size: 35px; line-height: 1.5;\">\n                Press SPACE to continue study phase\n              </p>","response":" ","trial_type":"html-keyboard-response","trial_index":55,"plugin_version":"2.1.0","time_elapsed":528506,"subject_id":"92022","group":"Group1","condition":"1_Rep","full_date":"2026-02-01T19:58:47.648Z","date":"2026-02-01","time":"19:58:47"},{"rt":null,"stimulus":"<p style=\"font-size: 50px; margin: 0; text-align: center;\">+</p>","response":null,"trial_type":"html-keyboard-response","trial_index":56,"plugin_version":"2.1.0","time_elapsed":529507,"subject_id":"92022","group":"Group1","condition":"1_Rep","full_date":"2026-02-01T19:58:47.648Z","date":"2026-02-01","time":"19:58:47"},{"task":"memory_phase","broad_category":"M","image_png":"M_Slate_15.png","image_id":319,"category_name":"Slate","category":20,"distinct_rating":2.13,"distinct_type":"Bottom","rt":null,"stimulus":"Stimuli_Rocks480/M_Slate_15.png","response":null,"trial_type":"image-keyboard-response","trial_index":57,"plugin_version":"2.1.0","time_elapsed":532012,"subject_id":"92022","group":"Group1","condition":"1_Rep","full_date":"2026-02-01T19:58:47.648Z","date":"2026-02-01","time":"19:58:47"},{"rt":null,"stimulus":"<p style=\"font-size: 50px; margin: 0; text-align: center;\">+</p>","response":null,"trial_type":"html-keyboard-response","trial_index":58,"plugin_version":"2.1.0","time_elapsed":533024,"subject_id":"92022","group":"Group1","condition":"1_Rep","full_date":"2026-02-01T19:58:47.648Z","date":"2026-02-01","time":"19:58:47"},{"task":"memory_phase","broad_category":"I","image_png":"I_Diorite_05.png","image_id":37,"category_name":"Diorite","category":3,"distinct_rating":3.08,"distinct_type":"Bottom","rt":null,"stimulus":"Stimuli_Rocks480/I_Diorite_05.png","response":null,"trial_type":"image-keyboard-response","trial_index":59,"plugin_version":"2.1.0","time_elapsed":535527,"subject_id":"92022","group":"Group1","condition":"1_Rep","full_date":"2026-02-01T19:58:47.648Z","date":"2026-02-01","time":"19:58:47"},{"rt":null,"stimulus":"<p style=\"font-size: 50px; margin: 0; text-align: center;\">+</p>","response":null,"trial_type":"html-keyboard-response","trial_index":60,"plugin_version":"2.1.0","time_elapsed":536536,"subject_id":"92022","group":"Group1","condition":"1_Rep","full_date":"2026-02-01T19:58:47.648Z","date":"2026-02-01","time":"19:58:47"},{"task":"memory_phase","broad_category":"M","image_png":"M_Slate_11.png","image_id":315,"category_name":"Slate","category":20,"distinct_rating":2.75,"distinct_type":"Bottom","rt":null,"stimulus":"Stimuli_Rocks480/M_Slate_11.png","response":null,"trial_type":"image-keyboard-response","trial_index":61,"plugin_version":"2.1.0","time_elapsed":539043,"subject_id":"92022","group":"Group1","condition":"1_Rep","full_date":"2026-02-01T19:58:47.648Z","date":"2026-02-01","time":"19:58:47"},{"rt":null,"stimulus":"<p style=\"font-size: 50px; margin: 0; text-align: center;\">+</p>","response":null,"trial_type":"html-keyboard-response","trial_index":62,"plugin_version":"2.1.0","time_elapsed":540049,"subject_id":"92022","group":"Group1","condition":"1_Rep","full_date":"2026-02-01T19:58:47.648Z","date":"2026-02-01","time":"19:58:47"},{"task":"memory_phase","broad_category":"S","image_png":"S_Chert_10.png","image_id":362,"category_name":"Chert","category":23,"distinct_rating":7.17,"distinct_type":"Top","rt":null,"stimulus":"Stimuli_Rocks480/S_Chert_10.png","response":null,"trial_type":"image-keyboard-response","trial_index":63,"plugin_version":"2.1.0","time_elapsed":542560,"subject_id":"92022","group":"Group1","condition":"1_Rep","full_date":"2026-02-01T19:58:47.648Z","date":"2026-02-01","time":"19:58:47"},{"rt":null,"stimulus":"<p style=\"font-size: 50px; margin: 0; text-align: center;\">+</p>","response":null,"trial_type":"html-keyboard-response","trial_index":64,"plugin_version":"2.1.0","time_elapsed":543576,"subject_id":"92022","group":"Group1","condition":"1_Rep","full_date":"2026-02-01T19:58:47.648Z","date":"2026-02-01","time":"19:58:47"},{"task":"memory_phase","broad_category":"M","image_png":"M_Phyllite_03.png","image_id":259,"category_name":"Phyllite","category":17,"distinct_rating":2.5,"distinct_type":"Bottom","rt":null,"stimulus":"Stimuli_Rocks480/M_Phyllite_03.png","response":null,"trial_type":"image-keyboard-response","trial_index":65,"plugin_version":"2.1.0","time_elapsed":546079,"subject_id":"92022","group":"Group1","condition":"1_Rep","full_date":"2026-02-01T19:58:47.648Z","date":"2026-02-01","time":"19:58:47"},{"rt":null,"stimulus":"<p style=\"font-size: 50px; margin: 0; text-align: center;\">+</p>","response":null,"trial_type":"html-keyboard-response","trial_index":66,"plugin_version":"2.1.0","time_elapsed":547087,"subject_id":"92022","group":"Group1","condition":"1_Rep","full_date":"2026-02-01T19:58:47.648Z","date":"2026-02-01","time":"19:58:47"},{"task":"memory_phase","broad_category":"I","image_png":"I_Pegmatite_10.png","image_id":106,"category_name":"Pegmatite","category":7,"distinct_rating":7.66,"distinct_type":"Top","rt":null,"stimulus":"Stimuli_Rocks480/I_Pegmatite_10.png","response":null,"trial_type":"image-keyboard-response","trial_index":67,"plugin_version":"2.1.0","time_elapsed":549600,"subject_id":"92022","group":"Group1","condition":"1_Rep","full_date":"2026-02-01T19:58:47.648Z","date":"2026-02-01","time":"19:58:47"},{"rt":null,"stimulus":"<p style=\"font-size: 50px; margin: 0; text-align: center;\">+</p>","response":null,"trial_type":"html-keyboard-response","trial_index":68,"plugin_version":"2.1.0","time_elapsed":550617,"subject_id":"92022","group":"Group1","condition":"1_Rep","full_date":"2026-02-01T19:58:47.648Z","date":"2026-02-01","time":"19:58:47"},{"task":"memory_phase","broad_category":"S","image_png":"S_Shale_12.png","image_id":476,"category_name":"Shale","category":30,"distinct_rating":2.48,"distinct_type":"Bottom","rt":null,"stimulus":"Stimuli_Rocks480/S_Shale_12.png","response":null,"trial_type":"image-keyboard-response","trial_index":69,"plugin_version":"2.1.0","time_elapsed":553121,"subject_id":"92022","group":"Group1","condition":"1_Rep","full_date":"2026-02-01T19:58:47.648Z","date":"2026-02-01","time":"19:58:47"},{"rt":null,"stimulus":"<p style=\"font-size: 50px; margin: 0; text-align: center;\">+</p>","response":null,"trial_type":"html-keyboard-response","trial_index":70,"plugin_version":"2.1.0","time_elapsed":554124,"subject_id":"92022","group":"Group1","condition":"1_Rep","full_date":"2026-02-01T19:58:47.648Z","date":"2026-02-01","time":"19:58:47"},{"task":"memory_phase","broad_category":"M","image_png":"M_Gneiss_06.png","image_id":198,"category_name":"Gneiss","category":13,"distinct_rating":2.65,"distinct_type":"Bottom","rt":null,"stimulus":"Stimuli_Rocks480/M_Gneiss_06.png","response":null,"trial_type":"image-keyboard-response","trial_index":71,"plugin_version":"2.1.0","time_elapsed":556626,"subject_id":"92022","group":"Group1","condition":"1_Rep","full_date":"2026-02-01T19:58:47.648Z","date":"2026-02-01","time":"19:58:47"},{"rt":null,"stimulus":"<p style=\"font-size: 50px; margin: 0; text-align: center;\">+</p>","response":null,"trial_type":"html-keyboard-response","trial_index":72,"plugin_version":"2.1.0","time_elapsed":557631,"subject_id":"92022","group":"Group1","condition":"1_Rep","full_date":"2026-02-01T19:58:47.648Z","date":"2026-02-01","time":"19:58:47"},{"task":"memory_phase","broad_category":"M","image_png":"M_Gneiss_13.png","image_id":205,"category_name":"Gneiss","category":13,"distinct_rating":3.26,"distinct_type":"Bottom","rt":null,"stimulus":"Stimuli_Rocks480/M_Gneiss_13.png","response":null,"trial_type":"image-keyboard-response","trial_index":73,"plugin_version":"2.1.0","time_elapsed":560133,"subject_id":"92022","group":"Group1","condition":"1_Rep","full_date":"2026-02-01T19:58:47.648Z","date":"2026-02-01","time":"19:58:47"},{"rt":null,"stimulus":"<p style=\"font-size: 50px; margin: 0; text-align: center;\">+</p>","response":null,"trial_type":"html-keyboard-response","trial_index":74,"plugin_version":"2.1.0","time_elapsed":561149,"subject_id":"92022","group":"Group1","condition":"1_Rep","full_date":"2026-02-01T19:58:47.648Z","date":"2026-02-01","time":"19:58:47"},{"task":"memory_phase","broad_category":"S","image_png":"S_Breccia_11.png","image_id":347,"category_name":"Breccia","category":22,"distinct_rating":6.7,"distinct_type":"Top","rt":null,"stimulus":"Stimuli_Rocks480/S_Breccia_11.png","response":null,"trial_type":"image-keyboard-response","trial_index":75,"plugin_version":"2.1.0","time_elapsed":563652,"subject_id":"92022","group":"Group1","condition":"1_Rep","full_date":"2026-02-01T19:58:47.648Z","date":"2026-02-01","time":"19:58:47"},{"rt":null,"stimulus":"<p style=\"font-size: 50px; margin: 0; text-align: center;\">+</p>","response":null,"trial_type":"html-keyboard-response","trial_index":76,"plugin_version":"2.1.0","time_elapsed":564665,"subject_id":"92022","group":"Group1","condition":"1_Rep","full_date":"2026-02-01T19:58:47.648Z","date":"2026-02-01","time":"19:58:47"},{"task":"memory_phase","broad_category":"I","image_png":"I_Andesite_08.png","image_id":8,"category_name":"Andesite","category":1,"distinct_rating":1.95,"distinct_type":"Bottom","rt":null,"stimulus":"Stimuli_Rocks480/I_Andesite_08.png","response":null,"trial_type":"image-keyboard-response","trial_index":77,"plugin_version":"2.1.0","time_elapsed":567176,"subject_id":"92022","group":"Group1","condition":"1_Rep","full_date":"2026-02-01T19:58:47.648Z","date":"2026-02-01","time":"19:58:47"},{"rt":null,"stimulus":"<p style=\"font-size: 50px; margin: 0; text-align: center;\">+</p>","response":null,"trial_type":"html-keyboard-response","trial_index":78,"plugin_version":"2.1.0","time_elapsed":568191,"subject_id":"92022","group":"Group1","condition":"1_Rep","full_date":"2026-02-01T19:58:47.648Z","date":"2026-02-01","time":"19:58:47"},{"task":"memory_phase","broad_category":"I","image_png":"I_Pegmatite_16.png","image_id":112,"category_name":"Pegmatite","category":7,"distinct_rating":7.03,"distinct_type":"Top","rt":null,"stimulus":"Stimuli_Rocks480/I_Pegmatite_16.png","response":null,"trial_type":"image-keyboard-response","trial_index":79,"plugin_version":"2.1.0","time_elapsed":570693,"subject_id":"92022","group":"Group1","condition":"1_Rep","full_date":"2026-02-01T19:58:47.648Z","date":"2026-02-01","time":"19:58:47"},{"rt":null,"stimulus":"<p style=\"font-size: 50px; margin: 0; text-align: center;\">+</p>","response":null,"trial_type":"html-keyboard-response","trial_index":80,"plugin_version":"2.1.0","time_elapsed":571703,"subject_id":"92022","group":"Group1","condition":"1_Rep","full_date":"2026-02-01T19:58:47.648Z","date":"2026-02-01","time":"19:58:47"},{"task":"memory_phase","broad_category":"S","image_png":"S_Conglomerate_05.png","image_id":373,"category_name":"Conglomerate","category":24,"distinct_rating":7.32,"distinct_type":"Top","rt":null,"stimulus":"Stimuli_Rocks480/S_Conglomerate_05.png","response":null,"trial_type":"image-keyboard-response","trial_index":81,"plugin_version":"2.1.0","time_elapsed":574220,"subject_id":"92022","group":"Group1","condition":"1_Rep","full_date":"2026-02-01T19:58:47.648Z","date":"2026-02-01","time":"19:58:47"},{"rt":null,"stimulus":"<p style=\"font-size: 50px; margin: 0; text-align: center;\">+</p>","response":null,"trial_type":"html-keyboard-response","trial_index":82,"plugin_version":"2.1.0","time_elapsed":575228,"subject_id":"92022","group":"Group1","condition":"1_Rep","full_date":"2026-02-01T19:58:47.648Z","date":"2026-02-01","time":"19:58:47"},{"task":"memory_phase","broad_category":"I","image_png":"I_Basalt_02.png","image_id":18,"category_name":"Basalt","category":2,"distinct_rating":1.84,"distinct_type":"Bottom","rt":null,"stimulus":"Stimuli_Rocks480/I_Basalt_02.png","response":null,"trial_type":"image-keyboard-response","trial_index":83,"plugin_version":"2.1.0","time_elapsed":577742,"subject_id":"92022","group":"Group1","condition":"1_Rep","full_date":"2026-02-01T19:58:47.648Z","date":"2026-02-01","time":"19:58:47"},{"rt":null,"stimulus":"<p style=\"font-size: 50px; margin: 0; text-align: center;\">+</p>","response":null,"trial_type":"html-keyboard-response","trial_index":84,"plugin_version":"2.1.0","time_elapsed":578759,"subject_id":"92022","group":"Group1","condition":"1_Rep","full_date":"2026-02-01T19:58:47.648Z","date":"2026-02-01","time":"19:58:47"},{"task":"memory_phase","broad_category":"S","image_png":"S_Dolomite_12.png","image_id":396,"category_name":"Dolomite","category":25,"distinct_rating":1.85,"distinct_type":"Bottom","rt":null,"stimulus":"Stimuli_Rocks480/S_Dolomite_12.png","response":null,"trial_type":"image-keyboard-response","trial_index":85,"plugin_version":"2.1.0","time_elapsed":581268,"subject_id":"92022","group":"Group1","condition":"1_Rep","full_date":"2026-02-01T19:58:47.648Z","date":"2026-02-01","time":"19:58:47"},{"rt":null,"stimulus":"<p style=\"font-size: 50px; margin: 0; text-align: center;\">+</p>","response":null,"trial_type":"html-keyboard-response","trial_index":86,"plugin_version":"2.1.0","time_elapsed":582280,"subject_id":"92022","group":"Group1","condition":"1_Rep","full_date":"2026-02-01T19:58:47.648Z","date":"2026-02-01","time":"19:58:47"},{"task":"memory_phase","broad_category":"S","image_png":"S_Rock Salt_01.png","image_id":433,"category_name":"Rock Salt","category":28,"distinct_rating":7.18,"distinct_type":"Top","rt":null,"stimulus":"Stimuli_Rocks480/S_Rock Salt_01.png","response":null,"trial_type":"image-keyboard-response","trial_index":87,"plugin_version":"2.1.0","time_elapsed":584796,"subject_id":"92022","group":"Group1","condition":"1_Rep","full_date":"2026-02-01T19:58:47.648Z","date":"2026-02-01","time":"19:58:47"},{"rt":null,"stimulus":"<p style=\"font-size: 50px; margin: 0; text-align: center;\">+</p>","response":null,"trial_type":"html-keyboard-response","trial_index":88,"plugin_version":"2.1.0","time_elapsed":585809,"subject_id":"92022","group":"Group1","condition":"1_Rep","full_date":"2026-02-01T19:58:47.648Z","date":"2026-02-01","time":"19:58:47"},{"task":"memory_phase","broad_category":"S","image_png":"S_Shale_01.png","image_id":465,"category_name":"Shale","category":30,"distinct_rating":2.7,"distinct_type":"Bottom","rt":null,"stimulus":"Stimuli_Rocks480/S_Shale_01.png","response":null,"trial_type":"image-keyboard-response","trial_index":89,"plugin_version":"2.1.0","time_elapsed":588317,"subject_id":"92022","group":"Group1","condition":"1_Rep","full_date":"2026-02-01T19:58:47.648Z","date":"2026-02-01","time":"19:58:47"},{"rt":null,"stimulus":"<p style=\"font-size: 50px; margin: 0; text-align: center;\">+</p>","response":null,"trial_type":"html-keyboard-response","trial_index":90,"plugin_version":"2.1.0","time_elapsed":589318,"subject_id":"92022","group":"Group1","condition":"1_Rep","full_date":"2026-02-01T19:58:47.648Z","date":"2026-02-01","time":"19:58:47"},{"task":"memory_phase","broad_category":"M","image_png":"M_Quartzite_13.png","image_id":285,"category_name":"Quartzite","category":18,"distinct_rating":2.27,"distinct_type":"Bottom","rt":null,"stimulus":"Stimuli_Rocks480/M_Quartzite_13.png","response":null,"trial_type":"image-keyboard-response","trial_index":91,"plugin_version":"2.1.0","time_elapsed":591823,"subject_id":"92022","group":"Group1","condition":"1_Rep","full_date":"2026-02-01T19:58:47.648Z","date":"2026-02-01","time":"19:58:47"},{"rt":null,"stimulus":"<p style=\"font-size: 50px; margin: 0; text-align: center;\">+</p>","response":null,"trial_type":"html-keyboard-response","trial_index":92,"plugin_version":"2.1.0","time_elapsed":592831,"subject_id":"92022","group":"Group1","condition":"1_Rep","full_date":"2026-02-01T19:58:47.648Z","date":"2026-02-01","time":"19:58:47"},{"task":"memory_phase","broad_category":"I","image_png":"I_Gabbro_11.png","image_id":59,"category_name":"Gabbro","category":4,"distinct_rating":1.99,"distinct_type":"Bottom","rt":null,"stimulus":"Stimuli_Rocks480/I_Gabbro_11.png","response":null,"trial_type":"image-keyboard-response","trial_index":93,"plugin_version":"2.1.0","time_elapsed":595333,"subject_id":"92022","group":"Group1","condition":"1_Rep","full_date":"2026-02-01T19:58:47.648Z","date":"2026-02-01","time":"19:58:47"},{"rt":null,"stimulus":"<p style=\"font-size: 50px; margin: 0; text-align: center;\">+</p>","response":null,"trial_type":"html-keyboard-response","trial_index":94,"plugin_version":"2.1.0","time_elapsed":596335,"subject_id":"92022","group":"Group1","condition":"1_Rep","full_date":"2026-02-01T19:58:47.648Z","date":"2026-02-01","time":"19:58:47"},{"task":"memory_phase","broad_category":"I","image_png":"I_Gabbro_16.png","image_id":64,"category_name":"Gabbro","category":4,"distinct_rating":2.52,"distinct_type":"Bottom","rt":null,"stimulus":"Stimuli_Rocks480/I_Gabbro_16.png","response":null,"trial_type":"image-keyboard-response","trial_index":95,"plugin_version":"2.1.0","time_elapsed":598840,"subject_id":"92022","group":"Group1","condition":"1_Rep","full_date":"2026-02-01T19:58:47.648Z","date":"2026-02-01","time":"19:58:47"},{"rt":null,"stimulus":"<p style=\"font-size: 50px; margin: 0; text-align: center;\">+</p>","response":null,"trial_type":"html-keyboard-response","trial_index":96,"plugin_version":"2.1.0","time_elapsed":599847,"subject_id":"92022","group":"Group1","condition":"1_Rep","full_date":"2026-02-01T19:58:47.648Z","date":"2026-02-01","time":"19:58:47"},{"task":"memory_phase","broad_category":"M","image_png":"M_Phyllite_10.png","image_id":266,"category_name":"Phyllite","category":17,"distinct_rating":2.6,"distinct_type":"Bottom","rt":null,"stimulus":"Stimuli_Rocks480/M_Phyllite_10.png","response":null,"trial_type":"image-keyboard-response","trial_index":97,"plugin_version":"2.1.0","time_elapsed":602349,"subject_id":"92022","group":"Group1","condition":"1_Rep","full_date":"2026-02-01T19:58:47.648Z","date":"2026-02-01","time":"19:58:47"},{"rt":null,"stimulus":"<p style=\"font-size: 50px; margin: 0; text-align: center;\">+</p>","response":null,"trial_type":"html-keyboard-response","trial_index":98,"plugin_version":"2.1.0","time_elapsed":603361,"subject_id":"92022","group":"Group1","condition":"1_Rep","full_date":"2026-02-01T19:58:47.648Z","date":"2026-02-01","time":"19:58:47"},{"task":"memory_phase","broad_category":"M","image_png":"M_Marble_16.png","image_id":240,"category_name":"Marble","category":15,"distinct_rating":2.57,"distinct_type":"Bottom","rt":null,"stimulus":"Stimuli_Rocks480/M_Marble_16.png","response":null,"trial_type":"image-keyboard-response","trial_index":99,"plugin_version":"2.1.0","time_elapsed":605875,"subject_id":"92022","group":"Group1","condition":"1_Rep","full_date":"2026-02-01T19:58:47.648Z","date":"2026-02-01","time":"19:58:47"},{"rt":null,"stimulus":"<p style=\"font-size: 50px; margin: 0; text-align: center;\">+</p>","response":null,"trial_type":"html-keyboard-response","trial_index":100,"plugin_version":"2.1.0","time_elapsed":606888,"subject_id":"92022","group":"Group1","condition":"1_Rep","full_date":"2026-02-01T19:58:47.648Z","date":"2026-02-01","time":"19:58:47"},{"task":"memory_phase","broad_category":"I","image_png":"I_Basalt_09.png","image_id":25,"category_name":"Basalt","category":2,"distinct_rating":1.89,"distinct_type":"Bottom","rt":null,"stimulus":"Stimuli_Rocks480/I_Basalt_09.png","response":null,"trial_type":"image-keyboard-response","trial_index":101,"plugin_version":"2.1.0","time_elapsed":609404,"subject_id":"92022","group":"Group1","condition":"1_Rep","full_date":"2026-02-01T19:58:47.648Z","date":"2026-02-01","time":"19:58:47"},{"rt":null,"stimulus":"<p style=\"font-size: 50px; margin: 0; text-align: center;\">+</p>","response":null,"trial_type":"html-keyboard-response","trial_index":102,"plugin_version":"2.1.0","time_elapsed":610415,"subject_id":"92022","group":"Group1","condition":"1_Rep","full_date":"2026-02-01T19:58:47.648Z","date":"2026-02-01","time":"19:58:47"},{"task":"memory_phase","broad_category":"S","image_png":"S_Sandstone_15.png","image_id":463,"category_name":"Sandstone","category":29,"distinct_rating":2,"distinct_type":"Bottom","rt":null,"stimulus":"Stimuli_Rocks480/S_Sandstone_15.png","response":null,"trial_type":"image-keyboard-response","trial_index":103,"plugin_version":"2.1.0","time_elapsed":612931,"subject_id":"92022","group":"Group1","condition":"1_Rep","full_date":"2026-02-01T19:58:47.648Z","date":"2026-02-01","time":"19:58:47"},{"rt":null,"stimulus":"<p style=\"font-size: 50px; margin: 0; text-align: center;\">+</p>","response":null,"trial_type":"html-keyboard-response","trial_index":104,"plugin_version":"2.1.0","time_elapsed":613944,"subject_id":"92022","group":"Group1","condition":"1_Rep","full_date":"2026-02-01T19:58:47.648Z","date":"2026-02-01","time":"19:58:47"},{"task":"memory_phase","broad_category":"I","image_png":"I_Andesite_10.png","image_id":10,"category_name":"Andesite","category":1,"distinct_rating":3.15,"distinct_type":"Bottom","rt":null,"stimulus":"Stimuli_Rocks480/I_Andesite_10.png","response":null,"trial_type":"image-keyboard-response","trial_index":105,"plugin_version":"2.1.0","time_elapsed":616445,"subject_id":"92022","group":"Group1","condition":"1_Rep","full_date":"2026-02-01T19:58:47.648Z","date":"2026-02-01","time":"19:58:47"},{"rt":31982,"stimulus":"<div style=\"max-width: 760px; margin: auto; font-size: 20px; line-height: 1.5;\">\n      <h1 style=\"text-align:center; font-size: 30px;\">Instructions for the Test Phase</h1>\n      <p>\n        The study phase is now complete.\n      </p>\n      <p>\n        In the test phase, you will again see a series of rock images. \n        Some will be ones you saw before - during the study phase, while others will be new.  \n        <b>Your task</b> is to decide whether you have seen each image before by pressing the corresponding key on your keyboard:<br><br>\n          <b>A</b> - NO (you did not see this image before)<br>\n          <b>L</b> - YES (you saw this image before)<br><br>\n        The test will proceed at your own pace. You will receive feedback after each response.  \n        Please try to respond <b>as accurately as possible</b>.\n      </p>\n      <p>\n        <b>Reminder:</b> If your computer has multiple language settings (e.g., English and another language),\n        please ensure it is set to English during the test phase.\n      </p>\n      <p>\n        You can track your progress using the <b>completion bar</b> at the top of the screen.  \n        Note that it has been refreshed to reflect your progress during this final phase.\n      </p>\n      <p>\n        Press the button below when you are ready to continue.\n      </p>\n    </div>","response":0,"trial_type":"html-button-response","trial_index":106,"plugin_version":"2.1.0","time_elapsed":648429,"subject_id":"92022","group":"Group1","condition":"1_Rep","full_date":"2026-02-01T19:58:47.648Z","date":"2026-02-01","time":"19:58:47"},{"correct_response":"a","task":"test_phase","broad_category":"I","image_png":"I_Diorite_15.png","image_id":47,"category_name":"Diorite","category":3,"distinct_rating":3.05,"distinct_type":"Bottom","item_type":"Foil","rt":4491,"stimulus":"Stimuli_Rocks480/I_Diorite_15.png","response":"a","trial_type":"image-keyboard-response","trial_index":107,"plugin_version":"2.1.0","time_elapsed":652922,"subject_id":"92022","group":"Group1","condition":"1_Rep","full_date":"2026-02-01T19:58:47.648Z","date":"2026-02-01","time":"19:58:47","cor_ans":true},{"trial_type":"html-keyboard-response","rt":null,"stimulus":"<p style=\"color: green; font-size: 50px; font-weight: bold;\">Correct</p>","response":null,"trial_index":108,"plugin_version":"2.1.0","time_elapsed":653431,"subject_id":"92022","group":"Group1","condition":"1_Rep","full_date":"2026-02-01T19:58:47.648Z","date":"2026-02-01","time":"19:58:47"},{"correct_response":"a","task":"test_phase","broad_category":"I","image_png":"I_Diorite_10.png","image_id":42,"category_name":"Diorite","category":3,"distinct_rating":2.84,"distinct_type":"Bottom","item_type":"Foil","rt":7779,"stimulus":"Stimuli_Rocks480/I_Diorite_10.png","response":"l","trial_type":"image-keyboard-response","trial_index":109,"plugin_version":"2.1.0","time_elapsed":661211,"subject_id":"92022","group":"Group1","condition":"1_Rep","full_date":"2026-02-01T19:58:47.648Z","date":"2026-02-01","time":"19:58:47","cor_ans":false},{"trial_type":"html-keyboard-response","rt":null,"stimulus":"<p style=\"color: red; font-size: 50px; font-weight: bold;\">Incorrect</p>","response":null,"trial_index":110,"plugin_version":"2.1.0","time_elapsed":661713,"subject_id":"92022","group":"Group1","condition":"1_Rep","full_date":"2026-02-01T19:58:47.648Z","date":"2026-02-01","time":"19:58:47"},{"correct_response":"l","task":"test_phase","broad_category":"M","image_png":"M_Quartzite_08.png","image_id":280,"category_name":"Quartzite","category":18,"distinct_rating":2.15,"distinct_type":"Bottom","item_type":"Target","rt":3221,"stimulus":"Stimuli_Rocks480/M_Quartzite_08.png","response":"a","trial_type":"image-keyboard-response","trial_index":111,"plugin_version":"2.1.0","time_elapsed":664936,"subject_id":"92022","group":"Group1","condition":"1_Rep","full_date":"2026-02-01T19:58:47.648Z","date":"2026-02-01","time":"19:58:47","cor_ans":false},{"trial_type":"html-keyboard-response","rt":null,"stimulus":"<p style=\"color: red; font-size: 50px; font-weight: bold;\">Incorrect</p>","response":null,"trial_index":112,"plugin_version":"2.1.0","time_elapsed":665444,"subject_id":"92022","group":"Group1","condition":"1_Rep","full_date":"2026-02-01T19:58:47.648Z","date":"2026-02-01","time":"19:58:47"},{"correct_response":"l","task":"test_phase","broad_category":"I","image_png":"I_Rhyolite_14.png","image_id":158,"category_name":"Rhyolite","category":10,"distinct_rating":2.59,"distinct_type":"Bottom","item_type":"Target","rt":3150,"stimulus":"Stimuli_Rocks480/I_Rhyolite_14.png","response":"l","trial_type":"image-keyboard-response","trial_index":113,"plugin_version":"2.1.0","time_elapsed":668595,"subject_id":"92022","group":"Group1","condition":"1_Rep","full_date":"2026-02-01T19:58:47.648Z","date":"2026-02-01","time":"19:58:47","cor_ans":true},{"trial_type":"html-keyboard-response","rt":null,"stimulus":"<p style=\"color: green; font-size: 50px; font-weight: bold;\">Correct</p>","response":null,"trial_index":114,"plugin_version":"2.1.0","time_elapsed":669110,"subject_id":"92022","group":"Group1","condition":"1_Rep","full_date":"2026-02-01T19:58:47.648Z","date":"2026-02-01","time":"19:58:47"},{"correct_response":"a","task":"test_phase","broad_category":"S","image_png":"S_Sandstone_11.png","image_id":459,"category_name":"Sandstone","category":29,"distinct_rating":1.82,"distinct_type":"Bottom","item_type":"Foil","rt":6769,"stimulus":"Stimuli_Rocks480/S_Sandstone_11.png","response":"l","trial_type":"image-keyboard-response","trial_index":115,"plugin_version":"2.1.0","time_elapsed":675881,"subject_id":"92022","group":"Group1","condition":"1_Rep","full_date":"2026-02-01T19:58:47.648Z","date":"2026-02-01","time":"19:58:47","cor_ans":false},{"trial_type":"html-keyboard-response","rt":null,"stimulus":"<p style=\"color: red; font-size: 50px; font-weight: bold;\">Incorrect</p>","response":null,"trial_index":116,"plugin_version":"2.1.0","time_elapsed":676384,"subject_id":"92022","group":"Group1","condition":"1_Rep","full_date":"2026-02-01T19:58:47.648Z","date":"2026-02-01","time":"19:58:47"},{"correct_response":"a","task":"test_phase","broad_category":"I","image_png":"I_Pegmatite_03.png","image_id":99,"category_name":"Pegmatite","category":7,"distinct_rating":7.24,"distinct_type":"Top","item_type":"Foil","rt":1736,"stimulus":"Stimuli_Rocks480/I_Pegmatite_03.png","response":"l","trial_type":"image-keyboard-response","trial_index":117,"plugin_version":"2.1.0","time_elapsed":678121,"subject_id":"92022","group":"Group1","condition":"1_Rep","full_date":"2026-02-01T19:58:47.648Z","date":"2026-02-01","time":"19:58:47","cor_ans":false},{"trial_type":"html-keyboard-response","rt":null,"stimulus":"<p style=\"color: red; font-size: 50px; font-weight: bold;\">Incorrect</p>","response":null,"trial_index":118,"plugin_version":"2.1.0","time_elapsed":678623,"subject_id":"92022","group":"Group1","condition":"1_Rep","full_date":"2026-02-01T19:58:47.648Z","date":"2026-02-01","time":"19:58:47"},{"correct_response":"l","task":"test_phase","broad_category":"I","image_png":"I_Diorite_04.png","image_id":36,"category_name":"Diorite","category":3,"distinct_rating":2.98,"distinct_type":"Bottom","item_type":"Target","rt":4554,"stimulus":"Stimuli_Rocks480/I_Diorite_04.png","response":"a","trial_type":"image-keyboard-response","trial_index":119,"plugin_version":"2.1.0","time_elapsed":683178,"subject_id":"92022","group":"Group1","condition":"1_Rep","full_date":"2026-02-01T19:58:47.648Z","date":"2026-02-01","time":"19:58:47","cor_ans":false},{"trial_type":"html-keyboard-response","rt":null,"stimulus":"<p style=\"color: red; font-size: 50px; font-weight: bold;\">Incorrect</p>","response":null,"trial_index":120,"plugin_version":"2.1.0","time_elapsed":683687,"subject_id":"92022","group":"Group1","condition":"1_Rep","full_date":"2026-02-01T19:58:47.648Z","date":"2026-02-01","time":"19:58:47"},{"correct_response":"a","task":"test_phase","broad_category":"M","image_png":"M_Slate_10.png","image_id":314,"category_name":"Slate","category":20,"distinct_rating":1.94,"distinct_type":"Bottom","item_type":"Foil","rt":6331,"stimulus":"Stimuli_Rocks480/M_Slate_10.png","response":"l","trial_type":"image-keyboard-response","trial_index":121,"plugin_version":"2.1.0","time_elapsed":690020,"subject_id":"92022","group":"Group1","condition":"1_Rep","full_date":"2026-02-01T19:58:47.648Z","date":"2026-02-01","time":"19:58:47","cor_ans":false},{"trial_type":"html-keyboard-response","rt":null,"stimulus":"<p style=\"color: red; font-size: 50px; font-weight: bold;\">Incorrect</p>","response":null,"trial_index":122,"plugin_version":"2.1.0","time_elapsed":690531,"subject_id":"92022","group":"Group1","condition":"1_Rep","full_date":"2026-02-01T19:58:47.648Z","date":"2026-02-01","time":"19:58:47"},{"correct_response":"a","task":"test_phase","broad_category":"I","image_png":"I_Pumice_01.png","image_id":129,"category_name":"Pumice","category":9,"distinct_rating":3.25,"distinct_type":"Bottom","item_type":"Foil","rt":1238,"stimulus":"Stimuli_Rocks480/I_Pumice_01.png","response":"a","trial_type":"image-keyboard-response","trial_index":123,"plugin_version":"2.1.0","time_elapsed":691771,"subject_id":"92022","group":"Group1","condition":"1_Rep","full_date":"2026-02-01T19:58:47.648Z","date":"2026-02-01","time":"19:58:47","cor_ans":true},{"trial_type":"html-keyboard-response","rt":null,"stimulus":"<p style=\"color: green; font-size: 50px; font-weight: bold;\">Correct</p>","response":null,"trial_index":124,"plugin_version":"2.1.0","time_elapsed":692284,"subject_id":"92022","group":"Group1","condition":"1_Rep","full_date":"2026-02-01T19:58:47.648Z","date":"2026-02-01","time":"19:58:47"},{"correct_response":"a","task":"test_phase","broad_category":"I","image_png":"I_Andesite_09.png","image_id":9,"category_name":"Andesite","category":1,"distinct_rating":2.49,"distinct_type":"Bottom","item_type":"Foil","rt":5006,"stimulus":"Stimuli_Rocks480/I_Andesite_09.png","response":"l","trial_type":"image-keyboard-response","trial_index":125,"plugin_version":"2.1.0","time_elapsed":697297,"subject_id":"92022","group":"Group1","condition":"1_Rep","full_date":"2026-02-01T19:58:47.648Z","date":"2026-02-01","time":"19:58:47","cor_ans":false},{"trial_type":"html-keyboard-response","rt":null,"stimulus":"<p style=\"color: red; font-size: 50px; font-weight: bold;\">Incorrect</p>","response":null,"trial_index":126,"plugin_version":"2.1.0","time_elapsed":697804,"subject_id":"92022","group":"Group1","condition":"1_Rep","full_date":"2026-02-01T19:58:47.648Z","date":"2026-02-01","time":"19:58:47"},{"correct_response":"a","task":"test_phase","broad_category":"I","image_png":"I_Diorite_01.png","image_id":33,"category_name":"Diorite","category":3,"distinct_rating":2.97,"distinct_type":"Bottom","item_type":"Foil","rt":11588,"stimulus":"Stimuli_Rocks480/I_Diorite_01.png","response":"l","trial_type":"image-keyboard-response","trial_index":127,"plugin_version":"2.1.0","time_elapsed":709393,"subject_id":"92022","group":"Group1","condition":"1_Rep","full_date":"2026-02-01T19:58:47.648Z","date":"2026-02-01","time":"19:58:47","cor_ans":false},{"trial_type":"html-keyboard-response","rt":null,"stimulus":"<p style=\"color: red; font-size: 50px; font-weight: bold;\">Incorrect</p>","response":null,"trial_index":128,"plugin_version":"2.1.0","time_elapsed":709908,"subject_id":"92022","group":"Group1","condition":"1_Rep","full_date":"2026-02-01T19:58:47.648Z","date":"2026-02-01","time":"19:58:47"},{"correct_response":"l","task":"test_phase","broad_category":"I","image_png":"I_Pegmatite_10.png","image_id":106,"category_name":"Pegmatite","category":7,"distinct_rating":7.66,"distinct_type":"Top","item_type":"Target","rt":1814,"stimulus":"Stimuli_Rocks480/I_Pegmatite_10.png","response":"l","trial_type":"image-keyboard-response","trial_index":129,"plugin_version":"2.1.0","time_elapsed":711724,"subject_id":"92022","group":"Group1","condition":"1_Rep","full_date":"2026-02-01T19:58:47.648Z","date":"2026-02-01","time":"19:58:47","cor_ans":true},{"trial_type":"html-keyboard-response","rt":null,"stimulus":"<p style=\"color: green; font-size: 50px; font-weight: bold;\">Correct</p>","response":null,"trial_index":130,"plugin_version":"2.1.0","time_elapsed":712233,"subject_id":"92022","group":"Group1","condition":"1_Rep","full_date":"2026-02-01T19:58:47.648Z","date":"2026-02-01","time":"19:58:47"},{"correct_response":"l","task":"test_phase","broad_category":"I","image_png":"I_Diorite_03.png","image_id":35,"category_name":"Diorite","category":3,"distinct_rating":3.14,"distinct_type":"Bottom","item_type":"Target","rt":2862,"stimulus":"Stimuli_Rocks480/I_Diorite_03.png","response":"l","trial_type":"image-keyboard-response","trial_index":131,"plugin_version":"2.1.0","time_elapsed":715097,"subject_id":"92022","group":"Group1","condition":"1_Rep","full_date":"2026-02-01T19:58:47.648Z","date":"2026-02-01","time":"19:58:47","cor_ans":true},{"trial_type":"html-keyboard-response","rt":null,"stimulus":"<p style=\"color: green; font-size: 50px; font-weight: bold;\">Correct</p>","response":null,"trial_index":132,"plugin_version":"2.1.0","time_elapsed":715611,"subject_id":"92022","group":"Group1","condition":"1_Rep","full_date":"2026-02-01T19:58:47.648Z","date":"2026-02-01","time":"19:58:47"},{"correct_response":"l","task":"test_phase","broad_category":"S","image_png":"S_Shale_08.png","image_id":472,"category_name":"Shale","category":30,"distinct_rating":2.55,"distinct_type":"Bottom","item_type":"Target","rt":2963,"stimulus":"Stimuli_Rocks480/S_Shale_08.png","response":"a","trial_type":"image-keyboard-response","trial_index":133,"plugin_version":"2.1.0","time_elapsed":718576,"subject_id":"92022","group":"Group1","condition":"1_Rep","full_date":"2026-02-01T19:58:47.648Z","date":"2026-02-01","time":"19:58:47","cor_ans":false},{"trial_type":"html-keyboard-response","rt":null,"stimulus":"<p style=\"color: red; font-size: 50px; font-weight: bold;\">Incorrect</p>","response":null,"trial_index":134,"plugin_version":"2.1.0","time_elapsed":719088,"subject_id":"92022","group":"Group1","condition":"1_Rep","full_date":"2026-02-01T19:58:47.648Z","date":"2026-02-01","time":"19:58:47"},{"correct_response":"a","task":"test_phase","broad_category":"M","image_png":"M_Marble_14.png","image_id":238,"category_name":"Marble","category":15,"distinct_rating":3.31,"distinct_type":"Bottom","item_type":"Foil","rt":2095,"stimulus":"Stimuli_Rocks480/M_Marble_14.png","response":"a","trial_type":"image-keyboard-response","trial_index":135,"plugin_version":"2.1.0","time_elapsed":721184,"subject_id":"92022","group":"Group1","condition":"1_Rep","full_date":"2026-02-01T19:58:47.648Z","date":"2026-02-01","time":"19:58:47","cor_ans":true},{"trial_type":"html-keyboard-response","rt":null,"stimulus":"<p style=\"color: green; font-size: 50px; font-weight: bold;\">Correct</p>","response":null,"trial_index":136,"plugin_version":"2.1.0","time_elapsed":721686,"subject_id":"92022","group":"Group1","condition":"1_Rep","full_date":"2026-02-01T19:58:47.648Z","date":"2026-02-01","time":"19:58:47"},{"correct_response":"a","task":"test_phase","broad_category":"M","image_png":"M_Gneiss_10.png","image_id":202,"category_name":"Gneiss","category":13,"distinct_rating":3.09,"distinct_type":"Bottom","item_type":"Foil","rt":2403,"stimulus":"Stimuli_Rocks480/M_Gneiss_10.png","response":"l","trial_type":"image-keyboard-response","trial_index":137,"plugin_version":"2.1.0","time_elapsed":724091,"subject_id":"92022","group":"Group1","condition":"1_Rep","full_date":"2026-02-01T19:58:47.648Z","date":"2026-02-01","time":"19:58:47","cor_ans":false},{"trial_type":"html-keyboard-response","rt":null,"stimulus":"<p style=\"color: red; font-size: 50px; font-weight: bold;\">Incorrect</p>","response":null,"trial_index":138,"plugin_version":"2.1.0","time_elapsed":724602,"subject_id":"92022","group":"Group1","condition":"1_Rep","full_date":"2026-02-01T19:58:47.648Z","date":"2026-02-01","time":"19:58:47"},{"correct_response":"a","task":"test_phase","broad_category":"M","image_png":"M_Slate_04.png","image_id":308,"category_name":"Slate","category":20,"distinct_rating":2.2,"distinct_type":"Bottom","item_type":"Foil","rt":2026,"stimulus":"Stimuli_Rocks480/M_Slate_04.png","response":"l","trial_type":"image-keyboard-response","trial_index":139,"plugin_version":"2.1.0","time_elapsed":726630,"subject_id":"92022","group":"Group1","condition":"1_Rep","full_date":"2026-02-01T19:58:47.648Z","date":"2026-02-01","time":"19:58:47","cor_ans":false},{"trial_type":"html-keyboard-response","rt":null,"stimulus":"<p style=\"color: red; font-size: 50px; font-weight: bold;\">Incorrect</p>","response":null,"trial_index":140,"plugin_version":"2.1.0","time_elapsed":727142,"subject_id":"92022","group":"Group1","condition":"1_Rep","full_date":"2026-02-01T19:58:47.648Z","date":"2026-02-01","time":"19:58:47"},{"correct_response":"a","task":"test_phase","broad_category":"S","image_png":"S_Shale_03.png","image_id":467,"category_name":"Shale","category":30,"distinct_rating":1.95,"distinct_type":"Bottom","item_type":"Foil","rt":10149,"stimulus":"Stimuli_Rocks480/S_Shale_03.png","response":"a","trial_type":"image-keyboard-response","trial_index":141,"plugin_version":"2.1.0","time_elapsed":737293,"subject_id":"92022","group":"Group1","condition":"1_Rep","full_date":"2026-02-01T19:58:47.648Z","date":"2026-02-01","time":"19:58:47","cor_ans":true},{"trial_type":"html-keyboard-response","rt":null,"stimulus":"<p style=\"color: green; font-size: 50px; font-weight: bold;\">Correct</p>","response":null,"trial_index":142,"plugin_version":"2.1.0","time_elapsed":737808,"subject_id":"92022","group":"Group1","condition":"1_Rep","full_date":"2026-02-01T19:58:47.648Z","date":"2026-02-01","time":"19:58:47"},{"correct_response":"a","task":"test_phase","broad_category":"I","image_png":"I_Pumice_13.png","image_id":141,"category_name":"Pumice","category":9,"distinct_rating":3.12,"distinct_type":"Bottom","item_type":"Foil","rt":2686,"stimulus":"Stimuli_Rocks480/I_Pumice_13.png","response":"l","trial_type":"image-keyboard-response","trial_index":143,"plugin_version":"2.1.0","time_elapsed":740495,"subject_id":"92022","group":"Group1","condition":"1_Rep","full_date":"2026-02-01T19:58:47.648Z","date":"2026-02-01","time":"19:58:47","cor_ans":false},{"trial_type":"html-keyboard-response","rt":null,"stimulus":"<p style=\"color: red; font-size: 50px; font-weight: bold;\">Incorrect</p>","response":null,"trial_index":144,"plugin_version":"2.1.0","time_elapsed":741002,"subject_id":"92022","group":"Group1","condition":"1_Rep","full_date":"2026-02-01T19:58:47.648Z","date":"2026-02-01","time":"19:58:47"},{"correct_response":"a","task":"test_phase","broad_category":"S","image_png":"S_Dolomite_07.png","image_id":391,"category_name":"Dolomite","category":25,"distinct_rating":1.73,"distinct_type":"Bottom","item_type":"Foil","rt":11384,"stimulus":"Stimuli_Rocks480/S_Dolomite_07.png","response":"a","trial_type":"image-keyboard-response","trial_index":145,"plugin_version":"2.1.0","time_elapsed":752388,"subject_id":"92022","group":"Group1","condition":"1_Rep","full_date":"2026-02-01T19:58:47.648Z","date":"2026-02-01","time":"19:58:47","cor_ans":true},{"trial_type":"html-keyboard-response","rt":null,"stimulus":"<p style=\"color: green; font-size: 50px; font-weight: bold;\">Correct</p>","response":null,"trial_index":146,"plugin_version":"2.1.0","time_elapsed":752897,"subject_id":"92022","group":"Group1","condition":"1_Rep","full_date":"2026-02-01T19:58:47.648Z","date":"2026-02-01","time":"19:58:47"},{"correct_response":"l","task":"test_phase","broad_category":"I","image_png":"I_Rhyolite_11.png","image_id":155,"category_name":"Rhyolite","category":10,"distinct_rating":1.73,"distinct_type":"Bottom","item_type":"Target","rt":2136,"stimulus":"Stimuli_Rocks480/I_Rhyolite_11.png","response":"l","trial_type":"image-keyboard-response","trial_index":147,"plugin_version":"2.1.0","time_elapsed":755034,"subject_id":"92022","group":"Group1","condition":"1_Rep","full_date":"2026-02-01T19:58:47.648Z","date":"2026-02-01","time":"19:58:47","cor_ans":true},{"trial_type":"html-keyboard-response","rt":null,"stimulus":"<p style=\"color: green; font-size: 50px; font-weight: bold;\">Correct</p>","response":null,"trial_index":148,"plugin_version":"2.1.0","time_elapsed":755549,"subject_id":"92022","group":"Group1","condition":"1_Rep","full_date":"2026-02-01T19:58:47.648Z","date":"2026-02-01","time":"19:58:47"},{"correct_response":"a","task":"test_phase","broad_category":"M","image_png":"M_Marble_03.png","image_id":227,"category_name":"Marble","category":15,"distinct_rating":2.67,"distinct_type":"Bottom","item_type":"Foil","rt":2885,"stimulus":"Stimuli_Rocks480/M_Marble_03.png","response":"a","trial_type":"image-keyboard-response","trial_index":149,"plugin_version":"2.1.0","time_elapsed":758436,"subject_id":"92022","group":"Group1","condition":"1_Rep","full_date":"2026-02-01T19:58:47.648Z","date":"2026-02-01","time":"19:58:47","cor_ans":true},{"trial_type":"html-keyboard-response","rt":null,"stimulus":"<p style=\"color: green; font-size: 50px; font-weight: bold;\">Correct</p>","response":null,"trial_index":150,"plugin_version":"2.1.0","time_elapsed":758950,"subject_id":"92022","group":"Group1","condition":"1_Rep","full_date":"2026-02-01T19:58:47.648Z","date":"2026-02-01","time":"19:58:47"},{"correct_response":"l","task":"test_phase","broad_category":"S","image_png":"S_Conglomerate_05.png","image_id":373,"category_name":"Conglomerate","category":24,"distinct_rating":7.32,"distinct_type":"Top","item_type":"Target","rt":2623,"stimulus":"Stimuli_Rocks480/S_Conglomerate_05.png","response":"l","trial_type":"image-keyboard-response","trial_index":151,"plugin_version":"2.1.0","time_elapsed":761575,"subject_id":"92022","group":"Group1","condition":"1_Rep","full_date":"2026-02-01T19:58:47.648Z","date":"2026-02-01","time":"19:58:47","cor_ans":true},{"trial_type":"html-keyboard-response","rt":null,"stimulus":"<p style=\"color: green; font-size: 50px; font-weight: bold;\">Correct</p>","response":null,"trial_index":152,"plugin_version":"2.1.0","time_elapsed":762089,"subject_id":"92022","group":"Group1","condition":"1_Rep","full_date":"2026-02-01T19:58:47.648Z","date":"2026-02-01","time":"19:58:47"},{"correct_response":"l","task":"test_phase","broad_category":"M","image_png":"M_Marble_06.png","image_id":230,"category_name":"Marble","category":15,"distinct_rating":3.4,"distinct_type":"Bottom","item_type":"Target","rt":2026,"stimulus":"Stimuli_Rocks480/M_Marble_06.png","response":"l","trial_type":"image-keyboard-response","trial_index":153,"plugin_version":"2.1.0","time_elapsed":764116,"subject_id":"92022","group":"Group1","condition":"1_Rep","full_date":"2026-02-01T19:58:47.648Z","date":"2026-02-01","time":"19:58:47","cor_ans":true},{"trial_type":"html-keyboard-response","rt":null,"stimulus":"<p style=\"color: green; font-size: 50px; font-weight: bold;\">Correct</p>","response":null,"trial_index":154,"plugin_version":"2.1.0","time_elapsed":764628,"subject_id":"92022","group":"Group1","condition":"1_Rep","full_date":"2026-02-01T19:58:47.648Z","date":"2026-02-01","time":"19:58:47"},{"correct_response":"a","task":"test_phase","broad_category":"I","image_png":"I_Basalt_10.png","image_id":26,"category_name":"Basalt","category":2,"distinct_rating":2.76,"distinct_type":"Bottom","item_type":"Foil","rt":2818,"stimulus":"Stimuli_Rocks480/I_Basalt_10.png","response":"a","trial_type":"image-keyboard-response","trial_index":155,"plugin_version":"2.1.0","time_elapsed":767447,"subject_id":"92022","group":"Group1","condition":"1_Rep","full_date":"2026-02-01T19:58:47.648Z","date":"2026-02-01","time":"19:58:47","cor_ans":true},{"trial_type":"html-keyboard-response","rt":null,"stimulus":"<p style=\"color: green; font-size: 50px; font-weight: bold;\">Correct</p>","response":null,"trial_index":156,"plugin_version":"2.1.0","time_elapsed":767960,"subject_id":"92022","group":"Group1","condition":"1_Rep","full_date":"2026-02-01T19:58:47.648Z","date":"2026-02-01","time":"19:58:47"},{"correct_response":"l","task":"test_phase","broad_category":"M","image_png":"M_Marble_04.png","image_id":228,"category_name":"Marble","category":15,"distinct_rating":3.15,"distinct_type":"Bottom","item_type":"Target","rt":4725,"stimulus":"Stimuli_Rocks480/M_Marble_04.png","response":"l","trial_type":"image-keyboard-response","trial_index":157,"plugin_version":"2.1.0","time_elapsed":772687,"subject_id":"92022","group":"Group1","condition":"1_Rep","full_date":"2026-02-01T19:58:47.648Z","date":"2026-02-01","time":"19:58:47","cor_ans":true},{"trial_type":"html-keyboard-response","rt":null,"stimulus":"<p style=\"color: green; font-size: 50px; font-weight: bold;\">Correct</p>","response":null,"trial_index":158,"plugin_version":"2.1.0","time_elapsed":773196,"subject_id":"92022","group":"Group1","condition":"1_Rep","full_date":"2026-02-01T19:58:47.648Z","date":"2026-02-01","time":"19:58:47"},{"correct_response":"l","task":"test_phase","broad_category":"S","image_png":"S_Shale_01.png","image_id":465,"category_name":"Shale","category":30,"distinct_rating":2.7,"distinct_type":"Bottom","item_type":"Target","rt":1633,"stimulus":"Stimuli_Rocks480/S_Shale_01.png","response":"l","trial_type":"image-keyboard-response","trial_index":159,"plugin_version":"2.1.0","time_elapsed":774830,"subject_id":"92022","group":"Group1","condition":"1_Rep","full_date":"2026-02-01T19:58:47.648Z","date":"2026-02-01","time":"19:58:47","cor_ans":true},{"trial_type":"html-keyboard-response","rt":null,"stimulus":"<p style=\"color: green; font-size: 50px; font-weight: bold;\">Correct</p>","response":null,"trial_index":160,"plugin_version":"2.1.0","time_elapsed":775342,"subject_id":"92022","group":"Group1","condition":"1_Rep","full_date":"2026-02-01T19:58:47.648Z","date":"2026-02-01","time":"19:58:47"},{"correct_response":"l","task":"test_phase","broad_category":"M","image_png":"M_Slate_03.png","image_id":307,"category_name":"Slate","category":20,"distinct_rating":1.87,"distinct_type":"Bottom","item_type":"Target","rt":1222,"stimulus":"Stimuli_Rocks480/M_Slate_03.png","response":"l","trial_type":"image-keyboard-response","trial_index":161,"plugin_version":"2.1.0","time_elapsed":776565,"subject_id":"92022","group":"Group1","condition":"1_Rep","full_date":"2026-02-01T19:58:47.648Z","date":"2026-02-01","time":"19:58:47","cor_ans":true},{"trial_type":"html-keyboard-response","rt":null,"stimulus":"<p style=\"color: green; font-size: 50px; font-weight: bold;\">Correct</p>","response":null,"trial_index":162,"plugin_version":"2.1.0","time_elapsed":777068,"subject_id":"92022","group":"Group1","condition":"1_Rep","full_date":"2026-02-01T19:58:47.648Z","date":"2026-02-01","time":"19:58:47"},{"correct_response":"a","task":"test_phase","broad_category":"I","image_png":"I_Gabbro_02.png","image_id":50,"category_name":"Gabbro","category":4,"distinct_rating":2.73,"distinct_type":"Bottom","item_type":"Foil","rt":4066,"stimulus":"Stimuli_Rocks480/I_Gabbro_02.png","response":"a","trial_type":"image-keyboard-response","trial_index":163,"plugin_version":"2.1.0","time_elapsed":781135,"subject_id":"92022","group":"Group1","condition":"1_Rep","full_date":"2026-02-01T19:58:47.648Z","date":"2026-02-01","time":"19:58:47","cor_ans":true},{"trial_type":"html-keyboard-response","rt":null,"stimulus":"<p style=\"color: green; font-size: 50px; font-weight: bold;\">Correct</p>","response":null,"trial_index":164,"plugin_version":"2.1.0","time_elapsed":781640,"subject_id":"92022","group":"Group1","condition":"1_Rep","full_date":"2026-02-01T19:58:47.648Z","date":"2026-02-01","time":"19:58:47"},{"correct_response":"a","task":"test_phase","broad_category":"I","image_png":"I_Basalt_13.png","image_id":29,"category_name":"Basalt","category":2,"distinct_rating":2.68,"distinct_type":"Bottom","item_type":"Foil","rt":2936,"stimulus":"Stimuli_Rocks480/I_Basalt_13.png","response":"a","trial_type":"image-keyboard-response","trial_index":165,"plugin_version":"2.1.0","time_elapsed":784577,"subject_id":"92022","group":"Group1","condition":"1_Rep","full_date":"2026-02-01T19:58:47.648Z","date":"2026-02-01","time":"19:58:47","cor_ans":true},{"trial_type":"html-keyboard-response","rt":null,"stimulus":"<p style=\"color: green; font-size: 50px; font-weight: bold;\">Correct</p>","response":null,"trial_index":166,"plugin_version":"2.1.0","time_elapsed":785089,"subject_id":"92022","group":"Group1","condition":"1_Rep","full_date":"2026-02-01T19:58:47.648Z","date":"2026-02-01","time":"19:58:47"},{"correct_response":"a","task":"test_phase","broad_category":"M","image_png":"M_Gneiss_14.png","image_id":206,"category_name":"Gneiss","category":13,"distinct_rating":3.41,"distinct_type":"Bottom","item_type":"Foil","rt":3400,"stimulus":"Stimuli_Rocks480/M_Gneiss_14.png","response":"l","trial_type":"image-keyboard-response","trial_index":167,"plugin_version":"2.1.0","time_elapsed":788490,"subject_id":"92022","group":"Group1","condition":"1_Rep","full_date":"2026-02-01T19:58:47.648Z","date":"2026-02-01","time":"19:58:47","cor_ans":false},{"trial_type":"html-keyboard-response","rt":null,"stimulus":"<p style=\"color: red; font-size: 50px; font-weight: bold;\">Incorrect</p>","response":null,"trial_index":168,"plugin_version":"2.1.0","time_elapsed":788998,"subject_id":"92022","group":"Group1","condition":"1_Rep","full_date":"2026-02-01T19:58:47.648Z","date":"2026-02-01","time":"19:58:47"},{"correct_response":"l","task":"test_phase","broad_category":"I","image_png":"I_Pumice_12.png","image_id":140,"category_name":"Pumice","category":9,"distinct_rating":2.97,"distinct_type":"Bottom","item_type":"Target","rt":4761,"stimulus":"Stimuli_Rocks480/I_Pumice_12.png","response":"l","trial_type":"image-keyboard-response","trial_index":169,"plugin_version":"2.1.0","time_elapsed":793761,"subject_id":"92022","group":"Group1","condition":"1_Rep","full_date":"2026-02-01T19:58:47.648Z","date":"2026-02-01","time":"19:58:47","cor_ans":true},{"trial_type":"html-keyboard-response","rt":null,"stimulus":"<p style=\"color: green; font-size: 50px; font-weight: bold;\">Correct</p>","response":null,"trial_index":170,"plugin_version":"2.1.0","time_elapsed":794277,"subject_id":"92022","group":"Group1","condition":"1_Rep","full_date":"2026-02-01T19:58:47.648Z","date":"2026-02-01","time":"19:58:47"},{"correct_response":"l","task":"test_phase","broad_category":"M","image_png":"M_Marble_16.png","image_id":240,"category_name":"Marble","category":15,"distinct_rating":2.57,"distinct_type":"Bottom","item_type":"Target","rt":9003,"stimulus":"Stimuli_Rocks480/M_Marble_16.png","response":"a","trial_type":"image-keyboard-response","trial_index":171,"plugin_version":"2.1.0","time_elapsed":803282,"subject_id":"92022","group":"Group1","condition":"1_Rep","full_date":"2026-02-01T19:58:47.648Z","date":"2026-02-01","time":"19:58:47","cor_ans":false},{"trial_type":"html-keyboard-response","rt":null,"stimulus":"<p style=\"color: red; font-size: 50px; font-weight: bold;\">Incorrect</p>","response":null,"trial_index":172,"plugin_version":"2.1.0","time_elapsed":803794,"subject_id":"92022","group":"Group1","condition":"1_Rep","full_date":"2026-02-01T19:58:47.648Z","date":"2026-02-01","time":"19:58:47"},{"correct_response":"a","task":"test_phase","broad_category":"M","image_png":"M_Phyllite_05.png","image_id":261,"category_name":"Phyllite","category":17,"distinct_rating":2.14,"distinct_type":"Bottom","item_type":"Foil","rt":1819,"stimulus":"Stimuli_Rocks480/M_Phyllite_05.png","response":"a","trial_type":"image-keyboard-response","trial_index":173,"plugin_version":"2.1.0","time_elapsed":805615,"subject_id":"92022","group":"Group1","condition":"1_Rep","full_date":"2026-02-01T19:58:47.648Z","date":"2026-02-01","time":"19:58:47","cor_ans":true},{"trial_type":"html-keyboard-response","rt":null,"stimulus":"<p style=\"color: green; font-size: 50px; font-weight: bold;\">Correct</p>","response":null,"trial_index":174,"plugin_version":"2.1.0","time_elapsed":806125,"subject_id":"92022","group":"Group1","condition":"1_Rep","full_date":"2026-02-01T19:58:47.648Z","date":"2026-02-01","time":"19:58:47"},{"correct_response":"a","task":"test_phase","broad_category":"I","image_png":"I_Andesite_04.png","image_id":4,"category_name":"Andesite","category":1,"distinct_rating":3.18,"distinct_type":"Bottom","item_type":"Foil","rt":2271,"stimulus":"Stimuli_Rocks480/I_Andesite_04.png","response":"l","trial_type":"image-keyboard-response","trial_index":175,"plugin_version":"2.1.0","time_elapsed":808407,"subject_id":"92022","group":"Group1","condition":"1_Rep","full_date":"2026-02-01T19:58:47.648Z","date":"2026-02-01","time":"19:58:47","cor_ans":false},{"trial_type":"html-keyboard-response","rt":null,"stimulus":"<p style=\"color: red; font-size: 50px; font-weight: bold;\">Incorrect</p>","response":null,"trial_index":176,"plugin_version":"2.1.0","time_elapsed":808917,"subject_id":"92022","group":"Group1","condition":"1_Rep","full_date":"2026-02-01T19:58:47.648Z","date":"2026-02-01","time":"19:58:47"},{"correct_response":"a","task":"test_phase","broad_category":"I","image_png":"I_Rhyolite_05.png","image_id":149,"category_name":"Rhyolite","category":10,"distinct_rating":3.02,"distinct_type":"Bottom","item_type":"Foil","rt":2922,"stimulus":"Stimuli_Rocks480/I_Rhyolite_05.png","response":"a","trial_type":"image-keyboard-response","trial_index":177,"plugin_version":"2.1.0","time_elapsed":811841,"subject_id":"92022","group":"Group1","condition":"1_Rep","full_date":"2026-02-01T19:58:47.648Z","date":"2026-02-01","time":"19:58:47","cor_ans":true},{"trial_type":"html-keyboard-response","rt":null,"stimulus":"<p style=\"color: green; font-size: 50px; font-weight: bold;\">Correct</p>","response":null,"trial_index":178,"plugin_version":"2.1.0","time_elapsed":812353,"subject_id":"92022","group":"Group1","condition":"1_Rep","full_date":"2026-02-01T19:58:47.648Z","date":"2026-02-01","time":"19:58:47"},{"correct_response":"a","task":"test_phase","broad_category":"M","image_png":"M_Quartzite_07.png","image_id":279,"category_name":"Quartzite","category":18,"distinct_rating":1.97,"distinct_type":"Bottom","item_type":"Foil","rt":1866,"stimulus":"Stimuli_Rocks480/M_Quartzite_07.png","response":"a","trial_type":"image-keyboard-response","trial_index":179,"plugin_version":"2.1.0","time_elapsed":814220,"subject_id":"92022","group":"Group1","condition":"1_Rep","full_date":"2026-02-01T19:58:47.648Z","date":"2026-02-01","time":"19:58:47","cor_ans":true},{"trial_type":"html-keyboard-response","rt":null,"stimulus":"<p style=\"color: green; font-size: 50px; font-weight: bold;\">Correct</p>","response":null,"trial_index":180,"plugin_version":"2.1.0","time_elapsed":814722,"subject_id":"92022","group":"Group1","condition":"1_Rep","full_date":"2026-02-01T19:58:47.648Z","date":"2026-02-01","time":"19:58:47"},{"correct_response":"a","task":"test_phase","broad_category":"S","image_png":"S_Shale_02.png","image_id":466,"category_name":"Shale","category":30,"distinct_rating":2.9,"distinct_type":"Bottom","item_type":"Foil","rt":2962,"stimulus":"Stimuli_Rocks480/S_Shale_02.png","response":"a","trial_type":"image-keyboard-response","trial_index":181,"plugin_version":"2.1.0","time_elapsed":817686,"subject_id":"92022","group":"Group1","condition":"1_Rep","full_date":"2026-02-01T19:58:47.648Z","date":"2026-02-01","time":"19:58:47","cor_ans":true},{"trial_type":"html-keyboard-response","rt":null,"stimulus":"<p style=\"color: green; font-size: 50px; font-weight: bold;\">Correct</p>","response":null,"trial_index":182,"plugin_version":"2.1.0","time_elapsed":818188,"subject_id":"92022","group":"Group1","condition":"1_Rep","full_date":"2026-02-01T19:58:47.648Z","date":"2026-02-01","time":"19:58:47"},{"correct_response":"a","task":"test_phase","broad_category":"S","image_png":"S_Conglomerate_14.png","image_id":382,"category_name":"Conglomerate","category":24,"distinct_rating":6.86,"distinct_type":"Top","item_type":"Foil","rt":1130,"stimulus":"Stimuli_Rocks480/S_Conglomerate_14.png","response":"a","trial_type":"image-keyboard-response","trial_index":183,"plugin_version":"2.1.0","time_elapsed":819320,"subject_id":"92022","group":"Group1","condition":"1_Rep","full_date":"2026-02-01T19:58:47.648Z","date":"2026-02-01","time":"19:58:47","cor_ans":true},{"trial_type":"html-keyboard-response","rt":null,"stimulus":"<p style=\"color: green; font-size: 50px; font-weight: bold;\">Correct</p>","response":null,"trial_index":184,"plugin_version":"2.1.0","time_elapsed":819835,"subject_id":"92022","group":"Group1","condition":"1_Rep","full_date":"2026-02-01T19:58:47.648Z","date":"2026-02-01","time":"19:58:47"},{"correct_response":"a","task":"test_phase","broad_category":"M","image_png":"M_Phyllite_13.png","image_id":269,"category_name":"Phyllite","category":17,"distinct_rating":2.8,"distinct_type":"Bottom","item_type":"Foil","rt":1465,"stimulus":"Stimuli_Rocks480/M_Phyllite_13.png","response":"a","trial_type":"image-keyboard-response","trial_index":185,"plugin_version":"2.1.0","time_elapsed":821302,"subject_id":"92022","group":"Group1","condition":"1_Rep","full_date":"2026-02-01T19:58:47.648Z","date":"2026-02-01","time":"19:58:47","cor_ans":true},{"trial_type":"html-keyboard-response","rt":null,"stimulus":"<p style=\"color: green; font-size: 50px; font-weight: bold;\">Correct</p>","response":null,"trial_index":186,"plugin_version":"2.1.0","time_elapsed":821816,"subject_id":"92022","group":"Group1","condition":"1_Rep","full_date":"2026-02-01T19:58:47.648Z","date":"2026-02-01","time":"19:58:47"},{"correct_response":"a","task":"test_phase","broad_category":"S","image_png":"S_Chert_13.png","image_id":365,"category_name":"Chert","category":23,"distinct_rating":6.57,"distinct_type":"Top","item_type":"Foil","rt":1038,"stimulus":"Stimuli_Rocks480/S_Chert_13.png","response":"a","trial_type":"image-keyboard-response","trial_index":187,"plugin_version":"2.1.0","time_elapsed":822856,"subject_id":"92022","group":"Group1","condition":"1_Rep","full_date":"2026-02-01T19:58:47.648Z","date":"2026-02-01","time":"19:58:47","cor_ans":true},{"trial_type":"html-keyboard-response","rt":null,"stimulus":"<p style=\"color: green; font-size: 50px; font-weight: bold;\">Correct</p>","response":null,"trial_index":188,"plugin_version":"2.1.0","time_elapsed":823367,"subject_id":"92022","group":"Group1","condition":"1_Rep","full_date":"2026-02-01T19:58:47.648Z","date":"2026-02-01","time":"19:58:47"},{"correct_response":"a","task":"test_phase","broad_category":"M","image_png":"M_Marble_02.png","image_id":226,"category_name":"Marble","category":15,"distinct_rating":3.2,"distinct_type":"Bottom","item_type":"Foil","rt":1787,"stimulus":"Stimuli_Rocks480/M_Marble_02.png","response":"l","trial_type":"image-keyboard-response","trial_index":189,"plugin_version":"2.1.0","time_elapsed":825156,"subject_id":"92022","group":"Group1","condition":"1_Rep","full_date":"2026-02-01T19:58:47.648Z","date":"2026-02-01","time":"19:58:47","cor_ans":false},{"trial_type":"html-keyboard-response","rt":null,"stimulus":"<p style=\"color: red; font-size: 50px; font-weight: bold;\">Incorrect</p>","response":null,"trial_index":190,"plugin_version":"2.1.0","time_elapsed":825659,"subject_id":"92022","group":"Group1","condition":"1_Rep","full_date":"2026-02-01T19:58:47.648Z","date":"2026-02-01","time":"19:58:47"},{"correct_response":"a","task":"test_phase","broad_category":"S","image_png":"S_Rock Salt_13.png","image_id":445,"category_name":"Rock Salt","category":28,"distinct_rating":7.58,"distinct_type":"Top","item_type":"Foil","rt":1963,"stimulus":"Stimuli_Rocks480/S_Rock Salt_13.png","response":"a","trial_type":"image-keyboard-response","trial_index":191,"plugin_version":"2.1.0","time_elapsed":827623,"subject_id":"92022","group":"Group1","condition":"1_Rep","full_date":"2026-02-01T19:58:47.648Z","date":"2026-02-01","time":"19:58:47","cor_ans":true},{"trial_type":"html-keyboard-response","rt":null,"stimulus":"<p style=\"color: green; font-size: 50px; font-weight: bold;\">Correct</p>","response":null,"trial_index":192,"plugin_version":"2.1.0","time_elapsed":828136,"subject_id":"92022","group":"Group1","condition":"1_Rep","full_date":"2026-02-01T19:58:47.648Z","date":"2026-02-01","time":"19:58:47"},{"correct_response":"l","task":"test_phase","broad_category":"M","image_png":"M_Phyllite_07.png","image_id":263,"category_name":"Phyllite","category":17,"distinct_rating":2.59,"distinct_type":"Bottom","item_type":"Target","rt":9406,"stimulus":"Stimuli_Rocks480/M_Phyllite_07.png","response":"l","trial_type":"image-keyboard-response","trial_index":193,"plugin_version":"2.1.0","time_elapsed":837543,"subject_id":"92022","group":"Group1","condition":"1_Rep","full_date":"2026-02-01T19:58:47.648Z","date":"2026-02-01","time":"19:58:47","cor_ans":true},{"trial_type":"html-keyboard-response","rt":null,"stimulus":"<p style=\"color: green; font-size: 50px; font-weight: bold;\">Correct</p>","response":null,"trial_index":194,"plugin_version":"2.1.0","time_elapsed":838052,"subject_id":"92022","group":"Group1","condition":"1_Rep","full_date":"2026-02-01T19:58:47.648Z","date":"2026-02-01","time":"19:58:47"},{"correct_response":"a","task":"test_phase","broad_category":"I","image_png":"I_Basalt_08.png","image_id":24,"category_name":"Basalt","category":2,"distinct_rating":2.31,"distinct_type":"Bottom","item_type":"Foil","rt":2897,"stimulus":"Stimuli_Rocks480/I_Basalt_08.png","response":"a","trial_type":"image-keyboard-response","trial_index":195,"plugin_version":"2.1.0","time_elapsed":840951,"subject_id":"92022","group":"Group1","condition":"1_Rep","full_date":"2026-02-01T19:58:47.648Z","date":"2026-02-01","time":"19:58:47","cor_ans":true},{"trial_type":"html-keyboard-response","rt":null,"stimulus":"<p style=\"color: green; font-size: 50px; font-weight: bold;\">Correct</p>","response":null,"trial_index":196,"plugin_version":"2.1.0","time_elapsed":841464,"subject_id":"92022","group":"Group1","condition":"1_Rep","full_date":"2026-02-01T19:58:47.648Z","date":"2026-02-01","time":"19:58:47"},{"correct_response":"l","task":"test_phase","broad_category":"S","image_png":"S_Rock Salt_01.png","image_id":433,"category_name":"Rock Salt","category":28,"distinct_rating":7.18,"distinct_type":"Top","item_type":"Target","rt":1755,"stimulus":"Stimuli_Rocks480/S_Rock Salt_01.png","response":"l","trial_type":"image-keyboard-response","trial_index":197,"plugin_version":"2.1.0","time_elapsed":843220,"subject_id":"92022","group":"Group1","condition":"1_Rep","full_date":"2026-02-01T19:58:47.648Z","date":"2026-02-01","time":"19:58:47","cor_ans":true},{"trial_type":"html-keyboard-response","rt":null,"stimulus":"<p style=\"color: green; font-size: 50px; font-weight: bold;\">Correct</p>","response":null,"trial_index":198,"plugin_version":"2.1.0","time_elapsed":843737,"subject_id":"92022","group":"Group1","condition":"1_Rep","full_date":"2026-02-01T19:58:47.648Z","date":"2026-02-01","time":"19:58:47"},{"correct_response":"a","task":"test_phase","broad_category":"M","image_png":"M_Phyllite_02.png","image_id":258,"category_name":"Phyllite","category":17,"distinct_rating":2.89,"distinct_type":"Bottom","item_type":"Foil","rt":3458,"stimulus":"Stimuli_Rocks480/M_Phyllite_02.png","response":"a","trial_type":"image-keyboard-response","trial_index":199,"plugin_version":"2.1.0","time_elapsed":847196,"subject_id":"92022","group":"Group1","condition":"1_Rep","full_date":"2026-02-01T19:58:47.648Z","date":"2026-02-01","time":"19:58:47","cor_ans":true},{"trial_type":"html-keyboard-response","rt":null,"stimulus":"<p style=\"color: green; font-size: 50px; font-weight: bold;\">Correct</p>","response":null,"trial_index":200,"plugin_version":"2.1.0","time_elapsed":847712,"subject_id":"92022","group":"Group1","condition":"1_Rep","full_date":"2026-02-01T19:58:47.648Z","date":"2026-02-01","time":"19:58:47"},{"correct_response":"l","task":"test_phase","broad_category":"M","image_png":"M_Phyllite_10.png","image_id":266,"category_name":"Phyllite","category":17,"distinct_rating":2.6,"distinct_type":"Bottom","item_type":"Target","rt":2593,"stimulus":"Stimuli_Rocks480/M_Phyllite_10.png","response":"a","trial_type":"image-keyboard-response","trial_index":201,"plugin_version":"2.1.0","time_elapsed":850306,"subject_id":"92022","group":"Group1","condition":"1_Rep","full_date":"2026-02-01T19:58:47.648Z","date":"2026-02-01","time":"19:58:47","cor_ans":false},{"trial_type":"html-keyboard-response","rt":null,"stimulus":"<p style=\"color: red; font-size: 50px; font-weight: bold;\">Incorrect</p>","response":null,"trial_index":202,"plugin_version":"2.1.0","time_elapsed":850815,"subject_id":"92022","group":"Group1","condition":"1_Rep","full_date":"2026-02-01T19:58:47.648Z","date":"2026-02-01","time":"19:58:47"},{"correct_response":"l","task":"test_phase","broad_category":"M","image_png":"M_Gneiss_06.png","image_id":198,"category_name":"Gneiss","category":13,"distinct_rating":2.65,"distinct_type":"Bottom","item_type":"Target","rt":2098,"stimulus":"Stimuli_Rocks480/M_Gneiss_06.png","response":"l","trial_type":"image-keyboard-response","trial_index":203,"plugin_version":"2.1.0","time_elapsed":852915,"subject_id":"92022","group":"Group1","condition":"1_Rep","full_date":"2026-02-01T19:58:47.648Z","date":"2026-02-01","time":"19:58:47","cor_ans":true},{"trial_type":"html-keyboard-response","rt":null,"stimulus":"<p style=\"color: green; font-size: 50px; font-weight: bold;\">Correct</p>","response":null,"trial_index":204,"plugin_version":"2.1.0","time_elapsed":853431,"subject_id":"92022","group":"Group1","condition":"1_Rep","full_date":"2026-02-01T19:58:47.648Z","date":"2026-02-01","time":"19:58:47"},{"correct_response":"l","task":"test_phase","broad_category":"S","image_png":"S_Breccia_11.png","image_id":347,"category_name":"Breccia","category":22,"distinct_rating":6.7,"distinct_type":"Top","item_type":"Target","rt":1754,"stimulus":"Stimuli_Rocks480/S_Breccia_11.png","response":"l","trial_type":"image-keyboard-response","trial_index":205,"plugin_version":"2.1.0","time_elapsed":855186,"subject_id":"92022","group":"Group1","condition":"1_Rep","full_date":"2026-02-01T19:58:47.648Z","date":"2026-02-01","time":"19:58:47","cor_ans":true},{"trial_type":"html-keyboard-response","rt":null,"stimulus":"<p style=\"color: green; font-size: 50px; font-weight: bold;\">Correct</p>","response":null,"trial_index":206,"plugin_version":"2.1.0","time_elapsed":855692,"subject_id":"92022","group":"Group1","condition":"1_Rep","full_date":"2026-02-01T19:58:47.648Z","date":"2026-02-01","time":"19:58:47"},{"correct_response":"l","task":"test_phase","broad_category":"S","image_png":"S_Chert_10.png","image_id":362,"category_name":"Chert","category":23,"distinct_rating":7.17,"distinct_type":"Top","item_type":"Target","rt":2024,"stimulus":"Stimuli_Rocks480/S_Chert_10.png","response":"a","trial_type":"image-keyboard-response","trial_index":207,"plugin_version":"2.1.0","time_elapsed":857717,"subject_id":"92022","group":"Group1","condition":"1_Rep","full_date":"2026-02-01T19:58:47.648Z","date":"2026-02-01","time":"19:58:47","cor_ans":false},{"trial_type":"html-keyboard-response","rt":null,"stimulus":"<p style=\"color: red; font-size: 50px; font-weight: bold;\">Incorrect</p>","response":null,"trial_index":208,"plugin_version":"2.1.0","time_elapsed":858230,"subject_id":"92022","group":"Group1","condition":"1_Rep","full_date":"2026-02-01T19:58:47.648Z","date":"2026-02-01","time":"19:58:47"},{"correct_response":"l","task":"test_phase","broad_category":"I","image_png":"I_Pumice_08.png","image_id":136,"category_name":"Pumice","category":9,"distinct_rating":3.1,"distinct_type":"Bottom","item_type":"Target","rt":2022,"stimulus":"Stimuli_Rocks480/I_Pumice_08.png","response":"l","trial_type":"image-keyboard-response","trial_index":209,"plugin_version":"2.1.0","time_elapsed":860254,"subject_id":"92022","group":"Group1","condition":"1_Rep","full_date":"2026-02-01T19:58:47.648Z","date":"2026-02-01","time":"19:58:47","cor_ans":true},{"trial_type":"html-keyboard-response","rt":null,"stimulus":"<p style=\"color: green; font-size: 50px; font-weight: bold;\">Correct</p>","response":null,"trial_index":210,"plugin_version":"2.1.0","time_elapsed":860768,"subject_id":"92022","group":"Group1","condition":"1_Rep","full_date":"2026-02-01T19:58:47.648Z","date":"2026-02-01","time":"19:58:47"},{"correct_response":"l","task":"test_phase","broad_category":"I","image_png":"I_Obsidian_05.png","image_id":85,"category_name":"Obsidian","category":6,"distinct_rating":7.32,"distinct_type":"Top","item_type":"Target","rt":1267,"stimulus":"Stimuli_Rocks480/I_Obsidian_05.png","response":"l","trial_type":"image-keyboard-response","trial_index":211,"plugin_version":"2.1.0","time_elapsed":862036,"subject_id":"92022","group":"Group1","condition":"1_Rep","full_date":"2026-02-01T19:58:47.648Z","date":"2026-02-01","time":"19:58:47","cor_ans":true},{"trial_type":"html-keyboard-response","rt":null,"stimulus":"<p style=\"color: green; font-size: 50px; font-weight: bold;\">Correct</p>","response":null,"trial_index":212,"plugin_version":"2.1.0","time_elapsed":862541,"subject_id":"92022","group":"Group1","condition":"1_Rep","full_date":"2026-02-01T19:58:47.648Z","date":"2026-02-01","time":"19:58:47"},{"correct_response":"a","task":"test_phase","broad_category":"M","image_png":"M_Gneiss_15.png","image_id":207,"category_name":"Gneiss","category":13,"distinct_rating":3.11,"distinct_type":"Bottom","item_type":"Foil","rt":3604,"stimulus":"Stimuli_Rocks480/M_Gneiss_15.png","response":"a","trial_type":"image-keyboard-response","trial_index":213,"plugin_version":"2.1.0","time_elapsed":866146,"subject_id":"92022","group":"Group1","condition":"1_Rep","full_date":"2026-02-01T19:58:47.648Z","date":"2026-02-01","time":"19:58:47","cor_ans":true},{"trial_type":"html-keyboard-response","rt":null,"stimulus":"<p style=\"color: green; font-size: 50px; font-weight: bold;\">Correct</p>","response":null,"trial_index":214,"plugin_version":"2.1.0","time_elapsed":866652,"subject_id":"92022","group":"Group1","condition":"1_Rep","full_date":"2026-02-01T19:58:47.648Z","date":"2026-02-01","time":"19:58:47"},{"correct_response":"l","task":"test_phase","broad_category":"I","image_png":"I_Gabbro_11.png","image_id":59,"category_name":"Gabbro","category":4,"distinct_rating":1.99,"distinct_type":"Bottom","item_type":"Target","rt":2907,"stimulus":"Stimuli_Rocks480/I_Gabbro_11.png","response":"l","trial_type":"image-keyboard-response","trial_index":215,"plugin_version":"2.1.0","time_elapsed":869560,"subject_id":"92022","group":"Group1","condition":"1_Rep","full_date":"2026-02-01T19:58:47.648Z","date":"2026-02-01","time":"19:58:47","cor_ans":true},{"trial_type":"html-keyboard-response","rt":null,"stimulus":"<p style=\"color: green; font-size: 50px; font-weight: bold;\">Correct</p>","response":null,"trial_index":216,"plugin_version":"2.1.0","time_elapsed":870062,"subject_id":"92022","group":"Group1","condition":"1_Rep","full_date":"2026-02-01T19:58:47.648Z","date":"2026-02-01","time":"19:58:47"},{"correct_response":"a","task":"test_phase","broad_category":"I","image_png":"I_Andesite_03.png","image_id":3,"category_name":"Andesite","category":1,"distinct_rating":3.17,"distinct_type":"Bottom","item_type":"Foil","rt":3575,"stimulus":"Stimuli_Rocks480/I_Andesite_03.png","response":"a","trial_type":"image-keyboard-response","trial_index":217,"plugin_version":"2.1.0","time_elapsed":873638,"subject_id":"92022","group":"Group1","condition":"1_Rep","full_date":"2026-02-01T19:58:47.648Z","date":"2026-02-01","time":"19:58:47","cor_ans":true},{"trial_type":"html-keyboard-response","rt":null,"stimulus":"<p style=\"color: green; font-size: 50px; font-weight: bold;\">Correct</p>","response":null,"trial_index":218,"plugin_version":"2.1.0","time_elapsed":874141,"subject_id":"92022","group":"Group1","condition":"1_Rep","full_date":"2026-02-01T19:58:47.648Z","date":"2026-02-01","time":"19:58:47"},{"correct_response":"l","task":"test_phase","broad_category":"M","image_png":"M_Gneiss_05.png","image_id":197,"category_name":"Gneiss","category":13,"distinct_rating":2.97,"distinct_type":"Bottom","item_type":"Target","rt":4220,"stimulus":"Stimuli_Rocks480/M_Gneiss_05.png","response":"l","trial_type":"image-keyboard-response","trial_index":219,"plugin_version":"2.1.0","time_elapsed":878368,"subject_id":"92022","group":"Group1","condition":"1_Rep","full_date":"2026-02-01T19:58:47.648Z","date":"2026-02-01","time":"19:58:47","cor_ans":true},{"trial_type":"html-keyboard-response","rt":null,"stimulus":"<p style=\"color: green; font-size: 50px; font-weight: bold;\">Correct</p>","response":null,"trial_index":220,"plugin_version":"2.1.0","time_elapsed":878871,"subject_id":"92022","group":"Group1","condition":"1_Rep","full_date":"2026-02-01T19:58:47.648Z","date":"2026-02-01","time":"19:58:47"},{"correct_response":"a","task":"test_phase","broad_category":"S","image_png":"S_Shale_07.png","image_id":471,"category_name":"Shale","category":30,"distinct_rating":2.73,"distinct_type":"Bottom","item_type":"Foil","rt":3411,"stimulus":"Stimuli_Rocks480/S_Shale_07.png","response":"a","trial_type":"image-keyboard-response","trial_index":221,"plugin_version":"2.1.0","time_elapsed":882284,"subject_id":"92022","group":"Group1","condition":"1_Rep","full_date":"2026-02-01T19:58:47.648Z","date":"2026-02-01","time":"19:58:47","cor_ans":true},{"trial_type":"html-keyboard-response","rt":null,"stimulus":"<p style=\"color: green; font-size: 50px; font-weight: bold;\">Correct</p>","response":null,"trial_index":222,"plugin_version":"2.1.0","time_elapsed":882789,"subject_id":"92022","group":"Group1","condition":"1_Rep","full_date":"2026-02-01T19:58:47.648Z","date":"2026-02-01","time":"19:58:47"},{"correct_response":"a","task":"test_phase","broad_category":"S","image_png":"S_Rock Salt_15.png","image_id":447,"category_name":"Rock Salt","category":28,"distinct_rating":7.79,"distinct_type":"Top","item_type":"Foil","rt":1766,"stimulus":"Stimuli_Rocks480/S_Rock Salt_15.png","response":"a","trial_type":"image-keyboard-response","trial_index":223,"plugin_version":"2.1.0","time_elapsed":884556,"subject_id":"92022","group":"Group1","condition":"1_Rep","full_date":"2026-02-01T19:58:47.648Z","date":"2026-02-01","time":"19:58:47","cor_ans":true},{"trial_type":"html-keyboard-response","rt":null,"stimulus":"<p style=\"color: green; font-size: 50px; font-weight: bold;\">Correct</p>","response":null,"trial_index":224,"plugin_version":"2.1.0","time_elapsed":885067,"subject_id":"92022","group":"Group1","condition":"1_Rep","full_date":"2026-02-01T19:58:47.648Z","date":"2026-02-01","time":"19:58:47"},{"correct_response":"l","task":"test_phase","broad_category":"S","im