[{"width":1274,"height":744,"webaudio":true,"browser":"safari","browser_version":"26.1.0","mobile":false,"os":"Mac OS","fullscreen":true,"vsync_rate":59.88,"webcam":true,"microphone":true,"trial_type":"browser-check","trial_index":0,"plugin_version":"2.1.0","time_elapsed":1020,"subject_id":"91813","group":"Group2","condition":"3_Rep","full_date":"2026-03-08T20:49:20.275Z","date":"2026-03-08","time":"20:49:20"},{"success":true,"timeout":false,"failed_images":[],"failed_audio":[],"failed_video":[],"trial_type":"preload","trial_index":1,"plugin_version":"2.1.0","time_elapsed":2256,"subject_id":"91813","group":"Group2","condition":"3_Rep","full_date":"2026-03-08T20:49:20.275Z","date":"2026-03-08","time":"20:49:20"},{"rt":4198,"url":"SONA_consent_memorability.html","trial_type":"external-html","trial_index":2,"plugin_version":"2.1.0","time_elapsed":6605,"subject_id":"91813","group":"Group2","condition":"3_Rep","full_date":"2026-03-08T20:49:20.275Z","date":"2026-03-08","time":"20:49:20"},{"success":true,"rt":1233,"trial_type":"fullscreen","trial_index":3,"plugin_version":"2.1.0","time_elapsed":8842,"subject_id":"91813","group":"Group2","condition":"3_Rep","full_date":"2026-03-08T20:49:20.275Z","date":"2026-03-08","time":"20:49:20"},{"rt":1311,"stimulus":"<div style=\"max-width: 760px; margin: auto; font-size: 20px; line-height: 1.5;\">\n      <h1 style=\"text-align:center; font-size: 30px;\">Instructions</h1>\n      <p>\n        Welcome to the study on <b>visual memory</b>. This experiment consists of <b>two phases</b>: \n        a <b>study phase</b> and a <b>test phase</b>.\n      </p>\n      <p>\n        In the study phase, you will see a series of rock images along with their category labels.\n        The images will appear one at a time.\n        <b>Your task</b> is to learn the categories to which the rock images belong \n        and to remember each image as accurately as possible.\n      </p> \n      <p>\n        Note that we will repeat the study phase <b>3 times</b>, \n             so you will have multiple opportunities to see and remember each image.\n      </p>\n      <p>\n        After the study phase, <b>your memory will be tested</b>. \n        Additional instructions for the test phase will be provided at that time.\n      </p>\n      <p>\n        If your computer has multiple <b>language settings</b> (e.g., English and another language),\n        please make sure it is set to English before starting.\n      </p>\n      <p>\n        You can track your progress using the <b>completion bar</b> at the top of the screen. \n        Please note that the bar will refresh when the test phase begins \n        to give you an accurate sense of your progress in both phases.\n      </p> \n      <p>\n        Press the button below when you are ready to begin.\n      </p>\n    </div>","response":0,"trial_type":"html-button-response","trial_index":4,"plugin_version":"2.1.0","time_elapsed":10154,"subject_id":"91813","group":"Group2","condition":"3_Rep","full_date":"2026-03-08T20:49:20.275Z","date":"2026-03-08","time":"20:49:20"},{"rt":null,"stimulus":"<p style=\"font-size: 50px; margin: 0; text-align: center;\">+</p>","response":null,"trial_type":"html-keyboard-response","trial_index":5,"plugin_version":"2.1.0","time_elapsed":11158,"subject_id":"91813","group":"Group2","condition":"3_Rep","full_date":"2026-03-08T20:49:20.275Z","date":"2026-03-08","time":"20:49:20"},{"task":"memory_phase","broad_category":"I","image_png":"I_Gabbro_14.png","image_id":62,"category_name":"Gabbro","category":4,"distinct_rating":2.95,"distinct_type":"Bottom","rt":null,"stimulus":"Stimuli_Rocks480/I_Gabbro_14.png","response":null,"trial_type":"image-keyboard-response","trial_index":6,"plugin_version":"2.1.0","time_elapsed":13686,"subject_id":"91813","group":"Group2","condition":"3_Rep","full_date":"2026-03-08T20:49:20.275Z","date":"2026-03-08","time":"20:49:20"},{"rt":null,"stimulus":"<p style=\"font-size: 50px; margin: 0; text-align: center;\">+</p>","response":null,"trial_type":"html-keyboard-response","trial_index":7,"plugin_version":"2.1.0","time_elapsed":14687,"subject_id":"91813","group":"Group2","condition":"3_Rep","full_date":"2026-03-08T20:49:20.275Z","date":"2026-03-08","time":"20:49:20"},{"task":"memory_phase","broad_category":"M","image_png":"M_Quartzite_07.png","image_id":279,"category_name":"Quartzite","category":18,"distinct_rating":1.97,"distinct_type":"Bottom","rt":null,"stimulus":"Stimuli_Rocks480/M_Quartzite_07.png","response":null,"trial_type":"image-keyboard-response","trial_index":8,"plugin_version":"2.1.0","time_elapsed":17210,"subject_id":"91813","group":"Group2","condition":"3_Rep","full_date":"2026-03-08T20:49:20.275Z","date":"2026-03-08","time":"20:49:20"},{"rt":null,"stimulus":"<p style=\"font-size: 50px; margin: 0; text-align: center;\">+</p>","response":null,"trial_type":"html-keyboard-response","trial_index":9,"plugin_version":"2.1.0","time_elapsed":18213,"subject_id":"91813","group":"Group2","condition":"3_Rep","full_date":"2026-03-08T20:49:20.275Z","date":"2026-03-08","time":"20:49:20"},{"task":"memory_phase","broad_category":"I","image_png":"I_Andesite_04.png","image_id":4,"category_name":"Andesite","category":1,"distinct_rating":3.18,"distinct_type":"Bottom","rt":null,"stimulus":"Stimuli_Rocks480/I_Andesite_04.png","response":null,"trial_type":"image-keyboard-response","trial_index":10,"plugin_version":"2.1.0","time_elapsed":20731,"subject_id":"91813","group":"Group2","condition":"3_Rep","full_date":"2026-03-08T20:49:20.275Z","date":"2026-03-08","time":"20:49:20"},{"rt":null,"stimulus":"<p style=\"font-size: 50px; margin: 0; text-align: center;\">+</p>","response":null,"trial_type":"html-keyboard-response","trial_index":11,"plugin_version":"2.1.0","time_elapsed":21734,"subject_id":"91813","group":"Group2","condition":"3_Rep","full_date":"2026-03-08T20:49:20.275Z","date":"2026-03-08","time":"20:49:20"},{"task":"memory_phase","broad_category":"M","image_png":"M_Phyllite_13.png","image_id":269,"category_name":"Phyllite","category":17,"distinct_rating":2.8,"distinct_type":"Bottom","rt":null,"stimulus":"Stimuli_Rocks480/M_Phyllite_13.png","response":null,"trial_type":"image-keyboard-response","trial_index":12,"plugin_version":"2.1.0","time_elapsed":24252,"subject_id":"91813","group":"Group2","condition":"3_Rep","full_date":"2026-03-08T20:49:20.275Z","date":"2026-03-08","time":"20:49:20"},{"rt":null,"stimulus":"<p style=\"font-size: 50px; margin: 0; text-align: center;\">+</p>","response":null,"trial_type":"html-keyboard-response","trial_index":13,"plugin_version":"2.1.0","time_elapsed":25255,"subject_id":"91813","group":"Group2","condition":"3_Rep","full_date":"2026-03-08T20:49:20.275Z","date":"2026-03-08","time":"20:49:20"},{"task":"memory_phase","broad_category":"M","image_png":"M_Phyllite_02.png","image_id":258,"category_name":"Phyllite","category":17,"distinct_rating":2.89,"distinct_type":"Bottom","rt":null,"stimulus":"Stimuli_Rocks480/M_Phyllite_02.png","response":null,"trial_type":"image-keyboard-response","trial_index":14,"plugin_version":"2.1.0","time_elapsed":27778,"subject_id":"91813","group":"Group2","condition":"3_Rep","full_date":"2026-03-08T20:49:20.275Z","date":"2026-03-08","time":"20:49:20"},{"rt":null,"stimulus":"<p style=\"font-size: 50px; margin: 0; text-align: center;\">+</p>","response":null,"trial_type":"html-keyboard-response","trial_index":15,"plugin_version":"2.1.0","time_elapsed":28781,"subject_id":"91813","group":"Group2","condition":"3_Rep","full_date":"2026-03-08T20:49:20.275Z","date":"2026-03-08","time":"20:49:20"},{"task":"memory_phase","broad_category":"M","image_png":"M_Marble_02.png","image_id":226,"category_name":"Marble","category":15,"distinct_rating":3.2,"distinct_type":"Bottom","rt":null,"stimulus":"Stimuli_Rocks480/M_Marble_02.png","response":null,"trial_type":"image-keyboard-response","trial_index":16,"plugin_version":"2.1.0","time_elapsed":31295,"subject_id":"91813","group":"Group2","condition":"3_Rep","full_date":"2026-03-08T20:49:20.275Z","date":"2026-03-08","time":"20:49:20"},{"rt":null,"stimulus":"<p style=\"font-size: 50px; margin: 0; text-align: center;\">+</p>","response":null,"trial_type":"html-keyboard-response","trial_index":17,"plugin_version":"2.1.0","time_elapsed":32298,"subject_id":"91813","group":"Group2","condition":"3_Rep","full_date":"2026-03-08T20:49:20.275Z","date":"2026-03-08","time":"20:49:20"},{"task":"memory_phase","broad_category":"I","image_png":"I_Pumice_13.png","image_id":141,"category_name":"Pumice","category":9,"distinct_rating":3.12,"distinct_type":"Bottom","rt":null,"stimulus":"Stimuli_Rocks480/I_Pumice_13.png","response":null,"trial_type":"image-keyboard-response","trial_index":18,"plugin_version":"2.1.0","time_elapsed":34820,"subject_id":"91813","group":"Group2","condition":"3_Rep","full_date":"2026-03-08T20:49:20.275Z","date":"2026-03-08","time":"20:49:20"},{"rt":null,"stimulus":"<p style=\"font-size: 50px; margin: 0; text-align: center;\">+</p>","response":null,"trial_type":"html-keyboard-response","trial_index":19,"plugin_version":"2.1.0","time_elapsed":35824,"subject_id":"91813","group":"Group2","condition":"3_Rep","full_date":"2026-03-08T20:49:20.275Z","date":"2026-03-08","time":"20:49:20"},{"task":"memory_phase","broad_category":"M","image_png":"M_Gneiss_14.png","image_id":206,"category_name":"Gneiss","category":13,"distinct_rating":3.41,"distinct_type":"Bottom","rt":null,"stimulus":"Stimuli_Rocks480/M_Gneiss_14.png","response":null,"trial_type":"image-keyboard-response","trial_index":20,"plugin_version":"2.1.0","time_elapsed":38343,"subject_id":"91813","group":"Group2","condition":"3_Rep","full_date":"2026-03-08T20:49:20.275Z","date":"2026-03-08","time":"20:49:20"},{"rt":null,"stimulus":"<p style=\"font-size: 50px; margin: 0; text-align: center;\">+</p>","response":null,"trial_type":"html-keyboard-response","trial_index":21,"plugin_version":"2.1.0","time_elapsed":39346,"subject_id":"91813","group":"Group2","condition":"3_Rep","full_date":"2026-03-08T20:49:20.275Z","date":"2026-03-08","time":"20:49:20"},{"task":"memory_phase","broad_category":"M","image_png":"M_Gneiss_10.png","image_id":202,"category_name":"Gneiss","category":13,"distinct_rating":3.09,"distinct_type":"Bottom","rt":null,"stimulus":"Stimuli_Rocks480/M_Gneiss_10.png","response":null,"trial_type":"image-keyboard-response","trial_index":22,"plugin_version":"2.1.0","time_elapsed":41870,"subject_id":"91813","group":"Group2","condition":"3_Rep","full_date":"2026-03-08T20:49:20.275Z","date":"2026-03-08","time":"20:49:20"},{"rt":null,"stimulus":"<p style=\"font-size: 50px; margin: 0; text-align: center;\">+</p>","response":null,"trial_type":"html-keyboard-response","trial_index":23,"plugin_version":"2.1.0","time_elapsed":42872,"subject_id":"91813","group":"Group2","condition":"3_Rep","full_date":"2026-03-08T20:49:20.275Z","date":"2026-03-08","time":"20:49:20"},{"task":"memory_phase","broad_category":"M","image_png":"M_Marble_14.png","image_id":238,"category_name":"Marble","category":15,"distinct_rating":3.31,"distinct_type":"Bottom","rt":null,"stimulus":"Stimuli_Rocks480/M_Marble_14.png","response":null,"trial_type":"image-keyboard-response","trial_index":24,"plugin_version":"2.1.0","time_elapsed":45390,"subject_id":"91813","group":"Group2","condition":"3_Rep","full_date":"2026-03-08T20:49:20.275Z","date":"2026-03-08","time":"20:49:20"},{"rt":null,"stimulus":"<p style=\"font-size: 50px; margin: 0; text-align: center;\">+</p>","response":null,"trial_type":"html-keyboard-response","trial_index":25,"plugin_version":"2.1.0","time_elapsed":46393,"subject_id":"91813","group":"Group2","condition":"3_Rep","full_date":"2026-03-08T20:49:20.275Z","date":"2026-03-08","time":"20:49:20"},{"task":"memory_phase","broad_category":"I","image_png":"I_Basalt_10.png","image_id":26,"category_name":"Basalt","category":2,"distinct_rating":2.76,"distinct_type":"Bottom","rt":null,"stimulus":"Stimuli_Rocks480/I_Basalt_10.png","response":null,"trial_type":"image-keyboard-response","trial_index":26,"plugin_version":"2.1.0","time_elapsed":48912,"subject_id":"91813","group":"Group2","condition":"3_Rep","full_date":"2026-03-08T20:49:20.275Z","date":"2026-03-08","time":"20:49:20"},{"rt":null,"stimulus":"<p style=\"font-size: 50px; margin: 0; text-align: center;\">+</p>","response":null,"trial_type":"html-keyboard-response","trial_index":27,"plugin_version":"2.1.0","time_elapsed":49915,"subject_id":"91813","group":"Group2","condition":"3_Rep","full_date":"2026-03-08T20:49:20.275Z","date":"2026-03-08","time":"20:49:20"},{"task":"memory_phase","broad_category":"M","image_png":"M_Quartzite_15.png","image_id":287,"category_name":"Quartzite","category":18,"distinct_rating":2.19,"distinct_type":"Bottom","rt":null,"stimulus":"Stimuli_Rocks480/M_Quartzite_15.png","response":null,"trial_type":"image-keyboard-response","trial_index":28,"plugin_version":"2.1.0","time_elapsed":52438,"subject_id":"91813","group":"Group2","condition":"3_Rep","full_date":"2026-03-08T20:49:20.275Z","date":"2026-03-08","time":"20:49:20"},{"rt":null,"stimulus":"<p style=\"font-size: 50px; margin: 0; text-align: center;\">+</p>","response":null,"trial_type":"html-keyboard-response","trial_index":29,"plugin_version":"2.1.0","time_elapsed":53440,"subject_id":"91813","group":"Group2","condition":"3_Rep","full_date":"2026-03-08T20:49:20.275Z","date":"2026-03-08","time":"20:49:20"},{"task":"memory_phase","broad_category":"M","image_png":"M_Quartzite_12.png","image_id":284,"category_name":"Quartzite","category":18,"distinct_rating":1.92,"distinct_type":"Bottom","rt":null,"stimulus":"Stimuli_Rocks480/M_Quartzite_12.png","response":null,"trial_type":"image-keyboard-response","trial_index":30,"plugin_version":"2.1.0","time_elapsed":55958,"subject_id":"91813","group":"Group2","condition":"3_Rep","full_date":"2026-03-08T20:49:20.275Z","date":"2026-03-08","time":"20:49:20"},{"rt":null,"stimulus":"<p style=\"font-size: 50px; margin: 0; text-align: center;\">+</p>","response":null,"trial_type":"html-keyboard-response","trial_index":31,"plugin_version":"2.1.0","time_elapsed":56961,"subject_id":"91813","group":"Group2","condition":"3_Rep","full_date":"2026-03-08T20:49:20.275Z","date":"2026-03-08","time":"20:49:20"},{"task":"memory_phase","broad_category":"M","image_png":"M_Gneiss_15.png","image_id":207,"category_name":"Gneiss","category":13,"distinct_rating":3.11,"distinct_type":"Bottom","rt":null,"stimulus":"Stimuli_Rocks480/M_Gneiss_15.png","response":null,"trial_type":"image-keyboard-response","trial_index":32,"plugin_version":"2.1.0","time_elapsed":59475,"subject_id":"91813","group":"Group2","condition":"3_Rep","full_date":"2026-03-08T20:49:20.275Z","date":"2026-03-08","time":"20:49:20"},{"rt":null,"stimulus":"<p style=\"font-size: 50px; margin: 0; text-align: center;\">+</p>","response":null,"trial_type":"html-keyboard-response","trial_index":33,"plugin_version":"2.1.0","time_elapsed":60479,"subject_id":"91813","group":"Group2","condition":"3_Rep","full_date":"2026-03-08T20:49:20.275Z","date":"2026-03-08","time":"20:49:20"},{"task":"memory_phase","broad_category":"S","image_png":"S_Rock Salt_13.png","image_id":445,"category_name":"Rock Salt","category":28,"distinct_rating":7.58,"distinct_type":"Top","rt":null,"stimulus":"Stimuli_Rocks480/S_Rock Salt_13.png","response":null,"trial_type":"image-keyboard-response","trial_index":34,"plugin_version":"2.1.0","time_elapsed":63002,"subject_id":"91813","group":"Group2","condition":"3_Rep","full_date":"2026-03-08T20:49:20.275Z","date":"2026-03-08","time":"20:49:20"},{"rt":null,"stimulus":"<p style=\"font-size: 50px; margin: 0; text-align: center;\">+</p>","response":null,"trial_type":"html-keyboard-response","trial_index":35,"plugin_version":"2.1.0","time_elapsed":64006,"subject_id":"91813","group":"Group2","condition":"3_Rep","full_date":"2026-03-08T20:49:20.275Z","date":"2026-03-08","time":"20:49:20"},{"task":"memory_phase","broad_category":"I","image_png":"I_Rhyolite_10.png","image_id":154,"category_name":"Rhyolite","category":10,"distinct_rating":2.88,"distinct_type":"Bottom","rt":null,"stimulus":"Stimuli_Rocks480/I_Rhyolite_10.png","response":null,"trial_type":"image-keyboard-response","trial_index":36,"plugin_version":"2.1.0","time_elapsed":66529,"subject_id":"91813","group":"Group2","condition":"3_Rep","full_date":"2026-03-08T20:49:20.275Z","date":"2026-03-08","time":"20:49:20"},{"rt":null,"stimulus":"<p style=\"font-size: 50px; margin: 0; text-align: center;\">+</p>","response":null,"trial_type":"html-keyboard-response","trial_index":37,"plugin_version":"2.1.0","time_elapsed":67532,"subject_id":"91813","group":"Group2","condition":"3_Rep","full_date":"2026-03-08T20:49:20.275Z","date":"2026-03-08","time":"20:49:20"},{"task":"memory_phase","broad_category":"I","image_png":"I_Gabbro_12.png","image_id":60,"category_name":"Gabbro","category":4,"distinct_rating":2.6,"distinct_type":"Bottom","rt":null,"stimulus":"Stimuli_Rocks480/I_Gabbro_12.png","response":null,"trial_type":"image-keyboard-response","trial_index":38,"plugin_version":"2.1.0","time_elapsed":70057,"subject_id":"91813","group":"Group2","condition":"3_Rep","full_date":"2026-03-08T20:49:20.275Z","date":"2026-03-08","time":"20:49:20"},{"rt":null,"stimulus":"<p style=\"font-size: 50px; margin: 0; text-align: center;\">+</p>","response":null,"trial_type":"html-keyboard-response","trial_index":39,"plugin_version":"2.1.0","time_elapsed":71063,"subject_id":"91813","group":"Group2","condition":"3_Rep","full_date":"2026-03-08T20:49:20.275Z","date":"2026-03-08","time":"20:49:20"},{"task":"memory_phase","broad_category":"S","image_png":"S_Dolomite_07.png","image_id":391,"category_name":"Dolomite","category":25,"distinct_rating":1.73,"distinct_type":"Bottom","rt":null,"stimulus":"Stimuli_Rocks480/S_Dolomite_07.png","response":null,"trial_type":"image-keyboard-response","trial_index":40,"plugin_version":"2.1.0","time_elapsed":73585,"subject_id":"91813","group":"Group2","condition":"3_Rep","full_date":"2026-03-08T20:49:20.275Z","date":"2026-03-08","time":"20:49:20"},{"rt":null,"stimulus":"<p style=\"font-size: 50px; margin: 0; text-align: center;\">+</p>","response":null,"trial_type":"html-keyboard-response","trial_index":41,"plugin_version":"2.1.0","time_elapsed":74588,"subject_id":"91813","group":"Group2","condition":"3_Rep","full_date":"2026-03-08T20:49:20.275Z","date":"2026-03-08","time":"20:49:20"},{"task":"memory_phase","broad_category":"I","image_png":"I_Andesite_03.png","image_id":3,"category_name":"Andesite","category":1,"distinct_rating":3.17,"distinct_type":"Bottom","rt":null,"stimulus":"Stimuli_Rocks480/I_Andesite_03.png","response":null,"trial_type":"image-keyboard-response","trial_index":42,"plugin_version":"2.1.0","time_elapsed":77102,"subject_id":"91813","group":"Group2","condition":"3_Rep","full_date":"2026-03-08T20:49:20.275Z","date":"2026-03-08","time":"20:49:20"},{"rt":null,"stimulus":"<p style=\"font-size: 50px; margin: 0; text-align: center;\">+</p>","response":null,"trial_type":"html-keyboard-response","trial_index":43,"plugin_version":"2.1.0","time_elapsed":78105,"subject_id":"91813","group":"Group2","condition":"3_Rep","full_date":"2026-03-08T20:49:20.275Z","date":"2026-03-08","time":"20:49:20"},{"task":"memory_phase","broad_category":"S","image_png":"S_Sandstone_04.png","image_id":452,"category_name":"Sandstone","category":29,"distinct_rating":1.8,"distinct_type":"Bottom","rt":null,"stimulus":"Stimuli_Rocks480/S_Sandstone_04.png","response":null,"trial_type":"image-keyboard-response","trial_index":44,"plugin_version":"2.1.0","time_elapsed":80623,"subject_id":"91813","group":"Group2","condition":"3_Rep","full_date":"2026-03-08T20:49:20.275Z","date":"2026-03-08","time":"20:49:20"},{"rt":null,"stimulus":"<p style=\"font-size: 50px; margin: 0; text-align: center;\">+</p>","response":null,"trial_type":"html-keyboard-response","trial_index":45,"plugin_version":"2.1.0","time_elapsed":81626,"subject_id":"91813","group":"Group2","condition":"3_Rep","full_date":"2026-03-08T20:49:20.275Z","date":"2026-03-08","time":"20:49:20"},{"task":"memory_phase","broad_category":"M","image_png":"M_Slate_04.png","image_id":308,"category_name":"Slate","category":20,"distinct_rating":2.2,"distinct_type":"Bottom","rt":null,"stimulus":"Stimuli_Rocks480/M_Slate_04.png","response":null,"trial_type":"image-keyboard-response","trial_index":46,"plugin_version":"2.1.0","time_elapsed":84141,"subject_id":"91813","group":"Group2","condition":"3_Rep","full_date":"2026-03-08T20:49:20.275Z","date":"2026-03-08","time":"20:49:20"},{"rt":null,"stimulus":"<p style=\"font-size: 50px; margin: 0; text-align: center;\">+</p>","response":null,"trial_type":"html-keyboard-response","trial_index":47,"plugin_version":"2.1.0","time_elapsed":85143,"subject_id":"91813","group":"Group2","condition":"3_Rep","full_date":"2026-03-08T20:49:20.275Z","date":"2026-03-08","time":"20:49:20"},{"task":"memory_phase","broad_category":"S","image_png":"S_Shale_07.png","image_id":471,"category_name":"Shale","category":30,"distinct_rating":2.73,"distinct_type":"Bottom","rt":null,"stimulus":"Stimuli_Rocks480/S_Shale_07.png","response":null,"trial_type":"image-keyboard-response","trial_index":48,"plugin_version":"2.1.0","time_elapsed":87661,"subject_id":"91813","group":"Group2","condition":"3_Rep","full_date":"2026-03-08T20:49:20.275Z","date":"2026-03-08","time":"20:49:20"},{"rt":null,"stimulus":"<p style=\"font-size: 50px; margin: 0; text-align: center;\">+</p>","response":null,"trial_type":"html-keyboard-response","trial_index":49,"plugin_version":"2.1.0","time_elapsed":88664,"subject_id":"91813","group":"Group2","condition":"3_Rep","full_date":"2026-03-08T20:49:20.275Z","date":"2026-03-08","time":"20:49:20"},{"task":"memory_phase","broad_category":"S","image_png":"S_Sandstone_11.png","image_id":459,"category_name":"Sandstone","category":29,"distinct_rating":1.82,"distinct_type":"Bottom","rt":null,"stimulus":"Stimuli_Rocks480/S_Sandstone_11.png","response":null,"trial_type":"image-keyboard-response","trial_index":50,"plugin_version":"2.1.0","time_elapsed":91191,"subject_id":"91813","group":"Group2","condition":"3_Rep","full_date":"2026-03-08T20:49:20.275Z","date":"2026-03-08","time":"20:49:20"},{"rt":null,"stimulus":"<p style=\"font-size: 50px; margin: 0; text-align: center;\">+</p>","response":null,"trial_type":"html-keyboard-response","trial_index":51,"plugin_version":"2.1.0","time_elapsed":92194,"subject_id":"91813","group":"Group2","condition":"3_Rep","full_date":"2026-03-08T20:49:20.275Z","date":"2026-03-08","time":"20:49:20"},{"task":"memory_phase","broad_category":"I","image_png":"I_Diorite_01.png","image_id":33,"category_name":"Diorite","category":3,"distinct_rating":2.97,"distinct_type":"Bottom","rt":null,"stimulus":"Stimuli_Rocks480/I_Diorite_01.png","response":null,"trial_type":"image-keyboard-response","trial_index":52,"plugin_version":"2.1.0","time_elapsed":94721,"subject_id":"91813","group":"Group2","condition":"3_Rep","full_date":"2026-03-08T20:49:20.275Z","date":"2026-03-08","time":"20:49:20"},{"rt":null,"stimulus":"<p style=\"font-size: 50px; margin: 0; text-align: center;\">+</p>","response":null,"trial_type":"html-keyboard-response","trial_index":53,"plugin_version":"2.1.0","time_elapsed":95723,"subject_id":"91813","group":"Group2","condition":"3_Rep","full_date":"2026-03-08T20:49:20.275Z","date":"2026-03-08","time":"20:49:20"},{"task":"memory_phase","broad_category":"M","image_png":"M_Phyllite_05.png","image_id":261,"category_name":"Phyllite","category":17,"distinct_rating":2.14,"distinct_type":"Bottom","rt":null,"stimulus":"Stimuli_Rocks480/M_Phyllite_05.png","response":null,"trial_type":"image-keyboard-response","trial_index":54,"plugin_version":"2.1.0","time_elapsed":98239,"subject_id":"91813","group":"Group2","condition":"3_Rep","full_date":"2026-03-08T20:49:20.275Z","date":"2026-03-08","time":"20:49:20"},{"rt":1404,"stimulus":"<p style=\"max-width: 760px; margin: auto; font-size: 35px; line-height: 1.5;\">\n                Press SPACE to continue study phase\n              </p>","response":" ","trial_type":"html-keyboard-response","trial_index":55,"plugin_version":"2.1.0","time_elapsed":99648,"subject_id":"91813","group":"Group2","condition":"3_Rep","full_date":"2026-03-08T20:49:20.275Z","date":"2026-03-08","time":"20:49:20"},{"rt":null,"stimulus":"<p style=\"font-size: 50px; margin: 0; text-align: center;\">+</p>","response":null,"trial_type":"html-keyboard-response","trial_index":56,"plugin_version":"2.1.0","time_elapsed":100652,"subject_id":"91813","group":"Group2","condition":"3_Rep","full_date":"2026-03-08T20:49:20.275Z","date":"2026-03-08","time":"20:49:20"},{"task":"memory_phase","broad_category":"S","image_png":"S_Dolomite_16.png","image_id":400,"category_name":"Dolomite","category":25,"distinct_rating":1.71,"distinct_type":"Bottom","rt":null,"stimulus":"Stimuli_Rocks480/S_Dolomite_16.png","response":null,"trial_type":"image-keyboard-response","trial_index":57,"plugin_version":"2.1.0","time_elapsed":103168,"subject_id":"91813","group":"Group2","condition":"3_Rep","full_date":"2026-03-08T20:49:20.275Z","date":"2026-03-08","time":"20:49:20"},{"rt":null,"stimulus":"<p style=\"font-size: 50px; margin: 0; text-align: center;\">+</p>","response":null,"trial_type":"html-keyboard-response","trial_index":58,"plugin_version":"2.1.0","time_elapsed":104170,"subject_id":"91813","group":"Group2","condition":"3_Rep","full_date":"2026-03-08T20:49:20.275Z","date":"2026-03-08","time":"20:49:20"},{"task":"memory_phase","broad_category":"I","image_png":"I_Pumice_14.png","image_id":142,"category_name":"Pumice","category":9,"distinct_rating":3.22,"distinct_type":"Bottom","rt":null,"stimulus":"Stimuli_Rocks480/I_Pumice_14.png","response":null,"trial_type":"image-keyboard-response","trial_index":59,"plugin_version":"2.1.0","time_elapsed":106689,"subject_id":"91813","group":"Group2","condition":"3_Rep","full_date":"2026-03-08T20:49:20.275Z","date":"2026-03-08","time":"20:49:20"},{"rt":null,"stimulus":"<p style=\"font-size: 50px; margin: 0; text-align: center;\">+</p>","response":null,"trial_type":"html-keyboard-response","trial_index":60,"plugin_version":"2.1.0","time_elapsed":107692,"subject_id":"91813","group":"Group2","condition":"3_Rep","full_date":"2026-03-08T20:49:20.275Z","date":"2026-03-08","time":"20:49:20"},{"task":"memory_phase","broad_category":"I","image_png":"I_Rhyolite_08.png","image_id":152,"category_name":"Rhyolite","category":10,"distinct_rating":1.38,"distinct_type":"Bottom","rt":null,"stimulus":"Stimuli_Rocks480/I_Rhyolite_08.png","response":null,"trial_type":"image-keyboard-response","trial_index":61,"plugin_version":"2.1.0","time_elapsed":110209,"subject_id":"91813","group":"Group2","condition":"3_Rep","full_date":"2026-03-08T20:49:20.275Z","date":"2026-03-08","time":"20:49:20"},{"rt":null,"stimulus":"<p style=\"font-size: 50px; margin: 0; text-align: center;\">+</p>","response":null,"trial_type":"html-keyboard-response","trial_index":62,"plugin_version":"2.1.0","time_elapsed":111212,"subject_id":"91813","group":"Group2","condition":"3_Rep","full_date":"2026-03-08T20:49:20.275Z","date":"2026-03-08","time":"20:49:20"},{"task":"memory_phase","broad_category":"I","image_png":"I_Basalt_13.png","image_id":29,"category_name":"Basalt","category":2,"distinct_rating":2.68,"distinct_type":"Bottom","rt":null,"stimulus":"Stimuli_Rocks480/I_Basalt_13.png","response":null,"trial_type":"image-keyboard-response","trial_index":63,"plugin_version":"2.1.0","time_elapsed":113731,"subject_id":"91813","group":"Group2","condition":"3_Rep","full_date":"2026-03-08T20:49:20.275Z","date":"2026-03-08","time":"20:49:20"},{"rt":null,"stimulus":"<p style=\"font-size: 50px; margin: 0; text-align: center;\">+</p>","response":null,"trial_type":"html-keyboard-response","trial_index":64,"plugin_version":"2.1.0","time_elapsed":114733,"subject_id":"91813","group":"Group2","condition":"3_Rep","full_date":"2026-03-08T20:49:20.275Z","date":"2026-03-08","time":"20:49:20"},{"task":"memory_phase","broad_category":"M","image_png":"M_Slate_10.png","image_id":314,"category_name":"Slate","category":20,"distinct_rating":1.94,"distinct_type":"Bottom","rt":null,"stimulus":"Stimuli_Rocks480/M_Slate_10.png","response":null,"trial_type":"image-keyboard-response","trial_index":65,"plugin_version":"2.1.0","time_elapsed":117246,"subject_id":"91813","group":"Group2","condition":"3_Rep","full_date":"2026-03-08T20:49:20.275Z","date":"2026-03-08","time":"20:49:20"},{"rt":null,"stimulus":"<p style=\"font-size: 50px; margin: 0; text-align: center;\">+</p>","response":null,"trial_type":"html-keyboard-response","trial_index":66,"plugin_version":"2.1.0","time_elapsed":118249,"subject_id":"91813","group":"Group2","condition":"3_Rep","full_date":"2026-03-08T20:49:20.275Z","date":"2026-03-08","time":"20:49:20"},{"task":"memory_phase","broad_category":"M","image_png":"M_Slate_14.png","image_id":318,"category_name":"Slate","category":20,"distinct_rating":2.58,"distinct_type":"Bottom","rt":null,"stimulus":"Stimuli_Rocks480/M_Slate_14.png","response":null,"trial_type":"image-keyboard-response","trial_index":67,"plugin_version":"2.1.0","time_elapsed":120765,"subject_id":"91813","group":"Group2","condition":"3_Rep","full_date":"2026-03-08T20:49:20.275Z","date":"2026-03-08","time":"20:49:20"},{"rt":null,"stimulus":"<p style=\"font-size: 50px; margin: 0; text-align: center;\">+</p>","response":null,"trial_type":"html-keyboard-response","trial_index":68,"plugin_version":"2.1.0","time_elapsed":121767,"subject_id":"91813","group":"Group2","condition":"3_Rep","full_date":"2026-03-08T20:49:20.275Z","date":"2026-03-08","time":"20:49:20"},{"task":"memory_phase","broad_category":"I","image_png":"I_Pumice_01.png","image_id":129,"category_name":"Pumice","category":9,"distinct_rating":3.25,"distinct_type":"Bottom","rt":null,"stimulus":"Stimuli_Rocks480/I_Pumice_01.png","response":null,"trial_type":"image-keyboard-response","trial_index":69,"plugin_version":"2.1.0","time_elapsed":124288,"subject_id":"91813","group":"Group2","condition":"3_Rep","full_date":"2026-03-08T20:49:20.275Z","date":"2026-03-08","time":"20:49:20"},{"rt":null,"stimulus":"<p style=\"font-size: 50px; margin: 0; text-align: center;\">+</p>","response":null,"trial_type":"html-keyboard-response","trial_index":70,"plugin_version":"2.1.0","time_elapsed":125290,"subject_id":"91813","group":"Group2","condition":"3_Rep","full_date":"2026-03-08T20:49:20.275Z","date":"2026-03-08","time":"20:49:20"},{"task":"memory_phase","broad_category":"I","image_png":"I_Andesite_09.png","image_id":9,"category_name":"Andesite","category":1,"distinct_rating":2.49,"distinct_type":"Bottom","rt":null,"stimulus":"Stimuli_Rocks480/I_Andesite_09.png","response":null,"trial_type":"image-keyboard-response","trial_index":71,"plugin_version":"2.1.0","time_elapsed":127808,"subject_id":"91813","group":"Group2","condition":"3_Rep","full_date":"2026-03-08T20:49:20.275Z","date":"2026-03-08","time":"20:49:20"},{"rt":null,"stimulus":"<p style=\"font-size: 50px; margin: 0; text-align: center;\">+</p>","response":null,"trial_type":"html-keyboard-response","trial_index":72,"plugin_version":"2.1.0","time_elapsed":128811,"subject_id":"91813","group":"Group2","condition":"3_Rep","full_date":"2026-03-08T20:49:20.275Z","date":"2026-03-08","time":"20:49:20"},{"task":"memory_phase","broad_category":"M","image_png":"M_Marble_03.png","image_id":227,"category_name":"Marble","category":15,"distinct_rating":2.67,"distinct_type":"Bottom","rt":null,"stimulus":"Stimuli_Rocks480/M_Marble_03.png","response":null,"trial_type":"image-keyboard-response","trial_index":73,"plugin_version":"2.1.0","time_elapsed":131329,"subject_id":"91813","group":"Group2","condition":"3_Rep","full_date":"2026-03-08T20:49:20.275Z","date":"2026-03-08","time":"20:49:20"},{"rt":null,"stimulus":"<p style=\"font-size: 50px; margin: 0; text-align: center;\">+</p>","response":null,"trial_type":"html-keyboard-response","trial_index":74,"plugin_version":"2.1.0","time_elapsed":132331,"subject_id":"91813","group":"Group2","condition":"3_Rep","full_date":"2026-03-08T20:49:20.275Z","date":"2026-03-08","time":"20:49:20"},{"task":"memory_phase","broad_category":"I","image_png":"I_Gabbro_02.png","image_id":50,"category_name":"Gabbro","category":4,"distinct_rating":2.73,"distinct_type":"Bottom","rt":null,"stimulus":"Stimuli_Rocks480/I_Gabbro_02.png","response":null,"trial_type":"image-keyboard-response","trial_index":75,"plugin_version":"2.1.0","time_elapsed":134846,"subject_id":"91813","group":"Group2","condition":"3_Rep","full_date":"2026-03-08T20:49:20.275Z","date":"2026-03-08","time":"20:49:20"},{"rt":null,"stimulus":"<p style=\"font-size: 50px; margin: 0; text-align: center;\">+</p>","response":null,"trial_type":"html-keyboard-response","trial_index":76,"plugin_version":"2.1.0","time_elapsed":135848,"subject_id":"91813","group":"Group2","condition":"3_Rep","full_date":"2026-03-08T20:49:20.275Z","date":"2026-03-08","time":"20:49:20"},{"task":"memory_phase","broad_category":"I","image_png":"I_Peridotite_13.png","image_id":125,"category_name":"Peridotite","category":8,"distinct_rating":7.28,"distinct_type":"Top","rt":null,"stimulus":"Stimuli_Rocks480/I_Peridotite_13.png","response":null,"trial_type":"image-keyboard-response","trial_index":77,"plugin_version":"2.1.0","time_elapsed":138366,"subject_id":"91813","group":"Group2","condition":"3_Rep","full_date":"2026-03-08T20:49:20.275Z","date":"2026-03-08","time":"20:49:20"},{"rt":null,"stimulus":"<p style=\"font-size: 50px; margin: 0; text-align: center;\">+</p>","response":null,"trial_type":"html-keyboard-response","trial_index":78,"plugin_version":"2.1.0","time_elapsed":139369,"subject_id":"91813","group":"Group2","condition":"3_Rep","full_date":"2026-03-08T20:49:20.275Z","date":"2026-03-08","time":"20:49:20"},{"task":"memory_phase","broad_category":"S","image_png":"S_Conglomerate_14.png","image_id":382,"category_name":"Conglomerate","category":24,"distinct_rating":6.86,"distinct_type":"Top","rt":null,"stimulus":"Stimuli_Rocks480/S_Conglomerate_14.png","response":null,"trial_type":"image-keyboard-response","trial_index":79,"plugin_version":"2.1.0","time_elapsed":141886,"subject_id":"91813","group":"Group2","condition":"3_Rep","full_date":"2026-03-08T20:49:20.275Z","date":"2026-03-08","time":"20:49:20"},{"rt":null,"stimulus":"<p style=\"font-size: 50px; margin: 0; text-align: center;\">+</p>","response":null,"trial_type":"html-keyboard-response","trial_index":80,"plugin_version":"2.1.0","time_elapsed":142888,"subject_id":"91813","group":"Group2","condition":"3_Rep","full_date":"2026-03-08T20:49:20.275Z","date":"2026-03-08","time":"20:49:20"},{"task":"memory_phase","broad_category":"I","image_png":"I_Pegmatite_03.png","image_id":99,"category_name":"Pegmatite","category":7,"distinct_rating":7.24,"distinct_type":"Top","rt":null,"stimulus":"Stimuli_Rocks480/I_Pegmatite_03.png","response":null,"trial_type":"image-keyboard-response","trial_index":81,"plugin_version":"2.1.0","time_elapsed":145405,"subject_id":"91813","group":"Group2","condition":"3_Rep","full_date":"2026-03-08T20:49:20.275Z","date":"2026-03-08","time":"20:49:20"},{"rt":null,"stimulus":"<p style=\"font-size: 50px; margin: 0; text-align: center;\">+</p>","response":null,"trial_type":"html-keyboard-response","trial_index":82,"plugin_version":"2.1.0","time_elapsed":146407,"subject_id":"91813","group":"Group2","condition":"3_Rep","full_date":"2026-03-08T20:49:20.275Z","date":"2026-03-08","time":"20:49:20"},{"task":"memory_phase","broad_category":"S","image_png":"S_Chert_13.png","image_id":365,"category_name":"Chert","category":23,"distinct_rating":6.57,"distinct_type":"Top","rt":null,"stimulus":"Stimuli_Rocks480/S_Chert_13.png","response":null,"trial_type":"image-keyboard-response","trial_index":83,"plugin_version":"2.1.0","time_elapsed":148919,"subject_id":"91813","group":"Group2","condition":"3_Rep","full_date":"2026-03-08T20:49:20.275Z","date":"2026-03-08","time":"20:49:20"},{"rt":null,"stimulus":"<p style=\"font-size: 50px; margin: 0; text-align: center;\">+</p>","response":null,"trial_type":"html-keyboard-response","trial_index":84,"plugin_version":"2.1.0","time_elapsed":149922,"subject_id":"91813","group":"Group2","condition":"3_Rep","full_date":"2026-03-08T20:49:20.275Z","date":"2026-03-08","time":"20:49:20"},{"task":"memory_phase","broad_category":"S","image_png":"S_Dolomite_01.png","image_id":385,"category_name":"Dolomite","category":25,"distinct_rating":1.43,"distinct_type":"Bottom","rt":null,"stimulus":"Stimuli_Rocks480/S_Dolomite_01.png","response":null,"trial_type":"image-keyboard-response","trial_index":85,"plugin_version":"2.1.0","time_elapsed":152445,"subject_id":"91813","group":"Group2","condition":"3_Rep","full_date":"2026-03-08T20:49:20.275Z","date":"2026-03-08","time":"20:49:20"},{"rt":null,"stimulus":"<p style=\"font-size: 50px; margin: 0; text-align: center;\">+</p>","response":null,"trial_type":"html-keyboard-response","trial_index":86,"plugin_version":"2.1.0","time_elapsed":153448,"subject_id":"91813","group":"Group2","condition":"3_Rep","full_date":"2026-03-08T20:49:20.275Z","date":"2026-03-08","time":"20:49:20"},{"task":"memory_phase","broad_category":"I","image_png":"I_Pegmatite_11.png","image_id":107,"category_name":"Pegmatite","category":7,"distinct_rating":7.11,"distinct_type":"Top","rt":null,"stimulus":"Stimuli_Rocks480/I_Pegmatite_11.png","response":null,"trial_type":"image-keyboard-response","trial_index":87,"plugin_version":"2.1.0","time_elapsed":155972,"subject_id":"91813","group":"Group2","condition":"3_Rep","full_date":"2026-03-08T20:49:20.275Z","date":"2026-03-08","time":"20:49:20"},{"rt":null,"stimulus":"<p style=\"font-size: 50px; margin: 0; text-align: center;\">+</p>","response":null,"trial_type":"html-keyboard-response","trial_index":88,"plugin_version":"2.1.0","time_elapsed":156975,"subject_id":"91813","group":"Group2","condition":"3_Rep","full_date":"2026-03-08T20:49:20.275Z","date":"2026-03-08","time":"20:49:20"},{"task":"memory_phase","broad_category":"S","image_png":"S_Shale_02.png","image_id":466,"category_name":"Shale","category":30,"distinct_rating":2.9,"distinct_type":"Bottom","rt":null,"stimulus":"Stimuli_Rocks480/S_Shale_02.png","response":null,"trial_type":"image-keyboard-response","trial_index":89,"plugin_version":"2.1.0","time_elapsed":159492,"subject_id":"91813","group":"Group2","condition":"3_Rep","full_date":"2026-03-08T20:49:20.275Z","date":"2026-03-08","time":"20:49:20"},{"rt":null,"stimulus":"<p style=\"font-size: 50px; margin: 0; text-align: center;\">+</p>","response":null,"trial_type":"html-keyboard-response","trial_index":90,"plugin_version":"2.1.0","time_elapsed":160494,"subject_id":"91813","group":"Group2","condition":"3_Rep","full_date":"2026-03-08T20:49:20.275Z","date":"2026-03-08","time":"20:49:20"},{"task":"memory_phase","broad_category":"I","image_png":"I_Obsidian_06.png","image_id":86,"category_name":"Obsidian","category":6,"distinct_rating":8.01,"distinct_type":"Top","rt":null,"stimulus":"Stimuli_Rocks480/I_Obsidian_06.png","response":null,"trial_type":"image-keyboard-response","trial_index":91,"plugin_version":"2.1.0","time_elapsed":163016,"subject_id":"91813","group":"Group2","condition":"3_Rep","full_date":"2026-03-08T20:49:20.275Z","date":"2026-03-08","time":"20:49:20"},{"rt":null,"stimulus":"<p style=\"font-size: 50px; margin: 0; text-align: center;\">+</p>","response":null,"trial_type":"html-keyboard-response","trial_index":92,"plugin_version":"2.1.0","time_elapsed":164019,"subject_id":"91813","group":"Group2","condition":"3_Rep","full_date":"2026-03-08T20:49:20.275Z","date":"2026-03-08","time":"20:49:20"},{"task":"memory_phase","broad_category":"I","image_png":"I_Basalt_08.png","image_id":24,"category_name":"Basalt","category":2,"distinct_rating":2.31,"distinct_type":"Bottom","rt":null,"stimulus":"Stimuli_Rocks480/I_Basalt_08.png","response":null,"trial_type":"image-keyboard-response","trial_index":93,"plugin_version":"2.1.0","time_elapsed":166546,"subject_id":"91813","group":"Group2","condition":"3_Rep","full_date":"2026-03-08T20:49:20.275Z","date":"2026-03-08","time":"20:49:20"},{"rt":null,"stimulus":"<p style=\"font-size: 50px; margin: 0; text-align: center;\">+</p>","response":null,"trial_type":"html-keyboard-response","trial_index":94,"plugin_version":"2.1.0","time_elapsed":167548,"subject_id":"91813","group":"Group2","condition":"3_Rep","full_date":"2026-03-08T20:49:20.275Z","date":"2026-03-08","time":"20:49:20"},{"task":"memory_phase","broad_category":"S","image_png":"S_Rock Salt_15.png","image_id":447,"category_name":"Rock Salt","category":28,"distinct_rating":7.79,"distinct_type":"Top","rt":null,"stimulus":"Stimuli_Rocks480/S_Rock Salt_15.png","response":null,"trial_type":"image-keyboard-response","trial_index":95,"plugin_version":"2.1.0","time_elapsed":170068,"subject_id":"91813","group":"Group2","condition":"3_Rep","full_date":"2026-03-08T20:49:20.275Z","date":"2026-03-08","time":"20:49:20"},{"rt":null,"stimulus":"<p style=\"font-size: 50px; margin: 0; text-align: center;\">+</p>","response":null,"trial_type":"html-keyboard-response","trial_index":96,"plugin_version":"2.1.0","time_elapsed":171070,"subject_id":"91813","group":"Group2","condition":"3_Rep","full_date":"2026-03-08T20:49:20.275Z","date":"2026-03-08","time":"20:49:20"},{"task":"memory_phase","broad_category":"I","image_png":"I_Diorite_15.png","image_id":47,"category_name":"Diorite","category":3,"distinct_rating":3.05,"distinct_type":"Bottom","rt":null,"stimulus":"Stimuli_Rocks480/I_Diorite_15.png","response":null,"trial_type":"image-keyboard-response","trial_index":97,"plugin_version":"2.1.0","time_elapsed":173586,"subject_id":"91813","group":"Group2","condition":"3_Rep","full_date":"2026-03-08T20:49:20.275Z","date":"2026-03-08","time":"20:49:20"},{"rt":null,"stimulus":"<p style=\"font-size: 50px; margin: 0; text-align: center;\">+</p>","response":null,"trial_type":"html-keyboard-response","trial_index":98,"plugin_version":"2.1.0","time_elapsed":174588,"subject_id":"91813","group":"Group2","condition":"3_Rep","full_date":"2026-03-08T20:49:20.275Z","date":"2026-03-08","time":"20:49:20"},{"task":"memory_phase","broad_category":"S","image_png":"S_Sandstone_08.png","image_id":456,"category_name":"Sandstone","category":29,"distinct_rating":1.5,"distinct_type":"Bottom","rt":null,"stimulus":"Stimuli_Rocks480/S_Sandstone_08.png","response":null,"trial_type":"image-keyboard-response","trial_index":99,"plugin_version":"2.1.0","time_elapsed":177105,"subject_id":"91813","group":"Group2","condition":"3_Rep","full_date":"2026-03-08T20:49:20.275Z","date":"2026-03-08","time":"20:49:20"},{"rt":null,"stimulus":"<p style=\"font-size: 50px; margin: 0; text-align: center;\">+</p>","response":null,"trial_type":"html-keyboard-response","trial_index":100,"plugin_version":"2.1.0","time_elapsed":178108,"subject_id":"91813","group":"Group2","condition":"3_Rep","full_date":"2026-03-08T20:49:20.275Z","date":"2026-03-08","time":"20:49:20"},{"task":"memory_phase","broad_category":"I","image_png":"I_Diorite_10.png","image_id":42,"category_name":"Diorite","category":3,"distinct_rating":2.84,"distinct_type":"Bottom","rt":null,"stimulus":"Stimuli_Rocks480/I_Diorite_10.png","response":null,"trial_type":"image-keyboard-response","trial_index":101,"plugin_version":"2.1.0","time_elapsed":180625,"subject_id":"91813","group":"Group2","condition":"3_Rep","full_date":"2026-03-08T20:49:20.275Z","date":"2026-03-08","time":"20:49:20"},{"rt":null,"stimulus":"<p style=\"font-size: 50px; margin: 0; text-align: center;\">+</p>","response":null,"trial_type":"html-keyboard-response","trial_index":102,"plugin_version":"2.1.0","time_elapsed":181627,"subject_id":"91813","group":"Group2","condition":"3_Rep","full_date":"2026-03-08T20:49:20.275Z","date":"2026-03-08","time":"20:49:20"},{"task":"memory_phase","broad_category":"S","image_png":"S_Shale_03.png","image_id":467,"category_name":"Shale","category":30,"distinct_rating":1.95,"distinct_type":"Bottom","rt":null,"stimulus":"Stimuli_Rocks480/S_Shale_03.png","response":null,"trial_type":"image-keyboard-response","trial_index":103,"plugin_version":"2.1.0","time_elapsed":184152,"subject_id":"91813","group":"Group2","condition":"3_Rep","full_date":"2026-03-08T20:49:20.275Z","date":"2026-03-08","time":"20:49:20"},{"rt":null,"stimulus":"<p style=\"font-size: 50px; margin: 0; text-align: center;\">+</p>","response":null,"trial_type":"html-keyboard-response","trial_index":104,"plugin_version":"2.1.0","time_elapsed":185156,"subject_id":"91813","group":"Group2","condition":"3_Rep","full_date":"2026-03-08T20:49:20.275Z","date":"2026-03-08","time":"20:49:20"},{"task":"memory_phase","broad_category":"I","image_png":"I_Rhyolite_05.png","image_id":149,"category_name":"Rhyolite","category":10,"distinct_rating":3.02,"distinct_type":"Bottom","rt":null,"stimulus":"Stimuli_Rocks480/I_Rhyolite_05.png","response":null,"trial_type":"image-keyboard-response","trial_index":105,"plugin_version":"2.1.0","time_elapsed":187681,"subject_id":"91813","group":"Group2","condition":"3_Rep","full_date":"2026-03-08T20:49:20.275Z","date":"2026-03-08","time":"20:49:20"},{"rt":50848,"stimulus":"<p style=\"max-width: 760px; margin: auto; font-size: 35px; line-height: 1.5;\">\n                You have completed 1 study phase. \n                Now, we'll show you all the images again 2 more times.\n                <br><br>Press SPACE to continue\n              </p>","response":" ","trial_type":"html-keyboard-response","trial_index":106,"plugin_version":"2.1.0","time_elapsed":238531,"subject_id":"91813","group":"Group2","condition":"3_Rep","full_date":"2026-03-08T20:49:20.275Z","date":"2026-03-08","time":"20:49:20"},{"rt":null,"stimulus":"<p style=\"font-size: 50px; margin: 0; text-align: center;\">+</p>","response":null,"trial_type":"html-keyboard-response","trial_index":107,"plugin_version":"2.1.0","time_elapsed":239534,"subject_id":"91813","group":"Group2","condition":"3_Rep","full_date":"2026-03-08T20:49:20.275Z","date":"2026-03-08","time":"20:49:20"},{"task":"memory_phase","broad_category":"M","image_png":"M_Phyllite_05.png","image_id":261,"category_name":"Phyllite","category":17,"distinct_rating":2.14,"distinct_type":"Bottom","rt":null,"stimulus":"Stimuli_Rocks480/M_Phyllite_05.png","response":null,"trial_type":"image-keyboard-response","trial_index":108,"plugin_version":"2.1.0","time_elapsed":242055,"subject_id":"91813","group":"Group2","condition":"3_Rep","full_date":"2026-03-08T20:49:20.275Z","date":"2026-03-08","time":"20:49:20"},{"rt":null,"stimulus":"<p style=\"font-size: 50px; margin: 0; text-align: center;\">+</p>","response":null,"trial_type":"html-keyboard-response","trial_index":109,"plugin_version":"2.1.0","time_elapsed":243057,"subject_id":"91813","group":"Group2","condition":"3_Rep","full_date":"2026-03-08T20:49:20.275Z","date":"2026-03-08","time":"20:49:20"},{"task":"memory_phase","broad_category":"I","image_png":"I_Basalt_13.png","image_id":29,"category_name":"Basalt","category":2,"distinct_rating":2.68,"distinct_type":"Bottom","rt":null,"stimulus":"Stimuli_Rocks480/I_Basalt_13.png","response":null,"trial_type":"image-keyboard-response","trial_index":110,"plugin_version":"2.1.0","time_elapsed":245575,"subject_id":"91813","group":"Group2","condition":"3_Rep","full_date":"2026-03-08T20:49:20.275Z","date":"2026-03-08","time":"20:49:20"},{"rt":null,"stimulus":"<p style=\"font-size: 50px; margin: 0; text-align: center;\">+</p>","response":null,"trial_type":"html-keyboard-response","trial_index":111,"plugin_version":"2.1.0","time_elapsed":246578,"subject_id":"91813","group":"Group2","condition":"3_Rep","full_date":"2026-03-08T20:49:20.275Z","date":"2026-03-08","time":"20:49:20"},{"task":"memory_phase","broad_category":"I","image_png":"I_Diorite_15.png","image_id":47,"category_name":"Diorite","category":3,"distinct_rating":3.05,"distinct_type":"Bottom","rt":null,"stimulus":"Stimuli_Rocks480/I_Diorite_15.png","response":null,"trial_type":"image-keyboard-response","trial_index":112,"plugin_version":"2.1.0","time_elapsed":249081,"subject_id":"91813","group":"Group2","condition":"3_Rep","full_date":"2026-03-08T20:49:20.275Z","date":"2026-03-08","time":"20:49:20"},{"rt":null,"stimulus":"<p style=\"font-size: 50px; margin: 0; text-align: center;\">+</p>","response":null,"trial_type":"html-keyboard-response","trial_index":113,"plugin_version":"2.1.0","time_elapsed":250084,"subject_id":"91813","group":"Group2","condition":"3_Rep","full_date":"2026-03-08T20:49:20.275Z","date":"2026-03-08","time":"20:49:20"},{"task":"memory_phase","broad_category":"S","image_png":"S_Shale_03.png","image_id":467,"category_name":"Shale","category":30,"distinct_rating":1.95,"distinct_type":"Bottom","rt":null,"stimulus":"Stimuli_Rocks480/S_Shale_03.png","response":null,"trial_type":"image-keyboard-response","trial_index":114,"plugin_version":"2.1.0","time_elapsed":252588,"subject_id":"91813","group":"Group2","condition":"3_Rep","full_date":"2026-03-08T20:49:20.275Z","date":"2026-03-08","time":"20:49:20"},{"rt":null,"stimulus":"<p style=\"font-size: 50px; margin: 0; text-align: center;\">+</p>","response":null,"trial_type":"html-keyboard-response","trial_index":115,"plugin_version":"2.1.0","time_elapsed":253591,"subject_id":"91813","group":"Group2","condition":"3_Rep","full_date":"2026-03-08T20:49:20.275Z","date":"2026-03-08","time":"20:49:20"},{"task":"memory_phase","broad_category":"I","image_png":"I_Peridotite_13.png","image_id":125,"category_name":"Peridotite","category":8,"distinct_rating":7.28,"distinct_type":"Top","rt":null,"stimulus":"Stimuli_Rocks480/I_Peridotite_13.png","response":null,"trial_type":"image-keyboard-response","trial_index":116,"plugin_version":"2.1.0","time_elapsed":256115,"subject_id":"91813","group":"Group2","condition":"3_Rep","full_date":"2026-03-08T20:49:20.275Z","date":"2026-03-08","time":"20:49:20"},{"rt":null,"stimulus":"<p style=\"font-size: 50px; margin: 0; text-align: center;\">+</p>","response":null,"trial_type":"html-keyboard-response","trial_index":117,"plugin_version":"2.1.0","time_elapsed":257117,"subject_id":"91813","group":"Group2","condition":"3_Rep","full_date":"2026-03-08T20:49:20.275Z","date":"2026-03-08","time":"20:49:20"},{"task":"memory_phase","broad_category":"I","image_png":"I_Pegmatite_11.png","image_id":107,"category_name":"Pegmatite","category":7,"distinct_rating":7.11,"distinct_type":"Top","rt":null,"stimulus":"Stimuli_Rocks480/I_Pegmatite_11.png","response":null,"trial_type":"image-keyboard-response","trial_index":118,"plugin_version":"2.1.0","time_elapsed":259640,"subject_id":"91813","group":"Group2","condition":"3_Rep","full_date":"2026-03-08T20:49:20.275Z","date":"2026-03-08","time":"20:49:20"},{"rt":null,"stimulus":"<p style=\"font-size: 50px; margin: 0; text-align: center;\">+</p>","response":null,"trial_type":"html-keyboard-response","trial_index":119,"plugin_version":"2.1.0","time_elapsed":260643,"subject_id":"91813","group":"Group2","condition":"3_Rep","full_date":"2026-03-08T20:49:20.275Z","date":"2026-03-08","time":"20:49:20"},{"task":"memory_phase","broad_category":"S","image_png":"S_Shale_02.png","image_id":466,"category_name":"Shale","category":30,"distinct_rating":2.9,"distinct_type":"Bottom","rt":null,"stimulus":"Stimuli_Rocks480/S_Shale_02.png","response":null,"trial_type":"image-keyboard-response","trial_index":120,"plugin_version":"2.1.0","time_elapsed":263146,"subject_id":"91813","group":"Group2","condition":"3_Rep","full_date":"2026-03-08T20:49:20.275Z","date":"2026-03-08","time":"20:49:20"},{"rt":null,"stimulus":"<p style=\"font-size: 50px; margin: 0; text-align: center;\">+</p>","response":null,"trial_type":"html-keyboard-response","trial_index":121,"plugin_version":"2.1.0","time_elapsed":264149,"subject_id":"91813","group":"Group2","condition":"3_Rep","full_date":"2026-03-08T20:49:20.275Z","date":"2026-03-08","time":"20:49:20"},{"task":"memory_phase","broad_category":"I","image_png":"I_Basalt_08.png","image_id":24,"category_name":"Basalt","category":2,"distinct_rating":2.31,"distinct_type":"Bottom","rt":null,"stimulus":"Stimuli_Rocks480/I_Basalt_08.png","response":null,"trial_type":"image-keyboard-response","trial_index":122,"plugin_version":"2.1.0","time_elapsed":266653,"subject_id":"91813","group":"Group2","condition":"3_Rep","full_date":"2026-03-08T20:49:20.275Z","date":"2026-03-08","time":"20:49:20"},{"rt":null,"stimulus":"<p style=\"font-size: 50px; margin: 0; text-align: center;\">+</p>","response":null,"trial_type":"html-keyboard-response","trial_index":123,"plugin_version":"2.1.0","time_elapsed":267655,"subject_id":"91813","group":"Group2","condition":"3_Rep","full_date":"2026-03-08T20:49:20.275Z","date":"2026-03-08","time":"20:49:20"},{"task":"memory_phase","broad_category":"I","image_png":"I_Andesite_03.png","image_id":3,"category_name":"Andesite","category":1,"distinct_rating":3.17,"distinct_type":"Bottom","rt":null,"stimulus":"Stimuli_Rocks480/I_Andesite_03.png","response":null,"trial_type":"image-keyboard-response","trial_index":124,"plugin_version":"2.1.0","time_elapsed":270170,"subject_id":"91813","group":"Group2","condition":"3_Rep","full_date":"2026-03-08T20:49:20.275Z","date":"2026-03-08","time":"20:49:20"},{"rt":null,"stimulus":"<p style=\"font-size: 50px; margin: 0; text-align: center;\">+</p>","response":null,"trial_type":"html-keyboard-response","trial_index":125,"plugin_version":"2.1.0","time_elapsed":271172,"subject_id":"91813","group":"Group2","condition":"3_Rep","full_date":"2026-03-08T20:49:20.275Z","date":"2026-03-08","time":"20:49:20"},{"task":"memory_phase","broad_category":"I","image_png":"I_Rhyolite_08.png","image_id":152,"category_name":"Rhyolite","category":10,"distinct_rating":1.38,"distinct_type":"Bottom","rt":null,"stimulus":"Stimuli_Rocks480/I_Rhyolite_08.png","response":null,"trial_type":"image-keyboard-response","trial_index":126,"plugin_version":"2.1.0","time_elapsed":273689,"subject_id":"91813","group":"Group2","condition":"3_Rep","full_date":"2026-03-08T20:49:20.275Z","date":"2026-03-08","time":"20:49:20"},{"rt":null,"stimulus":"<p style=\"font-size: 50px; margin: 0; text-align: center;\">+</p>","response":null,"trial_type":"html-keyboard-response","trial_index":127,"plugin_version":"2.1.0","time_elapsed":274692,"subject_id":"91813","group":"Group2","condition":"3_Rep","full_date":"2026-03-08T20:49:20.275Z","date":"2026-03-08","time":"20:49:20"},{"task":"memory_phase","broad_category":"S","image_png":"S_Chert_13.png","image_id":365,"category_name":"Chert","category":23,"distinct_rating":6.57,"distinct_type":"Top","rt":null,"stimulus":"Stimuli_Rocks480/S_Chert_13.png","response":null,"trial_type":"image-keyboard-response","trial_index":128,"plugin_version":"2.1.0","time_elapsed":277205,"subject_id":"91813","group":"Group2","condition":"3_Rep","full_date":"2026-03-08T20:49:20.275Z","date":"2026-03-08","time":"20:49:20"},{"rt":null,"stimulus":"<p style=\"font-size: 50px; margin: 0; text-align: center;\">+</p>","response":null,"trial_type":"html-keyboard-response","trial_index":129,"plugin_version":"2.1.0","time_elapsed":278207,"subject_id":"91813","group":"Group2","condition":"3_Rep","full_date":"2026-03-08T20:49:20.275Z","date":"2026-03-08","time":"20:49:20"},{"task":"memory_phase","broad_category":"M","image_png":"M_Gneiss_10.png","image_id":202,"category_name":"Gneiss","category":13,"distinct_rating":3.09,"distinct_type":"Bottom","rt":null,"stimulus":"Stimuli_Rocks480/M_Gneiss_10.png","response":null,"trial_type":"image-keyboard-response","trial_index":130,"plugin_version":"2.1.0","time_elapsed":280728,"subject_id":"91813","group":"Group2","condition":"3_Rep","full_date":"2026-03-08T20:49:20.275Z","date":"2026-03-08","time":"20:49:20"},{"rt":null,"stimulus":"<p style=\"font-size: 50px; margin: 0; text-align: center;\">+</p>","response":null,"trial_type":"html-keyboard-response","trial_index":131,"plugin_version":"2.1.0","time_elapsed":281730,"subject_id":"91813","group":"Group2","condition":"3_Rep","full_date":"2026-03-08T20:49:20.275Z","date":"2026-03-08","time":"20:49:20"},{"task":"memory_phase","broad_category":"I","image_png":"I_Pumice_01.png","image_id":129,"category_name":"Pumice","category":9,"distinct_rating":3.25,"distinct_type":"Bottom","rt":null,"stimulus":"Stimuli_Rocks480/I_Pumice_01.png","response":null,"trial_type":"image-keyboard-response","trial_index":132,"plugin_version":"2.1.0","time_elapsed":284252,"subject_id":"91813","group":"Group2","condition":"3_Rep","full_date":"2026-03-08T20:49:20.275Z","date":"2026-03-08","time":"20:49:20"},{"rt":null,"stimulus":"<p style=\"font-size: 50px; margin: 0; text-align: center;\">+</p>","response":null,"trial_type":"html-keyboard-response","trial_index":133,"plugin_version":"2.1.0","time_elapsed":285255,"subject_id":"91813","group":"Group2","condition":"3_Rep","full_date":"2026-03-08T20:49:20.275Z","date":"2026-03-08","time":"20:49:20"},{"task":"memory_phase","broad_category":"I","image_png":"I_Andesite_09.png","image_id":9,"category_name":"Andesite","category":1,"distinct_rating":2.49,"distinct_type":"Bottom","rt":null,"stimulus":"Stimuli_Rocks480/I_Andesite_09.png","response":null,"trial_type":"image-keyboard-response","trial_index":134,"plugin_version":"2.1.0","time_elapsed":287771,"subject_id":"91813","group":"Group2","condition":"3_Rep","full_date":"2026-03-08T20:49:20.275Z","date":"2026-03-08","time":"20:49:20"},{"rt":null,"stimulus":"<p style=\"font-size: 50px; margin: 0; text-align: center;\">+</p>","response":null,"trial_type":"html-keyboard-response","trial_index":135,"plugin_version":"2.1.0","time_elapsed":288773,"subject_id":"91813","group":"Group2","condition":"3_Rep","full_date":"2026-03-08T20:49:20.275Z","date":"2026-03-08","time":"20:49:20"},{"task":"memory_phase","broad_category":"M","image_png":"M_Slate_10.png","image_id":314,"category_name":"Slate","category":20,"distinct_rating":1.94,"distinct_type":"Bottom","rt":null,"stimulus":"Stimuli_Rocks480/M_Slate_10.png","response":null,"trial_type":"image-keyboard-response","trial_index":136,"plugin_version":"2.1.0","time_elapsed":291286,"subject_id":"91813","group":"Group2","condition":"3_Rep","full_date":"2026-03-08T20:49:20.275Z","date":"2026-03-08","time":"20:49:20"},{"rt":null,"stimulus":"<p style=\"font-size: 50px; margin: 0; text-align: center;\">+</p>","response":null,"trial_type":"html-keyboard-response","trial_index":137,"plugin_version":"2.1.0","time_elapsed":292289,"subject_id":"91813","group":"Group2","condition":"3_Rep","full_date":"2026-03-08T20:49:20.275Z","date":"2026-03-08","time":"20:49:20"},{"task":"memory_phase","broad_category":"M","image_png":"M_Slate_14.png","image_id":318,"category_name":"Slate","category":20,"distinct_rating":2.58,"distinct_type":"Bottom","rt":null,"stimulus":"Stimuli_Rocks480/M_Slate_14.png","response":null,"trial_type":"image-keyboard-response","trial_index":138,"plugin_version":"2.1.0","time_elapsed":294802,"subject_id":"91813","group":"Group2","condition":"3_Rep","full_date":"2026-03-08T20:49:20.275Z","date":"2026-03-08","time":"20:49:20"},{"rt":null,"stimulus":"<p style=\"font-size: 50px; margin: 0; text-align: center;\">+</p>","response":null,"trial_type":"html-keyboard-response","trial_index":139,"plugin_version":"2.1.0","time_elapsed":295804,"subject_id":"91813","group":"Group2","condition":"3_Rep","full_date":"2026-03-08T20:49:20.275Z","date":"2026-03-08","time":"20:49:20"},{"task":"memory_phase","broad_category":"S","image_png":"S_Dolomite_16.png","image_id":400,"category_name":"Dolomite","category":25,"distinct_rating":1.71,"distinct_type":"Bottom","rt":null,"stimulus":"Stimuli_Rocks480/S_Dolomite_16.png","response":null,"trial_type":"image-keyboard-response","trial_index":140,"plugin_version":"2.1.0","time_elapsed":298320,"subject_id":"91813","group":"Group2","condition":"3_Rep","full_date":"2026-03-08T20:49:20.275Z","date":"2026-03-08","time":"20:49:20"},{"rt":null,"stimulus":"<p style=\"font-size: 50px; margin: 0; text-align: center;\">+</p>","response":null,"trial_type":"html-keyboard-response","trial_index":141,"plugin_version":"2.1.0","time_elapsed":299323,"subject_id":"91813","group":"Group2","condition":"3_Rep","full_date":"2026-03-08T20:49:20.275Z","date":"2026-03-08","time":"20:49:20"},{"task":"memory_phase","broad_category":"M","image_png":"M_Quartzite_15.png","image_id":287,"category_name":"Quartzite","category":18,"distinct_rating":2.19,"distinct_type":"Bottom","rt":null,"stimulus":"Stimuli_Rocks480/M_Quartzite_15.png","response":null,"trial_type":"image-keyboard-response","trial_index":142,"plugin_version":"2.1.0","time_elapsed":301845,"subject_id":"91813","group":"Group2","condition":"3_Rep","full_date":"2026-03-08T20:49:20.275Z","date":"2026-03-08","time":"20:49:20"},{"rt":null,"stimulus":"<p style=\"font-size: 50px; margin: 0; text-align: center;\">+</p>","response":null,"trial_type":"html-keyboard-response","trial_index":143,"plugin_version":"2.1.0","time_elapsed":302848,"subject_id":"91813","group":"Group2","condition":"3_Rep","full_date":"2026-03-08T20:49:20.275Z","date":"2026-03-08","time":"20:49:20"},{"task":"memory_phase","broad_category":"M","image_png":"M_Marble_14.png","image_id":238,"category_name":"Marble","category":15,"distinct_rating":3.31,"distinct_type":"Bottom","rt":null,"stimulus":"Stimuli_Rocks480/M_Marble_14.png","response":null,"trial_type":"image-keyboard-response","trial_index":144,"plugin_version":"2.1.0","time_elapsed":305368,"subject_id":"91813","group":"Group2","condition":"3_Rep","full_date":"2026-03-08T20:49:20.275Z","date":"2026-03-08","time":"20:49:20"},{"rt":null,"stimulus":"<p style=\"font-size: 50px; margin: 0; text-align: center;\">+</p>","response":null,"trial_type":"html-keyboard-response","trial_index":145,"plugin_version":"2.1.0","time_elapsed":306371,"subject_id":"91813","group":"Group2","condition":"3_Rep","full_date":"2026-03-08T20:49:20.275Z","date":"2026-03-08","time":"20:49:20"},{"task":"memory_phase","broad_category":"M","image_png":"M_Gneiss_15.png","image_id":207,"category_name":"Gneiss","category":13,"distinct_rating":3.11,"distinct_type":"Bottom","rt":null,"stimulus":"Stimuli_Rocks480/M_Gneiss_15.png","response":null,"trial_type":"image-keyboard-response","trial_index":146,"plugin_version":"2.1.0","time_elapsed":308884,"subject_id":"91813","group":"Group2","condition":"3_Rep","full_date":"2026-03-08T20:49:20.275Z","date":"2026-03-08","time":"20:49:20"},{"rt":null,"stimulus":"<p style=\"font-size: 50px; margin: 0; text-align: center;\">+</p>","response":null,"trial_type":"html-keyboard-response","trial_index":147,"plugin_version":"2.1.0","time_elapsed":309887,"subject_id":"91813","group":"Group2","condition":"3_Rep","full_date":"2026-03-08T20:49:20.275Z","date":"2026-03-08","time":"20:49:20"},{"task":"memory_phase","broad_category":"I","image_png":"I_Diorite_10.png","image_id":42,"category_name":"Diorite","category":3,"distinct_rating":2.84,"distinct_type":"Bottom","rt":null,"stimulus":"Stimuli_Rocks480/I_Diorite_10.png","response":null,"trial_type":"image-keyboard-response","trial_index":148,"plugin_version":"2.1.0","time_elapsed":312390,"subject_id":"91813","group":"Group2","condition":"3_Rep","full_date":"2026-03-08T20:49:20.275Z","date":"2026-03-08","time":"20:49:20"},{"rt":null,"stimulus":"<p style=\"font-size: 50px; margin: 0; text-align: center;\">+</p>","response":null,"trial_type":"html-keyboard-response","trial_index":149,"plugin_version":"2.1.0","time_elapsed":313392,"subject_id":"91813","group":"Group2","condition":"3_Rep","full_date":"2026-03-08T20:49:20.275Z","date":"2026-03-08","time":"20:49:20"},{"task":"memory_phase","broad_category":"I","image_png":"I_Obsidian_06.png","image_id":86,"category_name":"Obsidian","category":6,"distinct_rating":8.01,"distinct_type":"Top","rt":null,"stimulus":"Stimuli_Rocks480/I_Obsidian_06.png","response":null,"trial_type":"image-keyboard-response","trial_index":150,"plugin_version":"2.1.0","time_elapsed":315896,"subject_id":"91813","group":"Group2","condition":"3_Rep","full_date":"2026-03-08T20:49:20.275Z","date":"2026-03-08","time":"20:49:20"},{"rt":null,"stimulus":"<p style=\"font-size: 50px; margin: 0; text-align: center;\">+</p>","response":null,"trial_type":"html-keyboard-response","trial_index":151,"plugin_version":"2.1.0","time_elapsed":316899,"subject_id":"91813","group":"Group2","condition":"3_Rep","full_date":"2026-03-08T20:49:20.275Z","date":"2026-03-08","time":"20:49:20"},{"task":"memory_phase","broad_category":"I","image_png":"I_Pumice_13.png","image_id":141,"category_name":"Pumice","category":9,"distinct_rating":3.12,"distinct_type":"Bottom","rt":null,"stimulus":"Stimuli_Rocks480/I_Pumice_13.png","response":null,"trial_type":"image-keyboard-response","trial_index":152,"plugin_version":"2.1.0","time_elapsed":319420,"subject_id":"91813","group":"Group2","condition":"3_Rep","full_date":"2026-03-08T20:49:20.275Z","date":"2026-03-08","time":"20:49:20"},{"rt":null,"stimulus":"<p style=\"font-size: 50px; margin: 0; text-align: center;\">+</p>","response":null,"trial_type":"html-keyboard-response","trial_index":153,"plugin_version":"2.1.0","time_elapsed":320423,"subject_id":"91813","group":"Group2","condition":"3_Rep","full_date":"2026-03-08T20:49:20.275Z","date":"2026-03-08","time":"20:49:20"},{"task":"memory_phase","broad_category":"I","image_png":"I_Gabbro_02.png","image_id":50,"category_name":"Gabbro","category":4,"distinct_rating":2.73,"distinct_type":"Bottom","rt":null,"stimulus":"Stimuli_Rocks480/I_Gabbro_02.png","response":null,"trial_type":"image-keyboard-response","trial_index":154,"plugin_version":"2.1.0","time_elapsed":322941,"subject_id":"91813","group":"Group2","condition":"3_Rep","full_date":"2026-03-08T20:49:20.275Z","date":"2026-03-08","time":"20:49:20"},{"rt":null,"stimulus":"<p style=\"font-size: 50px; margin: 0; text-align: center;\">+</p>","response":null,"trial_type":"html-keyboard-response","trial_index":155,"plugin_version":"2.1.0","time_elapsed":323943,"subject_id":"91813","group":"Group2","condition":"3_Rep","full_date":"2026-03-08T20:49:20.275Z","date":"2026-03-08","time":"20:49:20"},{"task":"memory_phase","broad_category":"I","image_png":"I_Rhyolite_10.png","image_id":154,"category_name":"Rhyolite","category":10,"distinct_rating":2.88,"distinct_type":"Bottom","rt":null,"stimulus":"Stimuli_Rocks480/I_Rhyolite_10.png","response":null,"trial_type":"image-keyboard-response","trial_index":156,"plugin_version":"2.1.0","time_elapsed":326474,"subject_id":"91813","group":"Group2","condition":"3_Rep","full_date":"2026-03-08T20:49:20.275Z","date":"2026-03-08","time":"20:49:20"},{"rt":60168,"stimulus":"<p style=\"max-width: 760px; margin: auto; font-size: 35px; line-height: 1.5;\">\n                Press SPACE to continue study phase\n              </p>","response":" ","trial_type":"html-keyboard-response","trial_index":157,"plugin_version":"2.1.0","time_elapsed":386644,"subject_id":"91813","group":"Group2","condition":"3_Rep","full_date":"2026-03-08T20:49:20.275Z","date":"2026-03-08","time":"20:49:20"},{"rt":null,"stimulus":"<p style=\"font-size: 50px; margin: 0; text-align: center;\">+</p>","response":null,"trial_type":"html-keyboard-response","trial_index":158,"plugin_version":"2.1.0","time_elapsed":387648,"subject_id":"91813","group":"Group2","condition":"3_Rep","full_date":"2026-03-08T20:49:20.275Z","date":"2026-03-08","time":"20:49:20"},{"task":"memory_phase","broad_category":"S","image_png":"S_Conglomerate_14.png","image_id":382,"category_name":"Conglomerate","category":24,"distinct_rating":6.86,"distinct_type":"Top","rt":null,"stimulus":"Stimuli_Rocks480/S_Conglomerate_14.png","response":null,"trial_type":"image-keyboard-response","trial_index":159,"plugin_version":"2.1.0","time_elapsed":390167,"subject_id":"91813","group":"Group2","condition":"3_Rep","full_date":"2026-03-08T20:49:20.275Z","date":"2026-03-08","time":"20:49:20"},{"rt":null,"stimulus":"<p style=\"font-size: 50px; margin: 0; text-align: center;\">+</p>","response":null,"trial_type":"html-keyboard-response","trial_index":160,"plugin_version":"2.1.0","time_elapsed":391170,"subject_id":"91813","group":"Group2","condition":"3_Rep","full_date":"2026-03-08T20:49:20.275Z","date":"2026-03-08","time":"20:49:20"},{"task":"memory_phase","broad_category":"M","image_png":"M_Quartzite_07.png","image_id":279,"category_name":"Quartzite","category":18,"distinct_rating":1.97,"distinct_type":"Bottom","rt":null,"stimulus":"Stimuli_Rocks480/M_Quartzite_07.png","response":null,"trial_type":"image-keyboard-response","trial_index":161,"plugin_version":"2.1.0","time_elapsed":393692,"subject_id":"91813","group":"Group2","condition":"3_Rep","full_date":"2026-03-08T20:49:20.275Z","date":"2026-03-08","time":"20:49:20"},{"rt":null,"stimulus":"<p style=\"font-size: 50px; margin: 0; text-align: center;\">+</p>","response":null,"trial_type":"html-keyboard-response","trial_index":162,"plugin_version":"2.1.0","time_elapsed":394695,"subject_id":"91813","group":"Group2","condition":"3_Rep","full_date":"2026-03-08T20:49:20.275Z","date":"2026-03-08","time":"20:49:20"},{"task":"memory_phase","broad_category":"S","image_png":"S_Rock Salt_15.png","image_id":447,"category_name":"Rock Salt","category":28,"distinct_rating":7.79,"distinct_type":"Top","rt":null,"stimulus":"Stimuli_Rocks480/S_Rock Salt_15.png","response":null,"trial_type":"image-keyboard-response","trial_index":163,"plugin_version":"2.1.0","time_elapsed":397215,"subject_id":"91813","group":"Group2","condition":"3_Rep","full_date":"2026-03-08T20:49:20.275Z","date":"2026-03-08","time":"20:49:20"},{"rt":null,"stimulus":"<p style=\"font-size: 50px; margin: 0; text-align: center;\">+</p>","response":null,"trial_type":"html-keyboard-response","trial_index":164,"plugin_version":"2.1.0","time_elapsed":398218,"subject_id":"91813","group":"Group2","condition":"3_Rep","full_date":"2026-03-08T20:49:20.275Z","date":"2026-03-08","time":"20:49:20"},{"task":"memory_phase","broad_category":"S","image_png":"S_Sandstone_08.png","image_id":456,"category_name":"Sandstone","category":29,"distinct_rating":1.5,"distinct_type":"Bottom","rt":null,"stimulus":"Stimuli_Rocks480/S_Sandstone_08.png","response":null,"trial_type":"image-keyboard-response","trial_index":165,"plugin_version":"2.1.0","time_elapsed":400736,"subject_id":"91813","group":"Group2","condition":"3_Rep","full_date":"2026-03-08T20:49:20.275Z","date":"2026-03-08","time":"20:49:20"},{"rt":null,"stimulus":"<p style=\"font-size: 50px; margin: 0; text-align: center;\">+</p>","response":null,"trial_type":"html-keyboard-response","trial_index":166,"plugin_version":"2.1.0","time_elapsed":401738,"subject_id":"91813","group":"Group2","condition":"3_Rep","full_date":"2026-03-08T20:49:20.275Z","date":"2026-03-08","time":"20:49:20"},{"task":"memory_phase","broad_category":"I","image_png":"I_Pumice_14.png","image_id":142,"category_name":"Pumice","category":9,"distinct_rating":3.22,"distinct_type":"Bottom","rt":null,"stimulus":"Stimuli_Rocks480/I_Pumice_14.png","response":null,"trial_type":"image-keyboard-response","trial_index":167,"plugin_version":"2.1.0","time_elapsed":404257,"subject_id":"91813","group":"Group2","condition":"3_Rep","full_date":"2026-03-08T20:49:20.275Z","date":"2026-03-08","time":"20:49:20"},{"rt":null,"stimulus":"<p style=\"font-size: 50px; margin: 0; text-align: center;\">+</p>","response":null,"trial_type":"html-keyboard-response","trial_index":168,"plugin_version":"2.1.0","time_elapsed":405260,"subject_id":"91813","group":"Group2","condition":"3_Rep","full_date":"2026-03-08T20:49:20.275Z","date":"2026-03-08","time":"20:49:20"},{"task":"memory_phase","broad_category":"I","image_png":"I_Gabbro_14.png","image_id":62,"category_name":"Gabbro","category":4,"distinct_rating":2.95,"distinct_type":"Bottom","rt":null,"stimulus":"Stimuli_Rocks480/I_Gabbro_14.png","response":null,"trial_type":"image-keyboard-response","trial_index":169,"plugin_version":"2.1.0","time_elapsed":407785,"subject_id":"91813","group":"Group2","condition":"3_Rep","full_date":"2026-03-08T20:49:20.275Z","date":"2026-03-08","time":"20:49:20"},{"rt":null,"stimulus":"<p style=\"font-size: 50px; margin: 0; text-align: center;\">+</p>","response":null,"trial_type":"html-keyboard-response","trial_index":170,"plugin_version":"2.1.0","time_elapsed":408788,"subject_id":"91813","group":"Group2","condition":"3_Rep","full_date":"2026-03-08T20:49:20.275Z","date":"2026-03-08","time":"20:49:20"},{"task":"memory_phase","broad_category":"M","image_png":"M_Phyllite_02.png","image_id":258,"category_name":"Phyllite","category":17,"distinct_rating":2.89,"distinct_type":"Bottom","rt":null,"stimulus":"Stimuli_Rocks480/M_Phyllite_02.png","response":null,"trial_type":"image-keyboard-response","trial_index":171,"plugin_version":"2.1.0","time_elapsed":411310,"subject_id":"91813","group":"Group2","condition":"3_Rep","full_date":"2026-03-08T20:49:20.275Z","date":"2026-03-08","time":"20:49:20"},{"rt":null,"stimulus":"<p style=\"font-size: 50px; margin: 0; text-align: center;\">+</p>","response":null,"trial_type":"html-keyboard-response","trial_index":172,"plugin_version":"2.1.0","time_elapsed":412313,"subject_id":"91813","group":"Group2","condition":"3_Rep","full_date":"2026-03-08T20:49:20.275Z","date":"2026-03-08","time":"20:49:20"},{"task":"memory_phase","broad_category":"S","image_png":"S_Dolomite_07.png","image_id":391,"category_name":"Dolomite","category":25,"distinct_rating":1.73,"distinct_type":"Bottom","rt":null,"stimulus":"Stimuli_Rocks480/S_Dolomite_07.png","response":null,"trial_type":"image-keyboard-response","trial_index":173,"plugin_version":"2.1.0","time_elapsed":414832,"subject_id":"91813","group":"Group2","condition":"3_Rep","full_date":"2026-03-08T20:49:20.275Z","date":"2026-03-08","time":"20:49:20"},{"rt":null,"stimulus":"<p style=\"font-size: 50px; margin: 0; text-align: center;\">+</p>","response":null,"trial_type":"html-keyboard-response","trial_index":174,"plugin_version":"2.1.0","time_elapsed":415835,"subject_id":"91813","group":"Group2","condition":"3_Rep","full_date":"2026-03-08T20:49:20.275Z","date":"2026-03-08","time":"20:49:20"},{"task":"memory_phase","broad_category":"M","image_png":"M_Marble_02.png","image_id":226,"category_name":"Marble","category":15,"distinct_rating":3.2,"distinct_type":"Bottom","rt":null,"stimulus":"Stimuli_Rocks480/M_Marble_02.png","response":null,"trial_type":"image-keyboard-response","trial_index":175,"plugin_version":"2.1.0","time_elapsed":418351,"subject_id":"91813","group":"Group2","condition":"3_Rep","full_date":"2026-03-08T20:49:20.275Z","date":"2026-03-08","time":"20:49:20"},{"rt":null,"stimulus":"<p style=\"font-size: 50px; margin: 0; text-align: center;\">+</p>","response":null,"trial_type":"html-keyboard-response","trial_index":176,"plugin_version":"2.1.0","time_elapsed":419354,"subject_id":"91813","group":"Group2","condition":"3_Rep","full_date":"2026-03-08T20:49:20.275Z","date":"2026-03-08","time":"20:49:20"},{"task":"memory_phase","broad_category":"S","image_png":"S_Dolomite_01.png","image_id":385,"category_name":"Dolomite","category":25,"distinct_rating":1.43,"distinct_type":"Bottom","rt":null,"stimulus":"Stimuli_Rocks480/S_Dolomite_01.png","response":null,"trial_type":"image-keyboard-response","trial_index":177,"plugin_version":"2.1.0","time_elapsed":421877,"subject_id":"91813","group":"Group2","condition":"3_Rep","full_date":"2026-03-08T20:49:20.275Z","date":"2026-03-08","time":"20:49:20"},{"rt":null,"stimulus":"<p style=\"font-size: 50px; margin: 0; text-align: center;\">+</p>","response":null,"trial_type":"html-keyboard-response","trial_index":178,"plugin_version":"2.1.0","time_elapsed":422880,"subject_id":"91813","group":"Group2","condition":"3_Rep","full_date":"2026-03-08T20:49:20.275Z","date":"2026-03-08","time":"20:49:20"},{"task":"memory_phase","broad_category":"S","image_png":"S_Sandstone_11.png","image_id":459,"category_name":"Sandstone","category":29,"distinct_rating":1.82,"distinct_type":"Bottom","rt":null,"stimulus":"Stimuli_Rocks480/S_Sandstone_11.png","response":null,"trial_type":"image-keyboard-response","trial_index":179,"plugin_version":"2.1.0","time_elapsed":425406,"subject_id":"91813","group":"Group2","condition":"3_Rep","full_date":"2026-03-08T20:49:20.275Z","date":"2026-03-08","time":"20:49:20"},{"rt":null,"stimulus":"<p style=\"font-size: 50px; margin: 0; text-align: center;\">+</p>","response":null,"trial_type":"html-keyboard-response","trial_index":180,"plugin_version":"2.1.0","time_elapsed":426408,"subject_id":"91813","group":"Group2","condition":"3_Rep","full_date":"2026-03-08T20:49:20.275Z","date":"2026-03-08","time":"20:49:20"},{"task":"memory_phase","broad_category":"I","image_png":"I_Pegmatite_03.png","image_id":99,"category_name":"Pegmatite","category":7,"distinct_rating":7.24,"distinct_type":"Top","rt":null,"stimulus":"Stimuli_Rocks480/I_Pegmatite_03.png","response":null,"trial_type":"image-keyboard-response","trial_index":181,"plugin_version":"2.1.0","time_elapsed":428926,"subject_id":"91813","group":"Group2","condition":"3_Rep","full_date":"2026-03-08T20:49:20.275Z","date":"2026-03-08","time":"20:49:20"},{"rt":null,"stimulus":"<p style=\"font-size: 50px; margin: 0; text-align: center;\">+</p>","response":null,"trial_type":"html-keyboard-response","trial_index":182,"plugin_version":"2.1.0","time_elapsed":429928,"subject_id":"91813","group":"Group2","condition":"3_Rep","full_date":"2026-03-08T20:49:20.275Z","date":"2026-03-08","time":"20:49:20"},{"task":"memory_phase","broad_category":"M","image_png":"M_Marble_03.png","image_id":227,"category_name":"Marble","category":15,"distinct_rating":2.67,"distinct_type":"Bottom","rt":null,"stimulus":"Stimuli_Rocks480/M_Marble_03.png","response":null,"trial_type":"image-keyboard-response","trial_index":183,"plugin_version":"2.1.0","time_elapsed":432448,"subject_id":"91813","group":"Group2","condition":"3_Rep","full_date":"2026-03-08T20:49:20.275Z","date":"2026-03-08","time":"20:49:20"},{"rt":null,"stimulus":"<p style=\"font-size: 50px; margin: 0; text-align: center;\">+</p>","response":null,"trial_type":"html-keyboard-response","trial_index":184,"plugin_version":"2.1.0","time_elapsed":433450,"subject_id":"91813","group":"Group2","condition":"3_Rep","full_date":"2026-03-08T20:49:20.275Z","date":"2026-03-08","time":"20:49:20"},{"task":"memory_phase","broad_category":"I","image_png":"I_Rhyolite_05.png","image_id":149,"category_name":"Rhyolite","category":10,"distinct_rating":3.02,"distinct_type":"Bottom","rt":null,"stimulus":"Stimuli_Rocks480/I_Rhyolite_05.png","response":null,"trial_type":"image-keyboard-response","trial_index":185,"plugin_version":"2.1.0","time_elapsed":435975,"subject_id":"91813","group":"Group2","condition":"3_Rep","full_date":"2026-03-08T20:49:20.275Z","date":"2026-03-08","time":"20:49:20"},{"rt":null,"stimulus":"<p style=\"font-size: 50px; margin: 0; text-align: center;\">+</p>","response":null,"trial_type":"html-keyboard-response","trial_index":186,"plugin_version":"2.1.0","time_elapsed":436978,"subject_id":"91813","group":"Group2","condition":"3_Rep","full_date":"2026-03-08T20:49:20.275Z","date":"2026-03-08","time":"20:49:20"},{"task":"memory_phase","broad_category":"S","image_png":"S_Sandstone_04.png","image_id":452,"category_name":"Sandstone","category":29,"distinct_rating":1.8,"distinct_type":"Bottom","rt":null,"stimulus":"Stimuli_Rocks480/S_Sandstone_04.png","response":null,"trial_type":"image-keyboard-response","trial_index":187,"plugin_version":"2.1.0","time_elapsed":439498,"subject_id":"91813","group":"Group2","condition":"3_Rep","full_date":"2026-03-08T20:49:20.275Z","date":"2026-03-08","time":"20:49:20"},{"rt":null,"stimulus":"<p style=\"font-size: 50px; margin: 0; text-align: center;\">+</p>","response":null,"trial_type":"html-keyboard-response","trial_index":188,"plugin_version":"2.1.0","time_elapsed":440501,"subject_id":"91813","group":"Group2","condition":"3_Rep","full_date":"2026-03-08T20:49:20.275Z","date":"2026-03-08","time":"20:49:20"},{"task":"memory_phase","broad_category":"M","image_png":"M_Slate_04.png","image_id":308,"category_name":"Slate","category":20,"distinct_rating":2.2,"distinct_type":"Bottom","rt":null,"stimulus":"Stimuli_Rocks480/M_Slate_04.png","response":null,"trial_type":"image-keyboard-response","trial_index":189,"plugin_version":"2.1.0","time_elapsed":443015,"subject_id":"91813","group":"Group2","condition":"3_Rep","full_date":"2026-03-08T20:49:20.275Z","date":"2026-03-08","time":"20:49:20"},{"rt":null,"stimulus":"<p style=\"font-size: 50px; margin: 0; text-align: center;\">+</p>","response":null,"trial_type":"html-keyboard-response","trial_index":190,"plugin_version":"2.1.0","time_elapsed":444018,"subject_id":"91813","group":"Group2","condition":"3_Rep","full_date":"2026-03-08T20:49:20.275Z","date":"2026-03-08","time":"20:49:20"},{"task":"memory_phase","broad_category":"I","image_png":"I_Andesite_04.png","image_id":4,"category_name":"Andesite","category":1,"distinct_rating":3.18,"distinct_type":"Bottom","rt":null,"stimulus":"Stimuli_Rocks480/I_Andesite_04.png","response":null,"trial_type":"image-keyboard-response","trial_index":191,"plugin_version":"2.1.0","time_elapsed":446538,"subject_id":"91813","group":"Group2","condition":"3_Rep","full_date":"2026-03-08T20:49:20.275Z","date":"2026-03-08","time":"20:49:20"},{"rt":null,"stimulus":"<p style=\"font-size: 50px; margin: 0; text-align: center;\">+</p>","response":null,"trial_type":"html-keyboard-response","trial_index":192,"plugin_version":"2.1.0","time_elapsed":447540,"subject_id":"91813","group":"Group2","condition":"3_Rep","full_date":"2026-03-08T20:49:20.275Z","date":"2026-03-08","time":"20:49:20"},{"task":"memory_phase","broad_category":"S","image_png":"S_Shale_07.png","image_id":471,"category_name":"Shale","category":30,"distinct_rating":2.73,"distinct_type":"Bottom","rt":null,"stimulus":"Stimuli_Rocks480/S_Shale_07.png","response":null,"trial_type":"image-keyboard-response","trial_index":193,"plugin_version":"2.1.0","time_elapsed":450056,"subject_id":"91813","group":"Group2","condition":"3_Rep","full_date":"2026-03-08T20:49:20.275Z","date":"2026-03-08","time":"20:49:20"},{"rt":null,"stimulus":"<p style=\"font-size: 50px; margin: 0; text-align: center;\">+</p>","response":null,"trial_type":"html-keyboard-response","trial_index":194,"plugin_version":"2.1.0","time_elapsed":451059,"subject_id":"91813","group":"Group2","condition":"3_Rep","full_date":"2026-03-08T20:49:20.275Z","date":"2026-03-08","time":"20:49:20"},{"task":"memory_phase","broad_category":"M","image_png":"M_Phyllite_13.png","image_id":269,"category_name":"Phyllite","category":17,"distinct_rating":2.8,"distinct_type":"Bottom","rt":null,"stimulus":"Stimuli_Rocks480/M_Phyllite_13.png","response":null,"trial_type":"image-keyboard-response","trial_index":195,"plugin_version":"2.1.0","time_elapsed":453577,"subject_id":"91813","group":"Group2","condition":"3_Rep","full_date":"2026-03-08T20:49:20.275Z","date":"2026-03-08","time":"20:49:20"},{"rt":null,"stimulus":"<p style=\"font-size: 50px; margin: 0; text-align: center;\">+</p>","response":null,"trial_type":"html-keyboard-response","trial_index":196,"plugin_version":"2.1.0","time_elapsed":454579,"subject_id":"91813","group":"Group2","condition":"3_Rep","full_date":"2026-03-08T20:49:20.275Z","date":"2026-03-08","time":"20:49:20"},{"task":"memory_phase","broad_category":"M","image_png":"M_Gneiss_14.png","image_id":206,"category_name":"Gneiss","category":13,"distinct_rating":3.41,"distinct_type":"Bottom","rt":null,"stimulus":"Stimuli_Rocks480/M_Gneiss_14.png","response":null,"trial_type":"image-keyboard-response","trial_index":197,"plugin_version":"2.1.0","time_elapsed":457100,"subject_id":"91813","group":"Group2","condition":"3_Rep","full_date":"2026-03-08T20:49:20.275Z","date":"2026-03-08","time":"20:49:20"},{"rt":null,"stimulus":"<p style=\"font-size: 50px; margin: 0; text-align: center;\">+</p>","response":null,"trial_type":"html-keyboard-response","trial_index":198,"plugin_version":"2.1.0","time_elapsed":458102,"subject_id":"91813","group":"Group2","condition":"3_Rep","full_date":"2026-03-08T20:49:20.275Z","date":"2026-03-08","time":"20:49:20"},{"task":"memory_phase","broad_category":"M","image_png":"M_Quartzite_12.png","image_id":284,"category_name":"Quartzite","category":18,"distinct_rating":1.92,"distinct_type":"Bottom","rt":null,"stimulus":"Stimuli_Rocks480/M_Quartzite_12.png","response":null,"trial_type":"image-keyboard-response","trial_index":199,"plugin_version":"2.1.0","time_elapsed":460620,"subject_id":"91813","group":"Group2","condition":"3_Rep","full_date":"2026-03-08T20:49:20.275Z","date":"2026-03-08","time":"20:49:20"},{"rt":null,"stimulus":"<p style=\"font-size: 50px; margin: 0; text-align: center;\">+</p>","response":null,"trial_type":"html-keyboard-response","trial_index":200,"plugin_version":"2.1.0","time_elapsed":461623,"subject_id":"91813","group":"Group2","condition":"3_Rep","full_date":"2026-03-08T20:49:20.275Z","date":"2026-03-08","time":"20:49:20"},{"task":"memory_phase","broad_category":"I","image_png":"I_Basalt_10.png","image_id":26,"category_name":"Basalt","category":2,"distinct_rating":2.76,"distinct_type":"Bottom","rt":null,"stimulus":"Stimuli_Rocks480/I_Basalt_10.png","response":null,"trial_type":"image-keyboard-response","trial_index":201,"plugin_version":"2.1.0","time_elapsed":464143,"subject_id":"91813","group":"Group2","condition":"3_Rep","full_date":"2026-03-08T20:49:20.275Z","date":"2026-03-08","time":"20:49:20"},{"rt":null,"stimulus":"<p style=\"font-size: 50px; margin: 0; text-align: center;\">+</p>","response":null,"trial_type":"html-keyboard-response","trial_index":202,"plugin_version":"2.1.0","time_elapsed":465146,"subject_id":"91813","group":"Group2","condition":"3_Rep","full_date":"2026-03-08T20:49:20.275Z","date":"2026-03-08","time":"20:49:20"},{"task":"memory_phase","broad_category":"I","image_png":"I_Diorite_01.png","image_id":33,"category_name":"Diorite","category":3,"distinct_rating":2.97,"distinct_type":"Bottom","rt":null,"stimulus":"Stimuli_Rocks480/I_Diorite_01.png","response":null,"trial_type":"image-keyboard-response","trial_index":203,"plugin_version":"2.1.0","time_elapsed":467670,"subject_id":"91813","group":"Group2","condition":"3_Rep","full_date":"2026-03-08T20:49:20.275Z","date":"2026-03-08","time":"20:49:20"},{"rt":null,"stimulus":"<p style=\"font-size: 50px; margin: 0; text-align: center;\">+</p>","response":null,"trial_type":"html-keyboard-response","trial_index":204,"plugin_version":"2.1.0","time_elapsed":468672,"subject_id":"91813","group":"Group2","condition":"3_Rep","full_date":"2026-03-08T20:49:20.275Z","date":"2026-03-08","time":"20:49:20"},{"task":"memory_phase","broad_category":"I","image_png":"I_Gabbro_12.png","image_id":60,"category_name":"Gabbro","category":4,"distinct_rating":2.6,"distinct_type":"Bottom","rt":null,"stimulus":"Stimuli_Rocks480/I_Gabbro_12.png","response":null,"trial_type":"image-keyboard-response","trial_index":205,"plugin_version":"2.1.0","time_elapsed":471199,"subject_id":"91813","group":"Group2","condition":"3_Rep","full_date":"2026-03-08T20:49:20.275Z","date":"2026-03-08","time":"20:49:20"},{"rt":null,"stimulus":"<p style=\"font-size: 50px; margin: 0; text-align: center;\">+</p>","response":null,"trial_type":"html-keyboard-response","trial_index":206,"plugin_version":"2.1.0","time_elapsed":472203,"subject_id":"91813","group":"Group2","condition":"3_Rep","full_date":"2026-03-08T20:49:20.275Z","date":"2026-03-08","time":"20:49:20"},{"task":"memory_phase","broad_category":"S","image_png":"S_Rock Salt_13.png","image_id":445,"category_name":"Rock Salt","category":28,"distinct_rating":7.58,"distinct_type":"Top","rt":null,"stimulus":"Stimuli_Rocks480/S_Rock Salt_13.png","response":null,"trial_type":"image-keyboard-response","trial_index":207,"plugin_version":"2.1.0","time_elapsed":474725,"subject_id":"91813","group":"Group2","condition":"3_Rep","full_date":"2026-03-08T20:49:20.275Z","date":"2026-03-08","time":"20:49:20"},{"rt":17487,"stimulus":"<p style=\"max-width: 760px; margin: auto; font-size: 35px; line-height: 1.5;\">\n                You have completed 2 study phases. \n                Now, we'll show you all the images again 1 more time.\n                <br><br>Press SPACE to continue\n              </p>","response":" ","trial_type":"html-keyboard-response","trial_index":208,"plugin_version":"2.1.0","time_elapsed":492214,"subject_id":"91813","group":"Group2","condition":"3_Rep","full_date":"2026-03-08T20:49:20.275Z","date":"2026-03-08","time":"20:49:20"},{"rt":null,"stimulus":"<p style=\"font-size: 50px; margin: 0; text-align: center;\">+</p>","response":null,"trial_type":"html-keyboard-response","trial_index":209,"plugin_version":"2.1.0","time_elapsed":493217,"subject_id":"91813","group":"Group2","condition":"3_Rep","full_date":"2026-03-08T20:49:20.275Z","date":"2026-03-08","time":"20:49:20"},{"task":"memory_phase","broad_category":"I","image_png":"I_Pumice_01.png","image_id":129,"category_name":"Pumice","category":9,"distinct_rating":3.25,"distinct_type":"Bottom","rt":null,"stimulus":"Stimuli_Rocks480/I_Pumice_01.png","response":null,"trial_type":"image-keyboard-response","trial_index":210,"plugin_version":"2.1.0","time_elapsed":495737,"subject_id":"91813","group":"Group2","condition":"3_Rep","full_date":"2026-03-08T20:49:20.275Z","date":"2026-03-08","time":"20:49:20"},{"rt":null,"stimulus":"<p style=\"font-size: 50px; margin: 0; text-align: center;\">+</p>","response":null,"trial_type":"html-keyboard-response","trial_index":211,"plugin_version":"2.1.0","time_elapsed":496740,"subject_id":"91813","group":"Group2","condition":"3_Rep","full_date":"2026-03-08T20:49:20.275Z","date":"2026-03-08","time":"20:49:20"},{"task":"memory_phase","broad_category":"M","image_png":"M_Quartzite_07.png","image_id":279,"category_name":"Quartzite","category":18,"distinct_rating":1.97,"distinct_type":"Bottom","rt":null,"stimulus":"Stimuli_Rocks480/M_Quartzite_07.png","response":null,"trial_type":"image-keyboard-response","trial_index":212,"plugin_version":"2.1.0","time_elapsed":499261,"subject_id":"91813","group":"Group2","condition":"3_Rep","full_date":"2026-03-08T20:49:20.275Z","date":"2026-03-08","time":"20:49:20"},{"rt":null,"stimulus":"<p style=\"font-size: 50px; margin: 0; text-align: center;\">+</p>","response":null,"trial_type":"html-keyboard-response","trial_index":213,"plugin_version":"2.1.0","time_elapsed":500264,"subject_id":"91813","group":"Group2","condition":"3_Rep","full_date":"2026-03-08T20:49:20.275Z","date":"2026-03-08","time":"20:49:20"},{"task":"memory_phase","broad_category":"S","image_png":"S_Sandstone_04.png","image_id":452,"category_name":"Sandstone","category":29,"distinct_rating":1.8,"distinct_type":"Bottom","rt":null,"stimulus":"Stimuli_Rocks480/S_Sandstone_04.png","response":null,"trial_type":"image-keyboard-response","trial_index":214,"plugin_version":"2.1.0","time_elapsed":502768,"subject_id":"91813","group":"Group2","condition":"3_Rep","full_date":"2026-03-08T20:49:20.275Z","date":"2026-03-08","time":"20:49:20"},{"rt":null,"stimulus":"<p style=\"font-size: 50px; margin: 0; text-align: center;\">+</p>","response":null,"trial_type":"html-keyboard-response","trial_index":215,"plugin_version":"2.1.0","time_elapsed":503770,"subject_id":"91813","group":"Group2","condition":"3_Rep","full_date":"2026-03-08T20:49:20.275Z","date":"2026-03-08","time":"20:49:20"},{"task":"memory_phase","broad_category":"I","image_png":"I_Diorite_10.png","image_id":42,"category_name":"Diorite","category":3,"distinct_rating":2.84,"distinct_type":"Bottom","rt":null,"stimulus":"Stimuli_Rocks480/I_Diorite_10.png","response":null,"trial_type":"image-keyboard-response","trial_index":216,"plugin_version":"2.1.0","time_elapsed":506288,"subject_id":"91813","group":"Group2","condition":"3_Rep","full_date":"2026-03-08T20:49:20.275Z","date":"2026-03-08","time":"20:49:20"},{"rt":null,"stimulus":"<p style=\"font-size: 50px; margin: 0; text-align: center;\">+</p>","response":null,"trial_type":"html-keyboard-response","trial_index":217,"plugin_version":"2.1.0","time_elapsed":507291,"subject_id":"91813","group":"Group2","condition":"3_Rep","full_date":"2026-03-08T20:49:20.275Z","date":"2026-03-08","time":"20:49:20"},{"task":"memory_phase","broad_category":"M","image_png":"M_Gneiss_15.png","image_id":207,"category_name":"Gneiss","category":13,"distinct_rating":3.11,"distinct_type":"Bottom","rt":null,"stimulus":"Stimuli_Rocks480/M_Gneiss_15.png","response":null,"trial_type":"image-keyboard-response","trial_index":218,"plugin_version":"2.1.0","time_elapsed":509804,"subject_id":"91813","group":"Group2","condition":"3_Rep","full_date":"2026-03-08T20:49:20.275Z","date":"2026-03-08","time":"20:49:20"},{"rt":null,"stimulus":"<p style=\"font-size: 50px; margin: 0; text-align: center;\">+</p>","response":null,"trial_type":"html-keyboard-response","trial_index":219,"plugin_version":"2.1.0","time_elapsed":510807,"subject_id":"91813","group":"Group2","condition":"3_Rep","full_date":"2026-03-08T20:49:20.275Z","date":"2026-03-08","time":"20:49:20"},{"task":"memory_phase","broad_category":"M","image_png":"M_Phyllite_05.png","image_id":261,"category_name":"Phyllite","category":17,"distinct_rating":2.14,"distinct_type":"Bottom","rt":null,"stimulus":"Stimuli_Rocks480/M_Phyllite_05.png","response":null,"trial_type":"image-keyboard-response","trial_index":220,"plugin_version":"2.1.0","time_elapsed":513324,"subject_id":"91813","group":"Group2","condition":"3_Rep","full_date":"2026-03-08T20:49:20.275Z","date":"2026-03-08","time":"20:49:20"},{"rt":null,"stimulus":"<p style=\"font-size: 50px; margin: 0; text-align: center;\">+</p>","response":null,"trial_type":"html-keyboard-response","trial_index":221,"plugin_version":"2.1.0","time_elapsed":514327,"subject_id":"91813","group":"Group2","condition":"3_Rep","full_date":"2026-03-08T20:49:20.275Z","date":"2026-03-08","time":"20:49:20"},{"task":"memory_phase","broad_category":"S","image_png":"S_Shale_02.png","image_id":466,"category_name":"Shale","category":30,"distinct_rating":2.9,"distinct_type":"Bottom","rt":null,"stimulus":"Stimuli_Rocks480/S_Shale_02.png","response":null,"trial_type":"image-keyboard-response","trial_index":222,"plugin_version":"2.1.0","time_elapsed":516844,"subject_id":"91813","group":"Group2","condition":"3_Rep","full_date":"2026-03-08T20:49:20.275Z","date":"2026-03-08","time":"20:49:20"},{"rt":null,"stimulus":"<p style=\"font-size: 50px; margin: 0; text-align: center;\">+</p>","response":null,"trial_type":"html-keyboard-response","trial_index":223,"plugin_version":"2.1.0","time_elapsed":517847,"subject_id":"91813","group":"Group2","condition":"3_Rep","full_date":"2026-03-08T20:49:20.275Z","date":"2026-03-08","time":"20:49:20"},{"task":"memory_phase","broad_category":"S","image_png":"S_Rock Salt_15.png","image_id":447,"category_name":"Rock Salt","category":28,"distinct_rating":7.79,"distinct_type":"Top","rt":null,"stimulus":"Stimuli_Rocks480/S_Rock Salt_15.png","response":null,"trial_type":"image-keyboard-response","trial_index":224,"plugin_version":"2.1.0","time_elapsed":520365,"subject_id":"91813","group":"Group2","condition":"3_Rep","full_date":"2026-03-08T20:49:20.275Z","date":"2026-03-08","time":"20:49:20"},{"rt":null,"stimulus":"<p style=\"font-size: 50px; margin: 0; text-align: center;\">+</p>","response":null,"trial_type":"html-keyboard-response","trial_index":225,"plugin_version":"2.1.0","time_elapsed":521367,"subject_id":"91813","group":"Group2","condition":"3_Rep","full_date":"2026-03-08T20:49:20.275Z","date":"2026-03-08","time":"20:49:20"},{"task":"memory_phase","broad_category":"I","image_png":"I_Basalt_10.png","image_id":26,"category_name":"Basalt","category":2,"distinct_rating":2.76,"distinct_type":"Bottom","rt":null,"stimulus":"Stimuli_Rocks480/I_Basalt_10.png","response":null,"trial_type":"image-keyboard-response","trial_index":226,"plugin_version":"2.1.0","time_elapsed":523871,"subject_id":"91813","group":"Group2","condition":"3_Rep","full_date":"2026-03-08T20:49:20.275Z","date":"2026-03-08","time":"20:49:20"},{"rt":null,"stimulus":"<p style=\"font-size: 50px; margin: 0; text-align: center;\">+</p>","response":null,"trial_type":"html-keyboard-response","trial_index":227,"plugin_version":"2.1.0","time_elapsed":524874,"subject_id":"91813","group":"Group2","condition":"3_Rep","full_date":"2026-03-08T20:49:20.275Z","date":"2026-03-08","time":"20:49:20"},{"task":"memory_phase","broad_category":"M","image_png":"M_Marble_03.png","image_id":227,"category_name":"Marble","category":15,"distinct_rating":2.67,"distinct_type":"Bottom","rt":null,"stimulus":"Stimuli_Rocks480/M_Marble_03.png","response":null,"trial_type":"image-keyboard-response","trial_index":228,"plugin_version":"2.1.0","time_elapsed":527377,"subject_id":"91813","group":"Group2","condition":"3_Rep","full_date":"2026-03-08T20:49:20.275Z","date":"2026-03-08","time":"20:49:20"},{"rt":null,"stimulus":"<p style=\"font-size: 50px; margin: 0; text-align: center;\">+</p>","response":null,"trial_type":"html-keyboard-response","trial_index":229,"plugin_version":"2.1.0","time_elapsed":528380,"subject_id":"91813","group":"Group2","condition":"3_Rep","full_date":"2026-03-08T20:49:20.275Z","date":"2026-03-08","time":"20:49:20"},{"task":"memory_phase","broad_category":"M","image_png":"M_Gneiss_14.png","image_id":206,"category_name":"Gneiss","category":13,"distinct_rating":3.41,"distinct_type":"Bottom","rt":null,"stimulus":"Stimuli_Rocks480/M_Gneiss_14.png","response":null,"trial_type":"image-keyboard-response","trial_index":230,"plugin_version":"2.1.0","time_elapsed":530884,"subject_id":"91813","group":"Group2","condition":"3_Rep","full_date":"2026-03-08T20:49:20.275Z","date":"2026-03-08","time":"20:49:20"},{"rt":null,"stimulus":"<p style=\"font-size: 50px; margin: 0; text-align: center;\">+</p>","response":null,"trial_type":"html-keyboard-response","trial_index":231,"plugin_version":"2.1.0","time_elapsed":531887,"subject_id":"91813","group":"Group2","condition":"3_Rep","full_date":"2026-03-08T20:49:20.275Z","date":"2026-03-08","time":"20:49:20"},{"task":"memory_phase","broad_category":"S","image_png":"S_Conglomerate_14.png","image_id":382,"category_name":"Conglomerate","category":24,"distinct_rating":6.86,"distinct_type":"Top","rt":null,"stimulus":"Stimuli_Rocks480/S_Conglomerate_14.png","response":null,"trial_type":"image-keyboard-response","trial_index":232,"plugin_version":"2.1.0","time_elapsed":534406,"subject_id":"91813","group":"Group2","condition":"3_Rep","full_date":"2026-03-08T20:49:20.275Z","date":"2026-03-08","time":"20:49:20"},{"rt":null,"stimulus":"<p style=\"font-size: 50px; margin: 0; text-align: center;\">+</p>","response":null,"trial_type":"html-keyboard-response","trial_index":233,"plugin_version":"2.1.0","time_elapsed":535408,"subject_id":"91813","group":"Group2","condition":"3_Rep","full_date":"2026-03-08T20:49:20.275Z","date":"2026-03-08","time":"20:49:20"},{"task":"memory_phase","broad_category":"S","image_png":"S_Sandstone_11.png","image_id":459,"category_name":"Sandstone","category":29,"distinct_rating":1.82,"distinct_type":"Bottom","rt":null,"stimulus":"Stimuli_Rocks480/S_Sandstone_11.png","response":null,"trial_type":"image-keyboard-response","trial_index":234,"plugin_version":"2.1.0","time_elapsed":537933,"subject_id":"91813","group":"Group2","condition":"3_Rep","full_date":"2026-03-08T20:49:20.275Z","date":"2026-03-08","time":"20:49:20"},{"rt":null,"stimulus":"<p style=\"font-size: 50px; margin: 0; text-align: center;\">+</p>","response":null,"trial_type":"html-keyboard-response","trial_index":235,"plugin_version":"2.1.0","time_elapsed":538935,"subject_id":"91813","group":"Group2","condition":"3_Rep","full_date":"2026-03-08T20:49:20.275Z","date":"2026-03-08","time":"20:49:20"},{"task":"memory_phase","broad_category":"I","image_png":"I_Pegmatite_11.png","image_id":107,"category_name":"Pegmatite","category":7,"distinct_rating":7.11,"distinct_type":"Top","rt":null,"stimulus":"Stimuli_Rocks480/I_Pegmatite_