[{"width":1912,"height":914,"webaudio":true,"browser":"edge-chromium","browser_version":"145.0.0","mobile":false,"os":"Windows 10","fullscreen":true,"vsync_rate":59.81,"webcam":true,"microphone":true,"trial_type":"browser-check","trial_index":0,"plugin_version":"2.1.0","time_elapsed":1012,"subject_id":"90767","group":"Group2","condition":"1_Rep","full_date":"2026-03-09T12:05:39.827Z","date":"2026-03-09","time":"12:05:39"},{"success":true,"timeout":false,"failed_images":[],"failed_audio":[],"failed_video":[],"trial_type":"preload","trial_index":1,"plugin_version":"2.1.0","time_elapsed":1803,"subject_id":"90767","group":"Group2","condition":"1_Rep","full_date":"2026-03-09T12:05:39.827Z","date":"2026-03-09","time":"12:05:39"},{"rt":75084,"url":"SONA_consent_memorability.html","trial_type":"external-html","trial_index":2,"plugin_version":"2.1.0","time_elapsed":76934,"subject_id":"90767","group":"Group2","condition":"1_Rep","full_date":"2026-03-09T12:05:39.827Z","date":"2026-03-09","time":"12:05:39"},{"success":true,"rt":1728,"trial_type":"fullscreen","trial_index":3,"plugin_version":"2.1.0","time_elapsed":79680,"subject_id":"90767","group":"Group2","condition":"1_Rep","full_date":"2026-03-09T12:05:39.827Z","date":"2026-03-09","time":"12:05:39"},{"rt":25477,"stimulus":"<div style=\"max-width: 760px; margin: auto; font-size: 20px; line-height: 1.5;\">\n      <h1 style=\"text-align:center; font-size: 30px;\">Instructions</h1>\n      <p>\n        Welcome to the study on <b>visual memory</b>. This experiment consists of <b>two phases</b>: \n        a <b>study phase</b> and a <b>test phase</b>.\n      </p>\n      <p>\n        In the study phase, you will see a series of rock images along with their category labels.\n        The images will appear one at a time.\n        <b>Your task</b> is to learn the categories to which the rock images belong \n        and to remember each image as accurately as possible.\n      </p> \n      <p>\n        Note that you will see each image only <b>once</b> during the study phase. \n          So, please pay close attention and try to remember each image carefully.\n      </p>\n      <p>\n        After the study phase, <b>your memory will be tested</b>. \n        Additional instructions for the test phase will be provided at that time.\n      </p>\n      <p>\n        If your computer has multiple <b>language settings</b> (e.g., English and another language),\n        please make sure it is set to English before starting.\n      </p>\n      <p>\n        You can track your progress using the <b>completion bar</b> at the top of the screen. \n        Please note that the bar will refresh when the test phase begins \n        to give you an accurate sense of your progress in both phases.\n      </p> \n      <p>\n        Press the button below when you are ready to begin.\n      </p>\n    </div>","response":0,"trial_type":"html-button-response","trial_index":4,"plugin_version":"2.1.0","time_elapsed":105159,"subject_id":"90767","group":"Group2","condition":"1_Rep","full_date":"2026-03-09T12:05:39.827Z","date":"2026-03-09","time":"12:05:39"},{"rt":null,"stimulus":"<p style=\"font-size: 50px; margin: 0; text-align: center;\">+</p>","response":null,"trial_type":"html-keyboard-response","trial_index":5,"plugin_version":"2.1.0","time_elapsed":106176,"subject_id":"90767","group":"Group2","condition":"1_Rep","full_date":"2026-03-09T12:05:39.827Z","date":"2026-03-09","time":"12:05:39"},{"task":"memory_phase","broad_category":"M","image_png":"M_Quartzite_07.png","image_id":279,"category_name":"Quartzite","category":18,"distinct_rating":1.97,"distinct_type":"Bottom","rt":null,"stimulus":"Stimuli_Rocks480/M_Quartzite_07.png","response":null,"trial_type":"image-keyboard-response","trial_index":6,"plugin_version":"2.1.0","time_elapsed":108694,"subject_id":"90767","group":"Group2","condition":"1_Rep","full_date":"2026-03-09T12:05:39.827Z","date":"2026-03-09","time":"12:05:39"},{"rt":null,"stimulus":"<p style=\"font-size: 50px; margin: 0; text-align: center;\">+</p>","response":null,"trial_type":"html-keyboard-response","trial_index":7,"plugin_version":"2.1.0","time_elapsed":109705,"subject_id":"90767","group":"Group2","condition":"1_Rep","full_date":"2026-03-09T12:05:39.827Z","date":"2026-03-09","time":"12:05:39"},{"task":"memory_phase","broad_category":"I","image_png":"I_Pumice_14.png","image_id":142,"category_name":"Pumice","category":9,"distinct_rating":3.22,"distinct_type":"Bottom","rt":null,"stimulus":"Stimuli_Rocks480/I_Pumice_14.png","response":null,"trial_type":"image-keyboard-response","trial_index":8,"plugin_version":"2.1.0","time_elapsed":112216,"subject_id":"90767","group":"Group2","condition":"1_Rep","full_date":"2026-03-09T12:05:39.827Z","date":"2026-03-09","time":"12:05:39"},{"rt":null,"stimulus":"<p style=\"font-size: 50px; margin: 0; text-align: center;\">+</p>","response":null,"trial_type":"html-keyboard-response","trial_index":9,"plugin_version":"2.1.0","time_elapsed":113230,"subject_id":"90767","group":"Group2","condition":"1_Rep","full_date":"2026-03-09T12:05:39.827Z","date":"2026-03-09","time":"12:05:39"},{"task":"memory_phase","broad_category":"S","image_png":"S_Chert_13.png","image_id":365,"category_name":"Chert","category":23,"distinct_rating":6.57,"distinct_type":"Top","rt":null,"stimulus":"Stimuli_Rocks480/S_Chert_13.png","response":null,"trial_type":"image-keyboard-response","trial_index":10,"plugin_version":"2.1.0","time_elapsed":115736,"subject_id":"90767","group":"Group2","condition":"1_Rep","full_date":"2026-03-09T12:05:39.827Z","date":"2026-03-09","time":"12:05:39"},{"rt":null,"stimulus":"<p style=\"font-size: 50px; margin: 0; text-align: center;\">+</p>","response":null,"trial_type":"html-keyboard-response","trial_index":11,"plugin_version":"2.1.0","time_elapsed":116754,"subject_id":"90767","group":"Group2","condition":"1_Rep","full_date":"2026-03-09T12:05:39.827Z","date":"2026-03-09","time":"12:05:39"},{"task":"memory_phase","broad_category":"M","image_png":"M_Slate_14.png","image_id":318,"category_name":"Slate","category":20,"distinct_rating":2.58,"distinct_type":"Bottom","rt":null,"stimulus":"Stimuli_Rocks480/M_Slate_14.png","response":null,"trial_type":"image-keyboard-response","trial_index":12,"plugin_version":"2.1.0","time_elapsed":119272,"subject_id":"90767","group":"Group2","condition":"1_Rep","full_date":"2026-03-09T12:05:39.827Z","date":"2026-03-09","time":"12:05:39"},{"rt":null,"stimulus":"<p style=\"font-size: 50px; margin: 0; text-align: center;\">+</p>","response":null,"trial_type":"html-keyboard-response","trial_index":13,"plugin_version":"2.1.0","time_elapsed":120274,"subject_id":"90767","group":"Group2","condition":"1_Rep","full_date":"2026-03-09T12:05:39.827Z","date":"2026-03-09","time":"12:05:39"},{"task":"memory_phase","broad_category":"I","image_png":"I_Andesite_09.png","image_id":9,"category_name":"Andesite","category":1,"distinct_rating":2.49,"distinct_type":"Bottom","rt":null,"stimulus":"Stimuli_Rocks480/I_Andesite_09.png","response":null,"trial_type":"image-keyboard-response","trial_index":14,"plugin_version":"2.1.0","time_elapsed":122788,"subject_id":"90767","group":"Group2","condition":"1_Rep","full_date":"2026-03-09T12:05:39.827Z","date":"2026-03-09","time":"12:05:39"},{"rt":null,"stimulus":"<p style=\"font-size: 50px; margin: 0; text-align: center;\">+</p>","response":null,"trial_type":"html-keyboard-response","trial_index":15,"plugin_version":"2.1.0","time_elapsed":123801,"subject_id":"90767","group":"Group2","condition":"1_Rep","full_date":"2026-03-09T12:05:39.827Z","date":"2026-03-09","time":"12:05:39"},{"task":"memory_phase","broad_category":"M","image_png":"M_Gneiss_14.png","image_id":206,"category_name":"Gneiss","category":13,"distinct_rating":3.41,"distinct_type":"Bottom","rt":null,"stimulus":"Stimuli_Rocks480/M_Gneiss_14.png","response":null,"trial_type":"image-keyboard-response","trial_index":16,"plugin_version":"2.1.0","time_elapsed":126317,"subject_id":"90767","group":"Group2","condition":"1_Rep","full_date":"2026-03-09T12:05:39.827Z","date":"2026-03-09","time":"12:05:39"},{"rt":null,"stimulus":"<p style=\"font-size: 50px; margin: 0; text-align: center;\">+</p>","response":null,"trial_type":"html-keyboard-response","trial_index":17,"plugin_version":"2.1.0","time_elapsed":127323,"subject_id":"90767","group":"Group2","condition":"1_Rep","full_date":"2026-03-09T12:05:39.827Z","date":"2026-03-09","time":"12:05:39"},{"task":"memory_phase","broad_category":"M","image_png":"M_Gneiss_15.png","image_id":207,"category_name":"Gneiss","category":13,"distinct_rating":3.11,"distinct_type":"Bottom","rt":null,"stimulus":"Stimuli_Rocks480/M_Gneiss_15.png","response":null,"trial_type":"image-keyboard-response","trial_index":18,"plugin_version":"2.1.0","time_elapsed":129833,"subject_id":"90767","group":"Group2","condition":"1_Rep","full_date":"2026-03-09T12:05:39.827Z","date":"2026-03-09","time":"12:05:39"},{"rt":null,"stimulus":"<p style=\"font-size: 50px; margin: 0; text-align: center;\">+</p>","response":null,"trial_type":"html-keyboard-response","trial_index":19,"plugin_version":"2.1.0","time_elapsed":130849,"subject_id":"90767","group":"Group2","condition":"1_Rep","full_date":"2026-03-09T12:05:39.827Z","date":"2026-03-09","time":"12:05:39"},{"task":"memory_phase","broad_category":"I","image_png":"I_Obsidian_06.png","image_id":86,"category_name":"Obsidian","category":6,"distinct_rating":8.01,"distinct_type":"Top","rt":null,"stimulus":"Stimuli_Rocks480/I_Obsidian_06.png","response":null,"trial_type":"image-keyboard-response","trial_index":20,"plugin_version":"2.1.0","time_elapsed":133365,"subject_id":"90767","group":"Group2","condition":"1_Rep","full_date":"2026-03-09T12:05:39.827Z","date":"2026-03-09","time":"12:05:39"},{"rt":null,"stimulus":"<p style=\"font-size: 50px; margin: 0; text-align: center;\">+</p>","response":null,"trial_type":"html-keyboard-response","trial_index":21,"plugin_version":"2.1.0","time_elapsed":134372,"subject_id":"90767","group":"Group2","condition":"1_Rep","full_date":"2026-03-09T12:05:39.827Z","date":"2026-03-09","time":"12:05:39"},{"task":"memory_phase","broad_category":"S","image_png":"S_Sandstone_08.png","image_id":456,"category_name":"Sandstone","category":29,"distinct_rating":1.5,"distinct_type":"Bottom","rt":null,"stimulus":"Stimuli_Rocks480/S_Sandstone_08.png","response":null,"trial_type":"image-keyboard-response","trial_index":22,"plugin_version":"2.1.0","time_elapsed":136884,"subject_id":"90767","group":"Group2","condition":"1_Rep","full_date":"2026-03-09T12:05:39.827Z","date":"2026-03-09","time":"12:05:39"},{"rt":null,"stimulus":"<p style=\"font-size: 50px; margin: 0; text-align: center;\">+</p>","response":null,"trial_type":"html-keyboard-response","trial_index":23,"plugin_version":"2.1.0","time_elapsed":137885,"subject_id":"90767","group":"Group2","condition":"1_Rep","full_date":"2026-03-09T12:05:39.827Z","date":"2026-03-09","time":"12:05:39"},{"task":"memory_phase","broad_category":"I","image_png":"I_Pumice_01.png","image_id":129,"category_name":"Pumice","category":9,"distinct_rating":3.25,"distinct_type":"Bottom","rt":null,"stimulus":"Stimuli_Rocks480/I_Pumice_01.png","response":null,"trial_type":"image-keyboard-response","trial_index":24,"plugin_version":"2.1.0","time_elapsed":140390,"subject_id":"90767","group":"Group2","condition":"1_Rep","full_date":"2026-03-09T12:05:39.827Z","date":"2026-03-09","time":"12:05:39"},{"rt":null,"stimulus":"<p style=\"font-size: 50px; margin: 0; text-align: center;\">+</p>","response":null,"trial_type":"html-keyboard-response","trial_index":25,"plugin_version":"2.1.0","time_elapsed":141391,"subject_id":"90767","group":"Group2","condition":"1_Rep","full_date":"2026-03-09T12:05:39.827Z","date":"2026-03-09","time":"12:05:39"},{"task":"memory_phase","broad_category":"M","image_png":"M_Marble_03.png","image_id":227,"category_name":"Marble","category":15,"distinct_rating":2.67,"distinct_type":"Bottom","rt":null,"stimulus":"Stimuli_Rocks480/M_Marble_03.png","response":null,"trial_type":"image-keyboard-response","trial_index":26,"plugin_version":"2.1.0","time_elapsed":143906,"subject_id":"90767","group":"Group2","condition":"1_Rep","full_date":"2026-03-09T12:05:39.827Z","date":"2026-03-09","time":"12:05:39"},{"rt":null,"stimulus":"<p style=\"font-size: 50px; margin: 0; text-align: center;\">+</p>","response":null,"trial_type":"html-keyboard-response","trial_index":27,"plugin_version":"2.1.0","time_elapsed":144920,"subject_id":"90767","group":"Group2","condition":"1_Rep","full_date":"2026-03-09T12:05:39.827Z","date":"2026-03-09","time":"12:05:39"},{"task":"memory_phase","broad_category":"M","image_png":"M_Slate_04.png","image_id":308,"category_name":"Slate","category":20,"distinct_rating":2.2,"distinct_type":"Bottom","rt":null,"stimulus":"Stimuli_Rocks480/M_Slate_04.png","response":null,"trial_type":"image-keyboard-response","trial_index":28,"plugin_version":"2.1.0","time_elapsed":147427,"subject_id":"90767","group":"Group2","condition":"1_Rep","full_date":"2026-03-09T12:05:39.827Z","date":"2026-03-09","time":"12:05:39"},{"rt":null,"stimulus":"<p style=\"font-size: 50px; margin: 0; text-align: center;\">+</p>","response":null,"trial_type":"html-keyboard-response","trial_index":29,"plugin_version":"2.1.0","time_elapsed":148441,"subject_id":"90767","group":"Group2","condition":"1_Rep","full_date":"2026-03-09T12:05:39.827Z","date":"2026-03-09","time":"12:05:39"},{"task":"memory_phase","broad_category":"S","image_png":"S_Shale_07.png","image_id":471,"category_name":"Shale","category":30,"distinct_rating":2.73,"distinct_type":"Bottom","rt":null,"stimulus":"Stimuli_Rocks480/S_Shale_07.png","response":null,"trial_type":"image-keyboard-response","trial_index":30,"plugin_version":"2.1.0","time_elapsed":150957,"subject_id":"90767","group":"Group2","condition":"1_Rep","full_date":"2026-03-09T12:05:39.827Z","date":"2026-03-09","time":"12:05:39"},{"rt":null,"stimulus":"<p style=\"font-size: 50px; margin: 0; text-align: center;\">+</p>","response":null,"trial_type":"html-keyboard-response","trial_index":31,"plugin_version":"2.1.0","time_elapsed":151960,"subject_id":"90767","group":"Group2","condition":"1_Rep","full_date":"2026-03-09T12:05:39.827Z","date":"2026-03-09","time":"12:05:39"},{"task":"memory_phase","broad_category":"S","image_png":"S_Dolomite_16.png","image_id":400,"category_name":"Dolomite","category":25,"distinct_rating":1.71,"distinct_type":"Bottom","rt":null,"stimulus":"Stimuli_Rocks480/S_Dolomite_16.png","response":null,"trial_type":"image-keyboard-response","trial_index":32,"plugin_version":"2.1.0","time_elapsed":154474,"subject_id":"90767","group":"Group2","condition":"1_Rep","full_date":"2026-03-09T12:05:39.827Z","date":"2026-03-09","time":"12:05:39"},{"rt":null,"stimulus":"<p style=\"font-size: 50px; margin: 0; text-align: center;\">+</p>","response":null,"trial_type":"html-keyboard-response","trial_index":33,"plugin_version":"2.1.0","time_elapsed":155485,"subject_id":"90767","group":"Group2","condition":"1_Rep","full_date":"2026-03-09T12:05:39.827Z","date":"2026-03-09","time":"12:05:39"},{"task":"memory_phase","broad_category":"I","image_png":"I_Diorite_01.png","image_id":33,"category_name":"Diorite","category":3,"distinct_rating":2.97,"distinct_type":"Bottom","rt":null,"stimulus":"Stimuli_Rocks480/I_Diorite_01.png","response":null,"trial_type":"image-keyboard-response","trial_index":34,"plugin_version":"2.1.0","time_elapsed":158002,"subject_id":"90767","group":"Group2","condition":"1_Rep","full_date":"2026-03-09T12:05:39.827Z","date":"2026-03-09","time":"12:05:39"},{"rt":null,"stimulus":"<p style=\"font-size: 50px; margin: 0; text-align: center;\">+</p>","response":null,"trial_type":"html-keyboard-response","trial_index":35,"plugin_version":"2.1.0","time_elapsed":159016,"subject_id":"90767","group":"Group2","condition":"1_Rep","full_date":"2026-03-09T12:05:39.827Z","date":"2026-03-09","time":"12:05:39"},{"task":"memory_phase","broad_category":"S","image_png":"S_Shale_03.png","image_id":467,"category_name":"Shale","category":30,"distinct_rating":1.95,"distinct_type":"Bottom","rt":null,"stimulus":"Stimuli_Rocks480/S_Shale_03.png","response":null,"trial_type":"image-keyboard-response","trial_index":36,"plugin_version":"2.1.0","time_elapsed":161532,"subject_id":"90767","group":"Group2","condition":"1_Rep","full_date":"2026-03-09T12:05:39.827Z","date":"2026-03-09","time":"12:05:39"},{"rt":null,"stimulus":"<p style=\"font-size: 50px; margin: 0; text-align: center;\">+</p>","response":null,"trial_type":"html-keyboard-response","trial_index":37,"plugin_version":"2.1.0","time_elapsed":162543,"subject_id":"90767","group":"Group2","condition":"1_Rep","full_date":"2026-03-09T12:05:39.827Z","date":"2026-03-09","time":"12:05:39"},{"task":"memory_phase","broad_category":"I","image_png":"I_Rhyolite_05.png","image_id":149,"category_name":"Rhyolite","category":10,"distinct_rating":3.02,"distinct_type":"Bottom","rt":null,"stimulus":"Stimuli_Rocks480/I_Rhyolite_05.png","response":null,"trial_type":"image-keyboard-response","trial_index":38,"plugin_version":"2.1.0","time_elapsed":165050,"subject_id":"90767","group":"Group2","condition":"1_Rep","full_date":"2026-03-09T12:05:39.827Z","date":"2026-03-09","time":"12:05:39"},{"rt":null,"stimulus":"<p style=\"font-size: 50px; margin: 0; text-align: center;\">+</p>","response":null,"trial_type":"html-keyboard-response","trial_index":39,"plugin_version":"2.1.0","time_elapsed":166067,"subject_id":"90767","group":"Group2","condition":"1_Rep","full_date":"2026-03-09T12:05:39.827Z","date":"2026-03-09","time":"12:05:39"},{"task":"memory_phase","broad_category":"I","image_png":"I_Pegmatite_11.png","image_id":107,"category_name":"Pegmatite","category":7,"distinct_rating":7.11,"distinct_type":"Top","rt":null,"stimulus":"Stimuli_Rocks480/I_Pegmatite_11.png","response":null,"trial_type":"image-keyboard-response","trial_index":40,"plugin_version":"2.1.0","time_elapsed":168575,"subject_id":"90767","group":"Group2","condition":"1_Rep","full_date":"2026-03-09T12:05:39.827Z","date":"2026-03-09","time":"12:05:39"},{"rt":null,"stimulus":"<p style=\"font-size: 50px; margin: 0; text-align: center;\">+</p>","response":null,"trial_type":"html-keyboard-response","trial_index":41,"plugin_version":"2.1.0","time_elapsed":169590,"subject_id":"90767","group":"Group2","condition":"1_Rep","full_date":"2026-03-09T12:05:39.827Z","date":"2026-03-09","time":"12:05:39"},{"task":"memory_phase","broad_category":"M","image_png":"M_Phyllite_13.png","image_id":269,"category_name":"Phyllite","category":17,"distinct_rating":2.8,"distinct_type":"Bottom","rt":null,"stimulus":"Stimuli_Rocks480/M_Phyllite_13.png","response":null,"trial_type":"image-keyboard-response","trial_index":42,"plugin_version":"2.1.0","time_elapsed":172105,"subject_id":"90767","group":"Group2","condition":"1_Rep","full_date":"2026-03-09T12:05:39.827Z","date":"2026-03-09","time":"12:05:39"},{"rt":null,"stimulus":"<p style=\"font-size: 50px; margin: 0; text-align: center;\">+</p>","response":null,"trial_type":"html-keyboard-response","trial_index":43,"plugin_version":"2.1.0","time_elapsed":173116,"subject_id":"90767","group":"Group2","condition":"1_Rep","full_date":"2026-03-09T12:05:39.827Z","date":"2026-03-09","time":"12:05:39"},{"task":"memory_phase","broad_category":"S","image_png":"S_Sandstone_11.png","image_id":459,"category_name":"Sandstone","category":29,"distinct_rating":1.82,"distinct_type":"Bottom","rt":null,"stimulus":"Stimuli_Rocks480/S_Sandstone_11.png","response":null,"trial_type":"image-keyboard-response","trial_index":44,"plugin_version":"2.1.0","time_elapsed":175627,"subject_id":"90767","group":"Group2","condition":"1_Rep","full_date":"2026-03-09T12:05:39.827Z","date":"2026-03-09","time":"12:05:39"},{"rt":null,"stimulus":"<p style=\"font-size: 50px; margin: 0; text-align: center;\">+</p>","response":null,"trial_type":"html-keyboard-response","trial_index":45,"plugin_version":"2.1.0","time_elapsed":176633,"subject_id":"90767","group":"Group2","condition":"1_Rep","full_date":"2026-03-09T12:05:39.827Z","date":"2026-03-09","time":"12:05:39"},{"task":"memory_phase","broad_category":"M","image_png":"M_Phyllite_05.png","image_id":261,"category_name":"Phyllite","category":17,"distinct_rating":2.14,"distinct_type":"Bottom","rt":null,"stimulus":"Stimuli_Rocks480/M_Phyllite_05.png","response":null,"trial_type":"image-keyboard-response","trial_index":46,"plugin_version":"2.1.0","time_elapsed":179148,"subject_id":"90767","group":"Group2","condition":"1_Rep","full_date":"2026-03-09T12:05:39.827Z","date":"2026-03-09","time":"12:05:39"},{"rt":null,"stimulus":"<p style=\"font-size: 50px; margin: 0; text-align: center;\">+</p>","response":null,"trial_type":"html-keyboard-response","trial_index":47,"plugin_version":"2.1.0","time_elapsed":180159,"subject_id":"90767","group":"Group2","condition":"1_Rep","full_date":"2026-03-09T12:05:39.827Z","date":"2026-03-09","time":"12:05:39"},{"task":"memory_phase","broad_category":"I","image_png":"I_Gabbro_02.png","image_id":50,"category_name":"Gabbro","category":4,"distinct_rating":2.73,"distinct_type":"Bottom","rt":null,"stimulus":"Stimuli_Rocks480/I_Gabbro_02.png","response":null,"trial_type":"image-keyboard-response","trial_index":48,"plugin_version":"2.1.0","time_elapsed":182671,"subject_id":"90767","group":"Group2","condition":"1_Rep","full_date":"2026-03-09T12:05:39.827Z","date":"2026-03-09","time":"12:05:39"},{"rt":null,"stimulus":"<p style=\"font-size: 50px; margin: 0; text-align: center;\">+</p>","response":null,"trial_type":"html-keyboard-response","trial_index":49,"plugin_version":"2.1.0","time_elapsed":183686,"subject_id":"90767","group":"Group2","condition":"1_Rep","full_date":"2026-03-09T12:05:39.827Z","date":"2026-03-09","time":"12:05:39"},{"task":"memory_phase","broad_category":"I","image_png":"I_Gabbro_12.png","image_id":60,"category_name":"Gabbro","category":4,"distinct_rating":2.6,"distinct_type":"Bottom","rt":null,"stimulus":"Stimuli_Rocks480/I_Gabbro_12.png","response":null,"trial_type":"image-keyboard-response","trial_index":50,"plugin_version":"2.1.0","time_elapsed":186191,"subject_id":"90767","group":"Group2","condition":"1_Rep","full_date":"2026-03-09T12:05:39.827Z","date":"2026-03-09","time":"12:05:39"},{"rt":null,"stimulus":"<p style=\"font-size: 50px; margin: 0; text-align: center;\">+</p>","response":null,"trial_type":"html-keyboard-response","trial_index":51,"plugin_version":"2.1.0","time_elapsed":187206,"subject_id":"90767","group":"Group2","condition":"1_Rep","full_date":"2026-03-09T12:05:39.827Z","date":"2026-03-09","time":"12:05:39"},{"task":"memory_phase","broad_category":"I","image_png":"I_Rhyolite_10.png","image_id":154,"category_name":"Rhyolite","category":10,"distinct_rating":2.88,"distinct_type":"Bottom","rt":null,"stimulus":"Stimuli_Rocks480/I_Rhyolite_10.png","response":null,"trial_type":"image-keyboard-response","trial_index":52,"plugin_version":"2.1.0","time_elapsed":189709,"subject_id":"90767","group":"Group2","condition":"1_Rep","full_date":"2026-03-09T12:05:39.827Z","date":"2026-03-09","time":"12:05:39"},{"rt":null,"stimulus":"<p style=\"font-size: 50px; margin: 0; text-align: center;\">+</p>","response":null,"trial_type":"html-keyboard-response","trial_index":53,"plugin_version":"2.1.0","time_elapsed":190719,"subject_id":"90767","group":"Group2","condition":"1_Rep","full_date":"2026-03-09T12:05:39.827Z","date":"2026-03-09","time":"12:05:39"},{"task":"memory_phase","broad_category":"I","image_png":"I_Andesite_03.png","image_id":3,"category_name":"Andesite","category":1,"distinct_rating":3.17,"distinct_type":"Bottom","rt":null,"stimulus":"Stimuli_Rocks480/I_Andesite_03.png","response":null,"trial_type":"image-keyboard-response","trial_index":54,"plugin_version":"2.1.0","time_elapsed":193223,"subject_id":"90767","group":"Group2","condition":"1_Rep","full_date":"2026-03-09T12:05:39.827Z","date":"2026-03-09","time":"12:05:39"},{"rt":4412,"stimulus":"<p style=\"max-width: 760px; margin: auto; font-size: 35px; line-height: 1.5;\">\n                Press SPACE to continue study phase\n              </p>","response":" ","trial_type":"html-keyboard-response","trial_index":55,"plugin_version":"2.1.0","time_elapsed":197636,"subject_id":"90767","group":"Group2","condition":"1_Rep","full_date":"2026-03-09T12:05:39.827Z","date":"2026-03-09","time":"12:05:39"},{"rt":null,"stimulus":"<p style=\"font-size: 50px; margin: 0; text-align: center;\">+</p>","response":null,"trial_type":"html-keyboard-response","trial_index":56,"plugin_version":"2.1.0","time_elapsed":198650,"subject_id":"90767","group":"Group2","condition":"1_Rep","full_date":"2026-03-09T12:05:39.827Z","date":"2026-03-09","time":"12:05:39"},{"task":"memory_phase","broad_category":"I","image_png":"I_Gabbro_14.png","image_id":62,"category_name":"Gabbro","category":4,"distinct_rating":2.95,"distinct_type":"Bottom","rt":null,"stimulus":"Stimuli_Rocks480/I_Gabbro_14.png","response":null,"trial_type":"image-keyboard-response","trial_index":57,"plugin_version":"2.1.0","time_elapsed":201164,"subject_id":"90767","group":"Group2","condition":"1_Rep","full_date":"2026-03-09T12:05:39.827Z","date":"2026-03-09","time":"12:05:39"},{"rt":null,"stimulus":"<p style=\"font-size: 50px; margin: 0; text-align: center;\">+</p>","response":null,"trial_type":"html-keyboard-response","trial_index":58,"plugin_version":"2.1.0","time_elapsed":202176,"subject_id":"90767","group":"Group2","condition":"1_Rep","full_date":"2026-03-09T12:05:39.827Z","date":"2026-03-09","time":"12:05:39"},{"task":"memory_phase","broad_category":"I","image_png":"I_Basalt_13.png","image_id":29,"category_name":"Basalt","category":2,"distinct_rating":2.68,"distinct_type":"Bottom","rt":null,"stimulus":"Stimuli_Rocks480/I_Basalt_13.png","response":null,"trial_type":"image-keyboard-response","trial_index":59,"plugin_version":"2.1.0","time_elapsed":204688,"subject_id":"90767","group":"Group2","condition":"1_Rep","full_date":"2026-03-09T12:05:39.827Z","date":"2026-03-09","time":"12:05:39"},{"rt":null,"stimulus":"<p style=\"font-size: 50px; margin: 0; text-align: center;\">+</p>","response":null,"trial_type":"html-keyboard-response","trial_index":60,"plugin_version":"2.1.0","time_elapsed":205704,"subject_id":"90767","group":"Group2","condition":"1_Rep","full_date":"2026-03-09T12:05:39.827Z","date":"2026-03-09","time":"12:05:39"},{"task":"memory_phase","broad_category":"I","image_png":"I_Diorite_15.png","image_id":47,"category_name":"Diorite","category":3,"distinct_rating":3.05,"distinct_type":"Bottom","rt":null,"stimulus":"Stimuli_Rocks480/I_Diorite_15.png","response":null,"trial_type":"image-keyboard-response","trial_index":61,"plugin_version":"2.1.0","time_elapsed":208214,"subject_id":"90767","group":"Group2","condition":"1_Rep","full_date":"2026-03-09T12:05:39.827Z","date":"2026-03-09","time":"12:05:39"},{"rt":null,"stimulus":"<p style=\"font-size: 50px; margin: 0; text-align: center;\">+</p>","response":null,"trial_type":"html-keyboard-response","trial_index":62,"plugin_version":"2.1.0","time_elapsed":209218,"subject_id":"90767","group":"Group2","condition":"1_Rep","full_date":"2026-03-09T12:05:39.827Z","date":"2026-03-09","time":"12:05:39"},{"task":"memory_phase","broad_category":"I","image_png":"I_Andesite_04.png","image_id":4,"category_name":"Andesite","category":1,"distinct_rating":3.18,"distinct_type":"Bottom","rt":null,"stimulus":"Stimuli_Rocks480/I_Andesite_04.png","response":null,"trial_type":"image-keyboard-response","trial_index":63,"plugin_version":"2.1.0","time_elapsed":211723,"subject_id":"90767","group":"Group2","condition":"1_Rep","full_date":"2026-03-09T12:05:39.827Z","date":"2026-03-09","time":"12:05:39"},{"rt":null,"stimulus":"<p style=\"font-size: 50px; margin: 0; text-align: center;\">+</p>","response":null,"trial_type":"html-keyboard-response","trial_index":64,"plugin_version":"2.1.0","time_elapsed":212739,"subject_id":"90767","group":"Group2","condition":"1_Rep","full_date":"2026-03-09T12:05:39.827Z","date":"2026-03-09","time":"12:05:39"},{"task":"memory_phase","broad_category":"S","image_png":"S_Shale_02.png","image_id":466,"category_name":"Shale","category":30,"distinct_rating":2.9,"distinct_type":"Bottom","rt":null,"stimulus":"Stimuli_Rocks480/S_Shale_02.png","response":null,"trial_type":"image-keyboard-response","trial_index":65,"plugin_version":"2.1.0","time_elapsed":215241,"subject_id":"90767","group":"Group2","condition":"1_Rep","full_date":"2026-03-09T12:05:39.827Z","date":"2026-03-09","time":"12:05:39"},{"rt":null,"stimulus":"<p style=\"font-size: 50px; margin: 0; text-align: center;\">+</p>","response":null,"trial_type":"html-keyboard-response","trial_index":66,"plugin_version":"2.1.0","time_elapsed":216255,"subject_id":"90767","group":"Group2","condition":"1_Rep","full_date":"2026-03-09T12:05:39.827Z","date":"2026-03-09","time":"12:05:39"},{"task":"memory_phase","broad_category":"S","image_png":"S_Rock Salt_13.png","image_id":445,"category_name":"Rock Salt","category":28,"distinct_rating":7.58,"distinct_type":"Top","rt":null,"stimulus":"Stimuli_Rocks480/S_Rock Salt_13.png","response":null,"trial_type":"image-keyboard-response","trial_index":67,"plugin_version":"2.1.0","time_elapsed":218757,"subject_id":"90767","group":"Group2","condition":"1_Rep","full_date":"2026-03-09T12:05:39.827Z","date":"2026-03-09","time":"12:05:39"},{"rt":null,"stimulus":"<p style=\"font-size: 50px; margin: 0; text-align: center;\">+</p>","response":null,"trial_type":"html-keyboard-response","trial_index":68,"plugin_version":"2.1.0","time_elapsed":219771,"subject_id":"90767","group":"Group2","condition":"1_Rep","full_date":"2026-03-09T12:05:39.827Z","date":"2026-03-09","time":"12:05:39"},{"task":"memory_phase","broad_category":"S","image_png":"S_Dolomite_01.png","image_id":385,"category_name":"Dolomite","category":25,"distinct_rating":1.43,"distinct_type":"Bottom","rt":null,"stimulus":"Stimuli_Rocks480/S_Dolomite_01.png","response":null,"trial_type":"image-keyboard-response","trial_index":69,"plugin_version":"2.1.0","time_elapsed":222279,"subject_id":"90767","group":"Group2","condition":"1_Rep","full_date":"2026-03-09T12:05:39.827Z","date":"2026-03-09","time":"12:05:39"},{"rt":null,"stimulus":"<p style=\"font-size: 50px; margin: 0; text-align: center;\">+</p>","response":null,"trial_type":"html-keyboard-response","trial_index":70,"plugin_version":"2.1.0","time_elapsed":223289,"subject_id":"90767","group":"Group2","condition":"1_Rep","full_date":"2026-03-09T12:05:39.827Z","date":"2026-03-09","time":"12:05:39"},{"task":"memory_phase","broad_category":"M","image_png":"M_Quartzite_15.png","image_id":287,"category_name":"Quartzite","category":18,"distinct_rating":2.19,"distinct_type":"Bottom","rt":null,"stimulus":"Stimuli_Rocks480/M_Quartzite_15.png","response":null,"trial_type":"image-keyboard-response","trial_index":71,"plugin_version":"2.1.0","time_elapsed":225804,"subject_id":"90767","group":"Group2","condition":"1_Rep","full_date":"2026-03-09T12:05:39.827Z","date":"2026-03-09","time":"12:05:39"},{"rt":null,"stimulus":"<p style=\"font-size: 50px; margin: 0; text-align: center;\">+</p>","response":null,"trial_type":"html-keyboard-response","trial_index":72,"plugin_version":"2.1.0","time_elapsed":226817,"subject_id":"90767","group":"Group2","condition":"1_Rep","full_date":"2026-03-09T12:05:39.827Z","date":"2026-03-09","time":"12:05:39"},{"task":"memory_phase","broad_category":"I","image_png":"I_Peridotite_13.png","image_id":125,"category_name":"Peridotite","category":8,"distinct_rating":7.28,"distinct_type":"Top","rt":null,"stimulus":"Stimuli_Rocks480/I_Peridotite_13.png","response":null,"trial_type":"image-keyboard-response","trial_index":73,"plugin_version":"2.1.0","time_elapsed":229319,"subject_id":"90767","group":"Group2","condition":"1_Rep","full_date":"2026-03-09T12:05:39.827Z","date":"2026-03-09","time":"12:05:39"},{"rt":null,"stimulus":"<p style=\"font-size: 50px; margin: 0; text-align: center;\">+</p>","response":null,"trial_type":"html-keyboard-response","trial_index":74,"plugin_version":"2.1.0","time_elapsed":230322,"subject_id":"90767","group":"Group2","condition":"1_Rep","full_date":"2026-03-09T12:05:39.827Z","date":"2026-03-09","time":"12:05:39"},{"task":"memory_phase","broad_category":"M","image_png":"M_Quartzite_12.png","image_id":284,"category_name":"Quartzite","category":18,"distinct_rating":1.92,"distinct_type":"Bottom","rt":null,"stimulus":"Stimuli_Rocks480/M_Quartzite_12.png","response":null,"trial_type":"image-keyboard-response","trial_index":75,"plugin_version":"2.1.0","time_elapsed":232836,"subject_id":"90767","group":"Group2","condition":"1_Rep","full_date":"2026-03-09T12:05:39.827Z","date":"2026-03-09","time":"12:05:39"},{"rt":null,"stimulus":"<p style=\"font-size: 50px; margin: 0; text-align: center;\">+</p>","response":null,"trial_type":"html-keyboard-response","trial_index":76,"plugin_version":"2.1.0","time_elapsed":233843,"subject_id":"90767","group":"Group2","condition":"1_Rep","full_date":"2026-03-09T12:05:39.827Z","date":"2026-03-09","time":"12:05:39"},{"task":"memory_phase","broad_category":"I","image_png":"I_Diorite_10.png","image_id":42,"category_name":"Diorite","category":3,"distinct_rating":2.84,"distinct_type":"Bottom","rt":null,"stimulus":"Stimuli_Rocks480/I_Diorite_10.png","response":null,"trial_type":"image-keyboard-response","trial_index":77,"plugin_version":"2.1.0","time_elapsed":236360,"subject_id":"90767","group":"Group2","condition":"1_Rep","full_date":"2026-03-09T12:05:39.827Z","date":"2026-03-09","time":"12:05:39"},{"rt":null,"stimulus":"<p style=\"font-size: 50px; margin: 0; text-align: center;\">+</p>","response":null,"trial_type":"html-keyboard-response","trial_index":78,"plugin_version":"2.1.0","time_elapsed":237372,"subject_id":"90767","group":"Group2","condition":"1_Rep","full_date":"2026-03-09T12:05:39.827Z","date":"2026-03-09","time":"12:05:39"},{"task":"memory_phase","broad_category":"M","image_png":"M_Slate_10.png","image_id":314,"category_name":"Slate","category":20,"distinct_rating":1.94,"distinct_type":"Bottom","rt":null,"stimulus":"Stimuli_Rocks480/M_Slate_10.png","response":null,"trial_type":"image-keyboard-response","trial_index":79,"plugin_version":"2.1.0","time_elapsed":239877,"subject_id":"90767","group":"Group2","condition":"1_Rep","full_date":"2026-03-09T12:05:39.827Z","date":"2026-03-09","time":"12:05:39"},{"rt":null,"stimulus":"<p style=\"font-size: 50px; margin: 0; text-align: center;\">+</p>","response":null,"trial_type":"html-keyboard-response","trial_index":80,"plugin_version":"2.1.0","time_elapsed":240892,"subject_id":"90767","group":"Group2","condition":"1_Rep","full_date":"2026-03-09T12:05:39.827Z","date":"2026-03-09","time":"12:05:39"},{"task":"memory_phase","broad_category":"S","image_png":"S_Rock Salt_15.png","image_id":447,"category_name":"Rock Salt","category":28,"distinct_rating":7.79,"distinct_type":"Top","rt":null,"stimulus":"Stimuli_Rocks480/S_Rock Salt_15.png","response":null,"trial_type":"image-keyboard-response","trial_index":81,"plugin_version":"2.1.0","time_elapsed":243399,"subject_id":"90767","group":"Group2","condition":"1_Rep","full_date":"2026-03-09T12:05:39.827Z","date":"2026-03-09","time":"12:05:39"},{"rt":null,"stimulus":"<p style=\"font-size: 50px; margin: 0; text-align: center;\">+</p>","response":null,"trial_type":"html-keyboard-response","trial_index":82,"plugin_version":"2.1.0","time_elapsed":244415,"subject_id":"90767","group":"Group2","condition":"1_Rep","full_date":"2026-03-09T12:05:39.827Z","date":"2026-03-09","time":"12:05:39"},{"task":"memory_phase","broad_category":"M","image_png":"M_Marble_02.png","image_id":226,"category_name":"Marble","category":15,"distinct_rating":3.2,"distinct_type":"Bottom","rt":null,"stimulus":"Stimuli_Rocks480/M_Marble_02.png","response":null,"trial_type":"image-keyboard-response","trial_index":83,"plugin_version":"2.1.0","time_elapsed":246926,"subject_id":"90767","group":"Group2","condition":"1_Rep","full_date":"2026-03-09T12:05:39.827Z","date":"2026-03-09","time":"12:05:39"},{"rt":null,"stimulus":"<p style=\"font-size: 50px; margin: 0; text-align: center;\">+</p>","response":null,"trial_type":"html-keyboard-response","trial_index":84,"plugin_version":"2.1.0","time_elapsed":247932,"subject_id":"90767","group":"Group2","condition":"1_Rep","full_date":"2026-03-09T12:05:39.827Z","date":"2026-03-09","time":"12:05:39"},{"task":"memory_phase","broad_category":"I","image_png":"I_Rhyolite_08.png","image_id":152,"category_name":"Rhyolite","category":10,"distinct_rating":1.38,"distinct_type":"Bottom","rt":null,"stimulus":"Stimuli_Rocks480/I_Rhyolite_08.png","response":null,"trial_type":"image-keyboard-response","trial_index":85,"plugin_version":"2.1.0","time_elapsed":250435,"subject_id":"90767","group":"Group2","condition":"1_Rep","full_date":"2026-03-09T12:05:39.827Z","date":"2026-03-09","time":"12:05:39"},{"rt":null,"stimulus":"<p style=\"font-size: 50px; margin: 0; text-align: center;\">+</p>","response":null,"trial_type":"html-keyboard-response","trial_index":86,"plugin_version":"2.1.0","time_elapsed":251452,"subject_id":"90767","group":"Group2","condition":"1_Rep","full_date":"2026-03-09T12:05:39.827Z","date":"2026-03-09","time":"12:05:39"},{"task":"memory_phase","broad_category":"S","image_png":"S_Conglomerate_14.png","image_id":382,"category_name":"Conglomerate","category":24,"distinct_rating":6.86,"distinct_type":"Top","rt":null,"stimulus":"Stimuli_Rocks480/S_Conglomerate_14.png","response":null,"trial_type":"image-keyboard-response","trial_index":87,"plugin_version":"2.1.0","time_elapsed":253960,"subject_id":"90767","group":"Group2","condition":"1_Rep","full_date":"2026-03-09T12:05:39.827Z","date":"2026-03-09","time":"12:05:39"},{"rt":null,"stimulus":"<p style=\"font-size: 50px; margin: 0; text-align: center;\">+</p>","response":null,"trial_type":"html-keyboard-response","trial_index":88,"plugin_version":"2.1.0","time_elapsed":254967,"subject_id":"90767","group":"Group2","condition":"1_Rep","full_date":"2026-03-09T12:05:39.827Z","date":"2026-03-09","time":"12:05:39"},{"task":"memory_phase","broad_category":"M","image_png":"M_Phyllite_02.png","image_id":258,"category_name":"Phyllite","category":17,"distinct_rating":2.89,"distinct_type":"Bottom","rt":null,"stimulus":"Stimuli_Rocks480/M_Phyllite_02.png","response":null,"trial_type":"image-keyboard-response","trial_index":89,"plugin_version":"2.1.0","time_elapsed":257483,"subject_id":"90767","group":"Group2","condition":"1_Rep","full_date":"2026-03-09T12:05:39.827Z","date":"2026-03-09","time":"12:05:39"},{"rt":null,"stimulus":"<p style=\"font-size: 50px; margin: 0; text-align: center;\">+</p>","response":null,"trial_type":"html-keyboard-response","trial_index":90,"plugin_version":"2.1.0","time_elapsed":258498,"subject_id":"90767","group":"Group2","condition":"1_Rep","full_date":"2026-03-09T12:05:39.827Z","date":"2026-03-09","time":"12:05:39"},{"task":"memory_phase","broad_category":"S","image_png":"S_Dolomite_07.png","image_id":391,"category_name":"Dolomite","category":25,"distinct_rating":1.73,"distinct_type":"Bottom","rt":null,"stimulus":"Stimuli_Rocks480/S_Dolomite_07.png","response":null,"trial_type":"image-keyboard-response","trial_index":91,"plugin_version":"2.1.0","time_elapsed":261006,"subject_id":"90767","group":"Group2","condition":"1_Rep","full_date":"2026-03-09T12:05:39.827Z","date":"2026-03-09","time":"12:05:39"},{"rt":null,"stimulus":"<p style=\"font-size: 50px; margin: 0; text-align: center;\">+</p>","response":null,"trial_type":"html-keyboard-response","trial_index":92,"plugin_version":"2.1.0","time_elapsed":262012,"subject_id":"90767","group":"Group2","condition":"1_Rep","full_date":"2026-03-09T12:05:39.827Z","date":"2026-03-09","time":"12:05:39"},{"task":"memory_phase","broad_category":"I","image_png":"I_Pumice_13.png","image_id":141,"category_name":"Pumice","category":9,"distinct_rating":3.12,"distinct_type":"Bottom","rt":null,"stimulus":"Stimuli_Rocks480/I_Pumice_13.png","response":null,"trial_type":"image-keyboard-response","trial_index":93,"plugin_version":"2.1.0","time_elapsed":264530,"subject_id":"90767","group":"Group2","condition":"1_Rep","full_date":"2026-03-09T12:05:39.827Z","date":"2026-03-09","time":"12:05:39"},{"rt":null,"stimulus":"<p style=\"font-size: 50px; margin: 0; text-align: center;\">+</p>","response":null,"trial_type":"html-keyboard-response","trial_index":94,"plugin_version":"2.1.0","time_elapsed":265541,"subject_id":"90767","group":"Group2","condition":"1_Rep","full_date":"2026-03-09T12:05:39.827Z","date":"2026-03-09","time":"12:05:39"},{"task":"memory_phase","broad_category":"I","image_png":"I_Basalt_10.png","image_id":26,"category_name":"Basalt","category":2,"distinct_rating":2.76,"distinct_type":"Bottom","rt":null,"stimulus":"Stimuli_Rocks480/I_Basalt_10.png","response":null,"trial_type":"image-keyboard-response","trial_index":95,"plugin_version":"2.1.0","time_elapsed":268055,"subject_id":"90767","group":"Group2","condition":"1_Rep","full_date":"2026-03-09T12:05:39.827Z","date":"2026-03-09","time":"12:05:39"},{"rt":null,"stimulus":"<p style=\"font-size: 50px; margin: 0; text-align: center;\">+</p>","response":null,"trial_type":"html-keyboard-response","trial_index":96,"plugin_version":"2.1.0","time_elapsed":269068,"subject_id":"90767","group":"Group2","condition":"1_Rep","full_date":"2026-03-09T12:05:39.827Z","date":"2026-03-09","time":"12:05:39"},{"task":"memory_phase","broad_category":"I","image_png":"I_Basalt_08.png","image_id":24,"category_name":"Basalt","category":2,"distinct_rating":2.31,"distinct_type":"Bottom","rt":null,"stimulus":"Stimuli_Rocks480/I_Basalt_08.png","response":null,"trial_type":"image-keyboard-response","trial_index":97,"plugin_version":"2.1.0","time_elapsed":271580,"subject_id":"90767","group":"Group2","condition":"1_Rep","full_date":"2026-03-09T12:05:39.827Z","date":"2026-03-09","time":"12:05:39"},{"rt":null,"stimulus":"<p style=\"font-size: 50px; margin: 0; text-align: center;\">+</p>","response":null,"trial_type":"html-keyboard-response","trial_index":98,"plugin_version":"2.1.0","time_elapsed":272596,"subject_id":"90767","group":"Group2","condition":"1_Rep","full_date":"2026-03-09T12:05:39.827Z","date":"2026-03-09","time":"12:05:39"},{"task":"memory_phase","broad_category":"M","image_png":"M_Gneiss_10.png","image_id":202,"category_name":"Gneiss","category":13,"distinct_rating":3.09,"distinct_type":"Bottom","rt":null,"stimulus":"Stimuli_Rocks480/M_Gneiss_10.png","response":null,"trial_type":"image-keyboard-response","trial_index":99,"plugin_version":"2.1.0","time_elapsed":275107,"subject_id":"90767","group":"Group2","condition":"1_Rep","full_date":"2026-03-09T12:05:39.827Z","date":"2026-03-09","time":"12:05:39"},{"rt":null,"stimulus":"<p style=\"font-size: 50px; margin: 0; text-align: center;\">+</p>","response":null,"trial_type":"html-keyboard-response","trial_index":100,"plugin_version":"2.1.0","time_elapsed":276118,"subject_id":"90767","group":"Group2","condition":"1_Rep","full_date":"2026-03-09T12:05:39.827Z","date":"2026-03-09","time":"12:05:39"},{"task":"memory_phase","broad_category":"M","image_png":"M_Marble_14.png","image_id":238,"category_name":"Marble","category":15,"distinct_rating":3.31,"distinct_type":"Bottom","rt":null,"stimulus":"Stimuli_Rocks480/M_Marble_14.png","response":null,"trial_type":"image-keyboard-response","trial_index":101,"plugin_version":"2.1.0","time_elapsed":278631,"subject_id":"90767","group":"Group2","condition":"1_Rep","full_date":"2026-03-09T12:05:39.827Z","date":"2026-03-09","time":"12:05:39"},{"rt":null,"stimulus":"<p style=\"font-size: 50px; margin: 0; text-align: center;\">+</p>","response":null,"trial_type":"html-keyboard-response","trial_index":102,"plugin_version":"2.1.0","time_elapsed":279648,"subject_id":"90767","group":"Group2","condition":"1_Rep","full_date":"2026-03-09T12:05:39.827Z","date":"2026-03-09","time":"12:05:39"},{"task":"memory_phase","broad_category":"S","image_png":"S_Sandstone_04.png","image_id":452,"category_name":"Sandstone","category":29,"distinct_rating":1.8,"distinct_type":"Bottom","rt":null,"stimulus":"Stimuli_Rocks480/S_Sandstone_04.png","response":null,"trial_type":"image-keyboard-response","trial_index":103,"plugin_version":"2.1.0","time_elapsed":282159,"subject_id":"90767","group":"Group2","condition":"1_Rep","full_date":"2026-03-09T12:05:39.827Z","date":"2026-03-09","time":"12:05:39"},{"rt":null,"stimulus":"<p style=\"font-size: 50px; margin: 0; text-align: center;\">+</p>","response":null,"trial_type":"html-keyboard-response","trial_index":104,"plugin_version":"2.1.0","time_elapsed":283162,"subject_id":"90767","group":"Group2","condition":"1_Rep","full_date":"2026-03-09T12:05:39.827Z","date":"2026-03-09","time":"12:05:39"},{"task":"memory_phase","broad_category":"I","image_png":"I_Pegmatite_03.png","image_id":99,"category_name":"Pegmatite","category":7,"distinct_rating":7.24,"distinct_type":"Top","rt":null,"stimulus":"Stimuli_Rocks480/I_Pegmatite_03.png","response":null,"trial_type":"image-keyboard-response","trial_index":105,"plugin_version":"2.1.0","time_elapsed":285668,"subject_id":"90767","group":"Group2","condition":"1_Rep","full_date":"2026-03-09T12:05:39.827Z","date":"2026-03-09","time":"12:05:39"},{"rt":25371,"stimulus":"<div style=\"max-width: 760px; margin: auto; font-size: 20px; line-height: 1.5;\">\n      <h1 style=\"text-align:center; font-size: 30px;\">Instructions for the Test Phase</h1>\n      <p>\n        The study phase is now complete.\n      </p>\n      <p>\n        In the test phase, you will again see a series of rock images. \n        Some will be ones you saw before - during the study phase, while others will be new.  \n        <b>Your task</b> is to decide whether you have seen each image before by pressing the corresponding key on your keyboard:<br><br>\n          <b>A</b> - NO (you did not see this image before)<br>\n          <b>L</b> - YES (you saw this image before)<br><br>\n        The test will proceed at your own pace. You will receive feedback after each response.  \n        Please try to respond <b>as accurately as possible</b>.\n      </p>\n      <p>\n        <b>Reminder:</b> If your computer has multiple language settings (e.g., English and another language),\n        please ensure it is set to English during the test phase.\n      </p>\n      <p>\n        You can track your progress using the <b>completion bar</b> at the top of the screen.  \n        Note that it has been refreshed to reflect your progress during this final phase.\n      </p>\n      <p>\n        Press the button below when you are ready to continue.\n      </p>\n    </div>","response":0,"trial_type":"html-button-response","trial_index":106,"plugin_version":"2.1.0","time_elapsed":311040,"subject_id":"90767","group":"Group2","condition":"1_Rep","full_date":"2026-03-09T12:05:39.827Z","date":"2026-03-09","time":"12:05:39"},{"correct_response":"a","task":"test_phase","broad_category":"M","image_png":"M_Marble_06.png","image_id":230,"category_name":"Marble","category":15,"distinct_rating":3.4,"distinct_type":"Bottom","item_type":"Foil","rt":4991,"stimulus":"Stimuli_Rocks480/M_Marble_06.png","response":"a","trial_type":"image-keyboard-response","trial_index":107,"plugin_version":"2.1.0","time_elapsed":316033,"subject_id":"90767","group":"Group2","condition":"1_Rep","full_date":"2026-03-09T12:05:39.827Z","date":"2026-03-09","time":"12:05:39","cor_ans":true},{"trial_type":"html-keyboard-response","rt":null,"stimulus":"<p style=\"color: green; font-size: 50px; font-weight: bold;\">Correct</p>","response":null,"trial_index":108,"plugin_version":"2.1.0","time_elapsed":316550,"subject_id":"90767","group":"Group2","condition":"1_Rep","full_date":"2026-03-09T12:05:39.827Z","date":"2026-03-09","time":"12:05:39"},{"correct_response":"a","task":"test_phase","broad_category":"S","image_png":"S_Sandstone_03.png","image_id":451,"category_name":"Sandstone","category":29,"distinct_rating":1.86,"distinct_type":"Bottom","item_type":"Foil","rt":1546,"stimulus":"Stimuli_Rocks480/S_Sandstone_03.png","response":"a","trial_type":"image-keyboard-response","trial_index":109,"plugin_version":"2.1.0","time_elapsed":318097,"subject_id":"90767","group":"Group2","condition":"1_Rep","full_date":"2026-03-09T12:05:39.827Z","date":"2026-03-09","time":"12:05:39","cor_ans":true},{"trial_type":"html-keyboard-response","rt":null,"stimulus":"<p style=\"color: green; font-size: 50px; font-weight: bold;\">Correct</p>","response":null,"trial_index":110,"plugin_version":"2.1.0","time_elapsed":318613,"subject_id":"90767","group":"Group2","condition":"1_Rep","full_date":"2026-03-09T12:05:39.827Z","date":"2026-03-09","time":"12:05:39"},{"correct_response":"a","task":"test_phase","broad_category":"S","image_png":"S_Dolomite_12.png","image_id":396,"category_name":"Dolomite","category":25,"distinct_rating":1.85,"distinct_type":"Bottom","item_type":"Foil","rt":2027,"stimulus":"Stimuli_Rocks480/S_Dolomite_12.png","response":"a","trial_type":"image-keyboard-response","trial_index":111,"plugin_version":"2.1.0","time_elapsed":320641,"subject_id":"90767","group":"Group2","condition":"1_Rep","full_date":"2026-03-09T12:05:39.827Z","date":"2026-03-09","time":"12:05:39","cor_ans":true},{"trial_type":"html-keyboard-response","rt":null,"stimulus":"<p style=\"color: green; font-size: 50px; font-weight: bold;\">Correct</p>","response":null,"trial_index":112,"plugin_version":"2.1.0","time_elapsed":321154,"subject_id":"90767","group":"Group2","condition":"1_Rep","full_date":"2026-03-09T12:05:39.827Z","date":"2026-03-09","time":"12:05:39"},{"correct_response":"a","task":"test_phase","broad_category":"S","image_png":"S_Shale_12.png","image_id":476,"category_name":"Shale","category":30,"distinct_rating":2.48,"distinct_type":"Bottom","item_type":"Foil","rt":2382,"stimulus":"Stimuli_Rocks480/S_Shale_12.png","response":"a","trial_type":"image-keyboard-response","trial_index":113,"plugin_version":"2.1.0","time_elapsed":323538,"subject_id":"90767","group":"Group2","condition":"1_Rep","full_date":"2026-03-09T12:05:39.827Z","date":"2026-03-09","time":"12:05:39","cor_ans":true},{"trial_type":"html-keyboard-response","rt":null,"stimulus":"<p style=\"color: green; font-size: 50px; font-weight: bold;\">Correct</p>","response":null,"trial_index":114,"plugin_version":"2.1.0","time_elapsed":324042,"subject_id":"90767","group":"Group2","condition":"1_Rep","full_date":"2026-03-09T12:05:39.827Z","date":"2026-03-09","time":"12:05:39"},{"correct_response":"a","task":"test_phase","broad_category":"M","image_png":"M_Phyllite_10.png","image_id":266,"category_name":"Phyllite","category":17,"distinct_rating":2.6,"distinct_type":"Bottom","item_type":"Foil","rt":1621,"stimulus":"Stimuli_Rocks480/M_Phyllite_10.png","response":"a","trial_type":"image-keyboard-response","trial_index":115,"plugin_version":"2.1.0","time_elapsed":325665,"subject_id":"90767","group":"Group2","condition":"1_Rep","full_date":"2026-03-09T12:05:39.827Z","date":"2026-03-09","time":"12:05:39","cor_ans":true},{"trial_type":"html-keyboard-response","rt":null,"stimulus":"<p style=\"color: green; font-size: 50px; font-weight: bold;\">Correct</p>","response":null,"trial_index":116,"plugin_version":"2.1.0","time_elapsed":326179,"subject_id":"90767","group":"Group2","condition":"1_Rep","full_date":"2026-03-09T12:05:39.827Z","date":"2026-03-09","time":"12:05:39"},{"correct_response":"l","task":"test_phase","broad_category":"M","image_png":"M_Marble_14.png","image_id":238,"category_name":"Marble","category":15,"distinct_rating":3.31,"distinct_type":"Bottom","item_type":"Target","rt":1996,"stimulus":"Stimuli_Rocks480/M_Marble_14.png","response":"l","trial_type":"image-keyboard-response","trial_index":117,"plugin_version":"2.1.0","time_elapsed":328177,"subject_id":"90767","group":"Group2","condition":"1_Rep","full_date":"2026-03-09T12:05:39.827Z","date":"2026-03-09","time":"12:05:39","cor_ans":true},{"trial_type":"html-keyboard-response","rt":null,"stimulus":"<p style=\"color: green; font-size: 50px; font-weight: bold;\">Correct</p>","response":null,"trial_index":118,"plugin_version":"2.1.0","time_elapsed":328684,"subject_id":"90767","group":"Group2","condition":"1_Rep","full_date":"2026-03-09T12:05:39.827Z","date":"2026-03-09","time":"12:05:39"},{"correct_response":"a","task":"test_phase","broad_category":"S","image_png":"S_Rock Gypsum_04.png","image_id":420,"category_name":"Rock Gypsum","category":27,"distinct_rating":7.61,"distinct_type":"Top","item_type":"Foil","rt":2885,"stimulus":"Stimuli_Rocks480/S_Rock Gypsum_04.png","response":"a","trial_type":"image-keyboard-response","trial_index":119,"plugin_version":"2.1.0","time_elapsed":331569,"subject_id":"90767","group":"Group2","condition":"1_Rep","full_date":"2026-03-09T12:05:39.827Z","date":"2026-03-09","time":"12:05:39","cor_ans":true},{"trial_type":"html-keyboard-response","rt":null,"stimulus":"<p style=\"color: green; font-size: 50px; font-weight: bold;\">Correct</p>","response":null,"trial_index":120,"plugin_version":"2.1.0","time_elapsed":332076,"subject_id":"90767","group":"Group2","condition":"1_Rep","full_date":"2026-03-09T12:05:39.827Z","date":"2026-03-09","time":"12:05:39"},{"correct_response":"l","task":"test_phase","broad_category":"S","image_png":"S_Shale_02.png","image_id":466,"category_name":"Shale","category":30,"distinct_rating":2.9,"distinct_type":"Bottom","item_type":"Target","rt":3493,"stimulus":"Stimuli_Rocks480/S_Shale_02.png","response":"a","trial_type":"image-keyboard-response","trial_index":121,"plugin_version":"2.1.0","time_elapsed":335570,"subject_id":"90767","group":"Group2","condition":"1_Rep","full_date":"2026-03-09T12:05:39.827Z","date":"2026-03-09","time":"12:05:39","cor_ans":false},{"trial_type":"html-keyboard-response","rt":null,"stimulus":"<p style=\"color: red; font-size: 50px; font-weight: bold;\">Incorrect</p>","response":null,"trial_index":122,"plugin_version":"2.1.0","time_elapsed":336072,"subject_id":"90767","group":"Group2","condition":"1_Rep","full_date":"2026-03-09T12:05:39.827Z","date":"2026-03-09","time":"12:05:39"},{"correct_response":"l","task":"test_phase","broad_category":"I","image_png":"I_Gabbro_02.png","image_id":50,"category_name":"Gabbro","category":4,"distinct_rating":2.73,"distinct_type":"Bottom","item_type":"Target","rt":1448,"stimulus":"Stimuli_Rocks480/I_Gabbro_02.png","response":"l","trial_type":"image-keyboard-response","trial_index":123,"plugin_version":"2.1.0","time_elapsed":337521,"subject_id":"90767","group":"Group2","condition":"1_Rep","full_date":"2026-03-09T12:05:39.827Z","date":"2026-03-09","time":"12:05:39","cor_ans":true},{"trial_type":"html-keyboard-response","rt":null,"stimulus":"<p style=\"color: green; font-size: 50px; font-weight: bold;\">Correct</p>","response":null,"trial_index":124,"plugin_version":"2.1.0","time_elapsed":338026,"subject_id":"90767","group":"Group2","condition":"1_Rep","full_date":"2026-03-09T12:05:39.827Z","date":"2026-03-09","time":"12:05:39"},{"correct_response":"a","task":"test_phase","broad_category":"I","image_png":"I_Diorite_05.png","image_id":37,"category_name":"Diorite","category":3,"distinct_rating":3.08,"distinct_type":"Bottom","item_type":"Foil","rt":1062,"stimulus":"Stimuli_Rocks480/I_Diorite_05.png","response":"l","trial_type":"image-keyboard-response","trial_index":125,"plugin_version":"2.1.0","time_elapsed":339089,"subject_id":"90767","group":"Group2","condition":"1_Rep","full_date":"2026-03-09T12:05:39.827Z","date":"2026-03-09","time":"12:05:39","cor_ans":false},{"trial_type":"html-keyboard-response","rt":null,"stimulus":"<p style=\"color: red; font-size: 50px; font-weight: bold;\">Incorrect</p>","response":null,"trial_index":126,"plugin_version":"2.1.0","time_elapsed":339592,"subject_id":"90767","group":"Group2","condition":"1_Rep","full_date":"2026-03-09T12:05:39.827Z","date":"2026-03-09","time":"12:05:39"},{"correct_response":"a","task":"test_phase","broad_category":"I","image_png":"I_Pumice_12.png","image_id":140,"category_name":"Pumice","category":9,"distinct_rating":2.97,"distinct_type":"Bottom","item_type":"Foil","rt":1527,"stimulus":"Stimuli_Rocks480/I_Pumice_12.png","response":"a","trial_type":"image-keyboard-response","trial_index":127,"plugin_version":"2.1.0","time_elapsed":341121,"subject_id":"90767","group":"Group2","condition":"1_Rep","full_date":"2026-03-09T12:05:39.827Z","date":"2026-03-09","time":"12:05:39","cor_ans":true},{"trial_type":"html-keyboard-response","rt":null,"stimulus":"<p style=\"color: green; font-size: 50px; font-weight: bold;\">Correct</p>","response":null,"trial_index":128,"plugin_version":"2.1.0","time_elapsed":341632,"subject_id":"90767","group":"Group2","condition":"1_Rep","full_date":"2026-03-09T12:05:39.827Z","date":"2026-03-09","time":"12:05:39"},{"correct_response":"l","task":"test_phase","broad_category":"I","image_png":"I_Andesite_03.png","image_id":3,"category_name":"Andesite","category":1,"distinct_rating":3.17,"distinct_type":"Bottom","item_type":"Target","rt":3711,"stimulus":"Stimuli_Rocks480/I_Andesite_03.png","response":"l","trial_type":"image-keyboard-response","trial_index":129,"plugin_version":"2.1.0","time_elapsed":345344,"subject_id":"90767","group":"Group2","condition":"1_Rep","full_date":"2026-03-09T12:05:39.827Z","date":"2026-03-09","time":"12:05:39","cor_ans":true},{"trial_type":"html-keyboard-response","rt":null,"stimulus":"<p style=\"color: green; font-size: 50px; font-weight: bold;\">Correct</p>","response":null,"trial_index":130,"plugin_version":"2.1.0","time_elapsed":345846,"subject_id":"90767","group":"Group2","condition":"1_Rep","full_date":"2026-03-09T12:05:39.827Z","date":"2026-03-09","time":"12:05:39"},{"correct_response":"l","task":"test_phase","broad_category":"S","image_png":"S_Dolomite_16.png","image_id":400,"category_name":"Dolomite","category":25,"distinct_rating":1.71,"distinct_type":"Bottom","item_type":"Target","rt":1258,"stimulus":"Stimuli_Rocks480/S_Dolomite_16.png","response":"l","trial_type":"image-keyboard-response","trial_index":131,"plugin_version":"2.1.0","time_elapsed":347106,"subject_id":"90767","group":"Group2","condition":"1_Rep","full_date":"2026-03-09T12:05:39.827Z","date":"2026-03-09","time":"12:05:39","cor_ans":true},{"trial_type":"html-keyboard-response","rt":null,"stimulus":"<p style=\"color: green; font-size: 50px; font-weight: bold;\">Correct</p>","response":null,"trial_index":132,"plugin_version":"2.1.0","time_elapsed":347614,"subject_id":"90767","group":"Group2","condition":"1_Rep","full_date":"2026-03-09T12:05:39.827Z","date":"2026-03-09","time":"12:05:39"},{"correct_response":"l","task":"test_phase","broad_category":"M","image_png":"M_Quartzite_12.png","image_id":284,"category_name":"Quartzite","category":18,"distinct_rating":1.92,"distinct_type":"Bottom","item_type":"Target","rt":1282,"stimulus":"Stimuli_Rocks480/M_Quartzite_12.png","response":"a","trial_type":"image-keyboard-response","trial_index":133,"plugin_version":"2.1.0","time_elapsed":348897,"subject_id":"90767","group":"Group2","condition":"1_Rep","full_date":"2026-03-09T12:05:39.827Z","date":"2026-03-09","time":"12:05:39","cor_ans":false},{"trial_type":"html-keyboard-response","rt":null,"stimulus":"<p style=\"color: red; font-size: 50px; font-weight: bold;\">Incorrect</p>","response":null,"trial_index":134,"plugin_version":"2.1.0","time_elapsed":349400,"subject_id":"90767","group":"Group2","condition":"1_Rep","full_date":"2026-03-09T12:05:39.827Z","date":"2026-03-09","time":"12:05:39"},{"correct_response":"l","task":"test_phase","broad_category":"M","image_png":"M_Slate_14.png","image_id":318,"category_name":"Slate","category":20,"distinct_rating":2.58,"distinct_type":"Bottom","item_type":"Target","rt":1191,"stimulus":"Stimuli_Rocks480/M_Slate_14.png","response":"l","trial_type":"image-keyboard-response","trial_index":135,"plugin_version":"2.1.0","time_elapsed":350592,"subject_id":"90767","group":"Group2","condition":"1_Rep","full_date":"2026-03-09T12:05:39.827Z","date":"2026-03-09","time":"12:05:39","cor_ans":true},{"trial_type":"html-keyboard-response","rt":null,"stimulus":"<p style=\"color: green; font-size: 50px; font-weight: bold;\">Correct</p>","response":null,"trial_index":136,"plugin_version":"2.1.0","time_elapsed":351105,"subject_id":"90767","group":"Group2","condition":"1_Rep","full_date":"2026-03-09T12:05:39.827Z","date":"2026-03-09","time":"12:05:39"},{"correct_response":"l","task":"test_phase","broad_category":"S","image_png":"S_Dolomite_01.png","image_id":385,"category_name":"Dolomite","category":25,"distinct_rating":1.43,"distinct_type":"Bottom","item_type":"Target","rt":1134,"stimulus":"Stimuli_Rocks480/S_Dolomite_01.png","response":"l","trial_type":"image-keyboard-response","trial_index":137,"plugin_version":"2.1.0","time_elapsed":352241,"subject_id":"90767","group":"Group2","condition":"1_Rep","full_date":"2026-03-09T12:05:39.827Z","date":"2026-03-09","time":"12:05:39","cor_ans":true},{"trial_type":"html-keyboard-response","rt":null,"stimulus":"<p style=\"color: green; font-size: 50px; font-weight: bold;\">Correct</p>","response":null,"trial_index":138,"plugin_version":"2.1.0","time_elapsed":352741,"subject_id":"90767","group":"Group2","condition":"1_Rep","full_date":"2026-03-09T12:05:39.827Z","date":"2026-03-09","time":"12:05:39"},{"correct_response":"l","task":"test_phase","broad_category":"I","image_png":"I_Basalt_13.png","image_id":29,"category_name":"Basalt","category":2,"distinct_rating":2.68,"distinct_type":"Bottom","item_type":"Target","rt":1081,"stimulus":"Stimuli_Rocks480/I_Basalt_13.png","response":"l","trial_type":"image-keyboard-response","trial_index":139,"plugin_version":"2.1.0","time_elapsed":353824,"subject_id":"90767","group":"Group2","condition":"1_Rep","full_date":"2026-03-09T12:05:39.827Z","date":"2026-03-09","time":"12:05:39","cor_ans":true},{"trial_type":"html-keyboard-response","rt":null,"stimulus":"<p style=\"color: green; font-size: 50px; font-weight: bold;\">Correct</p>","response":null,"trial_index":140,"plugin_version":"2.1.0","time_elapsed":354328,"subject_id":"90767","group":"Group2","condition":"1_Rep","full_date":"2026-03-09T12:05:39.827Z","date":"2026-03-09","time":"12:05:39"},{"correct_response":"a","task":"test_phase","broad_category":"S","image_png":"S_Shale_01.png","image_id":465,"category_name":"Shale","category":30,"distinct_rating":2.7,"distinct_type":"Bottom","item_type":"Foil","rt":1463,"stimulus":"Stimuli_Rocks480/S_Shale_01.png","response":"a","trial_type":"image-keyboard-response","trial_index":141,"plugin_version":"2.1.0","time_elapsed":355792,"subject_id":"90767","group":"Group2","condition":"1_Rep","full_date":"2026-03-09T12:05:39.827Z","date":"2026-03-09","time":"12:05:39","cor_ans":true},{"trial_type":"html-keyboard-response","rt":null,"stimulus":"<p style=\"color: green; font-size: 50px; font-weight: bold;\">Correct</p>","response":null,"trial_index":142,"plugin_version":"2.1.0","time_elapsed":356297,"subject_id":"90767","group":"Group2","condition":"1_Rep","full_date":"2026-03-09T12:05:39.827Z","date":"2026-03-09","time":"12:05:39"},{"correct_response":"a","task":"test_phase","broad_category":"S","image_png":"S_Dolomite_13.png","image_id":397,"category_name":"Dolomite","category":25,"distinct_rating":1.77,"distinct_type":"Bottom","item_type":"Foil","rt":1286,"stimulus":"Stimuli_Rocks480/S_Dolomite_13.png","response":"l","trial_type":"image-keyboard-response","trial_index":143,"plugin_version":"2.1.0","time_elapsed":357585,"subject_id":"90767","group":"Group2","condition":"1_Rep","full_date":"2026-03-09T12:05:39.827Z","date":"2026-03-09","time":"12:05:39","cor_ans":false},{"trial_type":"html-keyboard-response","rt":null,"stimulus":"<p style=\"color: red; font-size: 50px; font-weight: bold;\">Incorrect</p>","response":null,"trial_index":144,"plugin_version":"2.1.0","time_elapsed":358087,"subject_id":"90767","group":"Group2","condition":"1_Rep","full_date":"2026-03-09T12:05:39.827Z","date":"2026-03-09","time":"12:05:39"},{"correct_response":"a","task":"test_phase","broad_category":"M","image_png":"M_Marble_04.png","image_id":228,"category_name":"Marble","category":15,"distinct_rating":3.15,"distinct_type":"Bottom","item_type":"Foil","rt":2600,"stimulus":"Stimuli_Rocks480/M_Marble_04.png","response":"a","trial_type":"image-keyboard-response","trial_index":145,"plugin_version":"2.1.0","time_elapsed":360688,"subject_id":"90767","group":"Group2","condition":"1_Rep","full_date":"2026-03-09T12:05:39.827Z","date":"2026-03-09","time":"12:05:39","cor_ans":true},{"trial_type":"html-keyboard-response","rt":null,"stimulus":"<p style=\"color: green; font-size: 50px; font-weight: bold;\">Correct</p>","response":null,"trial_index":146,"plugin_version":"2.1.0","time_elapsed":361203,"subject_id":"90767","group":"Group2","condition":"1_Rep","full_date":"2026-03-09T12:05:39.827Z","date":"2026-03-09","time":"12:05:39"},{"correct_response":"a","task":"test_phase","broad_category":"I","image_png":"I_Pegmatite_16.png","image_id":112,"category_name":"Pegmatite","category":7,"distinct_rating":7.03,"distinct_type":"Top","item_type":"Foil","rt":1293,"stimulus":"Stimuli_Rocks480/I_Pegmatite_16.png","response":"a","trial_type":"image-keyboard-response","trial_index":147,"plugin_version":"2.1.0","time_elapsed":362496,"subject_id":"90767","group":"Group2","condition":"1_Rep","full_date":"2026-03-09T12:05:39.827Z","date":"2026-03-09","time":"12:05:39","cor_ans":true},{"trial_type":"html-keyboard-response","rt":null,"stimulus":"<p style=\"color: green; font-size: 50px; font-weight: bold;\">Correct</p>","response":null,"trial_index":148,"plugin_version":"2.1.0","time_elapsed":363011,"subject_id":"90767","group":"Group2","condition":"1_Rep","full_date":"2026-03-09T12:05:39.827Z","date":"2026-03-09","time":"12:05:39"},{"correct_response":"l","task":"test_phase","broad_category":"S","image_png":"S_Rock Salt_13.png","image_id":445,"category_name":"Rock Salt","category":28,"distinct_rating":7.58,"distinct_type":"Top","item_type":"Target","rt":1149,"stimulus":"Stimuli_Rocks480/S_Rock Salt_13.png","response":"l","trial_type":"image-keyboard-response","trial_index":149,"plugin_version":"2.1.0","time_elapsed":364161,"subject_id":"90767","group":"Group2","condition":"1_Rep","full_date":"2026-03-09T12:05:39.827Z","date":"2026-03-09","time":"12:05:39","cor_ans":true},{"trial_type":"html-keyboard-response","rt":null,"stimulus":"<p style=\"color: green; font-size: 50px; font-weight: bold;\">Correct</p>","response":null,"trial_index":150,"plugin_version":"2.1.0","time_elapsed":364664,"subject_id":"90767","group":"Group2","condition":"1_Rep","full_date":"2026-03-09T12:05:39.827Z","date":"2026-03-09","time":"12:05:39"},{"correct_response":"l","task":"test_phase","broad_category":"S","image_png":"S_Sandstone_11.png","image_id":459,"category_name":"Sandstone","category":29,"distinct_rating":1.82,"distinct_type":"Bottom","item_type":"Target","rt":1478,"stimulus":"Stimuli_Rocks480/S_Sandstone_11.png","response":"l","trial_type":"image-keyboard-response","trial_index":151,"plugin_version":"2.1.0","time_elapsed":366144,"subject_id":"90767","group":"Group2","condition":"1_Rep","full_date":"2026-03-09T12:05:39.827Z","date":"2026-03-09","time":"12:05:39","cor_ans":true},{"trial_type":"html-keyboard-response","rt":null,"stimulus":"<p style=\"color: green; font-size: 50px; font-weight: bold;\">Correct</p>","response":null,"trial_index":152,"plugin_version":"2.1.0","time_elapsed":366653,"subject_id":"90767","group":"Group2","condition":"1_Rep","full_date":"2026-03-09T12:05:39.827Z","date":"2026-03-09","time":"12:05:39"},{"correct_response":"l","task":"test_phase","broad_category":"S","image_png":"S_Shale_03.png","image_id":467,"category_name":"Shale","category":30,"distinct_rating":1.95,"distinct_type":"Bottom","item_type":"Target","rt":1891,"stimulus":"Stimuli_Rocks480/S_Shale_03.png","response":"l","trial_type":"image-keyboard-response","trial_index":153,"plugin_version":"2.1.0","time_elapsed":368545,"subject_id":"90767","group":"Group2","condition":"1_Rep","full_date":"2026-03-09T12:05:39.827Z","date":"2026-03-09","time":"12:05:39","cor_ans":true},{"trial_type":"html-keyboard-response","rt":null,"stimulus":"<p style=\"color: green; font-size: 50px; font-weight: bold;\">Correct</p>","response":null,"trial_index":154,"plugin_version":"2.1.0","time_elapsed":369056,"subject_id":"90767","group":"Group2","condition":"1_Rep","full_date":"2026-03-09T12:05:39.827Z","date":"2026-03-09","time":"12:05:39"},{"correct_response":"l","task":"test_phase","broad_category":"I","image_png":"I_Gabbro_12.png","image_id":60,"category_name":"Gabbro","category":4,"distinct_rating":2.6,"distinct_type":"Bottom","item_type":"Target","rt":1072,"stimulus":"Stimuli_Rocks480/I_Gabbro_12.png","response":"l","trial_type":"image-keyboard-response","trial_index":155,"plugin_version":"2.1.0","time_elapsed":370128,"subject_id":"90767","group":"Group2","condition":"1_Rep","full_date":"2026-03-09T12:05:39.827Z","date":"2026-03-09","time":"12:05:39","cor_ans":true},{"trial_type":"html-keyboard-response","rt":null,"stimulus":"<p style=\"color: green; font-size: 50px; font-weight: bold;\">Correct</p>","response":null,"trial_index":156,"plugin_version":"2.1.0","time_elapsed":370637,"subject_id":"90767","group":"Group2","condition":"1_Rep","full_date":"2026-03-09T12:05:39.827Z","date":"2026-03-09","time":"12:05:39"},{"correct_response":"a","task":"test_phase","broad_category":"I","image_png":"I_Gabbro_08.png","image_id":56,"category_name":"Gabbro","category":4,"distinct_rating":3.02,"distinct_type":"Bottom","item_type":"Foil","rt":2642,"stimulus":"Stimuli_Rocks480/I_Gabbro_08.png","response":"a","trial_type":"image-keyboard-response","trial_index":157,"plugin_version":"2.1.0","time_elapsed":373281,"subject_id":"90767","group":"Group2","condition":"1_Rep","full_date":"2026-03-09T12:05:39.827Z","date":"2026-03-09","time":"12:05:39","cor_ans":true},{"trial_type":"html-keyboard-response","rt":null,"stimulus":"<p style=\"color: green; font-size: 50px; font-weight: bold;\">Correct</p>","response":null,"trial_index":158,"plugin_version":"2.1.0","time_elapsed":373789,"subject_id":"90767","group":"Group2","condition":"1_Rep","full_date":"2026-03-09T12:05:39.827Z","date":"2026-03-09","time":"12:05:39"},{"correct_response":"l","task":"test_phase","broad_category":"S","image_png":"S_Dolomite_07.png","image_id":391,"category_name":"Dolomite","category":25,"distinct_rating":1.73,"distinct_type":"Bottom","item_type":"Target","rt":1090,"stimulus":"Stimuli_Rocks480/S_Dolomite_07.png","response":"l","trial_type":"image-keyboard-response","trial_index":159,"plugin_version":"2.1.0","time_elapsed":374881,"subject_id":"90767","group":"Group2","condition":"1_Rep","full_date":"2026-03-09T12:05:39.827Z","date":"2026-03-09","time":"12:05:39","cor_ans":true},{"trial_type":"html-keyboard-response","rt":null,"stimulus":"<p style=\"color: green; font-size: 50px; font-weight: bold;\">Correct</p>","response":null,"trial_index":160,"plugin_version":"2.1.0","time_elapsed":375396,"subject_id":"90767","group":"Group2","condition":"1_Rep","full_date":"2026-03-09T12:05:39.827Z","date":"2026-03-09","time":"12:05:39"},{"correct_response":"l","task":"test_phase","broad_category":"I","image_png":"I_Basalt_08.png","image_id":24,"category_name":"Basalt","category":2,"distinct_rating":2.31,"distinct_type":"Bottom","item_type":"Target","rt":1323,"stimulus":"Stimuli_Rocks480/I_Basalt_08.png","response":"l","trial_type":"image-keyboard-response","trial_index":161,"plugin_version":"2.1.0","time_elapsed":376720,"subject_id":"90767","group":"Group2","condition":"1_Rep","full_date":"2026-03-09T12:05:39.827Z","date":"2026-03-09","time":"12:05:39","cor_ans":true},{"trial_type":"html-keyboard-response","rt":null,"stimulus":"<p style=\"color: green; font-size: 50px; font-weight: bold;\">Correct</p>","response":null,"trial_index":162,"plugin_version":"2.1.0","time_elapsed":377235,"subject_id":"90767","group":"Group2","condition":"1_Rep","full_date":"2026-03-09T12:05:39.827Z","date":"2026-03-09","time":"12:05:39"},{"correct_response":"l","task":"test_phase","broad_category":"I","image_png":"I_Pumice_01.png","image_id":129,"category_name":"Pumice","category":9,"distinct_rating":3.25,"distinct_type":"Bottom","item_type":"Target","rt":1165,"stimulus":"Stimuli_Rocks480/I_Pumice_01.png","response":"l","trial_type":"image-keyboard-response","trial_index":163,"plugin_version":"2.1.0","time_elapsed":378401,"subject_id":"90767","group":"Group2","condition":"1_Rep","full_date":"2026-03-09T12:05:39.827Z","date":"2026-03-09","time":"12:05:39","cor_ans":true},{"trial_type":"html-keyboard-response","rt":null,"stimulus":"<p style=\"color: green; font-size: 50px; font-weight: bold;\">Correct</p>","response":null,"trial_index":164,"plugin_version":"2.1.0","time_elapsed":378903,"subject_id":"90767","group":"Group2","condition":"1_Rep","full_date":"2026-03-09T12:05:39.827Z","date":"2026-03-09","time":"12:05:39"},{"correct_response":"a","task":"test_phase","broad_category":"M","image_png":"M_Gneiss_06.png","image_id":198,"category_name":"Gneiss","category":13,"distinct_rating":2.65,"distinct_type":"Bottom","item_type":"Foil","rt":1496,"stimulus":"Stimuli_Rocks480/M_Gneiss_06.png","response":"l","trial_type":"image-keyboard-response","trial_index":165,"plugin_version":"2.1.0","time_elapsed":380401,"subject_id":"90767","group":"Group2","condition":"1_Rep","full_date":"2026-03-09T12:05:39.827Z","date":"2026-03-09","time":"12:05:39","cor_ans":false},{"trial_type":"html-keyboard-response","rt":null,"stimulus":"<p style=\"color: red; font-size: 50px; font-weight: bold;\">Incorrect</p>","response":null,"trial_index":166,"plugin_version":"2.1.0","time_elapsed":380908,"subject_id":"90767","group":"Group2","condition":"1_Rep","full_date":"2026-03-09T12:05:39.827Z","date":"2026-03-09","time":"12:05:39"},{"correct_response":"a","task":"test_phase","broad_category":"I","image_png":"I_Obsidian_05.png","image_id":85,"category_name":"Obsidian","category":6,"distinct_rating":7.32,"distinct_type":"Top","item_type":"Foil","rt":1363,"stimulus":"Stimuli_Rocks480/I_Obsidian_05.png","response":"a","trial_type":"image-keyboard-response","trial_index":167,"plugin_version":"2.1.0","time_elapsed":382273,"subject_id":"90767","group":"Group2","condition":"1_Rep","full_date":"2026-03-09T12:05:39.827Z","date":"2026-03-09","time":"12:05:39","cor_ans":true},{"trial_type":"html-keyboard-response","rt":null,"stimulus":"<p style=\"color: green; font-size: 50px; font-weight: bold;\">Correct</p>","response":null,"trial_index":168,"plugin_version":"2.1.0","time_elapsed":382776,"subject_id":"90767","group":"Group2","condition":"1_Rep","full_date":"2026-03-09T12:05:39.827Z","date":"2026-03-09","time":"12:05:39"},{"correct_response":"a","task":"test_phase","broad_category":"M","image_png":"M_Phyllite_07.png","image_id":263,"category_name":"Phyllite","category":17,"distinct_rating":2.59,"distinct_type":"Bottom","item_type":"Foil","rt":2295,"stimulus":"Stimuli_Rocks480/M_Phyllite_07.png","response":"a","trial_type":"image-keyboard-response","trial_index":169,"plugin_version":"2.1.0","time_elapsed":385073,"subject_id":"90767","group":"Group2","condition":"1_Rep","full_date":"2026-03-09T12:05:39.827Z","date":"2026-03-09","time":"12:05:39","cor_ans":true},{"trial_type":"html-keyboard-response","rt":null,"stimulus":"<p style=\"color: green; font-size: 50px; font-weight: bold;\">Correct</p>","response":null,"trial_index":170,"plugin_version":"2.1.0","time_elapsed":385582,"subject_id":"90767","group":"Group2","condition":"1_Rep","full_date":"2026-03-09T12:05:39.827Z","date":"2026-03-09","time":"12:05:39"},{"correct_response":"a","task":"test_phase","broad_category":"I","image_png":"I_Rhyolite_11.png","image_id":155,"category_name":"Rhyolite","category":10,"distinct_rating":1.73,"distinct_type":"Bottom","item_type":"Foil","rt":3617,"stimulus":"Stimuli_Rocks480/I_Rhyolite_11.png","response":"a","trial_type":"image-keyboard-response","trial_index":171,"plugin_version":"2.1.0","time_elapsed":389200,"subject_id":"90767","group":"Group2","condition":"1_Rep","full_date":"2026-03-09T12:05:39.827Z","date":"2026-03-09","time":"12:05:39","cor_ans":true},{"trial_type":"html-keyboard-response","rt":null,"stimulus":"<p style=\"color: green; font-size: 50px; font-weight: bold;\">Correct</p>","response":null,"trial_index":172,"plugin_version":"2.1.0","time_elapsed":389709,"subject_id":"90767","group":"Group2","condition":"1_Rep","full_date":"2026-03-09T12:05:39.827Z","date":"2026-03-09","time":"12:05:39"},{"correct_response":"a","task":"test_phase","broad_category":"S","image_png":"S_Chert_10.png","image_id":362,"category_name":"Chert","category":23,"distinct_rating":7.17,"distinct_type":"Top","item_type":"Foil","rt":1330,"stimulus":"Stimuli_Rocks480/S_Chert_10.png","response":"a","trial_type":"image-keyboard-response","trial_index":173,"plugin_version":"2.1.0","time_elapsed":391041,"subject_id":"90767","group":"Group2","condition":"1_Rep","full_date":"2026-03-09T12:05:39.827Z","date":"2026-03-09","time":"12:05:39","cor_ans":true},{"trial_type":"html-keyboard-response","rt":null,"stimulus":"<p style=\"color: green; font-size: 50px; font-weight: bold;\">Correct</p>","response":null,"trial_index":174,"plugin_version":"2.1.0","time_elapsed":391546,"subject_id":"90767","group":"Group2","condition":"1_Rep","full_date":"2026-03-09T12:05:39.827Z","date":"2026-03-09","time":"12:05:39"},{"correct_response":"a","task":"test_phase","broad_category":"I","image_png":"I_Gabbro_16.png","image_id":64,"category_name":"Gabbro","category":4,"distinct_rating":2.52,"distinct_type":"Bottom","item_type":"Foil","rt":3044,"stimulus":"Stimuli_Rocks480/I_Gabbro_16.png","response":"a","trial_type":"image-keyboard-response","trial_index":175,"plugin_version":"2.1.0","time_elapsed":394591,"subject_id":"90767","group":"Group2","condition":"1_Rep","full_date":"2026-03-09T12:05:39.827Z","date":"2026-03-09","time":"12:05:39","cor_ans":true},{"trial_type":"html-keyboard-response","rt":null,"stimulus":"<p style=\"color: green; font-size: 50px; font-weight: bold;\">Correct</p>","response":null,"trial_index":176,"plugin_version":"2.1.0","time_elapsed":395105,"subject_id":"90767","group":"Group2","condition":"1_Rep","full_date":"2026-03-09T12:05:39.827Z","date":"2026-03-09","time":"12:05:39"},{"correct_response":"l","task":"test_phase","broad_category":"I","image_png":"I_Rhyolite_08.png","image_id":152,"category_name":"Rhyolite","category":10,"distinct_rating":1.38,"distinct_type":"Bottom","item_type":"Target","rt":1358,"stimulus":"Stimuli_Rocks480/I_Rhyolite_08.png","response":"l","trial_type":"image-keyboard-response","trial_index":177,"plugin_version":"2.1.0","time_elapsed":396464,"subject_id":"90767","group":"Group2","condition":"1_Rep","full_date":"2026-03-09T12:05:39.827Z","date":"2026-03-09","time":"12:05:39","cor_ans":true},{"trial_type":"html-keyboard-response","rt":null,"stimulus":"<p style=\"color: green; font-size: 50px; font-weight: bold;\">Correct</p>","response":null,"trial_index":178,"plugin_version":"2.1.0","time_elapsed":396976,"subject_id":"90767","group":"Group2","condition":"1_Rep","full_date":"2026-03-09T12:05:39.827Z","date":"2026-03-09","time":"12:05:39"},{"correct_response":"a","task":"test_phase","broad_category":"S","image_png":"S_Shale_08.png","image_id":472,"category_name":"Shale","category":30,"distinct_rating":2.55,"distinct_type":"Bottom","item_type":"Foil","rt":2047,"stimulus":"Stimuli_Rocks480/S_Shale_08.png","response":"l","trial_type":"image-keyboard-response","trial_index":179,"plugin_version":"2.1.0","time_elapsed":399025,"subject_id":"90767","group":"Group2","condition":"1_Rep","full_date":"2026-03-09T12:05:39.827Z","date":"2026-03-09","time":"12:05:39","cor_ans":false},{"trial_type":"html-keyboard-response","rt":null,"stimulus":"<p style=\"color: red; font-size: 50px; font-weight: bold;\">Incorrect</p>","response":null,"trial_index":180,"plugin_version":"2.1.0","time_elapsed":399533,"subject_id":"90767","group":"Group2","condition":"1_Rep","full_date":"2026-03-09T12:05:39.827Z","date":"2026-03-09","time":"12:05:39"},{"correct_response":"l","task":"test_phase","broad_category":"S","image_png":"S_Rock Salt_15.png","image_id":447,"category_name":"Rock Salt","category":28,"distinct_rating":7.79,"distinct_type":"Top","item_type":"Target","rt":1106,"stimulus":"Stimuli_Rocks480/S_Rock Salt_15.png","response":"l","trial_type":"image-keyboard-response","trial_index":181,"plugin_version":"2.1.0","time_elapsed":400640,"subject_id":"90767","group":"Group2","condition":"1_Rep","full_date":"2026-03-09T12:05:39.827Z","date":"2026-03-09","time":"12:05:39","cor_ans":true},{"trial_type":"html-keyboard-response","rt":null,"stimulus":"<p style=\"color: green; font-size: 50px; font-weight: bold;\">Correct</p>","response":null,"trial_index":182,"plugin_version":"2.1.0","time_elapsed":401154,"subject_id":"90767","group":"Group2","condition":"1_Rep","full_date":"2026-03-09T12:05:39.827Z","date":"2026-03-09","time":"12:05:39"},{"correct_response":"l","task":"test_phase","broad_category":"M","image_png":"M_Quartzite_15.png","image_id":287,"category_name":"Quartzite","category":18,"distinct_rating":2.19,"distinct_type":"Bottom","item_type":"Target","rt":1309,"stimulus":"Stimuli_Rocks480/M_Quartzite_15.png","response":"l","trial_type":"image-keyboard-response","trial_index":183,"plugin_version":"2.1.0","time_elapsed":402464,"subject_id":"90767","group":"Group2","condition":"1_Rep","full_date":"2026-03-09T12:05:39.827Z","date":"2026-03-09","time":"12:05:39","cor_ans":true},{"trial_type":"html-keyboard-response","rt":null,"stimulus":"<p style=\"color: green; font-size: 50px; font-weight: bold;\">Correct</p>","response":null,"trial_index":184,"plugin_version":"2.1.0","time_elapsed":402970,"subject_id":"90767","group":"Group2","condition":"1_Rep","full_date":"2026-03-09T12:05:39.827Z","date":"2026-03-09","time":"12:05:39"},{"correct_response":"a","task":"test_phase","broad_category":"I","image_png":"I_Diorite_04.png","image_id":36,"category_name":"Diorite","category":3,"distinct_rating":2.98,"distinct_type":"Bottom","item_type":"Foil","rt":1172,"stimulus":"Stimuli_Rocks480/I_Diorite_04.png","response":"l","trial_type":"image-keyboard-response","trial_index":185,"plugin_version":"2.1.0","time_elapsed":404144,"subject_id":"90767","group":"Group2","condition":"1_Rep","full_date":"2026-03-09T12:05:39.827Z","date":"2026-03-09","time":"12:05:39","cor_ans":false},{"trial_type":"html-keyboard-response","rt":null,"stimulus":"<p style=\"color: red; font-size: 50px; font-weight: bold;\">Incorrect</p>","response":null,"trial_index":186,"plugin_version":"2.1.0","time_elapsed":404660,"subject_id":"90767","group":"Group2","condition":"1_Rep","full_date":"2026-03-09T12:05:39.827Z","date":"2026-03-09","time":"12:05:39"},{"correct_response":"l","task":"test_phase","broad_category":"I","image_png":"I_Diorite_10.png","image_id":42,"category_name":"Diorite","category":3,"distinct_rating":2.84,"distinct_type":"Bottom","item_type":"Target","rt":3547,"stimulus":"Stimuli_Rocks480/I_Diorite_10.png","response":"l","trial_type":"image-keyboard-response","trial_index":187,"plugin_version":"2.1.0","time_elapsed":408208,"subject_id":"90767","group":"Group2","condition":"1_Rep","full_date":"2026-03-09T12:05:39.827Z","date":"2026-03-09","time":"12:05:39","cor_ans":true},{"trial_type":"html-keyboard-response","rt":null,"stimulus":"<p style=\"color: green; font-size: 50px; font-weight: bold;\">Correct</p>","response":null,"trial_index":188,"plugin_version":"2.1.0","time_elapsed":408719,"subject_id":"90767","group":"Group2","condition":"1_Rep","full_date":"2026-03-09T12:05:39.827Z","date":"2026-03-09","time":"12:05:39"},{"correct_response":"l","task":"test_phase","broad_category":"M","image_png":"M_Quartzite_07.png","image_id":279,"category_name":"Quartzite","category":18,"distinct_rating":1.97,"distinct_type":"Bottom","item_type":"Target","rt":1344,"stimulus":"Stimuli_Rocks480/M_Quartzite_07.png","response":"a","trial_type":"image-keyboard-response","trial_index":189,"plugin_version":"2.1.0","time_elapsed":410065,"subject_id":"90767","group":"Group2","condition":"1_Rep","full_date":"2026-03-09T12:05:39.827Z","date":"2026-03-09","time":"12:05:39","cor_ans":false},{"trial_type":"html-keyboard-response","rt":null,"stimulus":"<p style=\"color: red; font-size: 50px; font-weight: bold;\">Incorrect</p>","response":null,"trial_index":190,"plugin_version":"2.1.0","time_elapsed":410574,"subject_id":"90767","group":"Group2","condition":"1_Rep","full_date":"2026-03-09T12:05:39.827Z","date":"2026-03-09","time":"12:05:39"},{"correct_response":"l","task":"test_phase","broad_category":"M","image_png":"M_Phyllite_05.png","image_id":261,"category_name":"Phyllite","category":17,"distinct_rating":2.14,"distinct_type":"Bottom","item_type":"Target","rt":1121,"stimulus":"Stimuli_Rocks480/M_Phyllite_05.png","response":"l","trial_type":"image-keyboard-response","trial_index":191,"plugin_version":"2.1.0","time_elapsed":411696,"subject_id":"90767","group":"Group2","condition":"1_Rep","full_date":"2026-03-09T12:05:39.827Z","date":"2026-03-09","time":"12:05:39","cor_ans":true},{"trial_type":"html-keyboard-response","rt":null,"stimulus":"<p style=\"color: green; font-size: 50px; font-weight: bold;\">Correct</p>","response":null,"trial_index":192,"plugin_version":"2.1.0","time_elapsed":412209,"subject_id":"90767","group":"Group2","condition":"1_Rep","full_date":"2026-03-09T12:05:39.827Z","date":"2026-03-09","time":"12:05:39"},{"correct_response":"l","task":"test_phase","broad_category":"I","image_png":"I_Rhyolite_10.png","image_id":154,"category_name":"Rhyolite","category":10,"distinct_rating":2.88,"distinct_type":"Bottom","item_type":"Target","rt":1438,"stimulus":"Stimuli_Rocks480/I_Rhyolite_10.png","response":"l","trial_type":"image-keyboard-response","trial_index":193,"plugin_version":"2.1.0","time_elapsed":413649,"subject_id":"90767","group":"Group2","condition":"1_Rep","full_date":"2026-03-09T12:05:39.827Z","date":"2026-03-09","time":"12:05:39","cor_ans":true},{"trial_type":"html-keyboard-response","rt":null,"stimulus":"<p style=\"color: green; font-size: 50px; font-weight: bold;\">Correct</p>","response":null,"trial_index":194,"plugin_version":"2.1.0","time_elapsed":414164,"subject_id":"90767","group":"Group2","condition":"1_Rep","full_date":"2026-03-09T12:05:39.827Z","date":"2026-03-09","time":"12:05:39"},{"correct_response":"l","task":"test_phase","broad_category":"M","image_png":"M_Gneiss_14.png","image_id":206,"category_name":"Gneiss","category":13,"distinct_rating":3.41,"distinct_type":"Bottom","item_type":"Target","rt":1147,"stimulus":"Stimuli_Rocks480/M_Gneiss_14.png","response":"l","trial_type":"image-keyboard-response","trial_index":195,"plugin_version":"2.1.0","time_elapsed":415312,"subject_id":"90767","group":"Group2","condition":"1_Rep","full_date":"2026-03-09T12:05:39.827Z","date":"2026-03-09","time":"12:05:39","cor_ans":true},{"trial_type":"html-keyboard-response","rt":null,"stimulus":"<p style=\"color: green; font-size: 50px; font-weight: bold;\">Correct</p>","response":null,"trial_index":196,"plugin_version":"2.1.0","time_elapsed":415819,"subject_id":"90767","group":"Group2","condition":"1_Rep","full_date":"2026-03-09T12:05:39.827Z","date":"2026-03-09","time":"12:05:39"},{"correct_response":"a","task":"test_phase","broad_category":"M","image_png":"M_Quartzite_05.png","image_id":277,"category_name":"Quartzite","category":18,"distinct_rating":2.23,"distinct_type":"Bottom","item_type":"Foil","rt":3188,"stimulus":"Stimuli_Rocks480/M_Quartzite_05.png","response":"a","trial_type":"image-keyboard-response","trial_index":197,"plugin_version":"2.1.0","time_elapsed":419009,"subject_id":"90767","group":"Group2","condition":"1_Rep","full_date":"2026-03-09T12:05:39.827Z","date":"2026-03-09","time":"12:05:39","cor_ans":true},{"trial_type":"html-keyboard-response","rt":null,"stimulus":"<p style=\"color: green; font-size: 50px; font-weight: bold;\">Correct</p>","response":null,"trial_index":198,"plugin_version":"2.1.0","time_elapsed":419512,"subject_id":"90767","group":"Group2","condition":"1_Rep","full_date":"2026-03-09T12:05:39.827Z","date":"2026-03-09","time":"12:05:39"},{"correct_response":"a","task":"test_phase","broad_category":"M","image_png":"M_Slate_11.png","image_id":315,"category_name":"Slate","category":20,"distinct_rating":2.75,"distinct_type":"Bottom","item_type":"Foil","rt":5848,"stimulus":"Stimuli_Rocks480/M_Slate_11.png","response":"a","trial_type":"image-keyboard-response","trial_index":199,"plugin_version":"2.1.0","time_elapsed":425361,"subject_id":"90767","group":"Group2","condition":"1_Rep","full_date":"2026-03-09T12:05:39.827Z","date":"2026-03-09","time":"12:05:39","cor_ans":true},{"trial_type":"html-keyboard-response","rt":null,"stimulus":"<p style=\"color: green; font-size: 50px; font-weight: bold;\">Correct</p>","response":null,"trial_index":200,"plugin_version":"2.1.0","time_elapsed":425877,"subject_id":"90767","group":"Group2","condition":"1_Rep","full_date":"2026-03-09T12:05:39.827Z","date":"2026-03-09","time":"12:05:39"},{"correct_response":"a","task":"test_phase","broad_category":"S","image_png":"S_Breccia_11.png","image_id":347,"category_name":"Breccia","category":22,"distinct_rating":6.7,"distinct_type":"Top","item_type":"Foil","rt":954,"stimulus":"Stimuli_Rocks480/S_Breccia_11.png","response":"a","trial_type":"image-keyboard-response","trial_index":201,"plugin_version":"2.1.0","time_elapsed":426832,"subject_id":"90767","group":"Group2","condition":"1_Rep","full_date":"2026-03-09T12:05:39.827Z","date":"2026-03-09","time":"12:05:39","cor_ans":true},{"trial_type":"html-keyboard-response","rt":null,"stimulus":"<p style=\"color: green; font-size: 50px; font-weight: bold;\">Correct</p>","response":null,"trial_index":202,"plugin_version":"2.1.0","time_elapsed":427345,"subject_id":"90767","group":"Group2","condition":"1_Rep","full_date":"2026-03-09T12:05:39.827Z","date":"2026-03-09","time":"12:05:39"},{"correct_response":"a","task":"test_phase","broad_category":"I","image_png":"I_Andesite_10.png","image_id":10,"category_name":"Andesite","category":1,"distinct_rating":3.15,"distinct_type":"Bottom","item_type":"Foil","rt":1646,"stimulus":"Stimuli_Rocks480/I_Andesite_10.png","response":"a","trial_type":"image-keyboard-response","trial_index":203,"plugin_version":"2.1.0","time_elapsed":428993,"subject_id":"90767","group":"Group2","condition":"1_Rep","full_date":"2026-03-09T12:05:39.827Z","date":"2026-03-09","time":"12:05:39","cor_ans":true},{"trial_type":"html-keyboard-response","rt":null,"stimulus":"<p style=\"color: green; font-size: 50px; font-weight: bold;\">Correct</p>","response":null,"trial_index":204,"plugin_version":"2.1.0","time_elapsed":429499,"subject_id":"90767","group":"Group2","condition":"1_Rep","full_date":"2026-03-09T12:05:39.827Z","date":"2026-03-09","time":"12:05:39"},{"correct_response":"a","task":"test_phase","broad_category":"I","image_png":"I_Basalt_02.png","image_id":18,"category_name":"Basalt","category":2,"distinct_rating":1.84,"distinct_type":"Bottom","item_type":"Foil","rt":2547,"stimulus":"Stimuli_Rocks480/I_Basalt_02.png","response":"a","trial_type":"image-keyboard-response","trial_index":205,"plugin_version":"2.1.0","time_elapsed":432047,"subject_id":"90767","group":"Group2","condition":"1_Rep","full_date":"2026-03-09T12:05:39.827Z","date":"2026-03-09","time":"12:05:39","cor_ans":true},{"trial_type":"html-keyboard-response","rt":null,"stimulus":"<p style=\"color: green; font-size: 50px; font-weight: bold;\">Correct</p>","response":null,"trial_index":206,"plugin_version":"2.1.0","time_elapsed":432556,"subject_id":"90767","group":"Group2","condition":"1_Rep","full_date":"2026-03-09T12:05:39.827Z","date":"2026-03-09","time":"12:05:39"},{"correct_response":"l","task":"test_phase","broad_category":"I","image_png":"I_Basalt_10.png","image_id":26,"category_name":"Basalt","category":2,"distinct_rating":2.76,"distinct_type":"Bottom","item_type":"Target","rt":1490,"stimulus":"Stimuli_Rocks480/I_Basalt_10.png","response":"l","trial_type":"image-keyboard-response","trial_index":207,"plugin_version":"2.1.0","time_elapsed":434048,"subject_id":"90767","group":"Group2","condition":"1_Rep","full_date":"2026-03-09T12:05:39.827Z","date":"2026-03-09","time":"12:05:39","cor_ans":true},{"trial_type":"html-keyboard-response","rt":null,"stimulus":"<p style=\"color: green; font-size: 50px; font-weight: bold;\">Correct</p>","response":null,"trial_index":208,"plugin_version":"2.1.0","time_elapsed":434560,"subject_id":"90767","group":"Group2","condition":"1_Rep","full_date":"2026-03-09T12:05:39.827Z","date":"2026-03-09","time":"12:05:39"},{"correct_response":"l","task":"test_phase","broad_category":"I","image_png":"I_Pumice_14.png","image_id":142,"category_name":"Pumice","category":9,"distinct_rating":3.22,"distinct_type":"Bottom","item_type":"Target","rt":1311,"stimulus":"Stimuli_Rocks480/I_Pumice_14.png","response":"l","trial_type":"image-keyboard-response","trial_index":209,"plugin_version":"2.1.0","time_elapsed":435873,"subject_id":"90767","group":"Group2","condition":"1_Rep","full_date":"2026-03-09T12:05:39.827Z","date":"2026-03-09","time":"12:05:39","cor_ans":true},{"trial_type":"html-keyboard-response","rt":null,"stimulus":"<p style=\"color: green; font-size: 50px; font-weight: bold;\">Correct</p>","response":null,"trial_index":210,"plugin_version":"2.1.0","time_elapsed":436382,"subject_id":"90767","group":"Group2","condition":"1_Rep","full_date":"2026-03-09T12:05:39.827Z","date":"2026-03-09","time":"12:05:39"},{"correct_response":"l","task":"test_phase","broad_category":"I","image_png":"I_Pumice_13.png","image_id":141,"category_name":"Pumice","category":9,"distinct_rating":3.12,"distinct_type":"Bottom","item_type":"Target","rt":2112,"stimulus":"Stimuli_Rocks480/I_Pumice_13.png","response":"l","trial_type":"image-keyboard-response","trial_index":211,"plugin_version":"2.1.0","time_elapsed":438496,"subject_id":"90767","group":"Group2","condition":"1_Rep","full_date":"2026-03-09T12:05:39.827Z","date":"2026-03-09","time":"12:05:39","cor_ans":true},{"trial_type":"html-keyboard-response","rt":null,"stimulus":"<p style=\"color: green; font-size: 50px; font-weight: bold;\">Correct</p>","response":null,"trial_index":212,"plugin_version":"2.1.0","time_elapsed":439003,"subject_id":"90767","group":"Group2","condition":"1_Rep","full_date":"2026-03-09T12:05:39.827Z","date":"2026-03-09","time":"12:05:39"},{"correct_response":"l","task":"test_phase","broad_category":"M","image_png":"M_Gneiss_10.png","image_id":202,"category_name":"Gneiss","category":13,"distinct_rating":3.09,"distinct_type":"Bottom","item_type":"Target","rt":1476,"stimulus":"Stimuli_Rocks480/M_Gneiss_10.png","response":"l","trial_type":"image-keyboard-response","trial_index":213,"plugin_version":"2.1.0","time_elapsed":440480,"subject_id":"90767","group":"Group2","condition":"1_Rep","full_date":"2026-03-09T12:05:39.827Z","date":"2026-03-09","time":"12:05:39","cor_ans":true},{"trial_type":"html-keyboard-response","rt":null,"stimulus":"<p style=\"color: green; font-size: 50px; font-weight: bold;\">Correct</p>","response":null,"trial_index":214,"plugin_version":"2.1.0","time_elapsed":440981,"subject_id":"90767","group":"Group2","condition":"1_Rep","full_date":"2026-03-09T12:05:39.827Z","date":"2026-03-09","time":"12:05:39"},{"correct_response":"a","task":"test_phase","broad_category":"I","image_png":"I_Diorite_03.png","image_id":35,"category_name":"Diorite","category":3,"distinct_rating":3.14,"distinct_type":"Bottom","item_type":"Foil","rt":1337,"stimulus":"Stimuli_Rocks480/I_Diorite_03.png","response":"l","trial_type":"image-keyboard-response","trial_index":215,"plugin_version":"2.1.0","time_elapsed":442320,"subject_id":"90767","group":"Group2","condition":"1_Rep","full_date":"2026-03-09T12:05:39.827Z","date":"2026-03-09","time":"12:05:39","cor_ans":false},{"trial_type":"html-keyboard-response","rt":null,"stimulus":"<p style=\"color: red; font-size: 50px; font-weight: bold;\">Incorrect</p>","response":null,"trial_index":216,"plugin_version":"2.1.0","time_elapsed":442830,"subject_id":"90767","group":"Group2","condition":"1_Rep","full_date":"2026-03-09T12:05:39.827Z","date":"2026-03-09","time":"12:05:39"},{"correct_response":"l","task":"test_phase","broad_category":"I","image_png":"I_Gabbro_14.png","image_id":62,"category_name":"Gabbro","category":4,"distinct_rating":2.95,"distinct_type":"Bottom","item_type":"Target","rt":1984,"stimulus":"Stimuli_Rocks480/I_Gabbro_14.png","response":"a","trial_type":"image-keyboard-response","trial_index":217,"plugin_version":"2.1.0","time_elapsed":444816,"subject_id":"90767","group":"Group2","condition":"1_Rep","full_date":"2026-03-09T12:05:39.827Z","date":"2026-03-09","time":"12:05:39","cor_ans":false},{"trial_type":"html-keyboard-response","rt":null,"stimulus":"<p style=\"color: red; font-size: 50px; font-weight: bold;\">Incorrect</p>","response":null,"trial_index":218,"plugin_version":"2.1.0","time_elapsed":445319,"subject_id":"90767","group":"Group2","condition":"1_Rep","full_date":"2026-03-09T12:05:39.827Z","date":"2026-03-09","time":"12:05:39"},{"correct_response":"a","task":"test_phase","broad_category":"M","image_png":"M_Phyllite_03.png","image_id":259,"category_name":"Phyllite","category":17,"distinct_rating":2.5,"distinct_type":"Bottom","item_type":"Foil","rt":1162,"stimulus":"Stimuli_Rocks480/M_Phyllite_03.png","response":"a","trial_type":"image-keyboard-response","trial_index":219,"plugin_version":"2.1.0","time_elapsed":446481,"subject_id":"90767","group":"Group2","condition":"1_Rep","full_date":"2026-03-09T12:05:39.827Z","date":"2026-03-09","time":"12:05:39","cor_ans":true},{"trial_type":"html-keyboard-response","rt":null,"stimulus":"<p style=\"color: green; font-size: 50px; font-weight: bold;\">Correct</p>","response":null,"trial_index":220,"plugin_version":"2.1.0","time_elapsed":446991,"subject_id":"90767","group":"Group2","condition":"1_Rep","full_date":"2026-03-09T12:05:39.827Z","date":"2026-03-09","time":"12:05:39"},{"correct_response":"a","task":"test_phase","broad_category":"I","image_png":"I_Rhyolite_14.png","image_id":158,"category_name":"Rhyolite","category":10,"distinct_rating":2.59,"distinct_type":"Bottom","item_type":"Foil","rt":2127,"stimulus":"Stimuli_Rocks480/I_Rhyolite_14.png","response":"a","trial_type":"image-keyboard-response","trial_index":221,"plugin_version":"2.1.0","time_elapsed":449120,"subject_id":"90767","group":"Group2","condition":"1_Rep","full_date":"2026-03-09T12:05:39.827Z","date":"2026-03-09","time":"12:05:39","cor_ans":true},{"trial_type":"html-keyboard-response","rt":null,"stimulus":"<p style=\"color: green; font-size: 50px; font-weight: bold;\">Correct</p>","response":null,"trial_index":222,"plugin_version":"2.1.0","time_elapsed":449631,"subject_id":"90767","group":"Group2","condition":"1_Rep","full_date":"2026-03-09T12:05:39.827Z","date":"2026-03-09","time":"12:05:39"},{"correct_response":"l","task":"test_phase","broad_category":"I","image_png":"I_Obsidian_06.png","image_id":86,"category_name":"Obsidian","category":6,"distinct_rating":8.01,"distinct_type":"Top","item_type":"Target","rt":1823,"stimulus":"Stimuli_Rocks480/I_Obsidian_06.png","response":"l","trial_type":"image-keyboard-response","trial_index":223,"plugin_version":"2.1.0","time_elapsed":451456,"subject_id":"90767","group":"Group2","condition":"1_Rep","full_date":"2026-03-09T12:05:39.827Z","date":"2026-03-09","time":"12:05:39","cor_ans":true},{"trial_type":"html-keyboard-response","rt":null,"stimulus":"<p style=\"color: green; font-size: 50px; font-weight: bold;\">Correct</p>","response":null,"trial_index":224,"plugin_version":"2.1.0","time_elapsed":451968,"subject_id":"90767","group":"Group2","condition":"1_Rep","full_date":"2026-03-09T12:05:39.827Z","date":"2026-03-09","time":"12:05:39"},{"correct_response":"l","task":"test_