[{"width":1440,"height":778,"webaudio":true,"browser":"chrome","browser_version":"138.0.0","mobile":false,"os":"Mac OS","fullscreen":true,"vsync_rate":60.48,"webcam":true,"microphone":true,"trial_type":"browser-check","trial_index":0,"plugin_version":"2.1.0","time_elapsed":1006,"subject_id":"91426","group":"Group2","condition":"1_Rep","full_date":"2026-02-06T15:37:27.368Z","date":"2026-02-06","time":"15:37:27"},{"success":true,"timeout":false,"failed_images":[],"failed_audio":[],"failed_video":[],"trial_type":"preload","trial_index":1,"plugin_version":"2.1.0","time_elapsed":6475,"subject_id":"91426","group":"Group2","condition":"1_Rep","full_date":"2026-02-06T15:37:27.368Z","date":"2026-02-06","time":"15:37:27"},{"rt":35320,"url":"SONA_consent_memorability.html","trial_type":"external-html","trial_index":2,"plugin_version":"2.1.0","time_elapsed":41861,"subject_id":"91426","group":"Group2","condition":"1_Rep","full_date":"2026-02-06T15:37:27.368Z","date":"2026-02-06","time":"15:37:27"},{"success":true,"rt":1994,"trial_type":"fullscreen","trial_index":3,"plugin_version":"2.1.0","time_elapsed":44859,"subject_id":"91426","group":"Group2","condition":"1_Rep","full_date":"2026-02-06T15:37:27.368Z","date":"2026-02-06","time":"15:37:27"},{"rt":2261,"stimulus":"<div style=\"max-width: 760px; margin: auto; font-size: 20px; line-height: 1.5;\">\n      <h1 style=\"text-align:center; font-size: 30px;\">Instructions</h1>\n      <p>\n        Welcome to the study on <b>visual memory</b>. This experiment consists of <b>two phases</b>: \n        a <b>study phase</b> and a <b>test phase</b>.\n      </p>\n      <p>\n        In the study phase, you will see a series of rock images along with their category labels.\n        The images will appear one at a time.\n        <b>Your task</b> is to learn the categories to which the rock images belong \n        and to remember each image as accurately as possible.\n      </p> \n      <p>\n        Note that you will see each image only <b>once</b> during the study phase. \n          So, please pay close attention and try to remember each image carefully.\n      </p>\n      <p>\n        After the study phase, <b>your memory will be tested</b>. \n        Additional instructions for the test phase will be provided at that time.\n      </p>\n      <p>\n        If your computer has multiple <b>language settings</b> (e.g., English and another language),\n        please make sure it is set to English before starting.\n      </p>\n      <p>\n        You can track your progress using the <b>completion bar</b> at the top of the screen. \n        Please note that the bar will refresh when the test phase begins \n        to give you an accurate sense of your progress in both phases.\n      </p> \n      <p>\n        Press the button below when you are ready to begin.\n      </p>\n    </div>","response":0,"trial_type":"html-button-response","trial_index":4,"plugin_version":"2.1.0","time_elapsed":47124,"subject_id":"91426","group":"Group2","condition":"1_Rep","full_date":"2026-02-06T15:37:27.368Z","date":"2026-02-06","time":"15:37:27"},{"rt":null,"stimulus":"<p style=\"font-size: 50px; margin: 0; text-align: center;\">+</p>","response":null,"trial_type":"html-keyboard-response","trial_index":5,"plugin_version":"2.1.0","time_elapsed":48127,"subject_id":"91426","group":"Group2","condition":"1_Rep","full_date":"2026-02-06T15:37:27.368Z","date":"2026-02-06","time":"15:37:27"},{"task":"memory_phase","broad_category":"I","image_png":"I_Andesite_04.png","image_id":4,"category_name":"Andesite","category":1,"distinct_rating":3.18,"distinct_type":"Bottom","rt":null,"stimulus":"Stimuli_Rocks480/I_Andesite_04.png","response":null,"trial_type":"image-keyboard-response","trial_index":6,"plugin_version":"2.1.0","time_elapsed":50632,"subject_id":"91426","group":"Group2","condition":"1_Rep","full_date":"2026-02-06T15:37:27.368Z","date":"2026-02-06","time":"15:37:27"},{"rt":null,"stimulus":"<p style=\"font-size: 50px; margin: 0; text-align: center;\">+</p>","response":null,"trial_type":"html-keyboard-response","trial_index":7,"plugin_version":"2.1.0","time_elapsed":51634,"subject_id":"91426","group":"Group2","condition":"1_Rep","full_date":"2026-02-06T15:37:27.368Z","date":"2026-02-06","time":"15:37:27"},{"task":"memory_phase","broad_category":"M","image_png":"M_Quartzite_15.png","image_id":287,"category_name":"Quartzite","category":18,"distinct_rating":2.19,"distinct_type":"Bottom","rt":null,"stimulus":"Stimuli_Rocks480/M_Quartzite_15.png","response":null,"trial_type":"image-keyboard-response","trial_index":8,"plugin_version":"2.1.0","time_elapsed":54139,"subject_id":"91426","group":"Group2","condition":"1_Rep","full_date":"2026-02-06T15:37:27.368Z","date":"2026-02-06","time":"15:37:27"},{"rt":null,"stimulus":"<p style=\"font-size: 50px; margin: 0; text-align: center;\">+</p>","response":null,"trial_type":"html-keyboard-response","trial_index":9,"plugin_version":"2.1.0","time_elapsed":55142,"subject_id":"91426","group":"Group2","condition":"1_Rep","full_date":"2026-02-06T15:37:27.368Z","date":"2026-02-06","time":"15:37:27"},{"task":"memory_phase","broad_category":"I","image_png":"I_Gabbro_14.png","image_id":62,"category_name":"Gabbro","category":4,"distinct_rating":2.95,"distinct_type":"Bottom","rt":null,"stimulus":"Stimuli_Rocks480/I_Gabbro_14.png","response":null,"trial_type":"image-keyboard-response","trial_index":10,"plugin_version":"2.1.0","time_elapsed":57646,"subject_id":"91426","group":"Group2","condition":"1_Rep","full_date":"2026-02-06T15:37:27.368Z","date":"2026-02-06","time":"15:37:27"},{"rt":null,"stimulus":"<p style=\"font-size: 50px; margin: 0; text-align: center;\">+</p>","response":null,"trial_type":"html-keyboard-response","trial_index":11,"plugin_version":"2.1.0","time_elapsed":58648,"subject_id":"91426","group":"Group2","condition":"1_Rep","full_date":"2026-02-06T15:37:27.368Z","date":"2026-02-06","time":"15:37:27"},{"task":"memory_phase","broad_category":"I","image_png":"I_Pumice_13.png","image_id":141,"category_name":"Pumice","category":9,"distinct_rating":3.12,"distinct_type":"Bottom","rt":null,"stimulus":"Stimuli_Rocks480/I_Pumice_13.png","response":null,"trial_type":"image-keyboard-response","trial_index":12,"plugin_version":"2.1.0","time_elapsed":61152,"subject_id":"91426","group":"Group2","condition":"1_Rep","full_date":"2026-02-06T15:37:27.368Z","date":"2026-02-06","time":"15:37:27"},{"rt":null,"stimulus":"<p style=\"font-size: 50px; margin: 0; text-align: center;\">+</p>","response":null,"trial_type":"html-keyboard-response","trial_index":13,"plugin_version":"2.1.0","time_elapsed":62154,"subject_id":"91426","group":"Group2","condition":"1_Rep","full_date":"2026-02-06T15:37:27.368Z","date":"2026-02-06","time":"15:37:27"},{"task":"memory_phase","broad_category":"I","image_png":"I_Rhyolite_10.png","image_id":154,"category_name":"Rhyolite","category":10,"distinct_rating":2.88,"distinct_type":"Bottom","rt":null,"stimulus":"Stimuli_Rocks480/I_Rhyolite_10.png","response":null,"trial_type":"image-keyboard-response","trial_index":14,"plugin_version":"2.1.0","time_elapsed":64659,"subject_id":"91426","group":"Group2","condition":"1_Rep","full_date":"2026-02-06T15:37:27.368Z","date":"2026-02-06","time":"15:37:27"},{"rt":null,"stimulus":"<p style=\"font-size: 50px; margin: 0; text-align: center;\">+</p>","response":null,"trial_type":"html-keyboard-response","trial_index":15,"plugin_version":"2.1.0","time_elapsed":65662,"subject_id":"91426","group":"Group2","condition":"1_Rep","full_date":"2026-02-06T15:37:27.368Z","date":"2026-02-06","time":"15:37:27"},{"task":"memory_phase","broad_category":"S","image_png":"S_Rock Salt_15.png","image_id":447,"category_name":"Rock Salt","category":28,"distinct_rating":7.79,"distinct_type":"Top","rt":null,"stimulus":"Stimuli_Rocks480/S_Rock Salt_15.png","response":null,"trial_type":"image-keyboard-response","trial_index":16,"plugin_version":"2.1.0","time_elapsed":68168,"subject_id":"91426","group":"Group2","condition":"1_Rep","full_date":"2026-02-06T15:37:27.368Z","date":"2026-02-06","time":"15:37:27"},{"rt":null,"stimulus":"<p style=\"font-size: 50px; margin: 0; text-align: center;\">+</p>","response":null,"trial_type":"html-keyboard-response","trial_index":17,"plugin_version":"2.1.0","time_elapsed":69170,"subject_id":"91426","group":"Group2","condition":"1_Rep","full_date":"2026-02-06T15:37:27.368Z","date":"2026-02-06","time":"15:37:27"},{"task":"memory_phase","broad_category":"S","image_png":"S_Rock Salt_13.png","image_id":445,"category_name":"Rock Salt","category":28,"distinct_rating":7.58,"distinct_type":"Top","rt":null,"stimulus":"Stimuli_Rocks480/S_Rock Salt_13.png","response":null,"trial_type":"image-keyboard-response","trial_index":18,"plugin_version":"2.1.0","time_elapsed":71674,"subject_id":"91426","group":"Group2","condition":"1_Rep","full_date":"2026-02-06T15:37:27.368Z","date":"2026-02-06","time":"15:37:27"},{"rt":null,"stimulus":"<p style=\"font-size: 50px; margin: 0; text-align: center;\">+</p>","response":null,"trial_type":"html-keyboard-response","trial_index":19,"plugin_version":"2.1.0","time_elapsed":72677,"subject_id":"91426","group":"Group2","condition":"1_Rep","full_date":"2026-02-06T15:37:27.368Z","date":"2026-02-06","time":"15:37:27"},{"task":"memory_phase","broad_category":"S","image_png":"S_Dolomite_16.png","image_id":400,"category_name":"Dolomite","category":25,"distinct_rating":1.71,"distinct_type":"Bottom","rt":null,"stimulus":"Stimuli_Rocks480/S_Dolomite_16.png","response":null,"trial_type":"image-keyboard-response","trial_index":20,"plugin_version":"2.1.0","time_elapsed":75183,"subject_id":"91426","group":"Group2","condition":"1_Rep","full_date":"2026-02-06T15:37:27.368Z","date":"2026-02-06","time":"15:37:27"},{"rt":null,"stimulus":"<p style=\"font-size: 50px; margin: 0; text-align: center;\">+</p>","response":null,"trial_type":"html-keyboard-response","trial_index":21,"plugin_version":"2.1.0","time_elapsed":76186,"subject_id":"91426","group":"Group2","condition":"1_Rep","full_date":"2026-02-06T15:37:27.368Z","date":"2026-02-06","time":"15:37:27"},{"task":"memory_phase","broad_category":"M","image_png":"M_Slate_10.png","image_id":314,"category_name":"Slate","category":20,"distinct_rating":1.94,"distinct_type":"Bottom","rt":null,"stimulus":"Stimuli_Rocks480/M_Slate_10.png","response":null,"trial_type":"image-keyboard-response","trial_index":22,"plugin_version":"2.1.0","time_elapsed":78690,"subject_id":"91426","group":"Group2","condition":"1_Rep","full_date":"2026-02-06T15:37:27.368Z","date":"2026-02-06","time":"15:37:27"},{"rt":null,"stimulus":"<p style=\"font-size: 50px; margin: 0; text-align: center;\">+</p>","response":null,"trial_type":"html-keyboard-response","trial_index":23,"plugin_version":"2.1.0","time_elapsed":79692,"subject_id":"91426","group":"Group2","condition":"1_Rep","full_date":"2026-02-06T15:37:27.368Z","date":"2026-02-06","time":"15:37:27"},{"task":"memory_phase","broad_category":"I","image_png":"I_Diorite_10.png","image_id":42,"category_name":"Diorite","category":3,"distinct_rating":2.84,"distinct_type":"Bottom","rt":null,"stimulus":"Stimuli_Rocks480/I_Diorite_10.png","response":null,"trial_type":"image-keyboard-response","trial_index":24,"plugin_version":"2.1.0","time_elapsed":82196,"subject_id":"91426","group":"Group2","condition":"1_Rep","full_date":"2026-02-06T15:37:27.368Z","date":"2026-02-06","time":"15:37:27"},{"rt":null,"stimulus":"<p style=\"font-size: 50px; margin: 0; text-align: center;\">+</p>","response":null,"trial_type":"html-keyboard-response","trial_index":25,"plugin_version":"2.1.0","time_elapsed":83199,"subject_id":"91426","group":"Group2","condition":"1_Rep","full_date":"2026-02-06T15:37:27.368Z","date":"2026-02-06","time":"15:37:27"},{"task":"memory_phase","broad_category":"I","image_png":"I_Gabbro_12.png","image_id":60,"category_name":"Gabbro","category":4,"distinct_rating":2.6,"distinct_type":"Bottom","rt":null,"stimulus":"Stimuli_Rocks480/I_Gabbro_12.png","response":null,"trial_type":"image-keyboard-response","trial_index":26,"plugin_version":"2.1.0","time_elapsed":85703,"subject_id":"91426","group":"Group2","condition":"1_Rep","full_date":"2026-02-06T15:37:27.368Z","date":"2026-02-06","time":"15:37:27"},{"rt":null,"stimulus":"<p style=\"font-size: 50px; margin: 0; text-align: center;\">+</p>","response":null,"trial_type":"html-keyboard-response","trial_index":27,"plugin_version":"2.1.0","time_elapsed":86706,"subject_id":"91426","group":"Group2","condition":"1_Rep","full_date":"2026-02-06T15:37:27.368Z","date":"2026-02-06","time":"15:37:27"},{"task":"memory_phase","broad_category":"I","image_png":"I_Basalt_13.png","image_id":29,"category_name":"Basalt","category":2,"distinct_rating":2.68,"distinct_type":"Bottom","rt":null,"stimulus":"Stimuli_Rocks480/I_Basalt_13.png","response":null,"trial_type":"image-keyboard-response","trial_index":28,"plugin_version":"2.1.0","time_elapsed":89209,"subject_id":"91426","group":"Group2","condition":"1_Rep","full_date":"2026-02-06T15:37:27.368Z","date":"2026-02-06","time":"15:37:27"},{"rt":null,"stimulus":"<p style=\"font-size: 50px; margin: 0; text-align: center;\">+</p>","response":null,"trial_type":"html-keyboard-response","trial_index":29,"plugin_version":"2.1.0","time_elapsed":90212,"subject_id":"91426","group":"Group2","condition":"1_Rep","full_date":"2026-02-06T15:37:27.368Z","date":"2026-02-06","time":"15:37:27"},{"task":"memory_phase","broad_category":"M","image_png":"M_Slate_04.png","image_id":308,"category_name":"Slate","category":20,"distinct_rating":2.2,"distinct_type":"Bottom","rt":null,"stimulus":"Stimuli_Rocks480/M_Slate_04.png","response":null,"trial_type":"image-keyboard-response","trial_index":30,"plugin_version":"2.1.0","time_elapsed":92715,"subject_id":"91426","group":"Group2","condition":"1_Rep","full_date":"2026-02-06T15:37:27.368Z","date":"2026-02-06","time":"15:37:27"},{"rt":null,"stimulus":"<p style=\"font-size: 50px; margin: 0; text-align: center;\">+</p>","response":null,"trial_type":"html-keyboard-response","trial_index":31,"plugin_version":"2.1.0","time_elapsed":93718,"subject_id":"91426","group":"Group2","condition":"1_Rep","full_date":"2026-02-06T15:37:27.368Z","date":"2026-02-06","time":"15:37:27"},{"task":"memory_phase","broad_category":"I","image_png":"I_Andesite_03.png","image_id":3,"category_name":"Andesite","category":1,"distinct_rating":3.17,"distinct_type":"Bottom","rt":null,"stimulus":"Stimuli_Rocks480/I_Andesite_03.png","response":null,"trial_type":"image-keyboard-response","trial_index":32,"plugin_version":"2.1.0","time_elapsed":96223,"subject_id":"91426","group":"Group2","condition":"1_Rep","full_date":"2026-02-06T15:37:27.368Z","date":"2026-02-06","time":"15:37:27"},{"rt":null,"stimulus":"<p style=\"font-size: 50px; margin: 0; text-align: center;\">+</p>","response":null,"trial_type":"html-keyboard-response","trial_index":33,"plugin_version":"2.1.0","time_elapsed":97225,"subject_id":"91426","group":"Group2","condition":"1_Rep","full_date":"2026-02-06T15:37:27.368Z","date":"2026-02-06","time":"15:37:27"},{"task":"memory_phase","broad_category":"I","image_png":"I_Basalt_08.png","image_id":24,"category_name":"Basalt","category":2,"distinct_rating":2.31,"distinct_type":"Bottom","rt":null,"stimulus":"Stimuli_Rocks480/I_Basalt_08.png","response":null,"trial_type":"image-keyboard-response","trial_index":34,"plugin_version":"2.1.0","time_elapsed":99728,"subject_id":"91426","group":"Group2","condition":"1_Rep","full_date":"2026-02-06T15:37:27.368Z","date":"2026-02-06","time":"15:37:27"},{"rt":null,"stimulus":"<p style=\"font-size: 50px; margin: 0; text-align: center;\">+</p>","response":null,"trial_type":"html-keyboard-response","trial_index":35,"plugin_version":"2.1.0","time_elapsed":100731,"subject_id":"91426","group":"Group2","condition":"1_Rep","full_date":"2026-02-06T15:37:27.368Z","date":"2026-02-06","time":"15:37:27"},{"task":"memory_phase","broad_category":"M","image_png":"M_Marble_02.png","image_id":226,"category_name":"Marble","category":15,"distinct_rating":3.2,"distinct_type":"Bottom","rt":null,"stimulus":"Stimuli_Rocks480/M_Marble_02.png","response":null,"trial_type":"image-keyboard-response","trial_index":36,"plugin_version":"2.1.0","time_elapsed":103236,"subject_id":"91426","group":"Group2","condition":"1_Rep","full_date":"2026-02-06T15:37:27.368Z","date":"2026-02-06","time":"15:37:27"},{"rt":null,"stimulus":"<p style=\"font-size: 50px; margin: 0; text-align: center;\">+</p>","response":null,"trial_type":"html-keyboard-response","trial_index":37,"plugin_version":"2.1.0","time_elapsed":104238,"subject_id":"91426","group":"Group2","condition":"1_Rep","full_date":"2026-02-06T15:37:27.368Z","date":"2026-02-06","time":"15:37:27"},{"task":"memory_phase","broad_category":"S","image_png":"S_Dolomite_07.png","image_id":391,"category_name":"Dolomite","category":25,"distinct_rating":1.73,"distinct_type":"Bottom","rt":null,"stimulus":"Stimuli_Rocks480/S_Dolomite_07.png","response":null,"trial_type":"image-keyboard-response","trial_index":38,"plugin_version":"2.1.0","time_elapsed":106742,"subject_id":"91426","group":"Group2","condition":"1_Rep","full_date":"2026-02-06T15:37:27.368Z","date":"2026-02-06","time":"15:37:27"},{"rt":null,"stimulus":"<p style=\"font-size: 50px; margin: 0; text-align: center;\">+</p>","response":null,"trial_type":"html-keyboard-response","trial_index":39,"plugin_version":"2.1.0","time_elapsed":107745,"subject_id":"91426","group":"Group2","condition":"1_Rep","full_date":"2026-02-06T15:37:27.368Z","date":"2026-02-06","time":"15:37:27"},{"task":"memory_phase","broad_category":"S","image_png":"S_Sandstone_04.png","image_id":452,"category_name":"Sandstone","category":29,"distinct_rating":1.8,"distinct_type":"Bottom","rt":null,"stimulus":"Stimuli_Rocks480/S_Sandstone_04.png","response":null,"trial_type":"image-keyboard-response","trial_index":40,"plugin_version":"2.1.0","time_elapsed":110249,"subject_id":"91426","group":"Group2","condition":"1_Rep","full_date":"2026-02-06T15:37:27.368Z","date":"2026-02-06","time":"15:37:27"},{"rt":null,"stimulus":"<p style=\"font-size: 50px; margin: 0; text-align: center;\">+</p>","response":null,"trial_type":"html-keyboard-response","trial_index":41,"plugin_version":"2.1.0","time_elapsed":111251,"subject_id":"91426","group":"Group2","condition":"1_Rep","full_date":"2026-02-06T15:37:27.368Z","date":"2026-02-06","time":"15:37:27"},{"task":"memory_phase","broad_category":"I","image_png":"I_Rhyolite_08.png","image_id":152,"category_name":"Rhyolite","category":10,"distinct_rating":1.38,"distinct_type":"Bottom","rt":null,"stimulus":"Stimuli_Rocks480/I_Rhyolite_08.png","response":null,"trial_type":"image-keyboard-response","trial_index":42,"plugin_version":"2.1.0","time_elapsed":113756,"subject_id":"91426","group":"Group2","condition":"1_Rep","full_date":"2026-02-06T15:37:27.368Z","date":"2026-02-06","time":"15:37:27"},{"rt":null,"stimulus":"<p style=\"font-size: 50px; margin: 0; text-align: center;\">+</p>","response":null,"trial_type":"html-keyboard-response","trial_index":43,"plugin_version":"2.1.0","time_elapsed":114758,"subject_id":"91426","group":"Group2","condition":"1_Rep","full_date":"2026-02-06T15:37:27.368Z","date":"2026-02-06","time":"15:37:27"},{"task":"memory_phase","broad_category":"I","image_png":"I_Pumice_01.png","image_id":129,"category_name":"Pumice","category":9,"distinct_rating":3.25,"distinct_type":"Bottom","rt":null,"stimulus":"Stimuli_Rocks480/I_Pumice_01.png","response":null,"trial_type":"image-keyboard-response","trial_index":44,"plugin_version":"2.1.0","time_elapsed":117262,"subject_id":"91426","group":"Group2","condition":"1_Rep","full_date":"2026-02-06T15:37:27.368Z","date":"2026-02-06","time":"15:37:27"},{"rt":null,"stimulus":"<p style=\"font-size: 50px; margin: 0; text-align: center;\">+</p>","response":null,"trial_type":"html-keyboard-response","trial_index":45,"plugin_version":"2.1.0","time_elapsed":118265,"subject_id":"91426","group":"Group2","condition":"1_Rep","full_date":"2026-02-06T15:37:27.368Z","date":"2026-02-06","time":"15:37:27"},{"task":"memory_phase","broad_category":"I","image_png":"I_Pegmatite_03.png","image_id":99,"category_name":"Pegmatite","category":7,"distinct_rating":7.24,"distinct_type":"Top","rt":null,"stimulus":"Stimuli_Rocks480/I_Pegmatite_03.png","response":null,"trial_type":"image-keyboard-response","trial_index":46,"plugin_version":"2.1.0","time_elapsed":120768,"subject_id":"91426","group":"Group2","condition":"1_Rep","full_date":"2026-02-06T15:37:27.368Z","date":"2026-02-06","time":"15:37:27"},{"rt":null,"stimulus":"<p style=\"font-size: 50px; margin: 0; text-align: center;\">+</p>","response":null,"trial_type":"html-keyboard-response","trial_index":47,"plugin_version":"2.1.0","time_elapsed":121771,"subject_id":"91426","group":"Group2","condition":"1_Rep","full_date":"2026-02-06T15:37:27.368Z","date":"2026-02-06","time":"15:37:27"},{"task":"memory_phase","broad_category":"M","image_png":"M_Slate_14.png","image_id":318,"category_name":"Slate","category":20,"distinct_rating":2.58,"distinct_type":"Bottom","rt":null,"stimulus":"Stimuli_Rocks480/M_Slate_14.png","response":null,"trial_type":"image-keyboard-response","trial_index":48,"plugin_version":"2.1.0","time_elapsed":124275,"subject_id":"91426","group":"Group2","condition":"1_Rep","full_date":"2026-02-06T15:37:27.368Z","date":"2026-02-06","time":"15:37:27"},{"rt":null,"stimulus":"<p style=\"font-size: 50px; margin: 0; text-align: center;\">+</p>","response":null,"trial_type":"html-keyboard-response","trial_index":49,"plugin_version":"2.1.0","time_elapsed":125278,"subject_id":"91426","group":"Group2","condition":"1_Rep","full_date":"2026-02-06T15:37:27.368Z","date":"2026-02-06","time":"15:37:27"},{"task":"memory_phase","broad_category":"I","image_png":"I_Pumice_14.png","image_id":142,"category_name":"Pumice","category":9,"distinct_rating":3.22,"distinct_type":"Bottom","rt":null,"stimulus":"Stimuli_Rocks480/I_Pumice_14.png","response":null,"trial_type":"image-keyboard-response","trial_index":50,"plugin_version":"2.1.0","time_elapsed":127782,"subject_id":"91426","group":"Group2","condition":"1_Rep","full_date":"2026-02-06T15:37:27.368Z","date":"2026-02-06","time":"15:37:27"},{"rt":null,"stimulus":"<p style=\"font-size: 50px; margin: 0; text-align: center;\">+</p>","response":null,"trial_type":"html-keyboard-response","trial_index":51,"plugin_version":"2.1.0","time_elapsed":128785,"subject_id":"91426","group":"Group2","condition":"1_Rep","full_date":"2026-02-06T15:37:27.368Z","date":"2026-02-06","time":"15:37:27"},{"task":"memory_phase","broad_category":"M","image_png":"M_Gneiss_10.png","image_id":202,"category_name":"Gneiss","category":13,"distinct_rating":3.09,"distinct_type":"Bottom","rt":null,"stimulus":"Stimuli_Rocks480/M_Gneiss_10.png","response":null,"trial_type":"image-keyboard-response","trial_index":52,"plugin_version":"2.1.0","time_elapsed":131289,"subject_id":"91426","group":"Group2","condition":"1_Rep","full_date":"2026-02-06T15:37:27.368Z","date":"2026-02-06","time":"15:37:27"},{"rt":null,"stimulus":"<p style=\"font-size: 50px; margin: 0; text-align: center;\">+</p>","response":null,"trial_type":"html-keyboard-response","trial_index":53,"plugin_version":"2.1.0","time_elapsed":132292,"subject_id":"91426","group":"Group2","condition":"1_Rep","full_date":"2026-02-06T15:37:27.368Z","date":"2026-02-06","time":"15:37:27"},{"task":"memory_phase","broad_category":"I","image_png":"I_Diorite_01.png","image_id":33,"category_name":"Diorite","category":3,"distinct_rating":2.97,"distinct_type":"Bottom","rt":null,"stimulus":"Stimuli_Rocks480/I_Diorite_01.png","response":null,"trial_type":"image-keyboard-response","trial_index":54,"plugin_version":"2.1.0","time_elapsed":134796,"subject_id":"91426","group":"Group2","condition":"1_Rep","full_date":"2026-02-06T15:37:27.368Z","date":"2026-02-06","time":"15:37:27"},{"rt":2088,"stimulus":"<p style=\"max-width: 760px; margin: auto; font-size: 35px; line-height: 1.5;\">\n                Press SPACE to continue study phase\n              </p>","response":" ","trial_type":"html-keyboard-response","trial_index":55,"plugin_version":"2.1.0","time_elapsed":136886,"subject_id":"91426","group":"Group2","condition":"1_Rep","full_date":"2026-02-06T15:37:27.368Z","date":"2026-02-06","time":"15:37:27"},{"rt":null,"stimulus":"<p style=\"font-size: 50px; margin: 0; text-align: center;\">+</p>","response":null,"trial_type":"html-keyboard-response","trial_index":56,"plugin_version":"2.1.0","time_elapsed":137889,"subject_id":"91426","group":"Group2","condition":"1_Rep","full_date":"2026-02-06T15:37:27.368Z","date":"2026-02-06","time":"15:37:27"},{"task":"memory_phase","broad_category":"I","image_png":"I_Gabbro_02.png","image_id":50,"category_name":"Gabbro","category":4,"distinct_rating":2.73,"distinct_type":"Bottom","rt":null,"stimulus":"Stimuli_Rocks480/I_Gabbro_02.png","response":null,"trial_type":"image-keyboard-response","trial_index":57,"plugin_version":"2.1.0","time_elapsed":140394,"subject_id":"91426","group":"Group2","condition":"1_Rep","full_date":"2026-02-06T15:37:27.368Z","date":"2026-02-06","time":"15:37:27"},{"rt":null,"stimulus":"<p style=\"font-size: 50px; margin: 0; text-align: center;\">+</p>","response":null,"trial_type":"html-keyboard-response","trial_index":58,"plugin_version":"2.1.0","time_elapsed":141397,"subject_id":"91426","group":"Group2","condition":"1_Rep","full_date":"2026-02-06T15:37:27.368Z","date":"2026-02-06","time":"15:37:27"},{"task":"memory_phase","broad_category":"M","image_png":"M_Quartzite_12.png","image_id":284,"category_name":"Quartzite","category":18,"distinct_rating":1.92,"distinct_type":"Bottom","rt":null,"stimulus":"Stimuli_Rocks480/M_Quartzite_12.png","response":null,"trial_type":"image-keyboard-response","trial_index":59,"plugin_version":"2.1.0","time_elapsed":143901,"subject_id":"91426","group":"Group2","condition":"1_Rep","full_date":"2026-02-06T15:37:27.368Z","date":"2026-02-06","time":"15:37:27"},{"rt":null,"stimulus":"<p style=\"font-size: 50px; margin: 0; text-align: center;\">+</p>","response":null,"trial_type":"html-keyboard-response","trial_index":60,"plugin_version":"2.1.0","time_elapsed":144904,"subject_id":"91426","group":"Group2","condition":"1_Rep","full_date":"2026-02-06T15:37:27.368Z","date":"2026-02-06","time":"15:37:27"},{"task":"memory_phase","broad_category":"M","image_png":"M_Phyllite_13.png","image_id":269,"category_name":"Phyllite","category":17,"distinct_rating":2.8,"distinct_type":"Bottom","rt":null,"stimulus":"Stimuli_Rocks480/M_Phyllite_13.png","response":null,"trial_type":"image-keyboard-response","trial_index":61,"plugin_version":"2.1.0","time_elapsed":147408,"subject_id":"91426","group":"Group2","condition":"1_Rep","full_date":"2026-02-06T15:37:27.368Z","date":"2026-02-06","time":"15:37:27"},{"rt":null,"stimulus":"<p style=\"font-size: 50px; margin: 0; text-align: center;\">+</p>","response":null,"trial_type":"html-keyboard-response","trial_index":62,"plugin_version":"2.1.0","time_elapsed":148411,"subject_id":"91426","group":"Group2","condition":"1_Rep","full_date":"2026-02-06T15:37:27.368Z","date":"2026-02-06","time":"15:37:27"},{"task":"memory_phase","broad_category":"S","image_png":"S_Sandstone_08.png","image_id":456,"category_name":"Sandstone","category":29,"distinct_rating":1.5,"distinct_type":"Bottom","rt":null,"stimulus":"Stimuli_Rocks480/S_Sandstone_08.png","response":null,"trial_type":"image-keyboard-response","trial_index":63,"plugin_version":"2.1.0","time_elapsed":150915,"subject_id":"91426","group":"Group2","condition":"1_Rep","full_date":"2026-02-06T15:37:27.368Z","date":"2026-02-06","time":"15:37:27"},{"rt":null,"stimulus":"<p style=\"font-size: 50px; margin: 0; text-align: center;\">+</p>","response":null,"trial_type":"html-keyboard-response","trial_index":64,"plugin_version":"2.1.0","time_elapsed":151918,"subject_id":"91426","group":"Group2","condition":"1_Rep","full_date":"2026-02-06T15:37:27.368Z","date":"2026-02-06","time":"15:37:27"},{"task":"memory_phase","broad_category":"S","image_png":"S_Chert_13.png","image_id":365,"category_name":"Chert","category":23,"distinct_rating":6.57,"distinct_type":"Top","rt":null,"stimulus":"Stimuli_Rocks480/S_Chert_13.png","response":null,"trial_type":"image-keyboard-response","trial_index":65,"plugin_version":"2.1.0","time_elapsed":154422,"subject_id":"91426","group":"Group2","condition":"1_Rep","full_date":"2026-02-06T15:37:27.368Z","date":"2026-02-06","time":"15:37:27"},{"rt":null,"stimulus":"<p style=\"font-size: 50px; margin: 0; text-align: center;\">+</p>","response":null,"trial_type":"html-keyboard-response","trial_index":66,"plugin_version":"2.1.0","time_elapsed":155425,"subject_id":"91426","group":"Group2","condition":"1_Rep","full_date":"2026-02-06T15:37:27.368Z","date":"2026-02-06","time":"15:37:27"},{"task":"memory_phase","broad_category":"M","image_png":"M_Gneiss_14.png","image_id":206,"category_name":"Gneiss","category":13,"distinct_rating":3.41,"distinct_type":"Bottom","rt":null,"stimulus":"Stimuli_Rocks480/M_Gneiss_14.png","response":null,"trial_type":"image-keyboard-response","trial_index":67,"plugin_version":"2.1.0","time_elapsed":157929,"subject_id":"91426","group":"Group2","condition":"1_Rep","full_date":"2026-02-06T15:37:27.368Z","date":"2026-02-06","time":"15:37:27"},{"rt":null,"stimulus":"<p style=\"font-size: 50px; margin: 0; text-align: center;\">+</p>","response":null,"trial_type":"html-keyboard-response","trial_index":68,"plugin_version":"2.1.0","time_elapsed":158932,"subject_id":"91426","group":"Group2","condition":"1_Rep","full_date":"2026-02-06T15:37:27.368Z","date":"2026-02-06","time":"15:37:27"},{"task":"memory_phase","broad_category":"I","image_png":"I_Peridotite_13.png","image_id":125,"category_name":"Peridotite","category":8,"distinct_rating":7.28,"distinct_type":"Top","rt":null,"stimulus":"Stimuli_Rocks480/I_Peridotite_13.png","response":null,"trial_type":"image-keyboard-response","trial_index":69,"plugin_version":"2.1.0","time_elapsed":161436,"subject_id":"91426","group":"Group2","condition":"1_Rep","full_date":"2026-02-06T15:37:27.368Z","date":"2026-02-06","time":"15:37:27"},{"rt":null,"stimulus":"<p style=\"font-size: 50px; margin: 0; text-align: center;\">+</p>","response":null,"trial_type":"html-keyboard-response","trial_index":70,"plugin_version":"2.1.0","time_elapsed":162439,"subject_id":"91426","group":"Group2","condition":"1_Rep","full_date":"2026-02-06T15:37:27.368Z","date":"2026-02-06","time":"15:37:27"},{"task":"memory_phase","broad_category":"I","image_png":"I_Rhyolite_05.png","image_id":149,"category_name":"Rhyolite","category":10,"distinct_rating":3.02,"distinct_type":"Bottom","rt":null,"stimulus":"Stimuli_Rocks480/I_Rhyolite_05.png","response":null,"trial_type":"image-keyboard-response","trial_index":71,"plugin_version":"2.1.0","time_elapsed":164943,"subject_id":"91426","group":"Group2","condition":"1_Rep","full_date":"2026-02-06T15:37:27.368Z","date":"2026-02-06","time":"15:37:27"},{"rt":null,"stimulus":"<p style=\"font-size: 50px; margin: 0; text-align: center;\">+</p>","response":null,"trial_type":"html-keyboard-response","trial_index":72,"plugin_version":"2.1.0","time_elapsed":165945,"subject_id":"91426","group":"Group2","condition":"1_Rep","full_date":"2026-02-06T15:37:27.368Z","date":"2026-02-06","time":"15:37:27"},{"task":"memory_phase","broad_category":"S","image_png":"S_Sandstone_11.png","image_id":459,"category_name":"Sandstone","category":29,"distinct_rating":1.82,"distinct_type":"Bottom","rt":null,"stimulus":"Stimuli_Rocks480/S_Sandstone_11.png","response":null,"trial_type":"image-keyboard-response","trial_index":73,"plugin_version":"2.1.0","time_elapsed":168449,"subject_id":"91426","group":"Group2","condition":"1_Rep","full_date":"2026-02-06T15:37:27.368Z","date":"2026-02-06","time":"15:37:27"},{"rt":null,"stimulus":"<p style=\"font-size: 50px; margin: 0; text-align: center;\">+</p>","response":null,"trial_type":"html-keyboard-response","trial_index":74,"plugin_version":"2.1.0","time_elapsed":169452,"subject_id":"91426","group":"Group2","condition":"1_Rep","full_date":"2026-02-06T15:37:27.368Z","date":"2026-02-06","time":"15:37:27"},{"task":"memory_phase","broad_category":"S","image_png":"S_Conglomerate_14.png","image_id":382,"category_name":"Conglomerate","category":24,"distinct_rating":6.86,"distinct_type":"Top","rt":null,"stimulus":"Stimuli_Rocks480/S_Conglomerate_14.png","response":null,"trial_type":"image-keyboard-response","trial_index":75,"plugin_version":"2.1.0","time_elapsed":171956,"subject_id":"91426","group":"Group2","condition":"1_Rep","full_date":"2026-02-06T15:37:27.368Z","date":"2026-02-06","time":"15:37:27"},{"rt":null,"stimulus":"<p style=\"font-size: 50px; margin: 0; text-align: center;\">+</p>","response":null,"trial_type":"html-keyboard-response","trial_index":76,"plugin_version":"2.1.0","time_elapsed":172958,"subject_id":"91426","group":"Group2","condition":"1_Rep","full_date":"2026-02-06T15:37:27.368Z","date":"2026-02-06","time":"15:37:27"},{"task":"memory_phase","broad_category":"M","image_png":"M_Phyllite_02.png","image_id":258,"category_name":"Phyllite","category":17,"distinct_rating":2.89,"distinct_type":"Bottom","rt":null,"stimulus":"Stimuli_Rocks480/M_Phyllite_02.png","response":null,"trial_type":"image-keyboard-response","trial_index":77,"plugin_version":"2.1.0","time_elapsed":175463,"subject_id":"91426","group":"Group2","condition":"1_Rep","full_date":"2026-02-06T15:37:27.368Z","date":"2026-02-06","time":"15:37:27"},{"rt":null,"stimulus":"<p style=\"font-size: 50px; margin: 0; text-align: center;\">+</p>","response":null,"trial_type":"html-keyboard-response","trial_index":78,"plugin_version":"2.1.0","time_elapsed":176465,"subject_id":"91426","group":"Group2","condition":"1_Rep","full_date":"2026-02-06T15:37:27.368Z","date":"2026-02-06","time":"15:37:27"},{"task":"memory_phase","broad_category":"M","image_png":"M_Gneiss_15.png","image_id":207,"category_name":"Gneiss","category":13,"distinct_rating":3.11,"distinct_type":"Bottom","rt":null,"stimulus":"Stimuli_Rocks480/M_Gneiss_15.png","response":null,"trial_type":"image-keyboard-response","trial_index":79,"plugin_version":"2.1.0","time_elapsed":178969,"subject_id":"91426","group":"Group2","condition":"1_Rep","full_date":"2026-02-06T15:37:27.368Z","date":"2026-02-06","time":"15:37:27"},{"rt":null,"stimulus":"<p style=\"font-size: 50px; margin: 0; text-align: center;\">+</p>","response":null,"trial_type":"html-keyboard-response","trial_index":80,"plugin_version":"2.1.0","time_elapsed":179971,"subject_id":"91426","group":"Group2","condition":"1_Rep","full_date":"2026-02-06T15:37:27.368Z","date":"2026-02-06","time":"15:37:27"},{"task":"memory_phase","broad_category":"I","image_png":"I_Obsidian_06.png","image_id":86,"category_name":"Obsidian","category":6,"distinct_rating":8.01,"distinct_type":"Top","rt":null,"stimulus":"Stimuli_Rocks480/I_Obsidian_06.png","response":null,"trial_type":"image-keyboard-response","trial_index":81,"plugin_version":"2.1.0","time_elapsed":182475,"subject_id":"91426","group":"Group2","condition":"1_Rep","full_date":"2026-02-06T15:37:27.368Z","date":"2026-02-06","time":"15:37:27"},{"rt":null,"stimulus":"<p style=\"font-size: 50px; margin: 0; text-align: center;\">+</p>","response":null,"trial_type":"html-keyboard-response","trial_index":82,"plugin_version":"2.1.0","time_elapsed":183478,"subject_id":"91426","group":"Group2","condition":"1_Rep","full_date":"2026-02-06T15:37:27.368Z","date":"2026-02-06","time":"15:37:27"},{"task":"memory_phase","broad_category":"M","image_png":"M_Phyllite_05.png","image_id":261,"category_name":"Phyllite","category":17,"distinct_rating":2.14,"distinct_type":"Bottom","rt":null,"stimulus":"Stimuli_Rocks480/M_Phyllite_05.png","response":null,"trial_type":"image-keyboard-response","trial_index":83,"plugin_version":"2.1.0","time_elapsed":185981,"subject_id":"91426","group":"Group2","condition":"1_Rep","full_date":"2026-02-06T15:37:27.368Z","date":"2026-02-06","time":"15:37:27"},{"rt":null,"stimulus":"<p style=\"font-size: 50px; margin: 0; text-align: center;\">+</p>","response":null,"trial_type":"html-keyboard-response","trial_index":84,"plugin_version":"2.1.0","time_elapsed":186984,"subject_id":"91426","group":"Group2","condition":"1_Rep","full_date":"2026-02-06T15:37:27.368Z","date":"2026-02-06","time":"15:37:27"},{"task":"memory_phase","broad_category":"S","image_png":"S_Shale_02.png","image_id":466,"category_name":"Shale","category":30,"distinct_rating":2.9,"distinct_type":"Bottom","rt":null,"stimulus":"Stimuli_Rocks480/S_Shale_02.png","response":null,"trial_type":"image-keyboard-response","trial_index":85,"plugin_version":"2.1.0","time_elapsed":189488,"subject_id":"91426","group":"Group2","condition":"1_Rep","full_date":"2026-02-06T15:37:27.368Z","date":"2026-02-06","time":"15:37:27"},{"rt":null,"stimulus":"<p style=\"font-size: 50px; margin: 0; text-align: center;\">+</p>","response":null,"trial_type":"html-keyboard-response","trial_index":86,"plugin_version":"2.1.0","time_elapsed":190491,"subject_id":"91426","group":"Group2","condition":"1_Rep","full_date":"2026-02-06T15:37:27.368Z","date":"2026-02-06","time":"15:37:27"},{"task":"memory_phase","broad_category":"I","image_png":"I_Basalt_10.png","image_id":26,"category_name":"Basalt","category":2,"distinct_rating":2.76,"distinct_type":"Bottom","rt":null,"stimulus":"Stimuli_Rocks480/I_Basalt_10.png","response":null,"trial_type":"image-keyboard-response","trial_index":87,"plugin_version":"2.1.0","time_elapsed":192995,"subject_id":"91426","group":"Group2","condition":"1_Rep","full_date":"2026-02-06T15:37:27.368Z","date":"2026-02-06","time":"15:37:27"},{"rt":null,"stimulus":"<p style=\"font-size: 50px; margin: 0; text-align: center;\">+</p>","response":null,"trial_type":"html-keyboard-response","trial_index":88,"plugin_version":"2.1.0","time_elapsed":193998,"subject_id":"91426","group":"Group2","condition":"1_Rep","full_date":"2026-02-06T15:37:27.368Z","date":"2026-02-06","time":"15:37:27"},{"task":"memory_phase","broad_category":"I","image_png":"I_Andesite_09.png","image_id":9,"category_name":"Andesite","category":1,"distinct_rating":2.49,"distinct_type":"Bottom","rt":null,"stimulus":"Stimuli_Rocks480/I_Andesite_09.png","response":null,"trial_type":"image-keyboard-response","trial_index":89,"plugin_version":"2.1.0","time_elapsed":196500,"subject_id":"91426","group":"Group2","condition":"1_Rep","full_date":"2026-02-06T15:37:27.368Z","date":"2026-02-06","time":"15:37:27"},{"rt":null,"stimulus":"<p style=\"font-size: 50px; margin: 0; text-align: center;\">+</p>","response":null,"trial_type":"html-keyboard-response","trial_index":90,"plugin_version":"2.1.0","time_elapsed":197503,"subject_id":"91426","group":"Group2","condition":"1_Rep","full_date":"2026-02-06T15:37:27.368Z","date":"2026-02-06","time":"15:37:27"},{"task":"memory_phase","broad_category":"S","image_png":"S_Shale_03.png","image_id":467,"category_name":"Shale","category":30,"distinct_rating":1.95,"distinct_type":"Bottom","rt":null,"stimulus":"Stimuli_Rocks480/S_Shale_03.png","response":null,"trial_type":"image-keyboard-response","trial_index":91,"plugin_version":"2.1.0","time_elapsed":200007,"subject_id":"91426","group":"Group2","condition":"1_Rep","full_date":"2026-02-06T15:37:27.368Z","date":"2026-02-06","time":"15:37:27"},{"rt":null,"stimulus":"<p style=\"font-size: 50px; margin: 0; text-align: center;\">+</p>","response":null,"trial_type":"html-keyboard-response","trial_index":92,"plugin_version":"2.1.0","time_elapsed":201009,"subject_id":"91426","group":"Group2","condition":"1_Rep","full_date":"2026-02-06T15:37:27.368Z","date":"2026-02-06","time":"15:37:27"},{"task":"memory_phase","broad_category":"S","image_png":"S_Shale_07.png","image_id":471,"category_name":"Shale","category":30,"distinct_rating":2.73,"distinct_type":"Bottom","rt":null,"stimulus":"Stimuli_Rocks480/S_Shale_07.png","response":null,"trial_type":"image-keyboard-response","trial_index":93,"plugin_version":"2.1.0","time_elapsed":203514,"subject_id":"91426","group":"Group2","condition":"1_Rep","full_date":"2026-02-06T15:37:27.368Z","date":"2026-02-06","time":"15:37:27"},{"rt":null,"stimulus":"<p style=\"font-size: 50px; margin: 0; text-align: center;\">+</p>","response":null,"trial_type":"html-keyboard-response","trial_index":94,"plugin_version":"2.1.0","time_elapsed":204516,"subject_id":"91426","group":"Group2","condition":"1_Rep","full_date":"2026-02-06T15:37:27.368Z","date":"2026-02-06","time":"15:37:27"},{"task":"memory_phase","broad_category":"M","image_png":"M_Marble_14.png","image_id":238,"category_name":"Marble","category":15,"distinct_rating":3.31,"distinct_type":"Bottom","rt":null,"stimulus":"Stimuli_Rocks480/M_Marble_14.png","response":null,"trial_type":"image-keyboard-response","trial_index":95,"plugin_version":"2.1.0","time_elapsed":207020,"subject_id":"91426","group":"Group2","condition":"1_Rep","full_date":"2026-02-06T15:37:27.368Z","date":"2026-02-06","time":"15:37:27"},{"rt":null,"stimulus":"<p style=\"font-size: 50px; margin: 0; text-align: center;\">+</p>","response":null,"trial_type":"html-keyboard-response","trial_index":96,"plugin_version":"2.1.0","time_elapsed":208023,"subject_id":"91426","group":"Group2","condition":"1_Rep","full_date":"2026-02-06T15:37:27.368Z","date":"2026-02-06","time":"15:37:27"},{"task":"memory_phase","broad_category":"M","image_png":"M_Quartzite_07.png","image_id":279,"category_name":"Quartzite","category":18,"distinct_rating":1.97,"distinct_type":"Bottom","rt":null,"stimulus":"Stimuli_Rocks480/M_Quartzite_07.png","response":null,"trial_type":"image-keyboard-response","trial_index":97,"plugin_version":"2.1.0","time_elapsed":210527,"subject_id":"91426","group":"Group2","condition":"1_Rep","full_date":"2026-02-06T15:37:27.368Z","date":"2026-02-06","time":"15:37:27"},{"rt":null,"stimulus":"<p style=\"font-size: 50px; margin: 0; text-align: center;\">+</p>","response":null,"trial_type":"html-keyboard-response","trial_index":98,"plugin_version":"2.1.0","time_elapsed":211530,"subject_id":"91426","group":"Group2","condition":"1_Rep","full_date":"2026-02-06T15:37:27.368Z","date":"2026-02-06","time":"15:37:27"},{"task":"memory_phase","broad_category":"I","image_png":"I_Diorite_15.png","image_id":47,"category_name":"Diorite","category":3,"distinct_rating":3.05,"distinct_type":"Bottom","rt":null,"stimulus":"Stimuli_Rocks480/I_Diorite_15.png","response":null,"trial_type":"image-keyboard-response","trial_index":99,"plugin_version":"2.1.0","time_elapsed":214040,"subject_id":"91426","group":"Group2","condition":"1_Rep","full_date":"2026-02-06T15:37:27.368Z","date":"2026-02-06","time":"15:37:27"},{"rt":null,"stimulus":"<p style=\"font-size: 50px; margin: 0; text-align: center;\">+</p>","response":null,"trial_type":"html-keyboard-response","trial_index":100,"plugin_version":"2.1.0","time_elapsed":215042,"subject_id":"91426","group":"Group2","condition":"1_Rep","full_date":"2026-02-06T15:37:27.368Z","date":"2026-02-06","time":"15:37:27"},{"task":"memory_phase","broad_category":"S","image_png":"S_Dolomite_01.png","image_id":385,"category_name":"Dolomite","category":25,"distinct_rating":1.43,"distinct_type":"Bottom","rt":null,"stimulus":"Stimuli_Rocks480/S_Dolomite_01.png","response":null,"trial_type":"image-keyboard-response","trial_index":101,"plugin_version":"2.1.0","time_elapsed":217546,"subject_id":"91426","group":"Group2","condition":"1_Rep","full_date":"2026-02-06T15:37:27.368Z","date":"2026-02-06","time":"15:37:27"},{"rt":null,"stimulus":"<p style=\"font-size: 50px; margin: 0; text-align: center;\">+</p>","response":null,"trial_type":"html-keyboard-response","trial_index":102,"plugin_version":"2.1.0","time_elapsed":218548,"subject_id":"91426","group":"Group2","condition":"1_Rep","full_date":"2026-02-06T15:37:27.368Z","date":"2026-02-06","time":"15:37:27"},{"task":"memory_phase","broad_category":"I","image_png":"I_Pegmatite_11.png","image_id":107,"category_name":"Pegmatite","category":7,"distinct_rating":7.11,"distinct_type":"Top","rt":null,"stimulus":"Stimuli_Rocks480/I_Pegmatite_11.png","response":null,"trial_type":"image-keyboard-response","trial_index":103,"plugin_version":"2.1.0","time_elapsed":221052,"subject_id":"91426","group":"Group2","condition":"1_Rep","full_date":"2026-02-06T15:37:27.368Z","date":"2026-02-06","time":"15:37:27"},{"rt":null,"stimulus":"<p style=\"font-size: 50px; margin: 0; text-align: center;\">+</p>","response":null,"trial_type":"html-keyboard-response","trial_index":104,"plugin_version":"2.1.0","time_elapsed":222054,"subject_id":"91426","group":"Group2","condition":"1_Rep","full_date":"2026-02-06T15:37:27.368Z","date":"2026-02-06","time":"15:37:27"},{"task":"memory_phase","broad_category":"M","image_png":"M_Marble_03.png","image_id":227,"category_name":"Marble","category":15,"distinct_rating":2.67,"distinct_type":"Bottom","rt":null,"stimulus":"Stimuli_Rocks480/M_Marble_03.png","response":null,"trial_type":"image-keyboard-response","trial_index":105,"plugin_version":"2.1.0","time_elapsed":224558,"subject_id":"91426","group":"Group2","condition":"1_Rep","full_date":"2026-02-06T15:37:27.368Z","date":"2026-02-06","time":"15:37:27"},{"rt":32962,"stimulus":"<div style=\"max-width: 760px; margin: auto; font-size: 20px; line-height: 1.5;\">\n      <h1 style=\"text-align:center; font-size: 30px;\">Instructions for the Test Phase</h1>\n      <p>\n        The study phase is now complete.\n      </p>\n      <p>\n        In the test phase, you will again see a series of rock images. \n        Some will be ones you saw before - during the study phase, while others will be new.  \n        <b>Your task</b> is to decide whether you have seen each image before by pressing the corresponding key on your keyboard:<br><br>\n          <b>A</b> - NO (you did not see this image before)<br>\n          <b>L</b> - YES (you saw this image before)<br><br>\n        The test will proceed at your own pace. You will receive feedback after each response.  \n        Please try to respond <b>as accurately as possible</b>.\n      </p>\n      <p>\n        <b>Reminder:</b> If your computer has multiple language settings (e.g., English and another language),\n        please ensure it is set to English during the test phase.\n      </p>\n      <p>\n        You can track your progress using the <b>completion bar</b> at the top of the screen.  \n        Note that it has been refreshed to reflect your progress during this final phase.\n      </p>\n      <p>\n        Press the button below when you are ready to continue.\n      </p>\n    </div>","response":0,"trial_type":"html-button-response","trial_index":106,"plugin_version":"2.1.0","time_elapsed":257522,"subject_id":"91426","group":"Group2","condition":"1_Rep","full_date":"2026-02-06T15:37:27.368Z","date":"2026-02-06","time":"15:37:27"},{"correct_response":"a","task":"test_phase","broad_category":"I","image_png":"I_Rhyolite_11.png","image_id":155,"category_name":"Rhyolite","category":10,"distinct_rating":1.73,"distinct_type":"Bottom","item_type":"Foil","rt":2857,"stimulus":"Stimuli_Rocks480/I_Rhyolite_11.png","response":"l","trial_type":"image-keyboard-response","trial_index":107,"plugin_version":"2.1.0","time_elapsed":260383,"subject_id":"91426","group":"Group2","condition":"1_Rep","full_date":"2026-02-06T15:37:27.368Z","date":"2026-02-06","time":"15:37:27","cor_ans":false},{"trial_type":"html-keyboard-response","rt":null,"stimulus":"<p style=\"color: red; font-size: 50px; font-weight: bold;\">Incorrect</p>","response":null,"trial_index":108,"plugin_version":"2.1.0","time_elapsed":260885,"subject_id":"91426","group":"Group2","condition":"1_Rep","full_date":"2026-02-06T15:37:27.368Z","date":"2026-02-06","time":"15:37:27"},{"correct_response":"a","task":"test_phase","broad_category":"S","image_png":"S_Sandstone_16.png","image_id":464,"category_name":"Sandstone","category":29,"distinct_rating":1.93,"distinct_type":"Bottom","item_type":"Foil","rt":1768,"stimulus":"Stimuli_Rocks480/S_Sandstone_16.png","response":"a","trial_type":"image-keyboard-response","trial_index":109,"plugin_version":"2.1.0","time_elapsed":262656,"subject_id":"91426","group":"Group2","condition":"1_Rep","full_date":"2026-02-06T15:37:27.368Z","date":"2026-02-06","time":"15:37:27","cor_ans":true},{"trial_type":"html-keyboard-response","rt":null,"stimulus":"<p style=\"color: green; font-size: 50px; font-weight: bold;\">Correct</p>","response":null,"trial_index":110,"plugin_version":"2.1.0","time_elapsed":263158,"subject_id":"91426","group":"Group2","condition":"1_Rep","full_date":"2026-02-06T15:37:27.368Z","date":"2026-02-06","time":"15:37:27"},{"correct_response":"l","task":"test_phase","broad_category":"I","image_png":"I_Diorite_01.png","image_id":33,"category_name":"Diorite","category":3,"distinct_rating":2.97,"distinct_type":"Bottom","item_type":"Target","rt":999,"stimulus":"Stimuli_Rocks480/I_Diorite_01.png","response":"l","trial_type":"image-keyboard-response","trial_index":111,"plugin_version":"2.1.0","time_elapsed":264159,"subject_id":"91426","group":"Group2","condition":"1_Rep","full_date":"2026-02-06T15:37:27.368Z","date":"2026-02-06","time":"15:37:27","cor_ans":true},{"trial_type":"html-keyboard-response","rt":null,"stimulus":"<p style=\"color: green; font-size: 50px; font-weight: bold;\">Correct</p>","response":null,"trial_index":112,"plugin_version":"2.1.0","time_elapsed":264661,"subject_id":"91426","group":"Group2","condition":"1_Rep","full_date":"2026-02-06T15:37:27.368Z","date":"2026-02-06","time":"15:37:27"},{"correct_response":"a","task":"test_phase","broad_category":"S","image_png":"S_Conglomerate_05.png","image_id":373,"category_name":"Conglomerate","category":24,"distinct_rating":7.32,"distinct_type":"Top","item_type":"Foil","rt":1293,"stimulus":"Stimuli_Rocks480/S_Conglomerate_05.png","response":"a","trial_type":"image-keyboard-response","trial_index":113,"plugin_version":"2.1.0","time_elapsed":265957,"subject_id":"91426","group":"Group2","condition":"1_Rep","full_date":"2026-02-06T15:37:27.368Z","date":"2026-02-06","time":"15:37:27","cor_ans":true},{"trial_type":"html-keyboard-response","rt":null,"stimulus":"<p style=\"color: green; font-size: 50px; font-weight: bold;\">Correct</p>","response":null,"trial_index":114,"plugin_version":"2.1.0","time_elapsed":266459,"subject_id":"91426","group":"Group2","condition":"1_Rep","full_date":"2026-02-06T15:37:27.368Z","date":"2026-02-06","time":"15:37:27"},{"correct_response":"l","task":"test_phase","broad_category":"I","image_png":"I_Rhyolite_10.png","image_id":154,"category_name":"Rhyolite","category":10,"distinct_rating":2.88,"distinct_type":"Bottom","item_type":"Target","rt":844,"stimulus":"Stimuli_Rocks480/I_Rhyolite_10.png","response":"l","trial_type":"image-keyboard-response","trial_index":115,"plugin_version":"2.1.0","time_elapsed":267305,"subject_id":"91426","group":"Group2","condition":"1_Rep","full_date":"2026-02-06T15:37:27.368Z","date":"2026-02-06","time":"15:37:27","cor_ans":true},{"trial_type":"html-keyboard-response","rt":null,"stimulus":"<p style=\"color: green; font-size: 50px; font-weight: bold;\">Correct</p>","response":null,"trial_index":116,"plugin_version":"2.1.0","time_elapsed":267807,"subject_id":"91426","group":"Group2","condition":"1_Rep","full_date":"2026-02-06T15:37:27.368Z","date":"2026-02-06","time":"15:37:27"},{"correct_response":"l","task":"test_phase","broad_category":"I","image_png":"I_Gabbro_14.png","image_id":62,"category_name":"Gabbro","category":4,"distinct_rating":2.95,"distinct_type":"Bottom","item_type":"Target","rt":905,"stimulus":"Stimuli_Rocks480/I_Gabbro_14.png","response":"l","trial_type":"image-keyboard-response","trial_index":117,"plugin_version":"2.1.0","time_elapsed":268714,"subject_id":"91426","group":"Group2","condition":"1_Rep","full_date":"2026-02-06T15:37:27.368Z","date":"2026-02-06","time":"15:37:27","cor_ans":true},{"trial_type":"html-keyboard-response","rt":null,"stimulus":"<p style=\"color: green; font-size: 50px; font-weight: bold;\">Correct</p>","response":null,"trial_index":118,"plugin_version":"2.1.0","time_elapsed":269215,"subject_id":"91426","group":"Group2","condition":"1_Rep","full_date":"2026-02-06T15:37:27.368Z","date":"2026-02-06","time":"15:37:27"},{"correct_response":"a","task":"test_phase","broad_category":"S","image_png":"S_Shale_12.png","image_id":476,"category_name":"Shale","category":30,"distinct_rating":2.48,"distinct_type":"Bottom","item_type":"Foil","rt":1482,"stimulus":"Stimuli_Rocks480/S_Shale_12.png","response":"l","trial_type":"image-keyboard-response","trial_index":119,"plugin_version":"2.1.0","time_elapsed":270700,"subject_id":"91426","group":"Group2","condition":"1_Rep","full_date":"2026-02-06T15:37:27.368Z","date":"2026-02-06","time":"15:37:27","cor_ans":false},{"trial_type":"html-keyboard-response","rt":null,"stimulus":"<p style=\"color: red; font-size: 50px; font-weight: bold;\">Incorrect</p>","response":null,"trial_index":120,"plugin_version":"2.1.0","time_elapsed":271201,"subject_id":"91426","group":"Group2","condition":"1_Rep","full_date":"2026-02-06T15:37:27.368Z","date":"2026-02-06","time":"15:37:27"},{"correct_response":"l","task":"test_phase","broad_category":"S","image_png":"S_Rock Salt_13.png","image_id":445,"category_name":"Rock Salt","category":28,"distinct_rating":7.58,"distinct_type":"Top","item_type":"Target","rt":846,"stimulus":"Stimuli_Rocks480/S_Rock Salt_13.png","response":"l","trial_type":"image-keyboard-response","trial_index":121,"plugin_version":"2.1.0","time_elapsed":272050,"subject_id":"91426","group":"Group2","condition":"1_Rep","full_date":"2026-02-06T15:37:27.368Z","date":"2026-02-06","time":"15:37:27","cor_ans":true},{"trial_type":"html-keyboard-response","rt":null,"stimulus":"<p style=\"color: green; font-size: 50px; font-weight: bold;\">Correct</p>","response":null,"trial_index":122,"plugin_version":"2.1.0","time_elapsed":272552,"subject_id":"91426","group":"Group2","condition":"1_Rep","full_date":"2026-02-06T15:37:27.368Z","date":"2026-02-06","time":"15:37:27"},{"correct_response":"a","task":"test_phase","broad_category":"M","image_png":"M_Gneiss_06.png","image_id":198,"category_name":"Gneiss","category":13,"distinct_rating":2.65,"distinct_type":"Bottom","item_type":"Foil","rt":1083,"stimulus":"Stimuli_Rocks480/M_Gneiss_06.png","response":"l","trial_type":"image-keyboard-response","trial_index":123,"plugin_version":"2.1.0","time_elapsed":273637,"subject_id":"91426","group":"Group2","condition":"1_Rep","full_date":"2026-02-06T15:37:27.368Z","date":"2026-02-06","time":"15:37:27","cor_ans":false},{"trial_type":"html-keyboard-response","rt":null,"stimulus":"<p style=\"color: red; font-size: 50px; font-weight: bold;\">Incorrect</p>","response":null,"trial_index":124,"plugin_version":"2.1.0","time_elapsed":274139,"subject_id":"91426","group":"Group2","condition":"1_Rep","full_date":"2026-02-06T15:37:27.368Z","date":"2026-02-06","time":"15:37:27"},{"correct_response":"a","task":"test_phase","broad_category":"S","image_png":"S_Shale_01.png","image_id":465,"category_name":"Shale","category":30,"distinct_rating":2.7,"distinct_type":"Bottom","item_type":"Foil","rt":682,"stimulus":"Stimuli_Rocks480/S_Shale_01.png","response":"l","trial_type":"image-keyboard-response","trial_index":125,"plugin_version":"2.1.0","time_elapsed":274823,"subject_id":"91426","group":"Group2","condition":"1_Rep","full_date":"2026-02-06T15:37:27.368Z","date":"2026-02-06","time":"15:37:27","cor_ans":false},{"trial_type":"html-keyboard-response","rt":null,"stimulus":"<p style=\"color: red; font-size: 50px; font-weight: bold;\">Incorrect</p>","response":null,"trial_index":126,"plugin_version":"2.1.0","time_elapsed":275325,"subject_id":"91426","group":"Group2","condition":"1_Rep","full_date":"2026-02-06T15:37:27.368Z","date":"2026-02-06","time":"15:37:27"},{"correct_response":"a","task":"test_phase","broad_category":"M","image_png":"M_Slate_03.png","image_id":307,"category_name":"Slate","category":20,"distinct_rating":1.87,"distinct_type":"Bottom","item_type":"Foil","rt":659,"stimulus":"Stimuli_Rocks480/M_Slate_03.png","response":"l","trial_type":"image-keyboard-response","trial_index":127,"plugin_version":"2.1.0","time_elapsed":275986,"subject_id":"91426","group":"Group2","condition":"1_Rep","full_date":"2026-02-06T15:37:27.368Z","date":"2026-02-06","time":"15:37:27","cor_ans":false},{"trial_type":"html-keyboard-response","rt":null,"stimulus":"<p style=\"color: red; font-size: 50px; font-weight: bold;\">Incorrect</p>","response":null,"trial_index":128,"plugin_version":"2.1.0","time_elapsed":276487,"subject_id":"91426","group":"Group2","condition":"1_Rep","full_date":"2026-02-06T15:37:27.368Z","date":"2026-02-06","time":"15:37:27"},{"correct_response":"a","task":"test_phase","broad_category":"M","image_png":"M_Quartzite_05.png","image_id":277,"category_name":"Quartzite","category":18,"distinct_rating":2.23,"distinct_type":"Bottom","item_type":"Foil","rt":1753,"stimulus":"Stimuli_Rocks480/M_Quartzite_05.png","response":"a","trial_type":"image-keyboard-response","trial_index":129,"plugin_version":"2.1.0","time_elapsed":278243,"subject_id":"91426","group":"Group2","condition":"1_Rep","full_date":"2026-02-06T15:37:27.368Z","date":"2026-02-06","time":"15:37:27","cor_ans":true},{"trial_type":"html-keyboard-response","rt":null,"stimulus":"<p style=\"color: green; font-size: 50px; font-weight: bold;\">Correct</p>","response":null,"trial_index":130,"plugin_version":"2.1.0","time_elapsed":278745,"subject_id":"91426","group":"Group2","condition":"1_Rep","full_date":"2026-02-06T15:37:27.368Z","date":"2026-02-06","time":"15:37:27"},{"correct_response":"l","task":"test_phase","broad_category":"S","image_png":"S_Shale_03.png","image_id":467,"category_name":"Shale","category":30,"distinct_rating":1.95,"distinct_type":"Bottom","item_type":"Target","rt":836,"stimulus":"Stimuli_Rocks480/S_Shale_03.png","response":"l","trial_type":"image-keyboard-response","trial_index":131,"plugin_version":"2.1.0","time_elapsed":279583,"subject_id":"91426","group":"Group2","condition":"1_Rep","full_date":"2026-02-06T15:37:27.368Z","date":"2026-02-06","time":"15:37:27","cor_ans":true},{"trial_type":"html-keyboard-response","rt":null,"stimulus":"<p style=\"color: green; font-size: 50px; font-weight: bold;\">Correct</p>","response":null,"trial_index":132,"plugin_version":"2.1.0","time_elapsed":280085,"subject_id":"91426","group":"Group2","condition":"1_Rep","full_date":"2026-02-06T15:37:27.368Z","date":"2026-02-06","time":"15:37:27"},{"correct_response":"l","task":"test_phase","broad_category":"S","image_png":"S_Conglomerate_14.png","image_id":382,"category_name":"Conglomerate","category":24,"distinct_rating":6.86,"distinct_type":"Top","item_type":"Target","rt":866,"stimulus":"Stimuli_Rocks480/S_Conglomerate_14.png","response":"l","trial_type":"image-keyboard-response","trial_index":133,"plugin_version":"2.1.0","time_elapsed":280953,"subject_id":"91426","group":"Group2","condition":"1_Rep","full_date":"2026-02-06T15:37:27.368Z","date":"2026-02-06","time":"15:37:27","cor_ans":true},{"trial_type":"html-keyboard-response","rt":null,"stimulus":"<p style=\"color: green; font-size: 50px; font-weight: bold;\">Correct</p>","response":null,"trial_index":134,"plugin_version":"2.1.0","time_elapsed":281455,"subject_id":"91426","group":"Group2","condition":"1_Rep","full_date":"2026-02-06T15:37:27.368Z","date":"2026-02-06","time":"15:37:27"},{"correct_response":"a","task":"test_phase","broad_category":"I","image_png":"I_Rhyolite_16.png","image_id":160,"category_name":"Rhyolite","category":10,"distinct_rating":2.19,"distinct_type":"Bottom","item_type":"Foil","rt":1225,"stimulus":"Stimuli_Rocks480/I_Rhyolite_16.png","response":"a","trial_type":"image-keyboard-response","trial_index":135,"plugin_version":"2.1.0","time_elapsed":282681,"subject_id":"91426","group":"Group2","condition":"1_Rep","full_date":"2026-02-06T15:37:27.368Z","date":"2026-02-06","time":"15:37:27","cor_ans":true},{"trial_type":"html-keyboard-response","rt":null,"stimulus":"<p style=\"color: green; font-size: 50px; font-weight: bold;\">Correct</p>","response":null,"trial_index":136,"plugin_version":"2.1.0","time_elapsed":283183,"subject_id":"91426","group":"Group2","condition":"1_Rep","full_date":"2026-02-06T15:37:27.368Z","date":"2026-02-06","time":"15:37:27"},{"correct_response":"l","task":"test_phase","broad_category":"I","image_png":"I_Basalt_13.png","image_id":29,"category_name":"Basalt","category":2,"distinct_rating":2.68,"distinct_type":"Bottom","item_type":"Target","rt":838,"stimulus":"Stimuli_Rocks480/I_Basalt_13.png","response":"l","trial_type":"image-keyboard-response","trial_index":137,"plugin_version":"2.1.0","time_elapsed":284024,"subject_id":"91426","group":"Group2","condition":"1_Rep","full_date":"2026-02-06T15:37:27.368Z","date":"2026-02-06","time":"15:37:27","cor_ans":true},{"trial_type":"html-keyboard-response","rt":null,"stimulus":"<p style=\"color: green; font-size: 50px; font-weight: bold;\">Correct</p>","response":null,"trial_index":138,"plugin_version":"2.1.0","time_elapsed":284525,"subject_id":"91426","group":"Group2","condition":"1_Rep","full_date":"2026-02-06T15:37:27.368Z","date":"2026-02-06","time":"15:37:27"},{"correct_response":"l","task":"test_phase","broad_category":"M","image_png":"M_Phyllite_02.png","image_id":258,"category_name":"Phyllite","category":17,"distinct_rating":2.89,"distinct_type":"Bottom","item_type":"Target","rt":631,"stimulus":"Stimuli_Rocks480/M_Phyllite_02.png","response":"l","trial_type":"image-keyboard-response","trial_index":139,"plugin_version":"2.1.0","time_elapsed":285158,"subject_id":"91426","group":"Group2","condition":"1_Rep","full_date":"2026-02-06T15:37:27.368Z","date":"2026-02-06","time":"15:37:27","cor_ans":true},{"trial_type":"html-keyboard-response","rt":null,"stimulus":"<p style=\"color: green; font-size: 50px; font-weight: bold;\">Correct</p>","response":null,"trial_index":140,"plugin_version":"2.1.0","time_elapsed":285660,"subject_id":"91426","group":"Group2","condition":"1_Rep","full_date":"2026-02-06T15:37:27.368Z","date":"2026-02-06","time":"15:37:27"},{"correct_response":"a","task":"test_phase","broad_category":"I","image_png":"I_Rhyolite_14.png","image_id":158,"category_name":"Rhyolite","category":10,"distinct_rating":2.59,"distinct_type":"Bottom","item_type":"Foil","rt":899,"stimulus":"Stimuli_Rocks480/I_Rhyolite_14.png","response":"a","trial_type":"image-keyboard-response","trial_index":141,"plugin_version":"2.1.0","time_elapsed":286562,"subject_id":"91426","group":"Group2","condition":"1_Rep","full_date":"2026-02-06T15:37:27.368Z","date":"2026-02-06","time":"15:37:27","cor_ans":true},{"trial_type":"html-keyboard-response","rt":null,"stimulus":"<p style=\"color: green; font-size: 50px; font-weight: bold;\">Correct</p>","response":null,"trial_index":142,"plugin_version":"2.1.0","time_elapsed":287063,"subject_id":"91426","group":"Group2","condition":"1_Rep","full_date":"2026-02-06T15:37:27.368Z","date":"2026-02-06","time":"15:37:27"},{"correct_response":"l","task":"test_phase","broad_category":"I","image_png":"I_Diorite_10.png","image_id":42,"category_name":"Diorite","category":3,"distinct_rating":2.84,"distinct_type":"Bottom","item_type":"Target","rt":899,"stimulus":"Stimuli_Rocks480/I_Diorite_10.png","response":"l","trial_type":"image-keyboard-response","trial_index":143,"plugin_version":"2.1.0","time_elapsed":287964,"subject_id":"91426","group":"Group2","condition":"1_Rep","full_date":"2026-02-06T15:37:27.368Z","date":"2026-02-06","time":"15:37:27","cor_ans":true},{"trial_type":"html-keyboard-response","rt":null,"stimulus":"<p style=\"color: green; font-size: 50px; font-weight: bold;\">Correct</p>","response":null,"trial_index":144,"plugin_version":"2.1.0","time_elapsed":288467,"subject_id":"91426","group":"Group2","condition":"1_Rep","full_date":"2026-02-06T15:37:27.368Z","date":"2026-02-06","time":"15:37:27"},{"correct_response":"a","task":"test_phase","broad_category":"M","image_png":"M_Slate_11.png","image_id":315,"category_name":"Slate","category":20,"distinct_rating":2.75,"distinct_type":"Bottom","item_type":"Foil","rt":681,"stimulus":"Stimuli_Rocks480/M_Slate_11.png","response":"l","trial_type":"image-keyboard-response","trial_index":145,"plugin_version":"2.1.0","time_elapsed":289150,"subject_id":"91426","group":"Group2","condition":"1_Rep","full_date":"2026-02-06T15:37:27.368Z","date":"2026-02-06","time":"15:37:27","cor_ans":false},{"trial_type":"html-keyboard-response","rt":null,"stimulus":"<p style=\"color: red; font-size: 50px; font-weight: bold;\">Incorrect</p>","response":null,"trial_index":146,"plugin_version":"2.1.0","time_elapsed":289651,"subject_id":"91426","group":"Group2","condition":"1_Rep","full_date":"2026-02-06T15:37:27.368Z","date":"2026-02-06","time":"15:37:27"},{"correct_response":"a","task":"test_phase","broad_category":"M","image_png":"M_Marble_04.png","image_id":228,"category_name":"Marble","category":15,"distinct_rating":3.15,"distinct_type":"Bottom","item_type":"Foil","rt":902,"stimulus":"Stimuli_Rocks480/M_Marble_04.png","response":"l","trial_type":"image-keyboard-response","trial_index":147,"plugin_version":"2.1.0","time_elapsed":290555,"subject_id":"91426","group":"Group2","condition":"1_Rep","full_date":"2026-02-06T15:37:27.368Z","date":"2026-02-06","time":"15:37:27","cor_ans":false},{"trial_type":"html-keyboard-response","rt":null,"stimulus":"<p style=\"color: red; font-size: 50px; font-weight: bold;\">Incorrect</p>","response":null,"trial_index":148,"plugin_version":"2.1.0","time_elapsed":291057,"subject_id":"91426","group":"Group2","condition":"1_Rep","full_date":"2026-02-06T15:37:27.368Z","date":"2026-02-06","time":"15:37:27"},{"correct_response":"a","task":"test_phase","broad_category":"I","image_png":"I_Diorite_05.png","image_id":37,"category_name":"Diorite","category":3,"distinct_rating":3.08,"distinct_type":"Bottom","item_type":"Foil","rt":697,"stimulus":"Stimuli_Rocks480/I_Diorite_05.png","response":"l","trial_type":"image-keyboard-response","trial_index":149,"plugin_version":"2.1.0","time_elapsed":291756,"subject_id":"91426","group":"Group2","condition":"1_Rep","full_date":"2026-02-06T15:37:27.368Z","date":"2026-02-06","time":"15:37:27","cor_ans":false},{"trial_type":"html-keyboard-response","rt":null,"stimulus":"<p style=\"color: red; font-size: 50px; font-weight: bold;\">Incorrect</p>","response":null,"trial_index":150,"plugin_version":"2.1.0","time_elapsed":292257,"subject_id":"91426","group":"Group2","condition":"1_Rep","full_date":"2026-02-06T15:37:27.368Z","date":"2026-02-06","time":"15:37:27"},{"correct_response":"a","task":"test_phase","broad_category":"S","image_png":"S_Rock Gypsum_04.png","image_id":420,"category_name":"Rock Gypsum","category":27,"distinct_rating":7.61,"distinct_type":"Top","item_type":"Foil","rt":1044,"stimulus":"Stimuli_Rocks480/S_Rock Gypsum_04.png","response":"a","trial_type":"image-keyboard-response","trial_index":151,"plugin_version":"2.1.0","time_elapsed":293304,"subject_id":"91426","group":"Group2","condition":"1_Rep","full_date":"2026-02-06T15:37:27.368Z","date":"2026-02-06","time":"15:37:27","cor_ans":true},{"trial_type":"html-keyboard-response","rt":null,"stimulus":"<p style=\"color: green; font-size: 50px; font-weight: bold;\">Correct</p>","response":null,"trial_index":152,"plugin_version":"2.1.0","time_elapsed":293805,"subject_id":"91426","group":"Group2","condition":"1_Rep","full_date":"2026-02-06T15:37:27.368Z","date":"2026-02-06","time":"15:37:27"},{"correct_response":"l","task":"test_phase","broad_category":"S","image_png":"S_Dolomite_16.png","image_id":400,"category_name":"Dolomite","category":25,"distinct_rating":1.71,"distinct_type":"Bottom","item_type":"Target","rt":1408,"stimulus":"Stimuli_Rocks480/S_Dolomite_16.png","response":"l","trial_type":"image-keyboard-response","trial_index":153,"plugin_version":"2.1.0","time_elapsed":295216,"subject_id":"91426","group":"Group2","condition":"1_Rep","full_date":"2026-02-06T15:37:27.368Z","date":"2026-02-06","time":"15:37:27","cor_ans":true},{"trial_type":"html-keyboard-response","rt":null,"stimulus":"<p style=\"color: green; font-size: 50px; font-weight: bold;\">Correct</p>","response":null,"trial_index":154,"plugin_version":"2.1.0","time_elapsed":295718,"subject_id":"91426","group":"Group2","condition":"1_Rep","full_date":"2026-02-06T15:37:27.368Z","date":"2026-02-06","time":"15:37:27"},{"correct_response":"a","task":"test_phase","broad_category":"M","image_png":"M_Gneiss_13.png","image_id":205,"category_name":"Gneiss","category":13,"distinct_rating":3.26,"distinct_type":"Bottom","item_type":"Foil","rt":842,"stimulus":"Stimuli_Rocks480/M_Gneiss_13.png","response":"l","trial_type":"image-keyboard-response","trial_index":155,"plugin_version":"2.1.0","time_elapsed":296562,"subject_id":"91426","group":"Group2","condition":"1_Rep","full_date":"2026-02-06T15:37:27.368Z","date":"2026-02-06","time":"15:37:27","cor_ans":false},{"trial_type":"html-keyboard-response","rt":null,"stimulus":"<p style=\"color: red; font-size: 50px; font-weight: bold;\">Incorrect</p>","response":null,"trial_index":156,"plugin_version":"2.1.0","time_elapsed":297064,"subject_id":"91426","group":"Group2","condition":"1_Rep","full_date":"2026-02-06T15:37:27.368Z","date":"2026-02-06","time":"15:37:27"},{"correct_response":"l","task":"test_phase","broad_category":"M","image_png":"M_Gneiss_14.png","image_id":206,"category_name":"Gneiss","category":13,"distinct_rating":3.41,"distinct_type":"Bottom","item_type":"Target","rt":921,"stimulus":"Stimuli_Rocks480/M_Gneiss_14.png","response":"l","trial_type":"image-keyboard-response","trial_index":157,"plugin_version":"2.1.0","time_elapsed":297987,"subject_id":"91426","group":"Group2","condition":"1_Rep","full_date":"2026-02-06T15:37:27.368Z","date":"2026-02-06","time":"15:37:27","cor_ans":true},{"trial_type":"html-keyboard-response","rt":null,"stimulus":"<p style=\"color: green; font-size: 50px; font-weight: bold;\">Correct</p>","response":null,"trial_index":158,"plugin_version":"2.1.0","time_elapsed":298488,"subject_id":"91426","group":"Group2","condition":"1_Rep","full_date":"2026-02-06T15:37:27.368Z","date":"2026-02-06","time":"15:37:27"},{"correct_response":"l","task":"test_phase","broad_category":"S","image_png":"S_Rock Salt_15.png","image_id":447,"category_name":"Rock Salt","category":28,"distinct_rating":7.79,"distinct_type":"Top","item_type":"Target","rt":738,"stimulus":"Stimuli_Rocks480/S_Rock Salt_15.png","response":"a","trial_type":"image-keyboard-response","trial_index":159,"plugin_version":"2.1.0","time_elapsed":299229,"subject_id":"91426","group":"Group2","condition":"1_Rep","full_date":"2026-02-06T15:37:27.368Z","date":"2026-02-06","time":"15:37:27","cor_ans":false},{"trial_type":"html-keyboard-response","rt":null,"stimulus":"<p style=\"color: red; font-size: 50px; font-weight: bold;\">Incorrect</p>","response":null,"trial_index":160,"plugin_version":"2.1.0","time_elapsed":299730,"subject_id":"91426","group":"Group2","condition":"1_Rep","full_date":"2026-02-06T15:37:27.368Z","date":"2026-02-06","time":"15:37:27"},{"correct_response":"a","task":"test_phase","broad_category":"M","image_png":"M_Phyllite_03.png","image_id":259,"category_name":"Phyllite","category":17,"distinct_rating":2.5,"distinct_type":"Bottom","item_type":"Foil","rt":1276,"stimulus":"Stimuli_Rocks480/M_Phyllite_03.png","response":"a","trial_type":"image-keyboard-response","trial_index":161,"plugin_version":"2.1.0","time_elapsed":301009,"subject_id":"91426","group":"Group2","condition":"1_Rep","full_date":"2026-02-06T15:37:27.368Z","date":"2026-02-06","time":"15:37:27","cor_ans":true},{"trial_type":"html-keyboard-response","rt":null,"stimulus":"<p style=\"color: green; font-size: 50px; font-weight: bold;\">Correct</p>","response":null,"trial_index":162,"plugin_version":"2.1.0","time_elapsed":301510,"subject_id":"91426","group":"Group2","condition":"1_Rep","full_date":"2026-02-06T15:37:27.368Z","date":"2026-02-06","time":"15:37:27"},{"correct_response":"a","task":"test_phase","broad_category":"S","image_png":"S_Dolomite_14.png","image_id":398,"category_name":"Dolomite","category":25,"distinct_rating":1.43,"distinct_type":"Bottom","item_type":"Foil","rt":649,"stimulus":"Stimuli_Rocks480/S_Dolomite_14.png","response":"l","trial_type":"image-keyboard-response","trial_index":163,"plugin_version":"2.1.0","time_elapsed":302162,"subject_id":"91426","group":"Group2","condition":"1_Rep","full_date":"2026-02-06T15:37:27.368Z","date":"2026-02-06","time":"15:37:27","cor_ans":false},{"trial_type":"html-keyboard-response","rt":null,"stimulus":"<p style=\"color: red; font-size: 50px; font-weight: bold;\">Incorrect</p>","response":null,"trial_index":164,"plugin_version":"2.1.0","time_elapsed":302663,"subject_id":"91426","group":"Group2","condition":"1_Rep","full_date":"2026-02-06T15:37:27.368Z","date":"2026-02-06","time":"15:37:27"},{"correct_response":"l","task":"test_phase","broad_category":"M","image_png":"M_Marble_02.png","image_id":226,"category_name":"Marble","category":15,"distinct_rating":3.2,"distinct_type":"Bottom","item_type":"Target","rt":670,"stimulus":"Stimuli_Rocks480/M_Marble_02.png","response":"l","trial_type":"image-keyboard-response","trial_index":165,"plugin_version":"2.1.0","time_elapsed":303335,"subject_id":"91426","group":"Group2","condition":"1_Rep","full_date":"2026-02-06T15:37:27.368Z","date":"2026-02-06","time":"15:37:27","cor_ans":true},{"trial_type":"html-keyboard-response","rt":null,"stimulus":"<p style=\"color: green; font-size: 50px; font-weight: bold;\">Correct</p>","response":null,"trial_index":166,"plugin_version":"2.1.0","time_elapsed":303837,"subject_id":"91426","group":"Group2","condition":"1_Rep","full_date":"2026-02-06T15:37:27.368Z","date":"2026-02-06","time":"15:37:27"},{"correct_response":"l","task":"test_phase","broad_category":"M","image_png":"M_Slate_10.png","image_id":314,"category_name":"Slate","category":20,"distinct_rating":1.94,"distinct_type":"Bottom","item_type":"Target","rt":669,"stimulus":"Stimuli_Rocks480/M_Slate_10.png","response":"l","trial_type":"image-keyboard-response","trial_index":167,"plugin_version":"2.1.0","time_elapsed":304508,"subject_id":"91426","group":"Group2","condition":"1_Rep","full_date":"2026-02-06T15:37:27.368Z","date":"2026-02-06","time":"15:37:27","cor_ans":true},{"trial_type":"html-keyboard-response","rt":null,"stimulus":"<p style=\"color: green; font-size: 50px; font-weight: bold;\">Correct</p>","response":null,"trial_index":168,"plugin_version":"2.1.0","time_elapsed":305009,"subject_id":"91426","group":"Group2","condition":"1_Rep","full_date":"2026-02-06T15:37:27.368Z","date":"2026-02-06","time":"15:37:27"},{"correct_response":"a","task":"test_phase","broad_category":"M","image_png":"M_Quartzite_08.png","image_id":280,"category_name":"Quartzite","category":18,"distinct_rating":2.15,"distinct_type":"Bottom","item_type":"Foil","rt":612,"stimulus":"Stimuli_Rocks480/M_Quartzite_08.png","response":"l","trial_type":"image-keyboard-response","trial_index":169,"plugin_version":"2.1.0","time_elapsed":305624,"subject_id":"91426","group":"Group2","condition":"1_Rep","full_date":"2026-02-06T15:37:27.368Z","date":"2026-02-06","time":"15:37:27","cor_ans":false},{"trial_type":"html-keyboard-response","rt":null,"stimulus":"<p style=\"color: red; font-size: 50px; font-weight: bold;\">Incorrect</p>","response":null,"trial_index":170,"plugin_version":"2.1.0","time_elapsed":306125,"subject_id":"91426","group":"Group2","condition":"1_Rep","full_date":"2026-02-06T15:37:27.368Z","date":"2026-02-06","time":"15:37:27"},{"correct_response":"a","task":"test_phase","broad_category":"I","image_png":"I_Basalt_01.png","image_id":17,"category_name":"Basalt","category":2,"distinct_rating":1.92,"distinct_type":"Bottom","item_type":"Foil","rt":848,"stimulus":"Stimuli_Rocks480/I_Basalt_01.png","response":"l","trial_type":"image-keyboard-response","trial_index":171,"plugin_version":"2.1.0","time_elapsed":306976,"subject_id":"91426","group":"Group2","condition":"1_Rep","full_date":"2026-02-06T15:37:27.368Z","date":"2026-02-06","time":"15:37:27","cor_ans":false},{"trial_type":"html-keyboard-response","rt":null,"stimulus":"<p style=\"color: red; font-size: 50px; font-weight: bold;\">Incorrect</p>","response":null,"trial_index":172,"plugin_version":"2.1.0","time_elapsed":307477,"subject_id":"91426","group":"Group2","condition":"1_Rep","full_date":"2026-02-06T15:37:27.368Z","date":"2026-02-06","time":"15:37:27"},{"correct_response":"l","task":"test_phase","broad_category":"M","image_png":"M_Quartzite_15.png","image_id":287,"category_name":"Quartzite","category":18,"distinct_rating":2.19,"distinct_type":"Bottom","item_type":"Target","rt":774,"stimulus":"Stimuli_Rocks480/M_Quartzite_15.png","response":"l","trial_type":"image-keyboard-response","trial_index":173,"plugin_version":"2.1.0","time_elapsed":308253,"subject_id":"91426","group":"Group2","condition":"1_Rep","full_date":"2026-02-06T15:37:27.368Z","date":"2026-02-06","time":"15:37:27","cor_ans":true},{"trial_type":"html-keyboard-response","rt":null,"stimulus":"<p style=\"color: green; font-size: 50px; font-weight: bold;\">Correct</p>","response":null,"trial_index":174,"plugin_version":"2.1.0","time_elapsed":308754,"subject_id":"91426","group":"Group2","condition":"1_Rep","full_date":"2026-02-06T15:37:27.368Z","date":"2026-02-06","time":"15:37:27"},{"correct_response":"a","task":"test_phase","broad_category":"I","image_png":"I_Pumice_12.png","image_id":140,"category_name":"Pumice","category":9,"distinct_rating":2.97,"distinct_type":"Bottom","item_type":"Foil","rt":714,"stimulus":"Stimuli_Rocks480/I_Pumice_12.png","response":"a","trial_type":"image-keyboard-response","trial_index":175,"plugin_version":"2.1.0","time_elapsed":309471,"subject_id":"91426","group":"Group2","condition":"1_Rep","full_date":"2026-02-06T15:37:27.368Z","date":"2026-02-06","time":"15:37:27","cor_ans":true},{"trial_type":"html-keyboard-response","rt":null,"stimulus":"<p style=\"color: green; font-size: 50px; font-weight: bold;\">Correct</p>","response":null,"trial_index":176,"plugin_version":"2.1.0","time_elapsed":309973,"subject_id":"91426","group":"Group2","condition":"1_Rep","full_date":"2026-02-06T15:37:27.368Z","date":"2026-02-06","time":"15:37:27"},{"correct_response":"l","task":"test_phase","broad_category":"S","image_png":"S_Sandstone_08.png","image_id":456,"category_name":"Sandstone","category":29,"distinct_rating":1.5,"distinct_type":"Bottom","item_type":"Target","rt":802,"stimulus":"Stimuli_Rocks480/S_Sandstone_08.png","response":"l","trial_type":"image-keyboard-response","trial_index":177,"plugin_version":"2.1.0","time_elapsed":310777,"subject_id":"91426","group":"Group2","condition":"1_Rep","full_date":"2026-02-06T15:37:27.368Z","date":"2026-02-06","time":"15:37:27","cor_ans":true},{"trial_type":"html-keyboard-response","rt":null,"stimulus":"<p style=\"color: green; font-size: 50px; font-weight: bold;\">Correct</p>","response":null,"trial_index":178,"plugin_version":"2.1.0","time_elapsed":311279,"subject_id":"91426","group":"Group2","condition":"1_Rep","full_date":"2026-02-06T15:37:27.368Z","date":"2026-02-06","time":"15:37:27"},{"correct_response":"l","task":"test_phase","broad_category":"S","image_png":"S_Dolomite_07.png","image_id":391,"category_name":"Dolomite","category":25,"distinct_rating":1.73,"distinct_type":"Bottom","item_type":"Target","rt":960,"stimulus":"Stimuli_Rocks480/S_Dolomite_07.png","response":"a","trial_type":"image-keyboard-response","trial_index":179,"plugin_version":"2.1.0","time_elapsed":312241,"subject_id":"91426","group":"Group2","condition":"1_Rep","full_date":"2026-02-06T15:37:27.368Z","date":"2026-02-06","time":"15:37:27","cor_ans":false},{"trial_type":"html-keyboard-response","rt":null,"stimulus":"<p style=\"color: red; font-size: 50px; font-weight: bold;\">Incorrect</p>","response":null,"trial_index":180,"plugin_version":"2.1.0","time_elapsed":312743,"subject_id":"91426","group":"Group2","condition":"1_Rep","full_date":"2026-02-06T15:37:27.368Z","date":"2026-02-06","time":"15:37:27"},{"correct_response":"l","task":"test_phase","broad_category":"S","image_png":"S_Dolomite_01.png","image_id":385,"category_name":"Dolomite","category":25,"distinct_rating":1.43,"distinct_type":"Bottom","item_type":"Target","rt":829,"stimulus":"Stimuli_Rocks480/S_Dolomite_01.png","response":"l","trial_type":"image-keyboard-response","trial_index":181,"plugin_version":"2.1.0","time_elapsed":313574,"subject_id":"91426","group":"Group2","condition":"1_Rep","full_date":"2026-02-06T15:37:27.368Z","date":"2026-02-06","time":"15:37:27","cor_ans":true},{"trial_type":"html-keyboard-response","rt":null,"stimulus":"<p style=\"color: green; font-size: 50px; font-weight: bold;\">Correct</p>","response":null,"trial_index":182,"plugin_version":"2.1.0","time_elapsed":314077,"subject_id":"91426","group":"Group2","condition":"1_Rep","full_date":"2026-02-06T15:37:27.368Z","date":"2026-02-06","time":"15:37:27"},{"correct_response":"l","task":"test_phase","broad_category":"M","image_png":"M_Gneiss_15.png","image_id":207,"category_name":"Gneiss","category":13,"distinct_rating":3.11,"distinct_type":"Bottom","item_type":"Target","rt":683,"stimulus":"Stimuli_Rocks480/M_Gneiss_15.png","response":"l","trial_type":"image-keyboard-response","trial_index":183,"plugin_version":"2.1.0","time_elapsed":314762,"subject_id":"91426","group":"Group2","condition":"1_Rep","full_date":"2026-02-06T15:37:27.368Z","date":"2026-02-06","time":"15:37:27","cor_ans":true},{"trial_type":"html-keyboard-response","rt":null,"stimulus":"<p style=\"color: green; font-size: 50px; font-weight: bold;\">Correct</p>","response":null,"trial_index":184,"plugin_version":"2.1.0","time_elapsed":315263,"subject_id":"91426","group":"Group2","condition":"1_Rep","full_date":"2026-02-06T15:37:27.368Z","date":"2026-02-06","time":"15:37:27"},{"correct_response":"l","task":"test_phase","broad_category":"I","image_png":"I_Andesite_09.png","image_id":9,"category_name":"Andesite","category":1,"distinct_rating":2.49,"distinct_type":"Bottom","item_type":"Target","rt":940,"stimulus":"Stimuli_Rocks480/I_Andesite_09.png","response":"l","trial_type":"image-keyboard-response","trial_index":185,"plugin_version":"2.1.0","time_elapsed":316206,"subject_id":"91426","group":"Group2","condition":"1_Rep","full_date":"2026-02-06T15:37:27.368Z","date":"2026-02-06","time":"15:37:27","cor_ans":true},{"trial_type":"html-keyboard-response","rt":null,"stimulus":"<p style=\"color: green; font-size: 50px; font-weight: bold;\">Correct</p>","response":null,"trial_index":186,"plugin_version":"2.1.0","time_elapsed":316707,"subject_id":"91426","group":"Group2","condition":"1_Rep","full_date":"2026-02-06T15:37:27.368Z","date":"2026-02-06","time":"15:37:27"},{"correct_response":"a","task":"test_phase","broad_category":"S","image_png":"S_Sandstone_03.png","image_id":451,"category_name":"Sandstone","category":29,"distinct_rating":1.86,"distinct_type":"Bottom","item_type":"Foil","rt":859,"stimulus":"Stimuli_Rocks480/S_Sandstone_03.png","response":"a","trial_type":"image-keyboard-response","trial_index":187,"plugin_version":"2.1.0","time_elapsed":317568,"subject_id":"91426","group":"Group2","condition":"1_Rep","full_date":"2026-02-06T15:37:27.368Z","date":"2026-02-06","time":"15:37:27","cor_ans":true},{"trial_type":"html-keyboard-response","rt":null,"stimulus":"<p style=\"color: green; font-size: 50px; font-weight: bold;\">Correct</p>","response":null,"trial_index":188,"plugin_version":"2.1.0","time_elapsed":318072,"subject_id":"91426","group":"Group2","condition":"1_Rep","full_date":"2026-02-06T15:37:27.368Z","date":"2026-02-06","time":"15:37:27"},{"correct_response":"a","task":"test_phase","broad_category":"M","image_png":"M_Quartzite_13.png","image_id":285,"category_name":"Quartzite","category":18,"distinct_rating":2.27,"distinct_type":"Bottom","item_type":"Foil","rt":814,"stimulus":"Stimuli_Rocks480/M_Quartzite_13.png","response":"a","trial_type":"image-keyboard-response","trial_index":189,"plugin_version":"2.1.0","time_elapsed":318888,"subject_id":"91426","group":"Group2","condition":"1_Rep","full_date":"2026-02-06T15:37:27.368Z","date":"2026-02-06","time":"15:37:27","cor_ans":true},{"trial_type":"html-keyboard-response","rt":null,"stimulus":"<p style=\"color: green; font-size: 50px; font-weight: bold;\">Correct</p>","response":null,"trial_index":190,"plugin_version":"2.1.0","time_elapsed":319389,"subject_id":"91426","group":"Group2","condition":"1_Rep","full_date":"2026-02-06T15:37:27.368Z","date":"2026-02-06","time":"15:37:27"},{"correct_response":"l","task":"test_phase","broad_category":"I","image_png":"I_Peridotite_13.png","image_id":125,"category_name":"Peridotite","category":8,"distinct_rating":7.28,"distinct_type":"Top","item_type":"Target","rt":1175,"stimulus":"Stimuli_Rocks480/I_Peridotite_13.png","response":"a","trial_type":"image-keyboard-response","trial_index":191,"plugin_version":"2.1.0","time_elapsed":320567,"subject_id":"91426","group":"Group2","condition":"1_Rep","full_date":"2026-02-06T15:37:27.368Z","date":"2026-02-06","time":"15:37:27","cor_ans":false},{"trial_type":"html-keyboard-response","rt":null,"stimulus":"<p style=\"color: red; font-size: 50px; font-weight: bold;\">Incorrect</p>","response":null,"trial_index":192,"plugin_version":"2.1.0","time_elapsed":321068,"subject_id":"91426","group":"Group2","condition":"1_Rep","full_date":"2026-02-06T15:37:27.368Z","date":"2026-02-06","time":"15:37:27"},{"correct_response":"l","task":"test_phase","broad_category":"M","image_png":"M_Marble_03.png","image_id":227,"category_name":"Marble","category":15,"distinct_rating":2.67,"distinct_type":"Bottom","item_type":"Target","rt":727,"stimulus":"Stimuli_Rocks480/M_Marble_03.png","response":"l","trial_type":"image-keyboard-response","trial_index":193,"plugin_version":"2.1.0","time_elapsed":321798,"subject_id":"91426","group":"Group2","condition":"1_Rep","full_date":"2026-02-06T15:37:27.368Z","date":"2026-02-06","time":"15:37:27","cor_ans":true},{"trial_type":"html-keyboard-response","rt":null,"stimulus":"<p style=\"color: green; font-size: 50px; font-weight: bold;\">Correct</p>","response":null,"trial_index":194,"plugin_version":"2.1.0","time_elapsed":322300,"subject_id":"91426","group":"Group2","condition":"1_Rep","full_date":"2026-02-06T15:37:27.368Z","date":"2026-02-06","time":"15:37:27"},{"correct_response":"a","task":"test_phase","broad_category":"S","image_png":"S_Breccia_11.png","image_id":347,"category_name":"Breccia","category":22,"distinct_rating":6.7,"distinct_type":"Top","item_type":"Foil","rt":708,"stimulus":"Stimuli_Rocks480/S_Breccia_11.png","response":"a","trial_type":"image-keyboard-response","trial_index":195,"plugin_version":"2.1.0","time_elapsed":323010,"subject_id":"91426","group":"Group2","condition":"1_Rep","full_date":"2026-02-06T15:37:27.368Z","date":"2026-02-06","time":"15:37:27","cor_ans":true},{"trial_type":"html-keyboard-response","rt":null,"stimulus":"<p style=\"color: green; font-size: 50px; font-weight: bold;\">Correct</p>","response":null,"trial_index":196,"plugin_version":"2.1.0","time_elapsed":323512,"subject_id":"91426","group":"Group2","condition":"1_Rep","full_date":"2026-02-06T15:37:27.368Z","date":"2026-02-06","time":"15:37:27"},{"correct_response":"a","task":"test_phase","broad_category":"M","image_png":"M_Marble_06.png","image_id":230,"category_name":"Marble","category":15,"distinct_rating":3.4,"distinct_type":"Bottom","item_type":"Foil","rt":782,"stimulus":"Stimuli_Rocks480/M_Marble_06.png","response":"l","trial_type":"image-keyboard-response","trial_index":197,"plugin_version":"2.1.0","time_elapsed":324296,"subject_id":"91426","group":"Group2","condition":"1_Rep","full_date":"2026-02-06T15:37:27.368Z","date":"2026-02-06","time":"15:37:27","cor_ans":false},{"trial_type":"html-keyboard-response","rt":null,"stimulus":"<p style=\"color: red; font-size: 50px; font-weight: bold;\">Incorrect</p>","response":null,"trial_index":198,"plugin_version":"2.1.0","time_elapsed":324797,"subject_id":"91426","group":"Group2","condition":"1_Rep","full_date":"2026-02-06T15:37:27.368Z","date":"2026-02-06","time":"15:37:27"},{"correct_response":"l","task":"test_phase","broad_category":"I","image_png":"I_Basalt_10.png","image_id":26,"category_name":"Basalt","category":2,"distinct_rating":2.76,"distinct_type":"Bottom","item_type":"Target","rt":710,"stimulus":"Stimuli_Rocks480/I_Basalt_10.png","response":"l","trial_type":"image-keyboard-response","trial_index":199,"plugin_version":"2.1.0","time_elapsed":325510,"subject_id":"91426","group":"Group2","condition":"1_Rep","full_date":"2026-02-06T15:37:27.368Z","date":"2026-02-06","time":"15:37:27","cor_ans":true},{"trial_type":"html-keyboard-response","rt":null,"stimulus":"<p style=\"color: green; font-size: 50px; font-weight: bold;\">Correct</p>","response":null,"trial_index":200,"plugin_version":"2.1.0","time_elapsed":326012,"subject_id":"91426","group":"Group2","condition":"1_Rep","full_date":"2026-02-06T15:37:27.368Z","date":"2026-02-06","time":"15:37:27"},{"correct_response":"a","task":"test_phase","broad_category":"I","image_png":"I_Obsidian_05.png","image_id":85,"category_name":"Obsidian","category":6,"distinct_rating":7.32,"distinct_type":"Top","item_type":"Foil","rt":735,"stimulus":"Stimuli_Rocks480/I_Obsidian_05.png","response":"a","trial_type":"image-keyboard-response","trial_index":201,"plugin_version":"2.1.0","time_elapsed":326749,"subject_id":"91426","group":"Group2","condition":"1_Rep","full_date":"2026-02-06T15:37:27.368Z","date":"2026-02-06","time":"15:37:27","cor_ans":true},{"trial_type":"html-keyboard-response","rt":null,"stimulus":"<p style=\"color: green; font-size: 50px; font-weight: bold;\">Correct</p>","response":null,"trial_index":202,"plugin_version":"2.1.0","time_elapsed":327251,"subject_id":"91426","group":"Group2","condition":"1_Rep","full_date":"2026-02-06T15:37:27.368Z","date":"2026-02-06","time":"15:37:27"},{"correct_response":"a","task":"test_phase","broad_category":"M","image_png":"M_Phyllite_10.png","image_id":266,"category_name":"Phyllite","category":17,"distinct_rating":2.6,"distinct_type":"Bottom","item_type":"Foil","rt":814,"stimulus":"Stimuli_Rocks480/M_Phyllite_10.png","response":"l","trial_type":"image-keyboard-response","trial_index":203,"plugin_version":"2.1.0","time_elapsed":328068,"subject_id":"91426","group":"Group2","condition":"1_Rep","full_date":"2026-02-06T15:37:27.368Z","date":"2026-02-06","time":"15:37:27","cor_ans":false},{"trial_type":"html-keyboard-response","rt":null,"stimulus":"<p style=\"color: red; font-size: 50px; font-weight: bold;\">Incorrect</p>","response":null,"trial_index":204,"plugin_version":"2.1.0","time_elapsed":328570,"subject_id":"91426","group":"Group2","condition":"1_Rep","full_date":"2026-02-06T15:37:27.368Z","date":"2026-02-06","time":"15:37:27"},{"correct_response":"l","task":"test_phase","broad_category":"I","image_png":"I_Obsidian_06.png","image_id":86,"category_name":"Obsidian","category":6,"distinct_rating":8.01,"distinct_type":"Top","item_type":"Target","rt":744,"stimulus":"Stimuli_Rocks480/I_Obsidian_06.png","response":"l","trial_type":"image-keyboard-response","trial_index":205,"plugin_version":"2.1.0","time_elapsed":329315,"subject_id":"91426","group":"Group2","condition":"1_Rep","full_date":"2026-02-06T15:37:27.368Z","date":"2026-02-06","time":"15:37:27","cor_ans":true},{"trial_type":"html-keyboard-response","rt":null,"stimulus":"<p style=\"color: green; font-size: 50px; font-weight: bold;\">Correct</p>","response":null,"trial_index":206,"plugin_version":"2.1.0","time_elapsed":329817,"subject_id":"91426","group":"Group2","condition":"1_Rep","full_date":"2026-02-06T15:37:27.368Z","date":"2026-02-06","time":"15:37:27"},{"correct_response":"a","task":"test_phase","broad_category":"I","image_png":"I_Pegmatite_10.png","image_id":106,"category_name":"Pegmatite","category":7,"distinct_rating":7.66,"distinct_type":"Top","item_type":"Foil","rt":1107,"stimulus":"Stimuli_Rocks480/I_Pegmatite_10.png","response":"a","trial_type":"image-keyboard-response","trial_index":207,"plugin_version":"2.1.0","time_elapsed":330926,"subject_id":"91426","group":"Group2","condition":"1_Rep","full_date":"2026-02-06T15:37:27.368Z","date":"2026-02-06","time":"15:37:27","cor_ans":true},{"trial_type":"html-keyboard-response","rt":null,"stimulus":"<p style=\"color: green; font-size: 50px; font-weight: bold;\">Correct</p>","response":null,"trial_index":208,"plugin_version":"2.1.0","time_elapsed":331427,"subject_id":"91426","group":"Group2","condition":"1_Rep","full_date":"2026-02-06T15:37:27.368Z","date":"2026-02-06","time":"15:37:27"},{"correct_response":"a","task":"test_phase","broad_category":"I","image_png":"I_Diorite_04.png","image_id":36,"category_name":"Diorite","category":3,"distinct_rating":2.98,"distinct_type":"Bottom","item_type":"Foil","rt":824,"stimulus":"Stimuli_Rocks480/I_Diorite_04.png","response":"l","trial_type":"image-keyboard-response","trial_index":209,"plugin_version":"2.1.0","time_elapsed":332254,"subject_id":"91426","group":"Group2","condition":"1_Rep","full_date":"2026-02-06T15:37:27.368Z","date":"2026-02-06","time":"15:37:27","cor_ans":false},{"trial_type":"html-keyboard-response","rt":null,"stimulus":"<p style=\"color: red; font-size: 50px; font-weight: bold;\">Incorrect</p>","response":null,"trial_index":210,"plugin_version":"2.1.0","time_elapsed":332756,"subject_id":"91426","group":"Group2","condition":"1_Rep","full_date":"2026-02-06T15:37:27.368Z","date":"2026-02-06","time":"15:37:27"},{"correct_response":"a","task":"test_phase","broad_category":"I","image_png":"I_Pumice_08.png","image_id":136,"category_name":"Pumice","category":9,"distinct_rating":3.1,"distinct_type":"Bottom","item_type":"Foil","rt":767,"stimulus":"Stimuli_Rocks480/I_Pumice_08.png","response":"a","trial_type":"image-keyboard-response","trial_index":211,"plugin_version":"2.1.0","time_elapsed":333526,"subject_id":"91426","group":"Group2","condition":"1_Rep","full_date":"2026-02-06T15:37:27.368Z","date":"2026-02-06","time":"15:37:27","cor_ans":true},{"trial_type":"html-keyboard-response","rt":null,"stimulus":"<p style=\"color: green; font-size: 50px; font-weight: bold;\">Correct</p>","response":null,"trial_index":212,"plugin_version":"2.1.0","time_elapsed":334028,"subject_id":"91426","group":"Group2","condition":"1_Rep","full_date":"2026-02-06T15:37:27.368Z","date":"2026-02-06","time":"15:37:27"},{"correct_response":"a","task":"test_phase","broad_category":"S","image_png":"S_Rock Salt_01.png","image_id":433,"category_name":"Rock Salt","category":28,"distinct_rating":7.18,"distinct_type":"Top","item_type":"Foil","rt":948,"stimulus":"Stimuli_Rocks480/S_Rock Salt_01.png","response":"a","trial_type":"image-keyboard-response","trial_index":213,"plugin_version":"2.1.0","time_elapsed":334978,"subject_id":"91426","group":"Group2","condition":"1_Rep","full_date":"2026-02-06T15:37:27.368Z","date":"2026-02-06","time":"15:37:27","cor_ans":true},{"trial_type":"html-keyboard-response","rt":null,"stimulus":"<p style=\"color: green; font-size: 50px; font-weight: bold;\">Correct</p>","response":null,"trial_index":214,"plugin_version":"2.1.0","time_elapsed":335480,"subject_id":"91426","group":"Group2","condition":"1_Rep","full_date":"2026-02-06T15:37:27.368Z","date":"2026-02-06","time":"15:37:27"},{"correct_response":"a","task":"test_phase","broad_category":"I","image_png":"I_Basalt_02.png","image_id":18,"category_name":"Basalt","category":2,"distinct_rating":1.84,"distinct_type":"Bottom","item_type":"Foil","rt":1025,"stimulus":"Stimuli_Rocks480/I_Basalt_02.png","response":"a","trial_type":"image-keyboard-response","trial_index":215,"plugin_version":"2.1.0","time_elapsed":336507,"subject_id":"91426","group":"Group2","condition":"1_Rep","full_date":"2026-02-06T15:37:27.368Z","date":"2026-02-06","time":"15:37:27","cor_ans":true},{"trial_type":"html-keyboard-response","rt":null,"stimulus":"<p style=\"color: green; font-size: 50px; font-weight: bold;\">Correct</p>","response":null,"trial_index":216,"plugin_version":"2.1.0","time_elapsed":337009,"subject_id":"91426","group":"Group2","condition":"1_Rep","full_date":"2026-02-06T15:37:27.368Z","date":"2026-02-06","time":"15:37:27"},{"correct_response":"l","task":"test_phase","broad_category":"M","image_png":"M_Slate_14.png","image_id":318,"category_name":"Slate","category":20,"distinct_rating":2.58,"distinct_type":"Bottom","item_type":"Target","rt":682,"stimulus":"Stimuli_Rocks480/M_Slate_14.png","response":"l","trial_type":"image-keyboard-response","trial_index":217,"plugin_version":"2.1.0","time_elapsed":337694,"subject_id":"91426","group":"Group2","condition":"1_Rep","full_date":"2026-02-06T15:37:27.368Z","date":"2026-02-06","time":"15:37:27","cor_ans":true},{"trial_type":"html-keyboard-response","rt":null,"stimulus":"<p style=\"color: green; font-size: 50px; font-weight: bold;\">Correct</p>","response":null,"trial_index":218,"plugin_version":"2.1.0","time_elapsed":338196,"subject_id":"91426","group":"Group2","condition":"1_Rep","full_date":"2026-02-06T15:37:27.368Z","date":"2026-02-06","time":"15:37:27"},{"correct_response":"l","task":"test_phase","broad_category":"M","image_png":"M_Phyllite_13.png","image_id":269,"category_name":"Phyllite","category":17,"distinct_rating":2.8,"distinct_type":"Bottom","item_type":"Target","rt":1122,"stimulus":"Stimuli_Rocks480/M_Phyllite_13.png","response":"l","trial_type":"image-keyboard-response","trial_index":219,"plugin_version":"2.1.0","time_elapsed":339321,"subject_id":"91426","group":"Group2","condition":"1_Rep","full_date":"2026-02-06T15:37:27.368Z","date":"2026-02-06","time":"15:37:27","cor_ans":true},{"trial_type":"html-keyboard-response","rt":null,"stimulus":"<p style=\"color: green; font-size: 50px; font-weight: bold;\">Correct</p>","response":null,"trial_index":220,"plugin_version":"2.1.0","time_elapsed":339823,"subject_id":"91426","group":"Group2","condition":"1_Rep","full_date":"2026-02-06T15:37:27.368Z","date":"2026-02-06","time":"15:37:27"},{"correct_response":"l","task":"test_phase","broad_category":"M","image_png":"M_Marble_14.png","image_id":238,"category_name":"Marble","category":15,"distinct_rating":3.31,"distinct_type":"Bottom","item_type":"Target","rt":761,"stimulus":"Stimuli_Rocks480/M_Marble_14.png","response":"l","trial_type":"image-keyboard-response","trial_index":221,"plugin_version":"2.1.0","time_elapsed":340586,"subject_id":"91426","group":"Group2","condition":"1_Rep","full_date":"2026-02-06T15:37:27.368Z","date":"2026-02-06","time":"15:37:27","cor_ans":true},{"trial_type":"html-keyboard-response","rt":null,"stimulus":"<p style=\"color: green; font-size: 50px; font-weight: bold;\">Correct</p>","response":null,"trial_index":222,"plugin_version":"2.1.0","time_elapsed":341087,"subject_id":"91426","group":"Group2","condition":"1_Rep","full_date":"2026-02-06T15:37:27.368Z","date":"2026-02-06","time":"15:37:27"},{"correct_response":"l","task":"test_phase","broad_category":"I","image_png":"I_Pegmatite_11.png","image_id":107,"category_name":"Pegmatite","category":7,"distinct_rating":7.11,"distinct_type":"Top","item_type":"Target","rt":721,"stimulus":"Stimuli_Rocks480/I_Pegmatite_11.png","response":"l","trial_type":"image-keyboard-response","trial_index":223,"plugin_version":"2.1.0","time_elapsed":341811,"subject_id":"91426","group":"Group2","condition":"1_Rep","full_date":"2026-02-06T15:37:27.368Z","date":"2026-02-06","time":"15:37:27","cor_ans":true},{"trial_type":"html-keyboard-response","rt":null,"stimulus":"<p style=\"color: green; font-size: 50px; font-weight: bold;\">Correct</p>","response":null,"trial_index":224,"plugin_version":"2.1.0","time_elapsed":342313,"subject_id":"91426","group":"Group2","condition":"1_Rep","full_date":"2026-02-06T15:37:27.368Z","date":"2026-02-06","time":"15:37:27"},{"correct_response":"a","task":"test_phase","broad_categor