[{"width":1470,"height":797,"webaudio":true,"browser":"chrome","browser_version":"144.0.0","mobile":false,"os":"Mac OS","fullscreen":true,"vsync_rate":2.33,"webcam":true,"microphone":true,"trial_type":"browser-check","trial_index":0,"plugin_version":"2.1.0","time_elapsed":25811,"subject_id":"91558","group":"Group1","condition":"1_Rep","full_date":"2026-02-10T16:07:05.745Z","date":"2026-02-10","time":"16:07:05"},{"success":true,"timeout":false,"failed_images":[],"failed_audio":[],"failed_video":[],"trial_type":"preload","trial_index":1,"plugin_version":"2.1.0","time_elapsed":31324,"subject_id":"91558","group":"Group1","condition":"1_Rep","full_date":"2026-02-10T16:07:05.745Z","date":"2026-02-10","time":"16:07:05"},{"rt":401336,"url":"SONA_consent_memorability.html","trial_type":"external-html","trial_index":2,"plugin_version":"2.1.0","time_elapsed":432741,"subject_id":"91558","group":"Group1","condition":"1_Rep","full_date":"2026-02-10T16:07:05.745Z","date":"2026-02-10","time":"16:07:05"},{"success":true,"rt":1781,"trial_type":"fullscreen","trial_index":3,"plugin_version":"2.1.0","time_elapsed":435525,"subject_id":"91558","group":"Group1","condition":"1_Rep","full_date":"2026-02-10T16:07:05.745Z","date":"2026-02-10","time":"16:07:05"},{"rt":2556664,"stimulus":"<div style=\"max-width: 760px; margin: auto; font-size: 20px; line-height: 1.5;\">\n      <h1 style=\"text-align:center; font-size: 30px;\">Instructions</h1>\n      <p>\n        Welcome to the study on <b>visual memory</b>. This experiment consists of <b>two phases</b>: \n        a <b>study phase</b> and a <b>test phase</b>.\n      </p>\n      <p>\n        In the study phase, you will see a series of rock images along with their category labels.\n        The images will appear one at a time.\n        <b>Your task</b> is to learn the categories to which the rock images belong \n        and to remember each image as accurately as possible.\n      </p> \n      <p>\n        Note that you will see each image only <b>once</b> during the study phase. \n          So, please pay close attention and try to remember each image carefully.\n      </p>\n      <p>\n        After the study phase, <b>your memory will be tested</b>. \n        Additional instructions for the test phase will be provided at that time.\n      </p>\n      <p>\n        If your computer has multiple <b>language settings</b> (e.g., English and another language),\n        please make sure it is set to English before starting.\n      </p>\n      <p>\n        You can track your progress using the <b>completion bar</b> at the top of the screen. \n        Please note that the bar will refresh when the test phase begins \n        to give you an accurate sense of your progress in both phases.\n      </p> \n      <p>\n        Press the button below when you are ready to begin.\n      </p>\n    </div>","response":0,"trial_type":"html-button-response","trial_index":4,"plugin_version":"2.1.0","time_elapsed":3304500,"subject_id":"91558","group":"Group1","condition":"1_Rep","full_date":"2026-02-10T16:07:05.745Z","date":"2026-02-10","time":"16:07:05"},{"rt":null,"stimulus":"<p style=\"font-size: 50px; margin: 0; text-align: center;\">+</p>","response":null,"trial_type":"html-keyboard-response","trial_index":5,"plugin_version":"2.1.0","time_elapsed":3305505,"subject_id":"91558","group":"Group1","condition":"1_Rep","full_date":"2026-02-10T16:07:05.745Z","date":"2026-02-10","time":"16:07:05"},{"task":"memory_phase","broad_category":"S","image_png":"S_Dolomite_14.png","image_id":398,"category_name":"Dolomite","category":25,"distinct_rating":1.43,"distinct_type":"Bottom","rt":null,"stimulus":"Stimuli_Rocks480/S_Dolomite_14.png","response":null,"trial_type":"image-keyboard-response","trial_index":6,"plugin_version":"2.1.0","time_elapsed":3308010,"subject_id":"91558","group":"Group1","condition":"1_Rep","full_date":"2026-02-10T16:07:05.745Z","date":"2026-02-10","time":"16:07:05"},{"rt":null,"stimulus":"<p style=\"font-size: 50px; margin: 0; text-align: center;\">+</p>","response":null,"trial_type":"html-keyboard-response","trial_index":7,"plugin_version":"2.1.0","time_elapsed":3309012,"subject_id":"91558","group":"Group1","condition":"1_Rep","full_date":"2026-02-10T16:07:05.745Z","date":"2026-02-10","time":"16:07:05"},{"task":"memory_phase","broad_category":"S","image_png":"S_Dolomite_13.png","image_id":397,"category_name":"Dolomite","category":25,"distinct_rating":1.77,"distinct_type":"Bottom","rt":null,"stimulus":"Stimuli_Rocks480/S_Dolomite_13.png","response":null,"trial_type":"image-keyboard-response","trial_index":8,"plugin_version":"2.1.0","time_elapsed":3311516,"subject_id":"91558","group":"Group1","condition":"1_Rep","full_date":"2026-02-10T16:07:05.745Z","date":"2026-02-10","time":"16:07:05"},{"rt":null,"stimulus":"<p style=\"font-size: 50px; margin: 0; text-align: center;\">+</p>","response":null,"trial_type":"html-keyboard-response","trial_index":9,"plugin_version":"2.1.0","time_elapsed":3312518,"subject_id":"91558","group":"Group1","condition":"1_Rep","full_date":"2026-02-10T16:07:05.745Z","date":"2026-02-10","time":"16:07:05"},{"task":"memory_phase","broad_category":"M","image_png":"M_Slate_15.png","image_id":319,"category_name":"Slate","category":20,"distinct_rating":2.13,"distinct_type":"Bottom","rt":null,"stimulus":"Stimuli_Rocks480/M_Slate_15.png","response":null,"trial_type":"image-keyboard-response","trial_index":10,"plugin_version":"2.1.0","time_elapsed":3315022,"subject_id":"91558","group":"Group1","condition":"1_Rep","full_date":"2026-02-10T16:07:05.745Z","date":"2026-02-10","time":"16:07:05"},{"rt":null,"stimulus":"<p style=\"font-size: 50px; margin: 0; text-align: center;\">+</p>","response":null,"trial_type":"html-keyboard-response","trial_index":11,"plugin_version":"2.1.0","time_elapsed":3316024,"subject_id":"91558","group":"Group1","condition":"1_Rep","full_date":"2026-02-10T16:07:05.745Z","date":"2026-02-10","time":"16:07:05"},{"task":"memory_phase","broad_category":"I","image_png":"I_Pumice_08.png","image_id":136,"category_name":"Pumice","category":9,"distinct_rating":3.1,"distinct_type":"Bottom","rt":null,"stimulus":"Stimuli_Rocks480/I_Pumice_08.png","response":null,"trial_type":"image-keyboard-response","trial_index":12,"plugin_version":"2.1.0","time_elapsed":3318527,"subject_id":"91558","group":"Group1","condition":"1_Rep","full_date":"2026-02-10T16:07:05.745Z","date":"2026-02-10","time":"16:07:05"},{"rt":null,"stimulus":"<p style=\"font-size: 50px; margin: 0; text-align: center;\">+</p>","response":null,"trial_type":"html-keyboard-response","trial_index":13,"plugin_version":"2.1.0","time_elapsed":3319530,"subject_id":"91558","group":"Group1","condition":"1_Rep","full_date":"2026-02-10T16:07:05.745Z","date":"2026-02-10","time":"16:07:05"},{"task":"memory_phase","broad_category":"I","image_png":"I_Diorite_03.png","image_id":35,"category_name":"Diorite","category":3,"distinct_rating":3.14,"distinct_type":"Bottom","rt":null,"stimulus":"Stimuli_Rocks480/I_Diorite_03.png","response":null,"trial_type":"image-keyboard-response","trial_index":14,"plugin_version":"2.1.0","time_elapsed":3322033,"subject_id":"91558","group":"Group1","condition":"1_Rep","full_date":"2026-02-10T16:07:05.745Z","date":"2026-02-10","time":"16:07:05"},{"rt":null,"stimulus":"<p style=\"font-size: 50px; margin: 0; text-align: center;\">+</p>","response":null,"trial_type":"html-keyboard-response","trial_index":15,"plugin_version":"2.1.0","time_elapsed":3323035,"subject_id":"91558","group":"Group1","condition":"1_Rep","full_date":"2026-02-10T16:07:05.745Z","date":"2026-02-10","time":"16:07:05"},{"task":"memory_phase","broad_category":"M","image_png":"M_Phyllite_03.png","image_id":259,"category_name":"Phyllite","category":17,"distinct_rating":2.5,"distinct_type":"Bottom","rt":null,"stimulus":"Stimuli_Rocks480/M_Phyllite_03.png","response":null,"trial_type":"image-keyboard-response","trial_index":16,"plugin_version":"2.1.0","time_elapsed":3325538,"subject_id":"91558","group":"Group1","condition":"1_Rep","full_date":"2026-02-10T16:07:05.745Z","date":"2026-02-10","time":"16:07:05"},{"rt":null,"stimulus":"<p style=\"font-size: 50px; margin: 0; text-align: center;\">+</p>","response":null,"trial_type":"html-keyboard-response","trial_index":17,"plugin_version":"2.1.0","time_elapsed":3326541,"subject_id":"91558","group":"Group1","condition":"1_Rep","full_date":"2026-02-10T16:07:05.745Z","date":"2026-02-10","time":"16:07:05"},{"task":"memory_phase","broad_category":"I","image_png":"I_Andesite_06.png","image_id":6,"category_name":"Andesite","category":1,"distinct_rating":3.17,"distinct_type":"Bottom","rt":null,"stimulus":"Stimuli_Rocks480/I_Andesite_06.png","response":null,"trial_type":"image-keyboard-response","trial_index":18,"plugin_version":"2.1.0","time_elapsed":3329044,"subject_id":"91558","group":"Group1","condition":"1_Rep","full_date":"2026-02-10T16:07:05.745Z","date":"2026-02-10","time":"16:07:05"},{"rt":null,"stimulus":"<p style=\"font-size: 50px; margin: 0; text-align: center;\">+</p>","response":null,"trial_type":"html-keyboard-response","trial_index":19,"plugin_version":"2.1.0","time_elapsed":3330046,"subject_id":"91558","group":"Group1","condition":"1_Rep","full_date":"2026-02-10T16:07:05.745Z","date":"2026-02-10","time":"16:07:05"},{"task":"memory_phase","broad_category":"S","image_png":"S_Dolomite_12.png","image_id":396,"category_name":"Dolomite","category":25,"distinct_rating":1.85,"distinct_type":"Bottom","rt":null,"stimulus":"Stimuli_Rocks480/S_Dolomite_12.png","response":null,"trial_type":"image-keyboard-response","trial_index":20,"plugin_version":"2.1.0","time_elapsed":3332549,"subject_id":"91558","group":"Group1","condition":"1_Rep","full_date":"2026-02-10T16:07:05.745Z","date":"2026-02-10","time":"16:07:05"},{"rt":null,"stimulus":"<p style=\"font-size: 50px; margin: 0; text-align: center;\">+</p>","response":null,"trial_type":"html-keyboard-response","trial_index":21,"plugin_version":"2.1.0","time_elapsed":3333552,"subject_id":"91558","group":"Group1","condition":"1_Rep","full_date":"2026-02-10T16:07:05.745Z","date":"2026-02-10","time":"16:07:05"},{"task":"memory_phase","broad_category":"S","image_png":"S_Shale_01.png","image_id":465,"category_name":"Shale","category":30,"distinct_rating":2.7,"distinct_type":"Bottom","rt":null,"stimulus":"Stimuli_Rocks480/S_Shale_01.png","response":null,"trial_type":"image-keyboard-response","trial_index":22,"plugin_version":"2.1.0","time_elapsed":3336054,"subject_id":"91558","group":"Group1","condition":"1_Rep","full_date":"2026-02-10T16:07:05.745Z","date":"2026-02-10","time":"16:07:05"},{"rt":null,"stimulus":"<p style=\"font-size: 50px; margin: 0; text-align: center;\">+</p>","response":null,"trial_type":"html-keyboard-response","trial_index":23,"plugin_version":"2.1.0","time_elapsed":3337057,"subject_id":"91558","group":"Group1","condition":"1_Rep","full_date":"2026-02-10T16:07:05.745Z","date":"2026-02-10","time":"16:07:05"},{"task":"memory_phase","broad_category":"S","image_png":"S_Rock Salt_01.png","image_id":433,"category_name":"Rock Salt","category":28,"distinct_rating":7.18,"distinct_type":"Top","rt":null,"stimulus":"Stimuli_Rocks480/S_Rock Salt_01.png","response":null,"trial_type":"image-keyboard-response","trial_index":24,"plugin_version":"2.1.0","time_elapsed":3339560,"subject_id":"91558","group":"Group1","condition":"1_Rep","full_date":"2026-02-10T16:07:05.745Z","date":"2026-02-10","time":"16:07:05"},{"rt":null,"stimulus":"<p style=\"font-size: 50px; margin: 0; text-align: center;\">+</p>","response":null,"trial_type":"html-keyboard-response","trial_index":25,"plugin_version":"2.1.0","time_elapsed":3340562,"subject_id":"91558","group":"Group1","condition":"1_Rep","full_date":"2026-02-10T16:07:05.745Z","date":"2026-02-10","time":"16:07:05"},{"task":"memory_phase","broad_category":"M","image_png":"M_Quartzite_05.png","image_id":277,"category_name":"Quartzite","category":18,"distinct_rating":2.23,"distinct_type":"Bottom","rt":null,"stimulus":"Stimuli_Rocks480/M_Quartzite_05.png","response":null,"trial_type":"image-keyboard-response","trial_index":26,"plugin_version":"2.1.0","time_elapsed":3343064,"subject_id":"91558","group":"Group1","condition":"1_Rep","full_date":"2026-02-10T16:07:05.745Z","date":"2026-02-10","time":"16:07:05"},{"rt":null,"stimulus":"<p style=\"font-size: 50px; margin: 0; text-align: center;\">+</p>","response":null,"trial_type":"html-keyboard-response","trial_index":27,"plugin_version":"2.1.0","time_elapsed":3344066,"subject_id":"91558","group":"Group1","condition":"1_Rep","full_date":"2026-02-10T16:07:05.745Z","date":"2026-02-10","time":"16:07:05"},{"task":"memory_phase","broad_category":"S","image_png":"S_Shale_08.png","image_id":472,"category_name":"Shale","category":30,"distinct_rating":2.55,"distinct_type":"Bottom","rt":null,"stimulus":"Stimuli_Rocks480/S_Shale_08.png","response":null,"trial_type":"image-keyboard-response","trial_index":28,"plugin_version":"2.1.0","time_elapsed":3346569,"subject_id":"91558","group":"Group1","condition":"1_Rep","full_date":"2026-02-10T16:07:05.745Z","date":"2026-02-10","time":"16:07:05"},{"rt":null,"stimulus":"<p style=\"font-size: 50px; margin: 0; text-align: center;\">+</p>","response":null,"trial_type":"html-keyboard-response","trial_index":29,"plugin_version":"2.1.0","time_elapsed":3347572,"subject_id":"91558","group":"Group1","condition":"1_Rep","full_date":"2026-02-10T16:07:05.745Z","date":"2026-02-10","time":"16:07:05"},{"task":"memory_phase","broad_category":"M","image_png":"M_Gneiss_05.png","image_id":197,"category_name":"Gneiss","category":13,"distinct_rating":2.97,"distinct_type":"Bottom","rt":null,"stimulus":"Stimuli_Rocks480/M_Gneiss_05.png","response":null,"trial_type":"image-keyboard-response","trial_index":30,"plugin_version":"2.1.0","time_elapsed":3350074,"subject_id":"91558","group":"Group1","condition":"1_Rep","full_date":"2026-02-10T16:07:05.745Z","date":"2026-02-10","time":"16:07:05"},{"rt":null,"stimulus":"<p style=\"font-size: 50px; margin: 0; text-align: center;\">+</p>","response":null,"trial_type":"html-keyboard-response","trial_index":31,"plugin_version":"2.1.0","time_elapsed":3351077,"subject_id":"91558","group":"Group1","condition":"1_Rep","full_date":"2026-02-10T16:07:05.745Z","date":"2026-02-10","time":"16:07:05"},{"task":"memory_phase","broad_category":"M","image_png":"M_Marble_06.png","image_id":230,"category_name":"Marble","category":15,"distinct_rating":3.4,"distinct_type":"Bottom","rt":null,"stimulus":"Stimuli_Rocks480/M_Marble_06.png","response":null,"trial_type":"image-keyboard-response","trial_index":32,"plugin_version":"2.1.0","time_elapsed":3353579,"subject_id":"91558","group":"Group1","condition":"1_Rep","full_date":"2026-02-10T16:07:05.745Z","date":"2026-02-10","time":"16:07:05"},{"rt":null,"stimulus":"<p style=\"font-size: 50px; margin: 0; text-align: center;\">+</p>","response":null,"trial_type":"html-keyboard-response","trial_index":33,"plugin_version":"2.1.0","time_elapsed":3354582,"subject_id":"91558","group":"Group1","condition":"1_Rep","full_date":"2026-02-10T16:07:05.745Z","date":"2026-02-10","time":"16:07:05"},{"task":"memory_phase","broad_category":"M","image_png":"M_Quartzite_13.png","image_id":285,"category_name":"Quartzite","category":18,"distinct_rating":2.27,"distinct_type":"Bottom","rt":null,"stimulus":"Stimuli_Rocks480/M_Quartzite_13.png","response":null,"trial_type":"image-keyboard-response","trial_index":34,"plugin_version":"2.1.0","time_elapsed":3357084,"subject_id":"91558","group":"Group1","condition":"1_Rep","full_date":"2026-02-10T16:07:05.745Z","date":"2026-02-10","time":"16:07:05"},{"rt":null,"stimulus":"<p style=\"font-size: 50px; margin: 0; text-align: center;\">+</p>","response":null,"trial_type":"html-keyboard-response","trial_index":35,"plugin_version":"2.1.0","time_elapsed":3358087,"subject_id":"91558","group":"Group1","condition":"1_Rep","full_date":"2026-02-10T16:07:05.745Z","date":"2026-02-10","time":"16:07:05"},{"task":"memory_phase","broad_category":"I","image_png":"I_Rhyolite_16.png","image_id":160,"category_name":"Rhyolite","category":10,"distinct_rating":2.19,"distinct_type":"Bottom","rt":null,"stimulus":"Stimuli_Rocks480/I_Rhyolite_16.png","response":null,"trial_type":"image-keyboard-response","trial_index":36,"plugin_version":"2.1.0","time_elapsed":3360589,"subject_id":"91558","group":"Group1","condition":"1_Rep","full_date":"2026-02-10T16:07:05.745Z","date":"2026-02-10","time":"16:07:05"},{"rt":null,"stimulus":"<p style=\"font-size: 50px; margin: 0; text-align: center;\">+</p>","response":null,"trial_type":"html-keyboard-response","trial_index":37,"plugin_version":"2.1.0","time_elapsed":3361592,"subject_id":"91558","group":"Group1","condition":"1_Rep","full_date":"2026-02-10T16:07:05.745Z","date":"2026-02-10","time":"16:07:05"},{"task":"memory_phase","broad_category":"M","image_png":"M_Marble_16.png","image_id":240,"category_name":"Marble","category":15,"distinct_rating":2.57,"distinct_type":"Bottom","rt":null,"stimulus":"Stimuli_Rocks480/M_Marble_16.png","response":null,"trial_type":"image-keyboard-response","trial_index":38,"plugin_version":"2.1.0","time_elapsed":3364095,"subject_id":"91558","group":"Group1","condition":"1_Rep","full_date":"2026-02-10T16:07:05.745Z","date":"2026-02-10","time":"16:07:05"},{"rt":null,"stimulus":"<p style=\"font-size: 50px; margin: 0; text-align: center;\">+</p>","response":null,"trial_type":"html-keyboard-response","trial_index":39,"plugin_version":"2.1.0","time_elapsed":3365097,"subject_id":"91558","group":"Group1","condition":"1_Rep","full_date":"2026-02-10T16:07:05.745Z","date":"2026-02-10","time":"16:07:05"},{"task":"memory_phase","broad_category":"I","image_png":"I_Andesite_08.png","image_id":8,"category_name":"Andesite","category":1,"distinct_rating":1.95,"distinct_type":"Bottom","rt":null,"stimulus":"Stimuli_Rocks480/I_Andesite_08.png","response":null,"trial_type":"image-keyboard-response","trial_index":40,"plugin_version":"2.1.0","time_elapsed":3367600,"subject_id":"91558","group":"Group1","condition":"1_Rep","full_date":"2026-02-10T16:07:05.745Z","date":"2026-02-10","time":"16:07:05"},{"rt":null,"stimulus":"<p style=\"font-size: 50px; margin: 0; text-align: center;\">+</p>","response":null,"trial_type":"html-keyboard-response","trial_index":41,"plugin_version":"2.1.0","time_elapsed":3368602,"subject_id":"91558","group":"Group1","condition":"1_Rep","full_date":"2026-02-10T16:07:05.745Z","date":"2026-02-10","time":"16:07:05"},{"task":"memory_phase","broad_category":"I","image_png":"I_Pumice_12.png","image_id":140,"category_name":"Pumice","category":9,"distinct_rating":2.97,"distinct_type":"Bottom","rt":null,"stimulus":"Stimuli_Rocks480/I_Pumice_12.png","response":null,"trial_type":"image-keyboard-response","trial_index":42,"plugin_version":"2.1.0","time_elapsed":3371104,"subject_id":"91558","group":"Group1","condition":"1_Rep","full_date":"2026-02-10T16:07:05.745Z","date":"2026-02-10","time":"16:07:05"},{"rt":null,"stimulus":"<p style=\"font-size: 50px; margin: 0; text-align: center;\">+</p>","response":null,"trial_type":"html-keyboard-response","trial_index":43,"plugin_version":"2.1.0","time_elapsed":3372106,"subject_id":"91558","group":"Group1","condition":"1_Rep","full_date":"2026-02-10T16:07:05.745Z","date":"2026-02-10","time":"16:07:05"},{"task":"memory_phase","broad_category":"M","image_png":"M_Slate_11.png","image_id":315,"category_name":"Slate","category":20,"distinct_rating":2.75,"distinct_type":"Bottom","rt":null,"stimulus":"Stimuli_Rocks480/M_Slate_11.png","response":null,"trial_type":"image-keyboard-response","trial_index":44,"plugin_version":"2.1.0","time_elapsed":3374609,"subject_id":"91558","group":"Group1","condition":"1_Rep","full_date":"2026-02-10T16:07:05.745Z","date":"2026-02-10","time":"16:07:05"},{"rt":null,"stimulus":"<p style=\"font-size: 50px; margin: 0; text-align: center;\">+</p>","response":null,"trial_type":"html-keyboard-response","trial_index":45,"plugin_version":"2.1.0","time_elapsed":3375611,"subject_id":"91558","group":"Group1","condition":"1_Rep","full_date":"2026-02-10T16:07:05.745Z","date":"2026-02-10","time":"16:07:05"},{"task":"memory_phase","broad_category":"S","image_png":"S_Chert_10.png","image_id":362,"category_name":"Chert","category":23,"distinct_rating":7.17,"distinct_type":"Top","rt":null,"stimulus":"Stimuli_Rocks480/S_Chert_10.png","response":null,"trial_type":"image-keyboard-response","trial_index":46,"plugin_version":"2.1.0","time_elapsed":3378113,"subject_id":"91558","group":"Group1","condition":"1_Rep","full_date":"2026-02-10T16:07:05.745Z","date":"2026-02-10","time":"16:07:05"},{"rt":null,"stimulus":"<p style=\"font-size: 50px; margin: 0; text-align: center;\">+</p>","response":null,"trial_type":"html-keyboard-response","trial_index":47,"plugin_version":"2.1.0","time_elapsed":3379115,"subject_id":"91558","group":"Group1","condition":"1_Rep","full_date":"2026-02-10T16:07:05.745Z","date":"2026-02-10","time":"16:07:05"},{"task":"memory_phase","broad_category":"S","image_png":"S_Conglomerate_05.png","image_id":373,"category_name":"Conglomerate","category":24,"distinct_rating":7.32,"distinct_type":"Top","rt":null,"stimulus":"Stimuli_Rocks480/S_Conglomerate_05.png","response":null,"trial_type":"image-keyboard-response","trial_index":48,"plugin_version":"2.1.0","time_elapsed":3381618,"subject_id":"91558","group":"Group1","condition":"1_Rep","full_date":"2026-02-10T16:07:05.745Z","date":"2026-02-10","time":"16:07:05"},{"rt":null,"stimulus":"<p style=\"font-size: 50px; margin: 0; text-align: center;\">+</p>","response":null,"trial_type":"html-keyboard-response","trial_index":49,"plugin_version":"2.1.0","time_elapsed":3382620,"subject_id":"91558","group":"Group1","condition":"1_Rep","full_date":"2026-02-10T16:07:05.745Z","date":"2026-02-10","time":"16:07:05"},{"task":"memory_phase","broad_category":"I","image_png":"I_Andesite_10.png","image_id":10,"category_name":"Andesite","category":1,"distinct_rating":3.15,"distinct_type":"Bottom","rt":null,"stimulus":"Stimuli_Rocks480/I_Andesite_10.png","response":null,"trial_type":"image-keyboard-response","trial_index":50,"plugin_version":"2.1.0","time_elapsed":3385122,"subject_id":"91558","group":"Group1","condition":"1_Rep","full_date":"2026-02-10T16:07:05.745Z","date":"2026-02-10","time":"16:07:05"},{"rt":null,"stimulus":"<p style=\"font-size: 50px; margin: 0; text-align: center;\">+</p>","response":null,"trial_type":"html-keyboard-response","trial_index":51,"plugin_version":"2.1.0","time_elapsed":3386124,"subject_id":"91558","group":"Group1","condition":"1_Rep","full_date":"2026-02-10T16:07:05.745Z","date":"2026-02-10","time":"16:07:05"},{"task":"memory_phase","broad_category":"I","image_png":"I_Obsidian_05.png","image_id":85,"category_name":"Obsidian","category":6,"distinct_rating":7.32,"distinct_type":"Top","rt":null,"stimulus":"Stimuli_Rocks480/I_Obsidian_05.png","response":null,"trial_type":"image-keyboard-response","trial_index":52,"plugin_version":"2.1.0","time_elapsed":3388627,"subject_id":"91558","group":"Group1","condition":"1_Rep","full_date":"2026-02-10T16:07:05.745Z","date":"2026-02-10","time":"16:07:05"},{"rt":null,"stimulus":"<p style=\"font-size: 50px; margin: 0; text-align: center;\">+</p>","response":null,"trial_type":"html-keyboard-response","trial_index":53,"plugin_version":"2.1.0","time_elapsed":3389629,"subject_id":"91558","group":"Group1","condition":"1_Rep","full_date":"2026-02-10T16:07:05.745Z","date":"2026-02-10","time":"16:07:05"},{"task":"memory_phase","broad_category":"I","image_png":"I_Gabbro_11.png","image_id":59,"category_name":"Gabbro","category":4,"distinct_rating":1.99,"distinct_type":"Bottom","rt":null,"stimulus":"Stimuli_Rocks480/I_Gabbro_11.png","response":null,"trial_type":"image-keyboard-response","trial_index":54,"plugin_version":"2.1.0","time_elapsed":3392131,"subject_id":"91558","group":"Group1","condition":"1_Rep","full_date":"2026-02-10T16:07:05.745Z","date":"2026-02-10","time":"16:07:05"},{"rt":1900,"stimulus":"<p style=\"max-width: 760px; margin: auto; font-size: 35px; line-height: 1.5;\">\n                Press SPACE to continue study phase\n              </p>","response":" ","trial_type":"html-keyboard-response","trial_index":55,"plugin_version":"2.1.0","time_elapsed":3394033,"subject_id":"91558","group":"Group1","condition":"1_Rep","full_date":"2026-02-10T16:07:05.745Z","date":"2026-02-10","time":"16:07:05"},{"rt":null,"stimulus":"<p style=\"font-size: 50px; margin: 0; text-align: center;\">+</p>","response":null,"trial_type":"html-keyboard-response","trial_index":56,"plugin_version":"2.1.0","time_elapsed":3395035,"subject_id":"91558","group":"Group1","condition":"1_Rep","full_date":"2026-02-10T16:07:05.745Z","date":"2026-02-10","time":"16:07:05"},{"task":"memory_phase","broad_category":"S","image_png":"S_Sandstone_16.png","image_id":464,"category_name":"Sandstone","category":29,"distinct_rating":1.93,"distinct_type":"Bottom","rt":null,"stimulus":"Stimuli_Rocks480/S_Sandstone_16.png","response":null,"trial_type":"image-keyboard-response","trial_index":57,"plugin_version":"2.1.0","time_elapsed":3397538,"subject_id":"91558","group":"Group1","condition":"1_Rep","full_date":"2026-02-10T16:07:05.745Z","date":"2026-02-10","time":"16:07:05"},{"rt":null,"stimulus":"<p style=\"font-size: 50px; margin: 0; text-align: center;\">+</p>","response":null,"trial_type":"html-keyboard-response","trial_index":58,"plugin_version":"2.1.0","time_elapsed":3398540,"subject_id":"91558","group":"Group1","condition":"1_Rep","full_date":"2026-02-10T16:07:05.745Z","date":"2026-02-10","time":"16:07:05"},{"task":"memory_phase","broad_category":"I","image_png":"I_Rhyolite_11.png","image_id":155,"category_name":"Rhyolite","category":10,"distinct_rating":1.73,"distinct_type":"Bottom","rt":null,"stimulus":"Stimuli_Rocks480/I_Rhyolite_11.png","response":null,"trial_type":"image-keyboard-response","trial_index":59,"plugin_version":"2.1.0","time_elapsed":3401043,"subject_id":"91558","group":"Group1","condition":"1_Rep","full_date":"2026-02-10T16:07:05.745Z","date":"2026-02-10","time":"16:07:05"},{"rt":null,"stimulus":"<p style=\"font-size: 50px; margin: 0; text-align: center;\">+</p>","response":null,"trial_type":"html-keyboard-response","trial_index":60,"plugin_version":"2.1.0","time_elapsed":3402045,"subject_id":"91558","group":"Group1","condition":"1_Rep","full_date":"2026-02-10T16:07:05.745Z","date":"2026-02-10","time":"16:07:05"},{"task":"memory_phase","broad_category":"S","image_png":"S_Sandstone_15.png","image_id":463,"category_name":"Sandstone","category":29,"distinct_rating":2,"distinct_type":"Bottom","rt":null,"stimulus":"Stimuli_Rocks480/S_Sandstone_15.png","response":null,"trial_type":"image-keyboard-response","trial_index":61,"plugin_version":"2.1.0","time_elapsed":3404547,"subject_id":"91558","group":"Group1","condition":"1_Rep","full_date":"2026-02-10T16:07:05.745Z","date":"2026-02-10","time":"16:07:05"},{"rt":null,"stimulus":"<p style=\"font-size: 50px; margin: 0; text-align: center;\">+</p>","response":null,"trial_type":"html-keyboard-response","trial_index":62,"plugin_version":"2.1.0","time_elapsed":3405549,"subject_id":"91558","group":"Group1","condition":"1_Rep","full_date":"2026-02-10T16:07:05.745Z","date":"2026-02-10","time":"16:07:05"},{"task":"memory_phase","broad_category":"I","image_png":"I_Basalt_01.png","image_id":17,"category_name":"Basalt","category":2,"distinct_rating":1.92,"distinct_type":"Bottom","rt":null,"stimulus":"Stimuli_Rocks480/I_Basalt_01.png","response":null,"trial_type":"image-keyboard-response","trial_index":63,"plugin_version":"2.1.0","time_elapsed":3408052,"subject_id":"91558","group":"Group1","condition":"1_Rep","full_date":"2026-02-10T16:07:05.745Z","date":"2026-02-10","time":"16:07:05"},{"rt":null,"stimulus":"<p style=\"font-size: 50px; margin: 0; text-align: center;\">+</p>","response":null,"trial_type":"html-keyboard-response","trial_index":64,"plugin_version":"2.1.0","time_elapsed":3409054,"subject_id":"91558","group":"Group1","condition":"1_Rep","full_date":"2026-02-10T16:07:05.745Z","date":"2026-02-10","time":"16:07:05"},{"task":"memory_phase","broad_category":"S","image_png":"S_Breccia_11.png","image_id":347,"category_name":"Breccia","category":22,"distinct_rating":6.7,"distinct_type":"Top","rt":null,"stimulus":"Stimuli_Rocks480/S_Breccia_11.png","response":null,"trial_type":"image-keyboard-response","trial_index":65,"plugin_version":"2.1.0","time_elapsed":3411557,"subject_id":"91558","group":"Group1","condition":"1_Rep","full_date":"2026-02-10T16:07:05.745Z","date":"2026-02-10","time":"16:07:05"},{"rt":null,"stimulus":"<p style=\"font-size: 50px; margin: 0; text-align: center;\">+</p>","response":null,"trial_type":"html-keyboard-response","trial_index":66,"plugin_version":"2.1.0","time_elapsed":3412559,"subject_id":"91558","group":"Group1","condition":"1_Rep","full_date":"2026-02-10T16:07:05.745Z","date":"2026-02-10","time":"16:07:05"},{"task":"memory_phase","broad_category":"M","image_png":"M_Quartzite_08.png","image_id":280,"category_name":"Quartzite","category":18,"distinct_rating":2.15,"distinct_type":"Bottom","rt":null,"stimulus":"Stimuli_Rocks480/M_Quartzite_08.png","response":null,"trial_type":"image-keyboard-response","trial_index":67,"plugin_version":"2.1.0","time_elapsed":3415062,"subject_id":"91558","group":"Group1","condition":"1_Rep","full_date":"2026-02-10T16:07:05.745Z","date":"2026-02-10","time":"16:07:05"},{"rt":null,"stimulus":"<p style=\"font-size: 50px; margin: 0; text-align: center;\">+</p>","response":null,"trial_type":"html-keyboard-response","trial_index":68,"plugin_version":"2.1.0","time_elapsed":3416064,"subject_id":"91558","group":"Group1","condition":"1_Rep","full_date":"2026-02-10T16:07:05.745Z","date":"2026-02-10","time":"16:07:05"},{"task":"memory_phase","broad_category":"I","image_png":"I_Diorite_05.png","image_id":37,"category_name":"Diorite","category":3,"distinct_rating":3.08,"distinct_type":"Bottom","rt":null,"stimulus":"Stimuli_Rocks480/I_Diorite_05.png","response":null,"trial_type":"image-keyboard-response","trial_index":69,"plugin_version":"2.1.0","time_elapsed":3418567,"subject_id":"91558","group":"Group1","condition":"1_Rep","full_date":"2026-02-10T16:07:05.745Z","date":"2026-02-10","time":"16:07:05"},{"rt":null,"stimulus":"<p style=\"font-size: 50px; margin: 0; text-align: center;\">+</p>","response":null,"trial_type":"html-keyboard-response","trial_index":70,"plugin_version":"2.1.0","time_elapsed":3419569,"subject_id":"91558","group":"Group1","condition":"1_Rep","full_date":"2026-02-10T16:07:05.745Z","date":"2026-02-10","time":"16:07:05"},{"task":"memory_phase","broad_category":"I","image_png":"I_Gabbro_16.png","image_id":64,"category_name":"Gabbro","category":4,"distinct_rating":2.52,"distinct_type":"Bottom","rt":null,"stimulus":"Stimuli_Rocks480/I_Gabbro_16.png","response":null,"trial_type":"image-keyboard-response","trial_index":71,"plugin_version":"2.1.0","time_elapsed":3422072,"subject_id":"91558","group":"Group1","condition":"1_Rep","full_date":"2026-02-10T16:07:05.745Z","date":"2026-02-10","time":"16:07:05"},{"rt":null,"stimulus":"<p style=\"font-size: 50px; margin: 0; text-align: center;\">+</p>","response":null,"trial_type":"html-keyboard-response","trial_index":72,"plugin_version":"2.1.0","time_elapsed":3423074,"subject_id":"91558","group":"Group1","condition":"1_Rep","full_date":"2026-02-10T16:07:05.745Z","date":"2026-02-10","time":"16:07:05"},{"task":"memory_phase","broad_category":"S","image_png":"S_Sandstone_03.png","image_id":451,"category_name":"Sandstone","category":29,"distinct_rating":1.86,"distinct_type":"Bottom","rt":null,"stimulus":"Stimuli_Rocks480/S_Sandstone_03.png","response":null,"trial_type":"image-keyboard-response","trial_index":73,"plugin_version":"2.1.0","time_elapsed":3425577,"subject_id":"91558","group":"Group1","condition":"1_Rep","full_date":"2026-02-10T16:07:05.745Z","date":"2026-02-10","time":"16:07:05"},{"rt":null,"stimulus":"<p style=\"font-size: 50px; margin: 0; text-align: center;\">+</p>","response":null,"trial_type":"html-keyboard-response","trial_index":74,"plugin_version":"2.1.0","time_elapsed":3426579,"subject_id":"91558","group":"Group1","condition":"1_Rep","full_date":"2026-02-10T16:07:05.745Z","date":"2026-02-10","time":"16:07:05"},{"task":"memory_phase","broad_category":"M","image_png":"M_Marble_04.png","image_id":228,"category_name":"Marble","category":15,"distinct_rating":3.15,"distinct_type":"Bottom","rt":null,"stimulus":"Stimuli_Rocks480/M_Marble_04.png","response":null,"trial_type":"image-keyboard-response","trial_index":75,"plugin_version":"2.1.0","time_elapsed":3429081,"subject_id":"91558","group":"Group1","condition":"1_Rep","full_date":"2026-02-10T16:07:05.745Z","date":"2026-02-10","time":"16:07:05"},{"rt":null,"stimulus":"<p style=\"font-size: 50px; margin: 0; text-align: center;\">+</p>","response":null,"trial_type":"html-keyboard-response","trial_index":76,"plugin_version":"2.1.0","time_elapsed":3430084,"subject_id":"91558","group":"Group1","condition":"1_Rep","full_date":"2026-02-10T16:07:05.745Z","date":"2026-02-10","time":"16:07:05"},{"task":"memory_phase","broad_category":"I","image_png":"I_Pumice_11.png","image_id":139,"category_name":"Pumice","category":9,"distinct_rating":1.74,"distinct_type":"Bottom","rt":null,"stimulus":"Stimuli_Rocks480/I_Pumice_11.png","response":null,"trial_type":"image-keyboard-response","trial_index":77,"plugin_version":"2.1.0","time_elapsed":3432587,"subject_id":"91558","group":"Group1","condition":"1_Rep","full_date":"2026-02-10T16:07:05.745Z","date":"2026-02-10","time":"16:07:05"},{"rt":null,"stimulus":"<p style=\"font-size: 50px; margin: 0; text-align: center;\">+</p>","response":null,"trial_type":"html-keyboard-response","trial_index":78,"plugin_version":"2.1.0","time_elapsed":3433589,"subject_id":"91558","group":"Group1","condition":"1_Rep","full_date":"2026-02-10T16:07:05.745Z","date":"2026-02-10","time":"16:07:05"},{"task":"memory_phase","broad_category":"M","image_png":"M_Gneiss_13.png","image_id":205,"category_name":"Gneiss","category":13,"distinct_rating":3.26,"distinct_type":"Bottom","rt":null,"stimulus":"Stimuli_Rocks480/M_Gneiss_13.png","response":null,"trial_type":"image-keyboard-response","trial_index":79,"plugin_version":"2.1.0","time_elapsed":3436091,"subject_id":"91558","group":"Group1","condition":"1_Rep","full_date":"2026-02-10T16:07:05.745Z","date":"2026-02-10","time":"16:07:05"},{"rt":null,"stimulus":"<p style=\"font-size: 50px; margin: 0; text-align: center;\">+</p>","response":null,"trial_type":"html-keyboard-response","trial_index":80,"plugin_version":"2.1.0","time_elapsed":3437093,"subject_id":"91558","group":"Group1","condition":"1_Rep","full_date":"2026-02-10T16:07:05.745Z","date":"2026-02-10","time":"16:07:05"},{"task":"memory_phase","broad_category":"I","image_png":"I_Pegmatite_16.png","image_id":112,"category_name":"Pegmatite","category":7,"distinct_rating":7.03,"distinct_type":"Top","rt":null,"stimulus":"Stimuli_Rocks480/I_Pegmatite_16.png","response":null,"trial_type":"image-keyboard-response","trial_index":81,"plugin_version":"2.1.0","time_elapsed":3439595,"subject_id":"91558","group":"Group1","condition":"1_Rep","full_date":"2026-02-10T16:07:05.745Z","date":"2026-02-10","time":"16:07:05"},{"rt":null,"stimulus":"<p style=\"font-size: 50px; margin: 0; text-align: center;\">+</p>","response":null,"trial_type":"html-keyboard-response","trial_index":82,"plugin_version":"2.1.0","time_elapsed":3440598,"subject_id":"91558","group":"Group1","condition":"1_Rep","full_date":"2026-02-10T16:07:05.745Z","date":"2026-02-10","time":"16:07:05"},{"task":"memory_phase","broad_category":"M","image_png":"M_Phyllite_07.png","image_id":263,"category_name":"Phyllite","category":17,"distinct_rating":2.59,"distinct_type":"Bottom","rt":null,"stimulus":"Stimuli_Rocks480/M_Phyllite_07.png","response":null,"trial_type":"image-keyboard-response","trial_index":83,"plugin_version":"2.1.0","time_elapsed":3443100,"subject_id":"91558","group":"Group1","condition":"1_Rep","full_date":"2026-02-10T16:07:05.745Z","date":"2026-02-10","time":"16:07:05"},{"rt":null,"stimulus":"<p style=\"font-size: 50px; margin: 0; text-align: center;\">+</p>","response":null,"trial_type":"html-keyboard-response","trial_index":84,"plugin_version":"2.1.0","time_elapsed":3444102,"subject_id":"91558","group":"Group1","condition":"1_Rep","full_date":"2026-02-10T16:07:05.745Z","date":"2026-02-10","time":"16:07:05"},{"task":"memory_phase","broad_category":"I","image_png":"I_Diorite_04.png","image_id":36,"category_name":"Diorite","category":3,"distinct_rating":2.98,"distinct_type":"Bottom","rt":null,"stimulus":"Stimuli_Rocks480/I_Diorite_04.png","response":null,"trial_type":"image-keyboard-response","trial_index":85,"plugin_version":"2.1.0","time_elapsed":3446605,"subject_id":"91558","group":"Group1","condition":"1_Rep","full_date":"2026-02-10T16:07:05.745Z","date":"2026-02-10","time":"16:07:05"},{"rt":null,"stimulus":"<p style=\"font-size: 50px; margin: 0; text-align: center;\">+</p>","response":null,"trial_type":"html-keyboard-response","trial_index":86,"plugin_version":"2.1.0","time_elapsed":3447613,"subject_id":"91558","group":"Group1","condition":"1_Rep","full_date":"2026-02-10T16:07:05.745Z","date":"2026-02-10","time":"16:07:05"},{"task":"memory_phase","broad_category":"I","image_png":"I_Basalt_02.png","image_id":18,"category_name":"Basalt","category":2,"distinct_rating":1.84,"distinct_type":"Bottom","rt":null,"stimulus":"Stimuli_Rocks480/I_Basalt_02.png","response":null,"trial_type":"image-keyboard-response","trial_index":87,"plugin_version":"2.1.0","time_elapsed":3450115,"subject_id":"91558","group":"Group1","condition":"1_Rep","full_date":"2026-02-10T16:07:05.745Z","date":"2026-02-10","time":"16:07:05"},{"rt":null,"stimulus":"<p style=\"font-size: 50px; margin: 0; text-align: center;\">+</p>","response":null,"trial_type":"html-keyboard-response","trial_index":88,"plugin_version":"2.1.0","time_elapsed":3451117,"subject_id":"91558","group":"Group1","condition":"1_Rep","full_date":"2026-02-10T16:07:05.745Z","date":"2026-02-10","time":"16:07:05"},{"task":"memory_phase","broad_category":"S","image_png":"S_Rock Gypsum_04.png","image_id":420,"category_name":"Rock Gypsum","category":27,"distinct_rating":7.61,"distinct_type":"Top","rt":null,"stimulus":"Stimuli_Rocks480/S_Rock Gypsum_04.png","response":null,"trial_type":"image-keyboard-response","trial_index":89,"plugin_version":"2.1.0","time_elapsed":3453620,"subject_id":"91558","group":"Group1","condition":"1_Rep","full_date":"2026-02-10T16:07:05.745Z","date":"2026-02-10","time":"16:07:05"},{"rt":null,"stimulus":"<p style=\"font-size: 50px; margin: 0; text-align: center;\">+</p>","response":null,"trial_type":"html-keyboard-response","trial_index":90,"plugin_version":"2.1.0","time_elapsed":3454622,"subject_id":"91558","group":"Group1","condition":"1_Rep","full_date":"2026-02-10T16:07:05.745Z","date":"2026-02-10","time":"16:07:05"},{"task":"memory_phase","broad_category":"I","image_png":"I_Rhyolite_14.png","image_id":158,"category_name":"Rhyolite","category":10,"distinct_rating":2.59,"distinct_type":"Bottom","rt":null,"stimulus":"Stimuli_Rocks480/I_Rhyolite_14.png","response":null,"trial_type":"image-keyboard-response","trial_index":91,"plugin_version":"2.1.0","time_elapsed":3457125,"subject_id":"91558","group":"Group1","condition":"1_Rep","full_date":"2026-02-10T16:07:05.745Z","date":"2026-02-10","time":"16:07:05"},{"rt":null,"stimulus":"<p style=\"font-size: 50px; margin: 0; text-align: center;\">+</p>","response":null,"trial_type":"html-keyboard-response","trial_index":92,"plugin_version":"2.1.0","time_elapsed":3458127,"subject_id":"91558","group":"Group1","condition":"1_Rep","full_date":"2026-02-10T16:07:05.745Z","date":"2026-02-10","time":"16:07:05"},{"task":"memory_phase","broad_category":"M","image_png":"M_Phyllite_10.png","image_id":266,"category_name":"Phyllite","category":17,"distinct_rating":2.6,"distinct_type":"Bottom","rt":null,"stimulus":"Stimuli_Rocks480/M_Phyllite_10.png","response":null,"trial_type":"image-keyboard-response","trial_index":93,"plugin_version":"2.1.0","time_elapsed":3460630,"subject_id":"91558","group":"Group1","condition":"1_Rep","full_date":"2026-02-10T16:07:05.745Z","date":"2026-02-10","time":"16:07:05"},{"rt":null,"stimulus":"<p style=\"font-size: 50px; margin: 0; text-align: center;\">+</p>","response":null,"trial_type":"html-keyboard-response","trial_index":94,"plugin_version":"2.1.0","time_elapsed":3461632,"subject_id":"91558","group":"Group1","condition":"1_Rep","full_date":"2026-02-10T16:07:05.745Z","date":"2026-02-10","time":"16:07:05"},{"task":"memory_phase","broad_category":"I","image_png":"I_Pegmatite_10.png","image_id":106,"category_name":"Pegmatite","category":7,"distinct_rating":7.66,"distinct_type":"Top","rt":null,"stimulus":"Stimuli_Rocks480/I_Pegmatite_10.png","response":null,"trial_type":"image-keyboard-response","trial_index":95,"plugin_version":"2.1.0","time_elapsed":3464135,"subject_id":"91558","group":"Group1","condition":"1_Rep","full_date":"2026-02-10T16:07:05.745Z","date":"2026-02-10","time":"16:07:05"},{"rt":null,"stimulus":"<p style=\"font-size: 50px; margin: 0; text-align: center;\">+</p>","response":null,"trial_type":"html-keyboard-response","trial_index":96,"plugin_version":"2.1.0","time_elapsed":3465138,"subject_id":"91558","group":"Group1","condition":"1_Rep","full_date":"2026-02-10T16:07:05.745Z","date":"2026-02-10","time":"16:07:05"},{"task":"memory_phase","broad_category":"I","image_png":"I_Gabbro_08.png","image_id":56,"category_name":"Gabbro","category":4,"distinct_rating":3.02,"distinct_type":"Bottom","rt":null,"stimulus":"Stimuli_Rocks480/I_Gabbro_08.png","response":null,"trial_type":"image-keyboard-response","trial_index":97,"plugin_version":"2.1.0","time_elapsed":3467640,"subject_id":"91558","group":"Group1","condition":"1_Rep","full_date":"2026-02-10T16:07:05.745Z","date":"2026-02-10","time":"16:07:05"},{"rt":null,"stimulus":"<p style=\"font-size: 50px; margin: 0; text-align: center;\">+</p>","response":null,"trial_type":"html-keyboard-response","trial_index":98,"plugin_version":"2.1.0","time_elapsed":3468643,"subject_id":"91558","group":"Group1","condition":"1_Rep","full_date":"2026-02-10T16:07:05.745Z","date":"2026-02-10","time":"16:07:05"},{"task":"memory_phase","broad_category":"M","image_png":"M_Slate_03.png","image_id":307,"category_name":"Slate","category":20,"distinct_rating":1.87,"distinct_type":"Bottom","rt":null,"stimulus":"Stimuli_Rocks480/M_Slate_03.png","response":null,"trial_type":"image-keyboard-response","trial_index":99,"plugin_version":"2.1.0","time_elapsed":3471146,"subject_id":"91558","group":"Group1","condition":"1_Rep","full_date":"2026-02-10T16:07:05.745Z","date":"2026-02-10","time":"16:07:05"},{"rt":null,"stimulus":"<p style=\"font-size: 50px; margin: 0; text-align: center;\">+</p>","response":null,"trial_type":"html-keyboard-response","trial_index":100,"plugin_version":"2.1.0","time_elapsed":3472148,"subject_id":"91558","group":"Group1","condition":"1_Rep","full_date":"2026-02-10T16:07:05.745Z","date":"2026-02-10","time":"16:07:05"},{"task":"memory_phase","broad_category":"I","image_png":"I_Basalt_09.png","image_id":25,"category_name":"Basalt","category":2,"distinct_rating":1.89,"distinct_type":"Bottom","rt":null,"stimulus":"Stimuli_Rocks480/I_Basalt_09.png","response":null,"trial_type":"image-keyboard-response","trial_index":101,"plugin_version":"2.1.0","time_elapsed":3474651,"subject_id":"91558","group":"Group1","condition":"1_Rep","full_date":"2026-02-10T16:07:05.745Z","date":"2026-02-10","time":"16:07:05"},{"rt":null,"stimulus":"<p style=\"font-size: 50px; margin: 0; text-align: center;\">+</p>","response":null,"trial_type":"html-keyboard-response","trial_index":102,"plugin_version":"2.1.0","time_elapsed":3475653,"subject_id":"91558","group":"Group1","condition":"1_Rep","full_date":"2026-02-10T16:07:05.745Z","date":"2026-02-10","time":"16:07:05"},{"task":"memory_phase","broad_category":"S","image_png":"S_Shale_12.png","image_id":476,"category_name":"Shale","category":30,"distinct_rating":2.48,"distinct_type":"Bottom","rt":null,"stimulus":"Stimuli_Rocks480/S_Shale_12.png","response":null,"trial_type":"image-keyboard-response","trial_index":103,"plugin_version":"2.1.0","time_elapsed":3478155,"subject_id":"91558","group":"Group1","condition":"1_Rep","full_date":"2026-02-10T16:07:05.745Z","date":"2026-02-10","time":"16:07:05"},{"rt":null,"stimulus":"<p style=\"font-size: 50px; margin: 0; text-align: center;\">+</p>","response":null,"trial_type":"html-keyboard-response","trial_index":104,"plugin_version":"2.1.0","time_elapsed":3479158,"subject_id":"91558","group":"Group1","condition":"1_Rep","full_date":"2026-02-10T16:07:05.745Z","date":"2026-02-10","time":"16:07:05"},{"task":"memory_phase","broad_category":"M","image_png":"M_Gneiss_06.png","image_id":198,"category_name":"Gneiss","category":13,"distinct_rating":2.65,"distinct_type":"Bottom","rt":null,"stimulus":"Stimuli_Rocks480/M_Gneiss_06.png","response":null,"trial_type":"image-keyboard-response","trial_index":105,"plugin_version":"2.1.0","time_elapsed":3481661,"subject_id":"91558","group":"Group1","condition":"1_Rep","full_date":"2026-02-10T16:07:05.745Z","date":"2026-02-10","time":"16:07:05"},{"rt":8450,"stimulus":"<div style=\"max-width: 760px; margin: auto; font-size: 20px; line-height: 1.5;\">\n      <h1 style=\"text-align:center; font-size: 30px;\">Instructions for the Test Phase</h1>\n      <p>\n        The study phase is now complete.\n      </p>\n      <p>\n        In the test phase, you will again see a series of rock images. \n        Some will be ones you saw before - during the study phase, while others will be new.  \n        <b>Your task</b> is to decide whether you have seen each image before by pressing the corresponding key on your keyboard:<br><br>\n          <b>A</b> - NO (you did not see this image before)<br>\n          <b>L</b> - YES (you saw this image before)<br><br>\n        The test will proceed at your own pace. You will receive feedback after each response.  \n        Please try to respond <b>as accurately as possible</b>.\n      </p>\n      <p>\n        <b>Reminder:</b> If your computer has multiple language settings (e.g., English and another language),\n        please ensure it is set to English during the test phase.\n      </p>\n      <p>\n        You can track your progress using the <b>completion bar</b> at the top of the screen.  \n        Note that it has been refreshed to reflect your progress during this final phase.\n      </p>\n      <p>\n        Press the button below when you are ready to continue.\n      </p>\n    </div>","response":0,"trial_type":"html-button-response","trial_index":106,"plugin_version":"2.1.0","time_elapsed":3490112,"subject_id":"91558","group":"Group1","condition":"1_Rep","full_date":"2026-02-10T16:07:05.745Z","date":"2026-02-10","time":"16:07:05"},{"correct_response":"l","task":"test_phase","broad_category":"S","image_png":"S_Sandstone_15.png","image_id":463,"category_name":"Sandstone","category":29,"distinct_rating":2,"distinct_type":"Bottom","item_type":"Target","rt":2853,"stimulus":"Stimuli_Rocks480/S_Sandstone_15.png","response":"a","trial_type":"image-keyboard-response","trial_index":107,"plugin_version":"2.1.0","time_elapsed":3492967,"subject_id":"91558","group":"Group1","condition":"1_Rep","full_date":"2026-02-10T16:07:05.745Z","date":"2026-02-10","time":"16:07:05","cor_ans":false},{"trial_type":"html-keyboard-response","rt":null,"stimulus":"<p style=\"color: red; font-size: 50px; font-weight: bold;\">Incorrect</p>","response":null,"trial_index":108,"plugin_version":"2.1.0","time_elapsed":3493469,"subject_id":"91558","group":"Group1","condition":"1_Rep","full_date":"2026-02-10T16:07:05.745Z","date":"2026-02-10","time":"16:07:05"},{"correct_response":"l","task":"test_phase","broad_category":"M","image_png":"M_Marble_06.png","image_id":230,"category_name":"Marble","category":15,"distinct_rating":3.4,"distinct_type":"Bottom","item_type":"Target","rt":2006,"stimulus":"Stimuli_Rocks480/M_Marble_06.png","response":"l","trial_type":"image-keyboard-response","trial_index":109,"plugin_version":"2.1.0","time_elapsed":3495476,"subject_id":"91558","group":"Group1","condition":"1_Rep","full_date":"2026-02-10T16:07:05.745Z","date":"2026-02-10","time":"16:07:05","cor_ans":true},{"trial_type":"html-keyboard-response","rt":null,"stimulus":"<p style=\"color: green; font-size: 50px; font-weight: bold;\">Correct</p>","response":null,"trial_index":110,"plugin_version":"2.1.0","time_elapsed":3495978,"subject_id":"91558","group":"Group1","condition":"1_Rep","full_date":"2026-02-10T16:07:05.745Z","date":"2026-02-10","time":"16:07:05"},{"correct_response":"l","task":"test_phase","broad_category":"I","image_png":"I_Diorite_04.png","image_id":36,"category_name":"Diorite","category":3,"distinct_rating":2.98,"distinct_type":"Bottom","item_type":"Target","rt":1289,"stimulus":"Stimuli_Rocks480/I_Diorite_04.png","response":"a","trial_type":"image-keyboard-response","trial_index":111,"plugin_version":"2.1.0","time_elapsed":3497269,"subject_id":"91558","group":"Group1","condition":"1_Rep","full_date":"2026-02-10T16:07:05.745Z","date":"2026-02-10","time":"16:07:05","cor_ans":false},{"trial_type":"html-keyboard-response","rt":null,"stimulus":"<p style=\"color: red; font-size: 50px; font-weight: bold;\">Incorrect</p>","response":null,"trial_index":112,"plugin_version":"2.1.0","time_elapsed":3497770,"subject_id":"91558","group":"Group1","condition":"1_Rep","full_date":"2026-02-10T16:07:05.745Z","date":"2026-02-10","time":"16:07:05"},{"correct_response":"a","task":"test_phase","broad_category":"S","image_png":"S_Chert_13.png","image_id":365,"category_name":"Chert","category":23,"distinct_rating":6.57,"distinct_type":"Top","item_type":"Foil","rt":2948,"stimulus":"Stimuli_Rocks480/S_Chert_13.png","response":"a","trial_type":"image-keyboard-response","trial_index":113,"plugin_version":"2.1.0","time_elapsed":3500719,"subject_id":"91558","group":"Group1","condition":"1_Rep","full_date":"2026-02-10T16:07:05.745Z","date":"2026-02-10","time":"16:07:05","cor_ans":true},{"trial_type":"html-keyboard-response","rt":null,"stimulus":"<p style=\"color: green; font-size: 50px; font-weight: bold;\">Correct</p>","response":null,"trial_index":114,"plugin_version":"2.1.0","time_elapsed":3501221,"subject_id":"91558","group":"Group1","condition":"1_Rep","full_date":"2026-02-10T16:07:05.745Z","date":"2026-02-10","time":"16:07:05"},{"correct_response":"l","task":"test_phase","broad_category":"I","image_png":"I_Gabbro_16.png","image_id":64,"category_name":"Gabbro","category":4,"distinct_rating":2.52,"distinct_type":"Bottom","item_type":"Target","rt":1353,"stimulus":"Stimuli_Rocks480/I_Gabbro_16.png","response":"a","trial_type":"image-keyboard-response","trial_index":115,"plugin_version":"2.1.0","time_elapsed":3502575,"subject_id":"91558","group":"Group1","condition":"1_Rep","full_date":"2026-02-10T16:07:05.745Z","date":"2026-02-10","time":"16:07:05","cor_ans":false},{"trial_type":"html-keyboard-response","rt":null,"stimulus":"<p style=\"color: red; font-size: 50px; font-weight: bold;\">Incorrect</p>","response":null,"trial_index":116,"plugin_version":"2.1.0","time_elapsed":3503076,"subject_id":"91558","group":"Group1","condition":"1_Rep","full_date":"2026-02-10T16:07:05.745Z","date":"2026-02-10","time":"16:07:05"},{"correct_response":"l","task":"test_phase","broad_category":"M","image_png":"M_Quartzite_05.png","image_id":277,"category_name":"Quartzite","category":18,"distinct_rating":2.23,"distinct_type":"Bottom","item_type":"Target","rt":1093,"stimulus":"Stimuli_Rocks480/M_Quartzite_05.png","response":"l","trial_type":"image-keyboard-response","trial_index":117,"plugin_version":"2.1.0","time_elapsed":3504170,"subject_id":"91558","group":"Group1","condition":"1_Rep","full_date":"2026-02-10T16:07:05.745Z","date":"2026-02-10","time":"16:07:05","cor_ans":true},{"trial_type":"html-keyboard-response","rt":null,"stimulus":"<p style=\"color: green; font-size: 50px; font-weight: bold;\">Correct</p>","response":null,"trial_index":118,"plugin_version":"2.1.0","time_elapsed":3504672,"subject_id":"91558","group":"Group1","condition":"1_Rep","full_date":"2026-02-10T16:07:05.745Z","date":"2026-02-10","time":"16:07:05"},{"correct_response":"a","task":"test_phase","broad_category":"S","image_png":"S_Sandstone_04.png","image_id":452,"category_name":"Sandstone","category":29,"distinct_rating":1.8,"distinct_type":"Bottom","item_type":"Foil","rt":1482,"stimulus":"Stimuli_Rocks480/S_Sandstone_04.png","response":"l","trial_type":"image-keyboard-response","trial_index":119,"plugin_version":"2.1.0","time_elapsed":3506155,"subject_id":"91558","group":"Group1","condition":"1_Rep","full_date":"2026-02-10T16:07:05.745Z","date":"2026-02-10","time":"16:07:05","cor_ans":false},{"trial_type":"html-keyboard-response","rt":null,"stimulus":"<p style=\"color: red; font-size: 50px; font-weight: bold;\">Incorrect</p>","response":null,"trial_index":120,"plugin_version":"2.1.0","time_elapsed":3506657,"subject_id":"91558","group":"Group1","condition":"1_Rep","full_date":"2026-02-10T16:07:05.745Z","date":"2026-02-10","time":"16:07:05"},{"correct_response":"a","task":"test_phase","broad_category":"M","image_png":"M_Quartzite_07.png","image_id":279,"category_name":"Quartzite","category":18,"distinct_rating":1.97,"distinct_type":"Bottom","item_type":"Foil","rt":1660,"stimulus":"Stimuli_Rocks480/M_Quartzite_07.png","response":"l","trial_type":"image-keyboard-response","trial_index":121,"plugin_version":"2.1.0","time_elapsed":3508319,"subject_id":"91558","group":"Group1","condition":"1_Rep","full_date":"2026-02-10T16:07:05.745Z","date":"2026-02-10","time":"16:07:05","cor_ans":false},{"trial_type":"html-keyboard-response","rt":null,"stimulus":"<p style=\"color: red; font-size: 50px; font-weight: bold;\">Incorrect</p>","response":null,"trial_index":122,"plugin_version":"2.1.0","time_elapsed":3508820,"subject_id":"91558","group":"Group1","condition":"1_Rep","full_date":"2026-02-10T16:07:05.745Z","date":"2026-02-10","time":"16:07:05"},{"correct_response":"l","task":"test_phase","broad_category":"S","image_png":"S_Sandstone_03.png","image_id":451,"category_name":"Sandstone","category":29,"distinct_rating":1.86,"distinct_type":"Bottom","item_type":"Target","rt":702,"stimulus":"Stimuli_Rocks480/S_Sandstone_03.png","response":"l","trial_type":"image-keyboard-response","trial_index":123,"plugin_version":"2.1.0","time_elapsed":3509522,"subject_id":"91558","group":"Group1","condition":"1_Rep","full_date":"2026-02-10T16:07:05.745Z","date":"2026-02-10","time":"16:07:05","cor_ans":true},{"trial_type":"html-keyboard-response","rt":null,"stimulus":"<p style=\"color: green; font-size: 50px; font-weight: bold;\">Correct</p>","response":null,"trial_index":124,"plugin_version":"2.1.0","time_elapsed":3510024,"subject_id":"91558","group":"Group1","condition":"1_Rep","full_date":"2026-02-10T16:07:05.745Z","date":"2026-02-10","time":"16:07:05"},{"correct_response":"l","task":"test_phase","broad_category":"S","image_png":"S_Dolomite_13.png","image_id":397,"category_name":"Dolomite","category":25,"distinct_rating":1.77,"distinct_type":"Bottom","item_type":"Target","rt":1041,"stimulus":"Stimuli_Rocks480/S_Dolomite_13.png","response":"l","trial_type":"image-keyboard-response","trial_index":125,"plugin_version":"2.1.0","time_elapsed":3511066,"subject_id":"91558","group":"Group1","condition":"1_Rep","full_date":"2026-02-10T16:07:05.745Z","date":"2026-02-10","time":"16:07:05","cor_ans":true},{"trial_type":"html-keyboard-response","rt":null,"stimulus":"<p style=\"color: green; font-size: 50px; font-weight: bold;\">Correct</p>","response":null,"trial_index":126,"plugin_version":"2.1.0","time_elapsed":3511567,"subject_id":"91558","group":"Group1","condition":"1_Rep","full_date":"2026-02-10T16:07:05.745Z","date":"2026-02-10","time":"16:07:05"},{"correct_response":"l","task":"test_phase","broad_category":"S","image_png":"S_Shale_01.png","image_id":465,"category_name":"Shale","category":30,"distinct_rating":2.7,"distinct_type":"Bottom","item_type":"Target","rt":780,"stimulus":"Stimuli_Rocks480/S_Shale_01.png","response":"a","trial_type":"image-keyboard-response","trial_index":127,"plugin_version":"2.1.0","time_elapsed":3512348,"subject_id":"91558","group":"Group1","condition":"1_Rep","full_date":"2026-02-10T16:07:05.745Z","date":"2026-02-10","time":"16:07:05","cor_ans":false},{"trial_type":"html-keyboard-response","rt":null,"stimulus":"<p style=\"color: red; font-size: 50px; font-weight: bold;\">Incorrect</p>","response":null,"trial_index":128,"plugin_version":"2.1.0","time_elapsed":3512849,"subject_id":"91558","group":"Group1","condition":"1_Rep","full_date":"2026-02-10T16:07:05.745Z","date":"2026-02-10","time":"16:07:05"},{"correct_response":"a","task":"test_phase","broad_category":"S","image_png":"S_Rock Salt_15.png","image_id":447,"category_name":"Rock Salt","category":28,"distinct_rating":7.79,"distinct_type":"Top","item_type":"Foil","rt":1309,"stimulus":"Stimuli_Rocks480/S_Rock Salt_15.png","response":"a","trial_type":"image-keyboard-response","trial_index":129,"plugin_version":"2.1.0","time_elapsed":3514159,"subject_id":"91558","group":"Group1","condition":"1_Rep","full_date":"2026-02-10T16:07:05.745Z","date":"2026-02-10","time":"16:07:05","cor_ans":true},{"trial_type":"html-keyboard-response","rt":null,"stimulus":"<p style=\"color: green; font-size: 50px; font-weight: bold;\">Correct</p>","response":null,"trial_index":130,"plugin_version":"2.1.0","time_elapsed":3514661,"subject_id":"91558","group":"Group1","condition":"1_Rep","full_date":"2026-02-10T16:07:05.745Z","date":"2026-02-10","time":"16:07:05"},{"correct_response":"a","task":"test_phase","broad_category":"I","image_png":"I_Gabbro_12.png","image_id":60,"category_name":"Gabbro","category":4,"distinct_rating":2.6,"distinct_type":"Bottom","item_type":"Foil","rt":1105,"stimulus":"Stimuli_Rocks480/I_Gabbro_12.png","response":"l","trial_type":"image-keyboard-response","trial_index":131,"plugin_version":"2.1.0","time_elapsed":3515767,"subject_id":"91558","group":"Group1","condition":"1_Rep","full_date":"2026-02-10T16:07:05.745Z","date":"2026-02-10","time":"16:07:05","cor_ans":false},{"trial_type":"html-keyboard-response","rt":null,"stimulus":"<p style=\"color: red; font-size: 50px; font-weight: bold;\">Incorrect</p>","response":null,"trial_index":132,"plugin_version":"2.1.0","time_elapsed":3516268,"subject_id":"91558","group":"Group1","condition":"1_Rep","full_date":"2026-02-10T16:07:05.745Z","date":"2026-02-10","time":"16:07:05"},{"correct_response":"l","task":"test_phase","broad_category":"M","image_png":"M_Gneiss_06.png","image_id":198,"category_name":"Gneiss","category":13,"distinct_rating":2.65,"distinct_type":"Bottom","item_type":"Target","rt":1964,"stimulus":"Stimuli_Rocks480/M_Gneiss_06.png","response":"a","trial_type":"image-keyboard-response","trial_index":133,"plugin_version":"2.1.0","time_elapsed":3518234,"subject_id":"91558","group":"Group1","condition":"1_Rep","full_date":"2026-02-10T16:07:05.745Z","date":"2026-02-10","time":"16:07:05","cor_ans":false},{"trial_type":"html-keyboard-response","rt":null,"stimulus":"<p style=\"color: red; font-size: 50px; font-weight: bold;\">Incorrect</p>","response":null,"trial_index":134,"plugin_version":"2.1.0","time_elapsed":3518735,"subject_id":"91558","group":"Group1","condition":"1_Rep","full_date":"2026-02-10T16:07:05.745Z","date":"2026-02-10","time":"16:07:05"},{"correct_response":"a","task":"test_phase","broad_category":"M","image_png":"M_Slate_14.png","image_id":318,"category_name":"Slate","category":20,"distinct_rating":2.58,"distinct_type":"Bottom","item_type":"Foil","rt":2021,"stimulus":"Stimuli_Rocks480/M_Slate_14.png","response":"l","trial_type":"image-keyboard-response","trial_index":135,"plugin_version":"2.1.0","time_elapsed":3520757,"subject_id":"91558","group":"Group1","condition":"1_Rep","full_date":"2026-02-10T16:07:05.745Z","date":"2026-02-10","time":"16:07:05","cor_ans":false},{"trial_type":"html-keyboard-response","rt":null,"stimulus":"<p style=\"color: red; font-size: 50px; font-weight: bold;\">Incorrect</p>","response":null,"trial_index":136,"plugin_version":"2.1.0","time_elapsed":3521258,"subject_id":"91558","group":"Group1","condition":"1_Rep","full_date":"2026-02-10T16:07:05.745Z","date":"2026-02-10","time":"16:07:05"},{"correct_response":"l","task":"test_phase","broad_category":"I","image_png":"I_Pumice_11.png","image_id":139,"category_name":"Pumice","category":9,"distinct_rating":1.74,"distinct_type":"Bottom","item_type":"Target","rt":724,"stimulus":"Stimuli_Rocks480/I_Pumice_11.png","response":"l","trial_type":"image-keyboard-response","trial_index":137,"plugin_version":"2.1.0","time_elapsed":3521984,"subject_id":"91558","group":"Group1","condition":"1_Rep","full_date":"2026-02-10T16:07:05.745Z","date":"2026-02-10","time":"16:07:05","cor_ans":true},{"trial_type":"html-keyboard-response","rt":null,"stimulus":"<p style=\"color: green; font-size: 50px; font-weight: bold;\">Correct</p>","response":null,"trial_index":138,"plugin_version":"2.1.0","time_elapsed":3522485,"subject_id":"91558","group":"Group1","condition":"1_Rep","full_date":"2026-02-10T16:07:05.745Z","date":"2026-02-10","time":"16:07:05"},{"correct_response":"a","task":"test_phase","broad_category":"I","image_png":"I_Peridotite_13.png","image_id":125,"category_name":"Peridotite","category":8,"distinct_rating":7.28,"distinct_type":"Top","item_type":"Foil","rt":3047,"stimulus":"Stimuli_Rocks480/I_Peridotite_13.png","response":"a","trial_type":"image-keyboard-response","trial_index":139,"plugin_version":"2.1.0","time_elapsed":3525533,"subject_id":"91558","group":"Group1","condition":"1_Rep","full_date":"2026-02-10T16:07:05.745Z","date":"2026-02-10","time":"16:07:05","cor_ans":true},{"trial_type":"html-keyboard-response","rt":null,"stimulus":"<p style=\"color: green; font-size: 50px; font-weight: bold;\">Correct</p>","response":null,"trial_index":140,"plugin_version":"2.1.0","time_elapsed":3526034,"subject_id":"91558","group":"Group1","condition":"1_Rep","full_date":"2026-02-10T16:07:05.745Z","date":"2026-02-10","time":"16:07:05"},{"correct_response":"a","task":"test_phase","broad_category":"M","image_png":"M_Phyllite_02.png","image_id":258,"category_name":"Phyllite","category":17,"distinct_rating":2.89,"distinct_type":"Bottom","item_type":"Foil","rt":971,"stimulus":"Stimuli_Rocks480/M_Phyllite_02.png","response":"a","trial_type":"image-keyboard-response","trial_index":141,"plugin_version":"2.1.0","time_elapsed":3527005,"subject_id":"91558","group":"Group1","condition":"1_Rep","full_date":"2026-02-10T16:07:05.745Z","date":"2026-02-10","time":"16:07:05","cor_ans":true},{"trial_type":"html-keyboard-response","rt":null,"stimulus":"<p style=\"color: green; font-size: 50px; font-weight: bold;\">Correct</p>","response":null,"trial_index":142,"plugin_version":"2.1.0","time_elapsed":3527507,"subject_id":"91558","group":"Group1","condition":"1_Rep","full_date":"2026-02-10T16:07:05.745Z","date":"2026-02-10","time":"16:07:05"},{"correct_response":"a","task":"test_phase","broad_category":"M","image_png":"M_Gneiss_10.png","image_id":202,"category_name":"Gneiss","category":13,"distinct_rating":3.09,"distinct_type":"Bottom","item_type":"Foil","rt":3660,"stimulus":"Stimuli_Rocks480/M_Gneiss_10.png","response":"a","trial_type":"image-keyboard-response","trial_index":143,"plugin_version":"2.1.0","time_elapsed":3531168,"subject_id":"91558","group":"Group1","condition":"1_Rep","full_date":"2026-02-10T16:07:05.745Z","date":"2026-02-10","time":"16:07:05","cor_ans":true},{"trial_type":"html-keyboard-response","rt":null,"stimulus":"<p style=\"color: green; font-size: 50px; font-weight: bold;\">Correct</p>","response":null,"trial_index":144,"plugin_version":"2.1.0","time_elapsed":3531670,"subject_id":"91558","group":"Group1","condition":"1_Rep","full_date":"2026-02-10T16:07:05.745Z","date":"2026-02-10","time":"16:07:05"},{"correct_response":"l","task":"test_phase","broad_category":"I","image_png":"I_Diorite_05.png","image_id":37,"category_name":"Diorite","category":3,"distinct_rating":3.08,"distinct_type":"Bottom","item_type":"Target","rt":824,"stimulus":"Stimuli_Rocks480/I_Diorite_05.png","response":"l","trial_type":"image-keyboard-response","trial_index":145,"plugin_version":"2.1.0","time_elapsed":3532495,"subject_id":"91558","group":"Group1","condition":"1_Rep","full_date":"2026-02-10T16:07:05.745Z","date":"2026-02-10","time":"16:07:05","cor_ans":true},{"trial_type":"html-keyboard-response","rt":null,"stimulus":"<p style=\"color: green; font-size: 50px; font-weight: bold;\">Correct</p>","response":null,"trial_index":146,"plugin_version":"2.1.0","time_elapsed":3532996,"subject_id":"91558","group":"Group1","condition":"1_Rep","full_date":"2026-02-10T16:07:05.745Z","date":"2026-02-10","time":"16:07:05"},{"correct_response":"l","task":"test_phase","broad_category":"I","image_png":"I_Diorite_03.png","image_id":35,"category_name":"Diorite","category":3,"distinct_rating":3.14,"distinct_type":"Bottom","item_type":"Target","rt":868,"stimulus":"Stimuli_Rocks480/I_Diorite_03.png","response":"l","trial_type":"image-keyboard-response","trial_index":147,"plugin_version":"2.1.0","time_elapsed":3533865,"subject_id":"91558","group":"Group1","condition":"1_Rep","full_date":"2026-02-10T16:07:05.745Z","date":"2026-02-10","time":"16:07:05","cor_ans":true},{"trial_type":"html-keyboard-response","rt":null,"stimulus":"<p style=\"color: green; font-size: 50px; font-weight: bold;\">Correct</p>","response":null,"trial_index":148,"plugin_version":"2.1.0","time_elapsed":3534367,"subject_id":"91558","group":"Group1","condition":"1_Rep","full_date":"2026-02-10T16:07:05.745Z","date":"2026-02-10","time":"16:07:05"},{"correct_response":"a","task":"test_phase","broad_category":"M","image_png":"M_Gneiss_14.png","image_id":206,"category_name":"Gneiss","category":13,"distinct_rating":3.41,"distinct_type":"Bottom","item_type":"Foil","rt":973,"stimulus":"Stimuli_Rocks480/M_Gneiss_14.png","response":"a","trial_type":"image-keyboard-response","trial_index":149,"plugin_version":"2.1.0","time_elapsed":3535341,"subject_id":"91558","group":"Group1","condition":"1_Rep","full_date":"2026-02-10T16:07:05.745Z","date":"2026-02-10","time":"16:07:05","cor_ans":true},{"trial_type":"html-keyboard-response","rt":null,"stimulus":"<p style=\"color: green; font-size: 50px; font-weight: bold;\">Correct</p>","response":null,"trial_index":150,"plugin_version":"2.1.0","time_elapsed":3535843,"subject_id":"91558","group":"Group1","condition":"1_Rep","full_date":"2026-02-10T16:07:05.745Z","date":"2026-02-10","time":"16:07:05"},{"correct_response":"l","task":"test_phase","broad_category":"I","image_png":"I_Basalt_02.png","image_id":18,"category_name":"Basalt","category":2,"distinct_rating":1.84,"distinct_type":"Bottom","item_type":"Target","rt":850,"stimulus":"Stimuli_Rocks480/I_Basalt_02.png","response":"l","trial_type":"image-keyboard-response","trial_index":151,"plugin_version":"2.1.0","time_elapsed":3536695,"subject_id":"91558","group":"Group1","condition":"1_Rep","full_date":"2026-02-10T16:07:05.745Z","date":"2026-02-10","time":"16:07:05","cor_ans":true},{"trial_type":"html-keyboard-response","rt":null,"stimulus":"<p style=\"color: green; font-size: 50px; font-weight: bold;\">Correct</p>","response":null,"trial_index":152,"plugin_version":"2.1.0","time_elapsed":3537196,"subject_id":"91558","group":"Group1","condition":"1_Rep","full_date":"2026-02-10T16:07:05.745Z","date":"2026-02-10","time":"16:07:05"},{"correct_response":"a","task":"test_phase","broad_category":"S","image_png":"S_Shale_03.png","image_id":467,"category_name":"Shale","category":30,"distinct_rating":1.95,"distinct_type":"Bottom","item_type":"Foil","rt":1851,"stimulus":"Stimuli_Rocks480/S_Shale_03.png","response":"l","trial_type":"image-keyboard-response","trial_index":153,"plugin_version":"2.1.0","time_elapsed":3539049,"subject_id":"91558","group":"Group1","condition":"1_Rep","full_date":"2026-02-10T16:07:05.745Z","date":"2026-02-10","time":"16:07:05","cor_ans":false},{"trial_type":"html-keyboard-response","rt":null,"stimulus":"<p style=\"color: red; font-size: 50px; font-weight: bold;\">Incorrect</p>","response":null,"trial_index":154,"plugin_version":"2.1.0","time_elapsed":3539550,"subject_id":"91558","group":"Group1","condition":"1_Rep","full_date":"2026-02-10T16:07:05.745Z","date":"2026-02-10","time":"16:07:05"},{"correct_response":"a","task":"test_phase","broad_category":"I","image_png":"I_Pegmatite_11.png","image_id":107,"category_name":"Pegmatite","category":7,"distinct_rating":7.11,"distinct_type":"Top","item_type":"Foil","rt":1885,"stimulus":"Stimuli_Rocks480/I_Pegmatite_11.png","response":"a","trial_type":"image-keyboard-response","trial_index":155,"plugin_version":"2.1.0","time_elapsed":3541436,"subject_id":"91558","group":"Group1","condition":"1_Rep","full_date":"2026-02-10T16:07:05.745Z","date":"2026-02-10","time":"16:07:05","cor_ans":true},{"trial_type":"html-keyboard-response","rt":null,"stimulus":"<p style=\"color: green; font-size: 50px; font-weight: bold;\">Correct</p>","response":null,"trial_index":156,"plugin_version":"2.1.0","time_elapsed":3541937,"subject_id":"91558","group":"Group1","condition":"1_Rep","full_date":"2026-02-10T16:07:05.745Z","date":"2026-02-10","time":"16:07:05"},{"correct_response":"l","task":"test_phase","broad_category":"S","image_png":"S_Dolomite_14.png","image_id":398,"category_name":"Dolomite","category":25,"distinct_rating":1.43,"distinct_type":"Bottom","item_type":"Target","rt":806,"stimulus":"Stimuli_Rocks480/S_Dolomite_14.png","response":"l","trial_type":"image-keyboard-response","trial_index":157,"plugin_version":"2.1.0","time_elapsed":3542744,"subject_id":"91558","group":"Group1","condition":"1_Rep","full_date":"2026-02-10T16:07:05.745Z","date":"2026-02-10","time":"16:07:05","cor_ans":true},{"trial_type":"html-keyboard-response","rt":null,"stimulus":"<p style=\"color: green; font-size: 50px; font-weight: bold;\">Correct</p>","response":null,"trial_index":158,"plugin_version":"2.1.0","time_elapsed":3543246,"subject_id":"91558","group":"Group1","condition":"1_Rep","full_date":"2026-02-10T16:07:05.745Z","date":"2026-02-10","time":"16:07:05"},{"correct_response":"a","task":"test_phase","broad_category":"I","image_png":"I_Rhyolite_10.png","image_id":154,"category_name":"Rhyolite","category":10,"distinct_rating":2.88,"distinct_type":"Bottom","item_type":"Foil","rt":1010,"stimulus":"Stimuli_Rocks480/I_Rhyolite_10.png","response":"l","trial_type":"image-keyboard-response","trial_index":159,"plugin_version":"2.1.0","time_elapsed":3544256,"subject_id":"91558","group":"Group1","condition":"1_Rep","full_date":"2026-02-10T16:07:05.745Z","date":"2026-02-10","time":"16:07:05","cor_ans":false},{"trial_type":"html-keyboard-response","rt":null,"stimulus":"<p style=\"color: red; font-size: 50px; font-weight: bold;\">Incorrect</p>","response":null,"trial_index":160,"plugin_version":"2.1.0","time_elapsed":3544758,"subject_id":"91558","group":"Group1","condition":"1_Rep","full_date":"2026-02-10T16:07:05.745Z","date":"2026-02-10","time":"16:07:05"},{"correct_response":"a","task":"test_phase","broad_category":"I","image_png":"I_Andesite_04.png","image_id":4,"category_name":"Andesite","category":1,"distinct_rating":3.18,"distinct_type":"Bottom","item_type":"Foil","rt":1573,"stimulus":"Stimuli_Rocks480/I_Andesite_04.png","response":"a","trial_type":"image-keyboard-response","trial_index":161,"plugin_version":"2.1.0","time_elapsed":3546331,"subject_id":"91558","group":"Group1","condition":"1_Rep","full_date":"2026-02-10T16:07:05.745Z","date":"2026-02-10","time":"16:07:05","cor_ans":true},{"trial_type":"html-keyboard-response","rt":null,"stimulus":"<p style=\"color: green; font-size: 50px; font-weight: bold;\">Correct</p>","response":null,"trial_index":162,"plugin_version":"2.1.0","time_elapsed":3546833,"subject_id":"91558","group":"Group1","condition":"1_Rep","full_date":"2026-02-10T16:07:05.745Z","date":"2026-02-10","time":"16:07:05"},{"correct_response":"l","task":"test_phase","broad_category":"I","image_png":"I_Gabbro_11.png","image_id":59,"category_name":"Gabbro","category":4,"distinct_rating":1.99,"distinct_type":"Bottom","item_type":"Target","rt":910,"stimulus":"Stimuli_Rocks480/I_Gabbro_11.png","response":"l","trial_type":"image-keyboard-response","trial_index":163,"plugin_version":"2.1.0","time_elapsed":3547744,"subject_id":"91558","group":"Group1","condition":"1_Rep","full_date":"2026-02-10T16:07:05.745Z","date":"2026-02-10","time":"16:07:05","cor_ans":true},{"trial_type":"html-keyboard-response","rt":null,"stimulus":"<p style=\"color: green; font-size: 50px; font-weight: bold;\">Correct</p>","response":null,"trial_index":164,"plugin_version":"2.1.0","time_elapsed":3548245,"subject_id":"91558","group":"Group1","condition":"1_Rep","full_date":"2026-02-10T16:07:05.745Z","date":"2026-02-10","time":"16:07:05"},{"correct_response":"l","task":"test_phase","broad_category":"I","image_png":"I_Pegmatite_10.png","image_id":106,"category_name":"Pegmatite","category":7,"distinct_rating":7.66,"distinct_type":"Top","item_type":"Target","rt":1223,"stimulus":"Stimuli_Rocks480/I_Pegmatite_10.png","response":"l","trial_type":"image-keyboard-response","trial_index":165,"plugin_version":"2.1.0","time_elapsed":3549470,"subject_id":"91558","group":"Group1","condition":"1_Rep","full_date":"2026-02-10T16:07:05.745Z","date":"2026-02-10","time":"16:07:05","cor_ans":true},{"trial_type":"html-keyboard-response","rt":null,"stimulus":"<p style=\"color: green; font-size: 50px; font-weight: bold;\">Correct</p>","response":null,"trial_index":166,"plugin_version":"2.1.0","time_elapsed":3549971,"subject_id":"91558","group":"Group1","condition":"1_Rep","full_date":"2026-02-10T16:07:05.745Z","date":"2026-02-10","time":"16:07:05"},{"correct_response":"l","task":"test_phase","broad_category":"I","image_png":"I_Gabbro_08.png","image_id":56,"category_name":"Gabbro","category":4,"distinct_rating":3.02,"distinct_type":"Bottom","item_type":"Target","rt":2119,"stimulus":"Stimuli_Rocks480/I_Gabbro_08.png","response":"a","trial_type":"image-keyboard-response","trial_index":167,"plugin_version":"2.1.0","time_elapsed":3552091,"subject_id":"91558","group":"Group1","condition":"1_Rep","full_date":"2026-02-10T16:07:05.745Z","date":"2026-02-10","time":"16:07:05","cor_ans":false},{"trial_type":"html-keyboard-response","rt":null,"stimulus":"<p style=\"color: red; font-size: 50px; font-weight: bold;\">Incorrect</p>","response":null,"trial_index":168,"plugin_version":"2.1.0","time_elapsed":3552593,"subject_id":"91558","group":"Group1","condition":"1_Rep","full_date":"2026-02-10T16:07:05.745Z","date":"2026-02-10","time":"16:07:05"},{"correct_response":"a","task":"test_phase","broad_category":"I","image_png":"I_Pegmatite_03.png","image_id":99,"category_name":"Pegmatite","category":7,"distinct_rating":7.24,"distinct_type":"Top","item_type":"Foil","rt":1109,"stimulus":"Stimuli_Rocks480/I_Pegmatite_03.png","response":"a","trial_type":"image-keyboard-response","trial_index":169,"plugin_version":"2.1.0","time_elapsed":3553703,"subject_id":"91558","group":"Group1","condition":"1_Rep","full_date":"2026-02-10T16:07:05.745Z","date":"2026-02-10","time":"16:07:05","cor_ans":true},{"trial_type":"html-keyboard-response","rt":null,"stimulus":"<p style=\"color: green; font-size: 50px; font-weight: bold;\">Correct</p>","response":null,"trial_index":170,"plugin_version":"2.1.0","time_elapsed":3554204,"subject_id":"91558","group":"Group1","condition":"1_Rep","full_date":"2026-02-10T16:07:05.745Z","date":"2026-02-10","time":"16:07:05"},{"correct_response":"a","task":"test_phase","broad_category":"I","image_png":"I_Pumice_13.png","image_id":141,"category_name":"Pumice","category":9,"distinct_rating":3.12,"distinct_type":"Bottom","item_type":"Foil","rt":1031,"stimulus":"Stimuli_Rocks480/I_Pumice_13.png","response":"a","trial_type":"image-keyboard-response","trial_index":171,"plugin_version":"2.1.0","time_elapsed":3555236,"subject_id":"91558","group":"Group1","condition":"1_Rep","full_date":"2026-02-10T16:07:05.745Z","date":"2026-02-10","time":"16:07:05","cor_ans":true},{"trial_type":"html-keyboard-response","rt":null,"stimulus":"<p style=\"color: green; font-size: 50px; font-weight: bold;\">Correct</p>","response":null,"trial_index":172,"plugin_version":"2.1.0","time_elapsed":3555738,"subject_id":"91558","group":"Group1","condition":"1_Rep","full_date":"2026-02-10T16:07:05.745Z","date":"2026-02-10","time":"16:07:05"},{"correct_response":"l","task":"test_phase","broad_category":"I","image_png":"I_Andesite_06.png","image_id":6,"category_name":"Andesite","category":1,"distinct_rating":3.17,"distinct_type":"Bottom","item_type":"Target","rt":866,"stimulus":"Stimuli_Rocks480/I_Andesite_06.png","response":"l","trial_type":"image-keyboard-response","trial_index":173,"plugin_version":"2.1.0","time_elapsed":3556605,"subject_id":"91558","group":"Group1","condition":"1_Rep","full_date":"2026-02-10T16:07:05.745Z","date":"2026-02-10","time":"16:07:05","cor_ans":true},{"trial_type":"html-keyboard-response","rt":null,"stimulus":"<p style=\"color: green; font-size: 50px; font-weight: bold;\">Correct</p>","response":null,"trial_index":174,"plugin_version":"2.1.0","time_elapsed":3557106,"subject_id":"91558","group":"Group1","condition":"1_Rep","full_date":"2026-02-10T16:07:05.745Z","date":"2026-02-10","time":"16:07:05"},{"correct_response":"a","task":"test_phase","broad_category":"M","image_png":"M_Phyllite_05.png","image_id":261,"category_name":"Phyllite","category":17,"distinct_rating":2.14,"distinct_type":"Bottom","item_type":"Foil","rt":2553,"stimulus":"Stimuli_Rocks480/M_Phyllite_05.png","response":"a","trial_type":"image-keyboard-response","trial_index":175,"plugin_version":"2.1.0","time_elapsed":3559661,"subject_id":"91558","group":"Group1","condition":"1_Rep","full_date":"2026-02-10T16:07:05.745Z","date":"2026-02-10","time":"16:07:05","cor_ans":true},{"trial_type":"html-keyboard-response","rt":null,"stimulus":"<p style=\"color: green; font-size: 50px; font-weight: bold;\">Correct</p>","response":null,"trial_index":176,"plugin_version":"2.1.0","time_elapsed":3560162,"subject_id":"91558","group":"Group1","condition":"1_Rep","full_date":"2026-02-10T16:07:05.745Z","date":"2026-02-10","time":"16:07:05"},{"correct_response":"a","task":"test_phase","broad_category":"I","image_png":"I_Basalt_13.png","image_id":29,"category_name":"Basalt","category":2,"distinct_rating":2.68,"distinct_type":"Bottom","item_type":"Foil","rt":1782,"stimulus":"Stimuli_Rocks480/I_Basalt_13.png","response":"a","trial_type":"image-keyboard-response","trial_index":177,"plugin_version":"2.1.0","time_elapsed":3561944,"subject_id":"91558","group":"Group1","condition":"1_Rep","full_date":"2026-02-10T16:07:05.745Z","date":"2026-02-10","time":"16:07:05","cor_ans":true},{"trial_type":"html-keyboard-response","rt":null,"stimulus":"<p style=\"color: green; font-size: 50px; font-weight: bold;\">Correct</p>","response":null,"trial_index":178,"plugin_version":"2.1.0","time_elapsed":3562446,"subject_id":"91558","group":"Group1","condition":"1_Rep","full_date":"2026-02-10T16:07:05.745Z","date":"2026-02-10","time":"16:07:05"},{"correct_response":"a","task":"test_phase","broad_category":"I","image_png":"I_Gabbro_02.png","image_id":50,"category_name":"Gabbro","category":4,"distinct_rating":2.73,"distinct_type":"Bottom","item_type":"Foil","rt":1794,"stimulus":"Stimuli_Rocks480/I_Gabbro_02.png","response":"a","trial_type":"image-keyboard-response","trial_index":179,"plugin_version":"2.1.0","time_elapsed":3564241,"subject_id":"91558","group":"Group1","condition":"1_Rep","full_date":"2026-02-10T16:07:05.745Z","date":"2026-02-10","time":"16:07:05","cor_ans":true},{"trial_type":"html-keyboard-response","rt":null,"stimulus":"<p style=\"color: green; font-size: 50px; font-weight: bold;\">Correct</p>","response":null,"trial_index":180,"plugin_version":"2.1.0","time_elapsed":3564742,"subject_id":"91558","group":"Group1","condition":"1_Rep","full_date":"2026-02-10T16:07:05.745Z","date":"2026-02-10","time":"16:07:05"},{"correct_response":"a","task":"test_phase","broad_category":"M","image_png":"M_Phyllite_13.png","image_id":269,"category_name":"Phyllite","category":17,"distinct_rating":2.8,"distinct_type":"Bottom","item_type":"Foil","rt":1352,"stimulus":"Stimuli_Rocks480/M_Phyllite_13.png","response":"l","trial_type":"image-keyboard-response","trial_index":181,"plugin_version":"2.1.0","time_elapsed":3566095,"subject_id":"91558","group":"Group1","condition":"1_Rep","full_date":"2026-02-10T16:07:05.745Z","date":"2026-02-10","time":"16:07:05","cor_ans":false},{"trial_type":"html-keyboard-response","rt":null,"stimulus":"<p style=\"color: red; font-size: 50px; font-weight: bold;\">Incorrect</p>","response":null,"trial_index":182,"plugin_version":"2.1.0","time_elapsed":3566596,"subject_id":"91558","group":"Group1","condition":"1_Rep","full_date":"2026-02-10T16:07:05.745Z","date":"2026-02-10","time":"16:07:05"},{"correct_response":"l","task":"test_phase","broad_category":"S","image_png":"S_Rock Gypsum_04.png","image_id":420,"category_name":"Rock Gypsum","category":27,"distinct_rating":7.61,"distinct_type":"Top","item_type":"Target","rt":1143,"stimulus":"Stimuli_Rocks480/S_Rock Gypsum_04.png","response":"l","trial_type":"image-keyboard-response","trial_index":183,"plugin_version":"2.1.0","time_elapsed":3567740,"subject_id":"91558","group":"Group1","condition":"1_Rep","full_date":"2026-02-10T16:07:05.745Z","date":"2026-02-10","time":"16:07:05","cor_ans":true},{"trial_type":"html-keyboard-response","rt":null,"stimulus":"<p style=\"color: green; font-size: 50px; font-weight: bold;\">Correct</p>","response":null,"trial_index":184,"plugin_version":"2.1.0","time_elapsed":3568241,"subject_id":"91558","group":"Group1","condition":"1_Rep","full_date":"2026-02-10T16:07:05.745Z","date":"2026-02-10","time":"16:07:05"},{"correct_response":"a","task":"test_phase","broad_category":"I","image_png":"I_Rhyolite_05.png","image_id":149,"category_name":"Rhyolite","category":10,"distinct_rating":3.02,"distinct_type":"Bottom","item_type":"Foil","rt":970,"stimulus":"Stimuli_Rocks480/I_Rhyolite_05.png","response":"a","trial_type":"image-keyboard-response","trial_index":185,"plugin_version":"2.1.0","time_elapsed":3569212,"subject_id":"91558","group":"Group1","condition":"1_Rep","full_date":"2026-02-10T16:07:05.745Z","date":"2026-02-10","time":"16:07:05","cor_ans":true},{"trial_type":"html-keyboard-response","rt":null,"stimulus":"<p style=\"color: green; font-size: 50px; font-weight: bold;\">Correct</p>","response":null,"trial_index":186,"plugin_version":"2.1.0","time_elapsed":3569713,"subject_id":"91558","group":"Group1","condition":"1_Rep","full_date":"2026-02-10T16:07:05.745Z","date":"2026-02-10","time":"16:07:05"},{"correct_response":"l","task":"test_phase","broad_category":"I","image_png":"I_Basalt_09.png","image_id":25,"category_name":"Basalt","category":2,"distinct_rating":1.89,"distinct_type":"Bottom","item_type":"Target","rt":985,"stimulus":"Stimuli_Rocks480/I_Basalt_09.png","response":"l","trial_type":"image-keyboard-response","trial_index":187,"plugin_version":"2.1.0","time_elapsed":3570699,"subject_id":"91558","group":"Group1","condition":"1_Rep","full_date":"2026-02-10T16:07:05.745Z","date":"2026-02-10","time":"16:07:05","cor_ans":true},{"trial_type":"html-keyboard-response","rt":null,"stimulus":"<p style=\"color: green; font-size: 50px; font-weight: bold;\">Correct</p>","response":null,"trial_index":188,"plugin_version":"2.1.0","time_elapsed":3571200,"subject_id":"91558","group":"Group1","condition":"1_Rep","full_date":"2026-02-10T16:07:05.745Z","date":"2026-02-10","time":"16:07:05"},{"correct_response":"l","task":"test_phase","broad_category":"I","image_png":"I_Basalt_01.png","image_id":17,"category_name":"Basalt","category":2,"distinct_rating":1.92,"distinct_type":"Bottom","item_type":"Target","rt":823,"stimulus":"Stimuli_Rocks480/I_Basalt_01.png","response":"l","trial_type":"image-keyboard-response","trial_index":189,"plugin_version":"2.1.0","time_elapsed":3572025,"subject_id":"91558","group":"Group1","condition":"1_Rep","full_date":"2026-02-10T16:07:05.745Z","date":"2026-02-10","time":"16:07:05","cor_ans":true},{"trial_type":"html-keyboard-response","rt":null,"stimulus":"<p style=\"color: green; font-size: 50px; font-weight: bold;\">Correct</p>","response":null,"trial_index":190,"plugin_version":"2.1.0","time_elapsed":3572526,"subject_id":"91558","group":"Group1","condition":"1_Rep","full_date":"2026-02-10T16:07:05.745Z","date":"2026-02-10","time":"16:07:05"},{"correct_response":"a","task":"test_phase","broad_category":"I","image_png":"I_Diorite_10.png","image_id":42,"category_name":"Diorite","category":3,"distinct_rating":2.84,"distinct_type":"Bottom","item_type":"Foil","rt":1059,"stimulus":"Stimuli_Rocks480/I_Diorite_10.png","response":"l","trial_type":"image-keyboard-response","trial_index":191,"plugin_version":"2.1.0","time_elapsed":3573586,"subject_id":"91558","group":"Group1","condition":"1_Rep","full_date":"2026-02-10T16:07:05.745Z","date":"2026-02-10","time":"16:07:05","cor_ans":false},{"trial_type":"html-keyboard-response","rt":null,"stimulus":"<p style=\"color: red; font-size: 50px; font-weight: bold;\">Incorrect</p>","response":null,"trial_index":192,"plugin_version":"2.1.0","time_elapsed":3574087,"subject_id":"91558","group":"Group1","condition":"1_Rep","full_date":"2026-02-10T16:07:05.745Z","date":"2026-02-10","time":"16:07:05"},{"correct_response":"a","task":"test_phase","broad_category":"S","image_png":"S_Shale_07.png","image_id":471,"category_name":"Shale","category":30,"distinct_rating":2.73,"distinct_type":"Bottom","item_type":"Foil","rt":1423,"stimulus":"Stimuli_Rocks480/S_Shale_07.png","response":"a","trial_type":"image-keyboard-response","trial_index":193,"plugin_version":"2.1.0","time_elapsed":3575512,"subject_id":"91558","group":"Group1","condition":"1_Rep","full_date":"2026-02-10T16:07:05.745Z","date":"2026-02-10","time":"16:07:05","cor_ans":true},{"trial_type":"html-keyboard-response","rt":null,"stimulus":"<p style=\"color: green; font-size: 50px; font-weight: bold;\">Correct</p>","response":null,"trial_index":194,"plugin_version":"2.1.0","time_elapsed":3576013,"subject_id":"91558","group":"Group1","condition":"1_Rep","full_date":"2026-02-10T16:07:05.745Z","date":"2026-02-10","time":"16:07:05"},{"correct_response":"l","task":"test_phase","broad_category":"M","image_png":"M_Phyllite_03.png","image_id":259,"category_name":"Phyllite","category":17,"distinct_rating":2.5,"distinct_type":"Bottom","item_type":"Target","rt":1259,"stimulus":"Stimuli_Rocks480/M_Phyllite_03.png","response":"l","trial_type":"image-keyboard-response","trial_index":195,"plugin_version":"2.1.0","time_elapsed":3577273,"subject_id":"91558","group":"Group1","condition":"1_Rep","full_date":"2026-02-10T16:07:05.745Z","date":"2026-02-10","time":"16:07:05","cor_ans":true},{"trial_type":"html-keyboard-response","rt":null,"stimulus":"<p style=\"color: green; font-size: 50px; font-weight: bold;\">Correct</p>","response":null,"trial_index":196,"plugin_version":"2.1.0","time_elapsed":3577775,"subject_id":"91558","group":"Group1","condition":"1_Rep","full_date":"2026-02-10T16:07:05.745Z","date":"2026-02-10","time":"16:07:05"},{"correct_response":"a","task":"test_phase","broad_category":"S","image_png":"S_Sandstone_11.png","image_id":459,"category_name":"Sandstone","category":29,"distinct_rating":1.82,"distinct_type":"Bottom","item_type":"Foil","rt":1447,"stimulus":"Stimuli_Rocks480/S_Sandstone_11.png","response":"a","trial_type":"image-keyboard-response","trial_index":197,"plugin_version":"2.1.0","time_elapsed":3579223,"subject_id":"91558","group":"Group1","condition":"1_Rep","full_date":"2026-02-10T16:07:05.745Z","date":"2026-02-10","time":"16:07:05","cor_ans":true},{"trial_type":"html-keyboard-response","rt":null,"stimulus":"<p style=\"color: green; font-size: 50px; font-weight: bold;\">Correct</p>","response":null,"trial_index":198,"plugin_version":"2.1.0","time_elapsed":3579724,"subject_id":"91558","group":"Group1","condition":"1_Rep","full_date":"2026-02-10T16:07:05.745Z","date":"2026-02-10","time":"16:07:05"},{"correct_response":"l","task":"test_phase","broad_category":"M","image_png":"M_Quartzite_13.png","image_id":285,"category_name":"Quartzite","category":18,"distinct_rating":2.27,"distinct_type":"Bottom","item_type":"Target","rt":1722,"stimulus":"Stimuli_Rocks480/M_Quartzite_13.png","response":"l","trial_type":"image-keyboard-response","trial_index":199,"plugin_version":"2.1.0","time_elapsed":3581447,"subject_id":"91558","group":"Group1","condition":"1_Rep","full_date":"2026-02-10T16:07:05.745Z","date":"2026-02-10","time":"16:07:05","cor_ans":true},{"trial_type":"html-keyboard-response","rt":null,"stimulus":"<p style=\"color: green; font-size: 50px; font-weight: bold;\">Correct</p>","response":null,"trial_index":200,"plugin_version":"2.1.0","time_elapsed":3581948,"subject_id":"91558","group":"Group1","condition":"1_Rep","full_date":"2026-02-10T16:07:05.745Z","date":"2026-02-10","time":"16:07:05"},{"correct_response":"l","task":"test_phase","broad_category":"M","image_png":"M_Phyllite_07.png","image_id":263,"category_name":"Phyllite","category":17,"distinct_rating":2.59,"distinct_type":"Bottom","item_type":"Target","rt":974,"stimulus":"Stimuli_Rocks480/M_Phyllite_07.png","response":"l","trial_type":"image-keyboard-response","trial_index":201,"plugin_version":"2.1.0","time_elapsed":3582923,"subject_id":"91558","group":"Group1","condition":"1_Rep","full_date":"2026-02-10T16:07:05.745Z","date":"2026-02-10","time":"16:07:05","cor_ans":true},{"trial_type":"html-keyboard-response","rt":null,"stimulus":"<p style=\"color: green; font-size: 50px; font-weight: bold;\">Correct</p>","response":null,"trial_index":202,"plugin_version":"2.1.0","time_elapsed":3583425,"subject_id":"91558","group":"Group1","condition":"1_Rep","full_date":"2026-02-10T16:07:05.745Z","date":"2026-02-10","time":"16:07:05"},{"correct_response":"l","task":"test_phase","broad_category":"S","image_png":"S_Shale_12.png","image_id":476,"category_name":"Shale","category":30,"distinct_rating":2.48,"distinct_type":"Bottom","item_type":"Target","rt":1109,"stimulus":"Stimuli_Rocks480/S_Shale_12.png","response":"a","trial_type":"image-keyboard-response","trial_index":203,"plugin_version":"2.1.0","time_elapsed":3584534,"subject_id":"91558","group":"Group1","condition":"1_Rep","full_date":"2026-02-10T16:07:05.745Z","date":"2026-02-10","time":"16:07:05","cor_ans":false},{"trial_type":"html-keyboard-response","rt":null,"stimulus":"<p style=\"color: red; font-size: 50px; font-weight: bold;\">Incorrect</p>","response":null,"trial_index":204,"plugin_version":"2.1.0","time_elapsed":3585036,"subject_id":"91558","group":"Group1","condition":"1_Rep","full_date":"2026-02-10T16:07:05.745Z","date":"2026-02-10","time":"16:07:05"},{"correct_response":"l","task":"test_phase","broad_category":"S","image_png":"S_Shale_08.png","image_id":472,"category_name":"Shale","category":30,"distinct_rating":2.55,"distinct_type":"Bottom","item_type":"Target","rt":897,"stimulus":"Stimuli_Rocks480/S_Shale_08.png","response":"a","trial_type":"image-keyboard-response","trial_index":205,"plugin_version":"2.1.0","time_elapsed":3585934,"subject_id":"91558","group":"Group1","condition":"1_Rep","full_date":"2026-02-10T16:07:05.745Z","date":"2026-02-10","time":"16:07:05","cor_ans":false},{"trial_type":"html-keyboard-response","rt":null,"stimulus":"<p style=\"color: red; font-size: 50px; font-weight: bold;\">Incorrect</p>","response":null,"trial_index":206,"plugin_version":"2.1.0","time_elapsed":3586436,"subject_id":"91558","group":"Group1","condition":"1_Rep","full_date":"2026-02-10T16:07:05.745Z","date":"2026-02-10","time":"16:07:05"},{"correct_response":"l","task":"test_phase","broad_category":"S","image_png":"S_Breccia_11.png","image_id":347,"category_name":"Breccia","category":22,"distinct_rating":6.7,"distinct_type":"Top","item_type":"Target","rt":1213,"stimulus":"Stimuli_Rocks480/S_Breccia_11.png","response":"a","trial_type":"image-keyboard-response","trial_index":207,"plugin_version":"2.1.0","time_elapsed":3587650,"subject_id":"91558","group":"Group1","condition":"1_Rep","full_date":"2026-02-10T16:07:05.745Z","date":"2026-02-10","time":"16:07:05","cor_ans":false},{"trial_type":"html-keyboard-response","rt":null,"stimulus":"<p style=\"color: red; font-size: 50px; font-weight: bold;\">Incorrect</p>","response":null,"trial_index":208,"plugin_version":"2.1.0","time_elapsed":3588151,"subject_id":"91558","group":"Group1","condition":"1_Rep","full_date":"2026-02-10T16:07:05.745Z","date":"2026-02-10","time":"16:07:05"},{"correct_response":"a","task":"test_phase","broad_category":"M","image_png":"M_Marble_14.png","image_id":238,"category_name":"Marble","category":15,"distinct_rating":3.31,"distinct_type":"Bottom","item_type":"Foil","rt":1099,"stimulus":"Stimuli_Rocks480/M_Marble_14.png","response":"a","trial_type":"image-keyboard-response","trial_index":209,"plugin_version":"2.1.0","time_elapsed":3589252,"subject_id":"91558","group":"Group1","condition":"1_Rep","full_date":"2026-02-10T16:07:05.745Z","date":"2026-02-10","time":"16:07:05","cor_ans":true},{"trial_type":"html-keyboard-response","rt":null,"stimulus":"<p style=\"color: green; font-size: 50px; font-weight: bold;\">Correct</p>","response":null,"trial_index":210,"plugin_version":"2.1.0","time_elapsed":3589753,"subject_id":"91558","group":"Group1","condition":"1_Rep","full_date":"2026-02-10T16:07:05.745Z","date":"2026-02-10","time":"16:07:05"},{"correct_response":"l","task":"test_phase","broad_category":"I","image_png":"I_Rhyolite_16.png","image_id":160,"category_name":"Rhyolite","category":10,"distinct_rating":2.19,"distinct_type":"Bottom","item_type":"Target","rt":750,"stimulus":"Stimuli_Rocks480/I_Rhyolite_16.png","response":"l","trial_type":"image-keyboard-response","trial_index":211,"plugin_version":"2.1.0","time_elapsed":3590505,"subject_id":"91558","group":"Group1","condition":"1_Rep","full_date":"2026-02-10T16:07:05.745Z","date":"2026-02-10","time":"16:07:05","cor_ans":true},{"trial_type":"html-keyboard-response","rt":null,"stimulus":"<p style=\"color: green; font-size: 50px; font-weight: bold;\">Correct</p>","response":null,"trial_index":212,"plugin_version":"2.1.0","time_elapsed":3591006,"subject_id":"91558","group":"Group1","condition":"1_Rep","full_date":"2026-02-10T16:07:05.745Z","date":"2026-02-10","time":"16:07:05"},{"correct_response":"a","task":"test_phase","broad_category":"M","image_png":"M_Slate_04.png","image_id":308,"category_name":"Slate","category":20,"distinct_rating":2.2,"distinct_type":"Bottom","item_type":"Foil","rt":833,"stimulus":"Stimuli_Rocks480/M_Slate_04.png","response":"l","trial_type":"image-keyboard-response","trial_index":213,"plugin_version":"2.1.0","time_elapsed":3591840,"subject_id":"91558","group":"Group1","condition":"1_Rep","full_date":"2026-02-10T16:07:05.745Z","date":"2026-02-10","time":"16:07:05","cor_ans":false},{"trial_type":"html-keyboard-response","rt":null,"stimulus":"<p style=\"color: red; font-size: 50px; font-weight: bold;\">Incorrect</p>","response":null,"trial_index":214,"plugin_version":"2.1.0","time_elapsed":3592341,"subject_id":"91558","group":"Group1","condition":"1_Rep","full_date":"2026-02-10T16:07:05.745Z","date":"2026-02-10","time":"16:07:05"},{"correct_response":"a","task":"test_phase","broad_category":"M","image_png":"M_Marble_02.png","image_id":226,"category_name":"Marble","category":15,"distinct_rating":3.2,"distinct_type":"Bottom","item_type":"Foil","rt":808,"stimulus":"Stimuli_Rocks480/M_Marble_02.png","response":"l","trial_type":"image-keyboard-response","trial_index":215,"plugin_version":"2.1.0","time_elapsed":3593150,"subject_id":"91558","group":"Group1","condition":"1_Rep","full_date":"2026-02-10T16:07:05.745Z","date":"2026-02-10","time":"16:07:05","cor_ans":false},{"trial_type":"html-keyboard-response","rt":null,"stimulus":"<p style=\"color: red; font-size: 50px; font-weight: bold;\">Incorrect</p>","response":null,"trial_index":216,"plugin_version":"2.1.0","time_elapsed":3593651,"subject_id":"91558","group":"Group1","condition":"1_Rep","full_date":"2026-02-10T16:07:05.745Z","date":"2026-02-10","time":"16:07:05"},{"correct_response":"a","task":"test_phase","broad_category":"I","image_png":"I_Pumice_01.png","image_id":129,"category_name":"Pumice","category":9,"distinct_rating":3.25,"distinct_type":"Bottom","item_type":"Foil","rt":959,"stimulus":"Stimuli_Rocks480/I_Pumice_01.png","response":"a","trial_type":"image-keyboard-response","trial_index":217,"plugin_version":"2.1.0","time_elapsed":3594611,"subject_id":"91558","group":"Group1","condition":"1_Rep","full_date":"2026-02-10T16:07:05.745Z","date":"2026-02-10","time":"16:07:05","cor_ans":true},{"trial_type":"html-keyboard-response","rt":null,"stimulus":"<p style=\"color: green; font-size: 50px; font-weight: bold;\">Correct</p>","response":null,"trial_index":218,"plugin_version":"2.1.0","time_elapsed":3595112,"subject_id":"91558","group":"Group1","condition":"1_Rep","full_date":"2026-02-10T16:07:05.745Z","date":"2026-02-10","time":"16:07:05"},{"correct_response":"a","task":"test_phase","broad_category":"I","image_png":"I_Andesite_09.png","image_id":9,"category_name":"Andesite","category":1,"distinct_rating":2.49,"distinct_type":"Bottom","item_type":"Foil","rt":1452,"stimulus":"Stimuli_Rocks480/I_Andesite_09.png","response":"l","trial_type":"image-keyboard-response","trial_index":219,"plugin_version":"2.1.0","time_elapsed":3596565,"subject_id":"91558","group":"Group1","condition":"1_Rep","full_date":"2026-02-10T16:07:05.745Z","date":"2026-02-10","time":"16:07:05","cor_ans":false},{"trial_type":"html-keyboard-response","rt":null,"stimulus":"<p style=\"color: red; font-size: 50px; font-weight: bold;\">Incorrect</p>","response":null,"trial_index":220,"plugin_version":"2.1.0","time_elapsed":3597066,"subject_id":"91558","group":"Group1","condition":"1_Rep","full_date":"2026-02-10T16:07:05.745Z","date":"2026-02-10","time":"16:07:05"},{"correct_response":"l","task":"test_phase","broad_category":"M","image_png":"M_Quartzite_08.png","image_id":280,"category_name":"Quartzite","category":18,"distinct_rating":2.15,"distinct_type":"Bottom","item_type":"Target","rt":721,"stimulus":"Stimuli_Rocks480/M_Quartzite_08.png","response":"l","trial_type":"image-keyboard-response","trial_index":221,"plugin_version":"2.1.0","time_elapsed":3597788,"subject_id":"91558","group":"Group1","condition":"1_Rep","full_date":"2026-02-10T16:07:05.745Z","date":"2026-02-10","time":"16:07:05","cor_ans":true},{"trial_type":"html-keyboard-response","rt":null,"stimulus":"<p style=\"color: green; font-size: 50px; font-weight: bold;\">Correct</p>","response":null,"trial_index":222,"plugin_version":"2.1.0","time_elapsed":3598290,"subject_id":"91558","group":"Group1","condition":"1_Rep","full_date":"2026-02-10T16:07:05.745Z","date":"2026-02-10","time":"16:07:05"},{"correct_response":"a","task":"test_phase","broad_category":"S","image_png":"S_Conglomerate_14.png","image_id":382,"category_name":"Conglomerate","category":24,"distinct_rating":6.86,"distinct_type":"Top","item_type":"Foil","rt":782,"stimulus":"Stimuli_Rocks480/S_Conglomerate_14.png","response":"a","trial_type":"image-keyboard-response","trial_index":223,"plugin_version":"2.1.0","time_elapsed":3599073,"subject_id":"91558","group":"Group1","condition":"1_Rep","full_date":"2026-02-10T16:07:05.745Z","date":"2026-02-10","time":"16:07:05","cor_ans":true},{"trial_type":"html-keyboard-response","rt":null,"stimulus":"<p style=\"color: green; font-size: 50px; font-weight: bold;\">Correct</p>","response":null,"trial_index":224