[{"width":1536,"height":730,"webaudio":true,"browser":"chrome","browser_version":"145.0.0","mobile":false,"os":"Windows 10","fullscreen":true,"vsync_rate":60.41,"webcam":true,"microphone":true,"trial_type":"browser-check","trial_index":0,"plugin_version":"2.1.0","time_elapsed":1004,"subject_id":"92413","group":"Group1","condition":"1_Rep","full_date":"2026-02-24T15:21:15.082Z","date":"2026-02-24","time":"15:21:15"},{"success":true,"timeout":false,"failed_images":[],"failed_audio":[],"failed_video":[],"trial_type":"preload","trial_index":1,"plugin_version":"2.1.0","time_elapsed":5169,"subject_id":"92413","group":"Group1","condition":"1_Rep","full_date":"2026-02-24T15:21:15.082Z","date":"2026-02-24","time":"15:21:15"},{"rt":17485,"url":"SONA_consent_memorability.html","trial_type":"external-html","trial_index":2,"plugin_version":"2.1.0","time_elapsed":22867,"subject_id":"92413","group":"Group1","condition":"1_Rep","full_date":"2026-02-24T15:21:15.082Z","date":"2026-02-24","time":"15:21:15"},{"success":true,"rt":3112,"trial_type":"fullscreen","trial_index":3,"plugin_version":"2.1.0","time_elapsed":26984,"subject_id":"92413","group":"Group1","condition":"1_Rep","full_date":"2026-02-24T15:21:15.082Z","date":"2026-02-24","time":"15:21:15"},{"rt":9342,"stimulus":"<div style=\"max-width: 760px; margin: auto; font-size: 20px; line-height: 1.5;\">\n      <h1 style=\"text-align:center; font-size: 30px;\">Instructions</h1>\n      <p>\n        Welcome to the study on <b>visual memory</b>. This experiment consists of <b>two phases</b>: \n        a <b>study phase</b> and a <b>test phase</b>.\n      </p>\n      <p>\n        In the study phase, you will see a series of rock images along with their category labels.\n        The images will appear one at a time.\n        <b>Your task</b> is to learn the categories to which the rock images belong \n        and to remember each image as accurately as possible.\n      </p> \n      <p>\n        Note that you will see each image only <b>once</b> during the study phase. \n          So, please pay close attention and try to remember each image carefully.\n      </p>\n      <p>\n        After the study phase, <b>your memory will be tested</b>. \n        Additional instructions for the test phase will be provided at that time.\n      </p>\n      <p>\n        If your computer has multiple <b>language settings</b> (e.g., English and another language),\n        please make sure it is set to English before starting.\n      </p>\n      <p>\n        You can track your progress using the <b>completion bar</b> at the top of the screen. \n        Please note that the bar will refresh when the test phase begins \n        to give you an accurate sense of your progress in both phases.\n      </p> \n      <p>\n        Press the button below when you are ready to begin.\n      </p>\n    </div>","response":0,"trial_type":"html-button-response","trial_index":4,"plugin_version":"2.1.0","time_elapsed":36330,"subject_id":"92413","group":"Group1","condition":"1_Rep","full_date":"2026-02-24T15:21:15.082Z","date":"2026-02-24","time":"15:21:15"},{"rt":null,"stimulus":"<p style=\"font-size: 50px; margin: 0; text-align: center;\">+</p>","response":null,"trial_type":"html-keyboard-response","trial_index":5,"plugin_version":"2.1.0","time_elapsed":37339,"subject_id":"92413","group":"Group1","condition":"1_Rep","full_date":"2026-02-24T15:21:15.082Z","date":"2026-02-24","time":"15:21:15"},{"task":"memory_phase","broad_category":"I","image_png":"I_Pegmatite_16.png","image_id":112,"category_name":"Pegmatite","category":7,"distinct_rating":7.03,"distinct_type":"Top","rt":null,"stimulus":"Stimuli_Rocks480/I_Pegmatite_16.png","response":null,"trial_type":"image-keyboard-response","trial_index":6,"plugin_version":"2.1.0","time_elapsed":39845,"subject_id":"92413","group":"Group1","condition":"1_Rep","full_date":"2026-02-24T15:21:15.082Z","date":"2026-02-24","time":"15:21:15"},{"rt":null,"stimulus":"<p style=\"font-size: 50px; margin: 0; text-align: center;\">+</p>","response":null,"trial_type":"html-keyboard-response","trial_index":7,"plugin_version":"2.1.0","time_elapsed":40852,"subject_id":"92413","group":"Group1","condition":"1_Rep","full_date":"2026-02-24T15:21:15.082Z","date":"2026-02-24","time":"15:21:15"},{"task":"memory_phase","broad_category":"M","image_png":"M_Phyllite_03.png","image_id":259,"category_name":"Phyllite","category":17,"distinct_rating":2.5,"distinct_type":"Bottom","rt":null,"stimulus":"Stimuli_Rocks480/M_Phyllite_03.png","response":null,"trial_type":"image-keyboard-response","trial_index":8,"plugin_version":"2.1.0","time_elapsed":43360,"subject_id":"92413","group":"Group1","condition":"1_Rep","full_date":"2026-02-24T15:21:15.082Z","date":"2026-02-24","time":"15:21:15"},{"rt":null,"stimulus":"<p style=\"font-size: 50px; margin: 0; text-align: center;\">+</p>","response":null,"trial_type":"html-keyboard-response","trial_index":9,"plugin_version":"2.1.0","time_elapsed":44366,"subject_id":"92413","group":"Group1","condition":"1_Rep","full_date":"2026-02-24T15:21:15.082Z","date":"2026-02-24","time":"15:21:15"},{"task":"memory_phase","broad_category":"I","image_png":"I_Diorite_03.png","image_id":35,"category_name":"Diorite","category":3,"distinct_rating":3.14,"distinct_type":"Bottom","rt":null,"stimulus":"Stimuli_Rocks480/I_Diorite_03.png","response":null,"trial_type":"image-keyboard-response","trial_index":10,"plugin_version":"2.1.0","time_elapsed":46878,"subject_id":"92413","group":"Group1","condition":"1_Rep","full_date":"2026-02-24T15:21:15.082Z","date":"2026-02-24","time":"15:21:15"},{"rt":null,"stimulus":"<p style=\"font-size: 50px; margin: 0; text-align: center;\">+</p>","response":null,"trial_type":"html-keyboard-response","trial_index":11,"plugin_version":"2.1.0","time_elapsed":47895,"subject_id":"92413","group":"Group1","condition":"1_Rep","full_date":"2026-02-24T15:21:15.082Z","date":"2026-02-24","time":"15:21:15"},{"task":"memory_phase","broad_category":"M","image_png":"M_Marble_06.png","image_id":230,"category_name":"Marble","category":15,"distinct_rating":3.4,"distinct_type":"Bottom","rt":null,"stimulus":"Stimuli_Rocks480/M_Marble_06.png","response":null,"trial_type":"image-keyboard-response","trial_index":12,"plugin_version":"2.1.0","time_elapsed":50403,"subject_id":"92413","group":"Group1","condition":"1_Rep","full_date":"2026-02-24T15:21:15.082Z","date":"2026-02-24","time":"15:21:15"},{"rt":null,"stimulus":"<p style=\"font-size: 50px; margin: 0; text-align: center;\">+</p>","response":null,"trial_type":"html-keyboard-response","trial_index":13,"plugin_version":"2.1.0","time_elapsed":51407,"subject_id":"92413","group":"Group1","condition":"1_Rep","full_date":"2026-02-24T15:21:15.082Z","date":"2026-02-24","time":"15:21:15"},{"task":"memory_phase","broad_category":"M","image_png":"M_Marble_16.png","image_id":240,"category_name":"Marble","category":15,"distinct_rating":2.57,"distinct_type":"Bottom","rt":null,"stimulus":"Stimuli_Rocks480/M_Marble_16.png","response":null,"trial_type":"image-keyboard-response","trial_index":14,"plugin_version":"2.1.0","time_elapsed":53914,"subject_id":"92413","group":"Group1","condition":"1_Rep","full_date":"2026-02-24T15:21:15.082Z","date":"2026-02-24","time":"15:21:15"},{"rt":null,"stimulus":"<p style=\"font-size: 50px; margin: 0; text-align: center;\">+</p>","response":null,"trial_type":"html-keyboard-response","trial_index":15,"plugin_version":"2.1.0","time_elapsed":54917,"subject_id":"92413","group":"Group1","condition":"1_Rep","full_date":"2026-02-24T15:21:15.082Z","date":"2026-02-24","time":"15:21:15"},{"task":"memory_phase","broad_category":"M","image_png":"M_Phyllite_07.png","image_id":263,"category_name":"Phyllite","category":17,"distinct_rating":2.59,"distinct_type":"Bottom","rt":null,"stimulus":"Stimuli_Rocks480/M_Phyllite_07.png","response":null,"trial_type":"image-keyboard-response","trial_index":16,"plugin_version":"2.1.0","time_elapsed":57430,"subject_id":"92413","group":"Group1","condition":"1_Rep","full_date":"2026-02-24T15:21:15.082Z","date":"2026-02-24","time":"15:21:15"},{"rt":null,"stimulus":"<p style=\"font-size: 50px; margin: 0; text-align: center;\">+</p>","response":null,"trial_type":"html-keyboard-response","trial_index":17,"plugin_version":"2.1.0","time_elapsed":58434,"subject_id":"92413","group":"Group1","condition":"1_Rep","full_date":"2026-02-24T15:21:15.082Z","date":"2026-02-24","time":"15:21:15"},{"task":"memory_phase","broad_category":"I","image_png":"I_Andesite_10.png","image_id":10,"category_name":"Andesite","category":1,"distinct_rating":3.15,"distinct_type":"Bottom","rt":null,"stimulus":"Stimuli_Rocks480/I_Andesite_10.png","response":null,"trial_type":"image-keyboard-response","trial_index":18,"plugin_version":"2.1.0","time_elapsed":60944,"subject_id":"92413","group":"Group1","condition":"1_Rep","full_date":"2026-02-24T15:21:15.082Z","date":"2026-02-24","time":"15:21:15"},{"rt":null,"stimulus":"<p style=\"font-size: 50px; margin: 0; text-align: center;\">+</p>","response":null,"trial_type":"html-keyboard-response","trial_index":19,"plugin_version":"2.1.0","time_elapsed":61952,"subject_id":"92413","group":"Group1","condition":"1_Rep","full_date":"2026-02-24T15:21:15.082Z","date":"2026-02-24","time":"15:21:15"},{"task":"memory_phase","broad_category":"S","image_png":"S_Shale_01.png","image_id":465,"category_name":"Shale","category":30,"distinct_rating":2.7,"distinct_type":"Bottom","rt":null,"stimulus":"Stimuli_Rocks480/S_Shale_01.png","response":null,"trial_type":"image-keyboard-response","trial_index":20,"plugin_version":"2.1.0","time_elapsed":64460,"subject_id":"92413","group":"Group1","condition":"1_Rep","full_date":"2026-02-24T15:21:15.082Z","date":"2026-02-24","time":"15:21:15"},{"rt":null,"stimulus":"<p style=\"font-size: 50px; margin: 0; text-align: center;\">+</p>","response":null,"trial_type":"html-keyboard-response","trial_index":21,"plugin_version":"2.1.0","time_elapsed":65462,"subject_id":"92413","group":"Group1","condition":"1_Rep","full_date":"2026-02-24T15:21:15.082Z","date":"2026-02-24","time":"15:21:15"},{"task":"memory_phase","broad_category":"M","image_png":"M_Gneiss_05.png","image_id":197,"category_name":"Gneiss","category":13,"distinct_rating":2.97,"distinct_type":"Bottom","rt":null,"stimulus":"Stimuli_Rocks480/M_Gneiss_05.png","response":null,"trial_type":"image-keyboard-response","trial_index":22,"plugin_version":"2.1.0","time_elapsed":67971,"subject_id":"92413","group":"Group1","condition":"1_Rep","full_date":"2026-02-24T15:21:15.082Z","date":"2026-02-24","time":"15:21:15"},{"rt":null,"stimulus":"<p style=\"font-size: 50px; margin: 0; text-align: center;\">+</p>","response":null,"trial_type":"html-keyboard-response","trial_index":23,"plugin_version":"2.1.0","time_elapsed":68976,"subject_id":"92413","group":"Group1","condition":"1_Rep","full_date":"2026-02-24T15:21:15.082Z","date":"2026-02-24","time":"15:21:15"},{"task":"memory_phase","broad_category":"I","image_png":"I_Gabbro_08.png","image_id":56,"category_name":"Gabbro","category":4,"distinct_rating":3.02,"distinct_type":"Bottom","rt":null,"stimulus":"Stimuli_Rocks480/I_Gabbro_08.png","response":null,"trial_type":"image-keyboard-response","trial_index":24,"plugin_version":"2.1.0","time_elapsed":71483,"subject_id":"92413","group":"Group1","condition":"1_Rep","full_date":"2026-02-24T15:21:15.082Z","date":"2026-02-24","time":"15:21:15"},{"rt":null,"stimulus":"<p style=\"font-size: 50px; margin: 0; text-align: center;\">+</p>","response":null,"trial_type":"html-keyboard-response","trial_index":25,"plugin_version":"2.1.0","time_elapsed":72495,"subject_id":"92413","group":"Group1","condition":"1_Rep","full_date":"2026-02-24T15:21:15.082Z","date":"2026-02-24","time":"15:21:15"},{"task":"memory_phase","broad_category":"M","image_png":"M_Slate_03.png","image_id":307,"category_name":"Slate","category":20,"distinct_rating":1.87,"distinct_type":"Bottom","rt":null,"stimulus":"Stimuli_Rocks480/M_Slate_03.png","response":null,"trial_type":"image-keyboard-response","trial_index":26,"plugin_version":"2.1.0","time_elapsed":75004,"subject_id":"92413","group":"Group1","condition":"1_Rep","full_date":"2026-02-24T15:21:15.082Z","date":"2026-02-24","time":"15:21:15"},{"rt":null,"stimulus":"<p style=\"font-size: 50px; margin: 0; text-align: center;\">+</p>","response":null,"trial_type":"html-keyboard-response","trial_index":27,"plugin_version":"2.1.0","time_elapsed":76021,"subject_id":"92413","group":"Group1","condition":"1_Rep","full_date":"2026-02-24T15:21:15.082Z","date":"2026-02-24","time":"15:21:15"},{"task":"memory_phase","broad_category":"S","image_png":"S_Dolomite_13.png","image_id":397,"category_name":"Dolomite","category":25,"distinct_rating":1.77,"distinct_type":"Bottom","rt":null,"stimulus":"Stimuli_Rocks480/S_Dolomite_13.png","response":null,"trial_type":"image-keyboard-response","trial_index":28,"plugin_version":"2.1.0","time_elapsed":78525,"subject_id":"92413","group":"Group1","condition":"1_Rep","full_date":"2026-02-24T15:21:15.082Z","date":"2026-02-24","time":"15:21:15"},{"rt":null,"stimulus":"<p style=\"font-size: 50px; margin: 0; text-align: center;\">+</p>","response":null,"trial_type":"html-keyboard-response","trial_index":29,"plugin_version":"2.1.0","time_elapsed":79537,"subject_id":"92413","group":"Group1","condition":"1_Rep","full_date":"2026-02-24T15:21:15.082Z","date":"2026-02-24","time":"15:21:15"},{"task":"memory_phase","broad_category":"I","image_png":"I_Basalt_01.png","image_id":17,"category_name":"Basalt","category":2,"distinct_rating":1.92,"distinct_type":"Bottom","rt":null,"stimulus":"Stimuli_Rocks480/I_Basalt_01.png","response":null,"trial_type":"image-keyboard-response","trial_index":30,"plugin_version":"2.1.0","time_elapsed":82048,"subject_id":"92413","group":"Group1","condition":"1_Rep","full_date":"2026-02-24T15:21:15.082Z","date":"2026-02-24","time":"15:21:15"},{"rt":null,"stimulus":"<p style=\"font-size: 50px; margin: 0; text-align: center;\">+</p>","response":null,"trial_type":"html-keyboard-response","trial_index":31,"plugin_version":"2.1.0","time_elapsed":83056,"subject_id":"92413","group":"Group1","condition":"1_Rep","full_date":"2026-02-24T15:21:15.082Z","date":"2026-02-24","time":"15:21:15"},{"task":"memory_phase","broad_category":"I","image_png":"I_Andesite_08.png","image_id":8,"category_name":"Andesite","category":1,"distinct_rating":1.95,"distinct_type":"Bottom","rt":null,"stimulus":"Stimuli_Rocks480/I_Andesite_08.png","response":null,"trial_type":"image-keyboard-response","trial_index":32,"plugin_version":"2.1.0","time_elapsed":85559,"subject_id":"92413","group":"Group1","condition":"1_Rep","full_date":"2026-02-24T15:21:15.082Z","date":"2026-02-24","time":"15:21:15"},{"rt":null,"stimulus":"<p style=\"font-size: 50px; margin: 0; text-align: center;\">+</p>","response":null,"trial_type":"html-keyboard-response","trial_index":33,"plugin_version":"2.1.0","time_elapsed":86571,"subject_id":"92413","group":"Group1","condition":"1_Rep","full_date":"2026-02-24T15:21:15.082Z","date":"2026-02-24","time":"15:21:15"},{"task":"memory_phase","broad_category":"I","image_png":"I_Rhyolite_11.png","image_id":155,"category_name":"Rhyolite","category":10,"distinct_rating":1.73,"distinct_type":"Bottom","rt":null,"stimulus":"Stimuli_Rocks480/I_Rhyolite_11.png","response":null,"trial_type":"image-keyboard-response","trial_index":34,"plugin_version":"2.1.0","time_elapsed":89082,"subject_id":"92413","group":"Group1","condition":"1_Rep","full_date":"2026-02-24T15:21:15.082Z","date":"2026-02-24","time":"15:21:15"},{"rt":null,"stimulus":"<p style=\"font-size: 50px; margin: 0; text-align: center;\">+</p>","response":null,"trial_type":"html-keyboard-response","trial_index":35,"plugin_version":"2.1.0","time_elapsed":90087,"subject_id":"92413","group":"Group1","condition":"1_Rep","full_date":"2026-02-24T15:21:15.082Z","date":"2026-02-24","time":"15:21:15"},{"task":"memory_phase","broad_category":"I","image_png":"I_Basalt_09.png","image_id":25,"category_name":"Basalt","category":2,"distinct_rating":1.89,"distinct_type":"Bottom","rt":null,"stimulus":"Stimuli_Rocks480/I_Basalt_09.png","response":null,"trial_type":"image-keyboard-response","trial_index":36,"plugin_version":"2.1.0","time_elapsed":92604,"subject_id":"92413","group":"Group1","condition":"1_Rep","full_date":"2026-02-24T15:21:15.082Z","date":"2026-02-24","time":"15:21:15"},{"rt":null,"stimulus":"<p style=\"font-size: 50px; margin: 0; text-align: center;\">+</p>","response":null,"trial_type":"html-keyboard-response","trial_index":37,"plugin_version":"2.1.0","time_elapsed":93617,"subject_id":"92413","group":"Group1","condition":"1_Rep","full_date":"2026-02-24T15:21:15.082Z","date":"2026-02-24","time":"15:21:15"},{"task":"memory_phase","broad_category":"M","image_png":"M_Quartzite_13.png","image_id":285,"category_name":"Quartzite","category":18,"distinct_rating":2.27,"distinct_type":"Bottom","rt":null,"stimulus":"Stimuli_Rocks480/M_Quartzite_13.png","response":null,"trial_type":"image-keyboard-response","trial_index":38,"plugin_version":"2.1.0","time_elapsed":96132,"subject_id":"92413","group":"Group1","condition":"1_Rep","full_date":"2026-02-24T15:21:15.082Z","date":"2026-02-24","time":"15:21:15"},{"rt":null,"stimulus":"<p style=\"font-size: 50px; margin: 0; text-align: center;\">+</p>","response":null,"trial_type":"html-keyboard-response","trial_index":39,"plugin_version":"2.1.0","time_elapsed":97141,"subject_id":"92413","group":"Group1","condition":"1_Rep","full_date":"2026-02-24T15:21:15.082Z","date":"2026-02-24","time":"15:21:15"},{"task":"memory_phase","broad_category":"M","image_png":"M_Marble_04.png","image_id":228,"category_name":"Marble","category":15,"distinct_rating":3.15,"distinct_type":"Bottom","rt":null,"stimulus":"Stimuli_Rocks480/M_Marble_04.png","response":null,"trial_type":"image-keyboard-response","trial_index":40,"plugin_version":"2.1.0","time_elapsed":99655,"subject_id":"92413","group":"Group1","condition":"1_Rep","full_date":"2026-02-24T15:21:15.082Z","date":"2026-02-24","time":"15:21:15"},{"rt":null,"stimulus":"<p style=\"font-size: 50px; margin: 0; text-align: center;\">+</p>","response":null,"trial_type":"html-keyboard-response","trial_index":41,"plugin_version":"2.1.0","time_elapsed":100671,"subject_id":"92413","group":"Group1","condition":"1_Rep","full_date":"2026-02-24T15:21:15.082Z","date":"2026-02-24","time":"15:21:15"},{"task":"memory_phase","broad_category":"I","image_png":"I_Pumice_12.png","image_id":140,"category_name":"Pumice","category":9,"distinct_rating":2.97,"distinct_type":"Bottom","rt":null,"stimulus":"Stimuli_Rocks480/I_Pumice_12.png","response":null,"trial_type":"image-keyboard-response","trial_index":42,"plugin_version":"2.1.0","time_elapsed":103182,"subject_id":"92413","group":"Group1","condition":"1_Rep","full_date":"2026-02-24T15:21:15.082Z","date":"2026-02-24","time":"15:21:15"},{"rt":null,"stimulus":"<p style=\"font-size: 50px; margin: 0; text-align: center;\">+</p>","response":null,"trial_type":"html-keyboard-response","trial_index":43,"plugin_version":"2.1.0","time_elapsed":104191,"subject_id":"92413","group":"Group1","condition":"1_Rep","full_date":"2026-02-24T15:21:15.082Z","date":"2026-02-24","time":"15:21:15"},{"task":"memory_phase","broad_category":"I","image_png":"I_Gabbro_11.png","image_id":59,"category_name":"Gabbro","category":4,"distinct_rating":1.99,"distinct_type":"Bottom","rt":null,"stimulus":"Stimuli_Rocks480/I_Gabbro_11.png","response":null,"trial_type":"image-keyboard-response","trial_index":44,"plugin_version":"2.1.0","time_elapsed":106697,"subject_id":"92413","group":"Group1","condition":"1_Rep","full_date":"2026-02-24T15:21:15.082Z","date":"2026-02-24","time":"15:21:15"},{"rt":null,"stimulus":"<p style=\"font-size: 50px; margin: 0; text-align: center;\">+</p>","response":null,"trial_type":"html-keyboard-response","trial_index":45,"plugin_version":"2.1.0","time_elapsed":107704,"subject_id":"92413","group":"Group1","condition":"1_Rep","full_date":"2026-02-24T15:21:15.082Z","date":"2026-02-24","time":"15:21:15"},{"task":"memory_phase","broad_category":"S","image_png":"S_Shale_08.png","image_id":472,"category_name":"Shale","category":30,"distinct_rating":2.55,"distinct_type":"Bottom","rt":null,"stimulus":"Stimuli_Rocks480/S_Shale_08.png","response":null,"trial_type":"image-keyboard-response","trial_index":46,"plugin_version":"2.1.0","time_elapsed":110223,"subject_id":"92413","group":"Group1","condition":"1_Rep","full_date":"2026-02-24T15:21:15.082Z","date":"2026-02-24","time":"15:21:15"},{"rt":null,"stimulus":"<p style=\"font-size: 50px; margin: 0; text-align: center;\">+</p>","response":null,"trial_type":"html-keyboard-response","trial_index":47,"plugin_version":"2.1.0","time_elapsed":111239,"subject_id":"92413","group":"Group1","condition":"1_Rep","full_date":"2026-02-24T15:21:15.082Z","date":"2026-02-24","time":"15:21:15"},{"task":"memory_phase","broad_category":"I","image_png":"I_Rhyolite_16.png","image_id":160,"category_name":"Rhyolite","category":10,"distinct_rating":2.19,"distinct_type":"Bottom","rt":null,"stimulus":"Stimuli_Rocks480/I_Rhyolite_16.png","response":null,"trial_type":"image-keyboard-response","trial_index":48,"plugin_version":"2.1.0","time_elapsed":113742,"subject_id":"92413","group":"Group1","condition":"1_Rep","full_date":"2026-02-24T15:21:15.082Z","date":"2026-02-24","time":"15:21:15"},{"rt":null,"stimulus":"<p style=\"font-size: 50px; margin: 0; text-align: center;\">+</p>","response":null,"trial_type":"html-keyboard-response","trial_index":49,"plugin_version":"2.1.0","time_elapsed":114753,"subject_id":"92413","group":"Group1","condition":"1_Rep","full_date":"2026-02-24T15:21:15.082Z","date":"2026-02-24","time":"15:21:15"},{"task":"memory_phase","broad_category":"S","image_png":"S_Breccia_11.png","image_id":347,"category_name":"Breccia","category":22,"distinct_rating":6.7,"distinct_type":"Top","rt":null,"stimulus":"Stimuli_Rocks480/S_Breccia_11.png","response":null,"trial_type":"image-keyboard-response","trial_index":50,"plugin_version":"2.1.0","time_elapsed":117256,"subject_id":"92413","group":"Group1","condition":"1_Rep","full_date":"2026-02-24T15:21:15.082Z","date":"2026-02-24","time":"15:21:15"},{"rt":null,"stimulus":"<p style=\"font-size: 50px; margin: 0; text-align: center;\">+</p>","response":null,"trial_type":"html-keyboard-response","trial_index":51,"plugin_version":"2.1.0","time_elapsed":118260,"subject_id":"92413","group":"Group1","condition":"1_Rep","full_date":"2026-02-24T15:21:15.082Z","date":"2026-02-24","time":"15:21:15"},{"task":"memory_phase","broad_category":"I","image_png":"I_Basalt_02.png","image_id":18,"category_name":"Basalt","category":2,"distinct_rating":1.84,"distinct_type":"Bottom","rt":null,"stimulus":"Stimuli_Rocks480/I_Basalt_02.png","response":null,"trial_type":"image-keyboard-response","trial_index":52,"plugin_version":"2.1.0","time_elapsed":120766,"subject_id":"92413","group":"Group1","condition":"1_Rep","full_date":"2026-02-24T15:21:15.082Z","date":"2026-02-24","time":"15:21:15"},{"rt":null,"stimulus":"<p style=\"font-size: 50px; margin: 0; text-align: center;\">+</p>","response":null,"trial_type":"html-keyboard-response","trial_index":53,"plugin_version":"2.1.0","time_elapsed":121773,"subject_id":"92413","group":"Group1","condition":"1_Rep","full_date":"2026-02-24T15:21:15.082Z","date":"2026-02-24","time":"15:21:15"},{"task":"memory_phase","broad_category":"M","image_png":"M_Quartzite_08.png","image_id":280,"category_name":"Quartzite","category":18,"distinct_rating":2.15,"distinct_type":"Bottom","rt":null,"stimulus":"Stimuli_Rocks480/M_Quartzite_08.png","response":null,"trial_type":"image-keyboard-response","trial_index":54,"plugin_version":"2.1.0","time_elapsed":124288,"subject_id":"92413","group":"Group1","condition":"1_Rep","full_date":"2026-02-24T15:21:15.082Z","date":"2026-02-24","time":"15:21:15"},{"rt":2414,"stimulus":"<p style=\"max-width: 760px; margin: auto; font-size: 35px; line-height: 1.5;\">\n                Press SPACE to continue study phase\n              </p>","response":" ","trial_type":"html-keyboard-response","trial_index":55,"plugin_version":"2.1.0","time_elapsed":126704,"subject_id":"92413","group":"Group1","condition":"1_Rep","full_date":"2026-02-24T15:21:15.082Z","date":"2026-02-24","time":"15:21:15"},{"rt":null,"stimulus":"<p style=\"font-size: 50px; margin: 0; text-align: center;\">+</p>","response":null,"trial_type":"html-keyboard-response","trial_index":56,"plugin_version":"2.1.0","time_elapsed":127708,"subject_id":"92413","group":"Group1","condition":"1_Rep","full_date":"2026-02-24T15:21:15.082Z","date":"2026-02-24","time":"15:21:15"},{"task":"memory_phase","broad_category":"I","image_png":"I_Gabbro_16.png","image_id":64,"category_name":"Gabbro","category":4,"distinct_rating":2.52,"distinct_type":"Bottom","rt":null,"stimulus":"Stimuli_Rocks480/I_Gabbro_16.png","response":null,"trial_type":"image-keyboard-response","trial_index":57,"plugin_version":"2.1.0","time_elapsed":130225,"subject_id":"92413","group":"Group1","condition":"1_Rep","full_date":"2026-02-24T15:21:15.082Z","date":"2026-02-24","time":"15:21:15"},{"rt":null,"stimulus":"<p style=\"font-size: 50px; margin: 0; text-align: center;\">+</p>","response":null,"trial_type":"html-keyboard-response","trial_index":58,"plugin_version":"2.1.0","time_elapsed":131237,"subject_id":"92413","group":"Group1","condition":"1_Rep","full_date":"2026-02-24T15:21:15.082Z","date":"2026-02-24","time":"15:21:15"},{"task":"memory_phase","broad_category":"I","image_png":"I_Diorite_05.png","image_id":37,"category_name":"Diorite","category":3,"distinct_rating":3.08,"distinct_type":"Bottom","rt":null,"stimulus":"Stimuli_Rocks480/I_Diorite_05.png","response":null,"trial_type":"image-keyboard-response","trial_index":59,"plugin_version":"2.1.0","time_elapsed":133746,"subject_id":"92413","group":"Group1","condition":"1_Rep","full_date":"2026-02-24T15:21:15.082Z","date":"2026-02-24","time":"15:21:15"},{"rt":null,"stimulus":"<p style=\"font-size: 50px; margin: 0; text-align: center;\">+</p>","response":null,"trial_type":"html-keyboard-response","trial_index":60,"plugin_version":"2.1.0","time_elapsed":134757,"subject_id":"92413","group":"Group1","condition":"1_Rep","full_date":"2026-02-24T15:21:15.082Z","date":"2026-02-24","time":"15:21:15"},{"task":"memory_phase","broad_category":"S","image_png":"S_Rock Gypsum_04.png","image_id":420,"category_name":"Rock Gypsum","category":27,"distinct_rating":7.61,"distinct_type":"Top","rt":null,"stimulus":"Stimuli_Rocks480/S_Rock Gypsum_04.png","response":null,"trial_type":"image-keyboard-response","trial_index":61,"plugin_version":"2.1.0","time_elapsed":137272,"subject_id":"92413","group":"Group1","condition":"1_Rep","full_date":"2026-02-24T15:21:15.082Z","date":"2026-02-24","time":"15:21:15"},{"rt":null,"stimulus":"<p style=\"font-size: 50px; margin: 0; text-align: center;\">+</p>","response":null,"trial_type":"html-keyboard-response","trial_index":62,"plugin_version":"2.1.0","time_elapsed":138283,"subject_id":"92413","group":"Group1","condition":"1_Rep","full_date":"2026-02-24T15:21:15.082Z","date":"2026-02-24","time":"15:21:15"},{"task":"memory_phase","broad_category":"I","image_png":"I_Obsidian_05.png","image_id":85,"category_name":"Obsidian","category":6,"distinct_rating":7.32,"distinct_type":"Top","rt":null,"stimulus":"Stimuli_Rocks480/I_Obsidian_05.png","response":null,"trial_type":"image-keyboard-response","trial_index":63,"plugin_version":"2.1.0","time_elapsed":140798,"subject_id":"92413","group":"Group1","condition":"1_Rep","full_date":"2026-02-24T15:21:15.082Z","date":"2026-02-24","time":"15:21:15"},{"rt":null,"stimulus":"<p style=\"font-size: 50px; margin: 0; text-align: center;\">+</p>","response":null,"trial_type":"html-keyboard-response","trial_index":64,"plugin_version":"2.1.0","time_elapsed":141801,"subject_id":"92413","group":"Group1","condition":"1_Rep","full_date":"2026-02-24T15:21:15.082Z","date":"2026-02-24","time":"15:21:15"},{"task":"memory_phase","broad_category":"S","image_png":"S_Dolomite_14.png","image_id":398,"category_name":"Dolomite","category":25,"distinct_rating":1.43,"distinct_type":"Bottom","rt":null,"stimulus":"Stimuli_Rocks480/S_Dolomite_14.png","response":null,"trial_type":"image-keyboard-response","trial_index":65,"plugin_version":"2.1.0","time_elapsed":144308,"subject_id":"92413","group":"Group1","condition":"1_Rep","full_date":"2026-02-24T15:21:15.082Z","date":"2026-02-24","time":"15:21:15"},{"rt":null,"stimulus":"<p style=\"font-size: 50px; margin: 0; text-align: center;\">+</p>","response":null,"trial_type":"html-keyboard-response","trial_index":66,"plugin_version":"2.1.0","time_elapsed":145318,"subject_id":"92413","group":"Group1","condition":"1_Rep","full_date":"2026-02-24T15:21:15.082Z","date":"2026-02-24","time":"15:21:15"},{"task":"memory_phase","broad_category":"I","image_png":"I_Pegmatite_10.png","image_id":106,"category_name":"Pegmatite","category":7,"distinct_rating":7.66,"distinct_type":"Top","rt":null,"stimulus":"Stimuli_Rocks480/I_Pegmatite_10.png","response":null,"trial_type":"image-keyboard-response","trial_index":67,"plugin_version":"2.1.0","time_elapsed":147837,"subject_id":"92413","group":"Group1","condition":"1_Rep","full_date":"2026-02-24T15:21:15.082Z","date":"2026-02-24","time":"15:21:15"},{"rt":null,"stimulus":"<p style=\"font-size: 50px; margin: 0; text-align: center;\">+</p>","response":null,"trial_type":"html-keyboard-response","trial_index":68,"plugin_version":"2.1.0","time_elapsed":148854,"subject_id":"92413","group":"Group1","condition":"1_Rep","full_date":"2026-02-24T15:21:15.082Z","date":"2026-02-24","time":"15:21:15"},{"task":"memory_phase","broad_category":"S","image_png":"S_Sandstone_15.png","image_id":463,"category_name":"Sandstone","category":29,"distinct_rating":2,"distinct_type":"Bottom","rt":null,"stimulus":"Stimuli_Rocks480/S_Sandstone_15.png","response":null,"trial_type":"image-keyboard-response","trial_index":69,"plugin_version":"2.1.0","time_elapsed":151360,"subject_id":"92413","group":"Group1","condition":"1_Rep","full_date":"2026-02-24T15:21:15.082Z","date":"2026-02-24","time":"15:21:15"},{"rt":null,"stimulus":"<p style=\"font-size: 50px; margin: 0; text-align: center;\">+</p>","response":null,"trial_type":"html-keyboard-response","trial_index":70,"plugin_version":"2.1.0","time_elapsed":152372,"subject_id":"92413","group":"Group1","condition":"1_Rep","full_date":"2026-02-24T15:21:15.082Z","date":"2026-02-24","time":"15:21:15"},{"task":"memory_phase","broad_category":"M","image_png":"M_Slate_15.png","image_id":319,"category_name":"Slate","category":20,"distinct_rating":2.13,"distinct_type":"Bottom","rt":null,"stimulus":"Stimuli_Rocks480/M_Slate_15.png","response":null,"trial_type":"image-keyboard-response","trial_index":71,"plugin_version":"2.1.0","time_elapsed":154880,"subject_id":"92413","group":"Group1","condition":"1_Rep","full_date":"2026-02-24T15:21:15.082Z","date":"2026-02-24","time":"15:21:15"},{"rt":null,"stimulus":"<p style=\"font-size: 50px; margin: 0; text-align: center;\">+</p>","response":null,"trial_type":"html-keyboard-response","trial_index":72,"plugin_version":"2.1.0","time_elapsed":155883,"subject_id":"92413","group":"Group1","condition":"1_Rep","full_date":"2026-02-24T15:21:15.082Z","date":"2026-02-24","time":"15:21:15"},{"task":"memory_phase","broad_category":"M","image_png":"M_Gneiss_06.png","image_id":198,"category_name":"Gneiss","category":13,"distinct_rating":2.65,"distinct_type":"Bottom","rt":null,"stimulus":"Stimuli_Rocks480/M_Gneiss_06.png","response":null,"trial_type":"image-keyboard-response","trial_index":73,"plugin_version":"2.1.0","time_elapsed":158389,"subject_id":"92413","group":"Group1","condition":"1_Rep","full_date":"2026-02-24T15:21:15.082Z","date":"2026-02-24","time":"15:21:15"},{"rt":null,"stimulus":"<p style=\"font-size: 50px; margin: 0; text-align: center;\">+</p>","response":null,"trial_type":"html-keyboard-response","trial_index":74,"plugin_version":"2.1.0","time_elapsed":159394,"subject_id":"92413","group":"Group1","condition":"1_Rep","full_date":"2026-02-24T15:21:15.082Z","date":"2026-02-24","time":"15:21:15"},{"task":"memory_phase","broad_category":"M","image_png":"M_Phyllite_10.png","image_id":266,"category_name":"Phyllite","category":17,"distinct_rating":2.6,"distinct_type":"Bottom","rt":null,"stimulus":"Stimuli_Rocks480/M_Phyllite_10.png","response":null,"trial_type":"image-keyboard-response","trial_index":75,"plugin_version":"2.1.0","time_elapsed":161904,"subject_id":"92413","group":"Group1","condition":"1_Rep","full_date":"2026-02-24T15:21:15.082Z","date":"2026-02-24","time":"15:21:15"},{"rt":null,"stimulus":"<p style=\"font-size: 50px; margin: 0; text-align: center;\">+</p>","response":null,"trial_type":"html-keyboard-response","trial_index":76,"plugin_version":"2.1.0","time_elapsed":162918,"subject_id":"92413","group":"Group1","condition":"1_Rep","full_date":"2026-02-24T15:21:15.082Z","date":"2026-02-24","time":"15:21:15"},{"task":"memory_phase","broad_category":"I","image_png":"I_Pumice_11.png","image_id":139,"category_name":"Pumice","category":9,"distinct_rating":1.74,"distinct_type":"Bottom","rt":null,"stimulus":"Stimuli_Rocks480/I_Pumice_11.png","response":null,"trial_type":"image-keyboard-response","trial_index":77,"plugin_version":"2.1.0","time_elapsed":165432,"subject_id":"92413","group":"Group1","condition":"1_Rep","full_date":"2026-02-24T15:21:15.082Z","date":"2026-02-24","time":"15:21:15"},{"rt":null,"stimulus":"<p style=\"font-size: 50px; margin: 0; text-align: center;\">+</p>","response":null,"trial_type":"html-keyboard-response","trial_index":78,"plugin_version":"2.1.0","time_elapsed":166440,"subject_id":"92413","group":"Group1","condition":"1_Rep","full_date":"2026-02-24T15:21:15.082Z","date":"2026-02-24","time":"15:21:15"},{"task":"memory_phase","broad_category":"S","image_png":"S_Chert_10.png","image_id":362,"category_name":"Chert","category":23,"distinct_rating":7.17,"distinct_type":"Top","rt":null,"stimulus":"Stimuli_Rocks480/S_Chert_10.png","response":null,"trial_type":"image-keyboard-response","trial_index":79,"plugin_version":"2.1.0","time_elapsed":168949,"subject_id":"92413","group":"Group1","condition":"1_Rep","full_date":"2026-02-24T15:21:15.082Z","date":"2026-02-24","time":"15:21:15"},{"rt":null,"stimulus":"<p style=\"font-size: 50px; margin: 0; text-align: center;\">+</p>","response":null,"trial_type":"html-keyboard-response","trial_index":80,"plugin_version":"2.1.0","time_elapsed":169957,"subject_id":"92413","group":"Group1","condition":"1_Rep","full_date":"2026-02-24T15:21:15.082Z","date":"2026-02-24","time":"15:21:15"},{"task":"memory_phase","broad_category":"I","image_png":"I_Andesite_06.png","image_id":6,"category_name":"Andesite","category":1,"distinct_rating":3.17,"distinct_type":"Bottom","rt":null,"stimulus":"Stimuli_Rocks480/I_Andesite_06.png","response":null,"trial_type":"image-keyboard-response","trial_index":81,"plugin_version":"2.1.0","time_elapsed":172465,"subject_id":"92413","group":"Group1","condition":"1_Rep","full_date":"2026-02-24T15:21:15.082Z","date":"2026-02-24","time":"15:21:15"},{"rt":null,"stimulus":"<p style=\"font-size: 50px; margin: 0; text-align: center;\">+</p>","response":null,"trial_type":"html-keyboard-response","trial_index":82,"plugin_version":"2.1.0","time_elapsed":173484,"subject_id":"92413","group":"Group1","condition":"1_Rep","full_date":"2026-02-24T15:21:15.082Z","date":"2026-02-24","time":"15:21:15"},{"task":"memory_phase","broad_category":"S","image_png":"S_Sandstone_03.png","image_id":451,"category_name":"Sandstone","category":29,"distinct_rating":1.86,"distinct_type":"Bottom","rt":null,"stimulus":"Stimuli_Rocks480/S_Sandstone_03.png","response":null,"trial_type":"image-keyboard-response","trial_index":83,"plugin_version":"2.1.0","time_elapsed":175992,"subject_id":"92413","group":"Group1","condition":"1_Rep","full_date":"2026-02-24T15:21:15.082Z","date":"2026-02-24","time":"15:21:15"},{"rt":null,"stimulus":"<p style=\"font-size: 50px; margin: 0; text-align: center;\">+</p>","response":null,"trial_type":"html-keyboard-response","trial_index":84,"plugin_version":"2.1.0","time_elapsed":177003,"subject_id":"92413","group":"Group1","condition":"1_Rep","full_date":"2026-02-24T15:21:15.082Z","date":"2026-02-24","time":"15:21:15"},{"task":"memory_phase","broad_category":"M","image_png":"M_Quartzite_05.png","image_id":277,"category_name":"Quartzite","category":18,"distinct_rating":2.23,"distinct_type":"Bottom","rt":null,"stimulus":"Stimuli_Rocks480/M_Quartzite_05.png","response":null,"trial_type":"image-keyboard-response","trial_index":85,"plugin_version":"2.1.0","time_elapsed":179516,"subject_id":"92413","group":"Group1","condition":"1_Rep","full_date":"2026-02-24T15:21:15.082Z","date":"2026-02-24","time":"15:21:15"},{"rt":null,"stimulus":"<p style=\"font-size: 50px; margin: 0; text-align: center;\">+</p>","response":null,"trial_type":"html-keyboard-response","trial_index":86,"plugin_version":"2.1.0","time_elapsed":180532,"subject_id":"92413","group":"Group1","condition":"1_Rep","full_date":"2026-02-24T15:21:15.082Z","date":"2026-02-24","time":"15:21:15"},{"task":"memory_phase","broad_category":"M","image_png":"M_Gneiss_13.png","image_id":205,"category_name":"Gneiss","category":13,"distinct_rating":3.26,"distinct_type":"Bottom","rt":null,"stimulus":"Stimuli_Rocks480/M_Gneiss_13.png","response":null,"trial_type":"image-keyboard-response","trial_index":87,"plugin_version":"2.1.0","time_elapsed":183036,"subject_id":"92413","group":"Group1","condition":"1_Rep","full_date":"2026-02-24T15:21:15.082Z","date":"2026-02-24","time":"15:21:15"},{"rt":null,"stimulus":"<p style=\"font-size: 50px; margin: 0; text-align: center;\">+</p>","response":null,"trial_type":"html-keyboard-response","trial_index":88,"plugin_version":"2.1.0","time_elapsed":184048,"subject_id":"92413","group":"Group1","condition":"1_Rep","full_date":"2026-02-24T15:21:15.082Z","date":"2026-02-24","time":"15:21:15"},{"task":"memory_phase","broad_category":"M","image_png":"M_Slate_11.png","image_id":315,"category_name":"Slate","category":20,"distinct_rating":2.75,"distinct_type":"Bottom","rt":null,"stimulus":"Stimuli_Rocks480/M_Slate_11.png","response":null,"trial_type":"image-keyboard-response","trial_index":89,"plugin_version":"2.1.0","time_elapsed":186561,"subject_id":"92413","group":"Group1","condition":"1_Rep","full_date":"2026-02-24T15:21:15.082Z","date":"2026-02-24","time":"15:21:15"},{"rt":null,"stimulus":"<p style=\"font-size: 50px; margin: 0; text-align: center;\">+</p>","response":null,"trial_type":"html-keyboard-response","trial_index":90,"plugin_version":"2.1.0","time_elapsed":187575,"subject_id":"92413","group":"Group1","condition":"1_Rep","full_date":"2026-02-24T15:21:15.082Z","date":"2026-02-24","time":"15:21:15"},{"task":"memory_phase","broad_category":"S","image_png":"S_Rock Salt_01.png","image_id":433,"category_name":"Rock Salt","category":28,"distinct_rating":7.18,"distinct_type":"Top","rt":null,"stimulus":"Stimuli_Rocks480/S_Rock Salt_01.png","response":null,"trial_type":"image-keyboard-response","trial_index":91,"plugin_version":"2.1.0","time_elapsed":190088,"subject_id":"92413","group":"Group1","condition":"1_Rep","full_date":"2026-02-24T15:21:15.082Z","date":"2026-02-24","time":"15:21:15"},{"rt":null,"stimulus":"<p style=\"font-size: 50px; margin: 0; text-align: center;\">+</p>","response":null,"trial_type":"html-keyboard-response","trial_index":92,"plugin_version":"2.1.0","time_elapsed":191100,"subject_id":"92413","group":"Group1","condition":"1_Rep","full_date":"2026-02-24T15:21:15.082Z","date":"2026-02-24","time":"15:21:15"},{"task":"memory_phase","broad_category":"S","image_png":"S_Conglomerate_05.png","image_id":373,"category_name":"Conglomerate","category":24,"distinct_rating":7.32,"distinct_type":"Top","rt":null,"stimulus":"Stimuli_Rocks480/S_Conglomerate_05.png","response":null,"trial_type":"image-keyboard-response","trial_index":93,"plugin_version":"2.1.0","time_elapsed":193613,"subject_id":"92413","group":"Group1","condition":"1_Rep","full_date":"2026-02-24T15:21:15.082Z","date":"2026-02-24","time":"15:21:15"},{"rt":null,"stimulus":"<p style=\"font-size: 50px; margin: 0; text-align: center;\">+</p>","response":null,"trial_type":"html-keyboard-response","trial_index":94,"plugin_version":"2.1.0","time_elapsed":194626,"subject_id":"92413","group":"Group1","condition":"1_Rep","full_date":"2026-02-24T15:21:15.082Z","date":"2026-02-24","time":"15:21:15"},{"task":"memory_phase","broad_category":"S","image_png":"S_Shale_12.png","image_id":476,"category_name":"Shale","category":30,"distinct_rating":2.48,"distinct_type":"Bottom","rt":null,"stimulus":"Stimuli_Rocks480/S_Shale_12.png","response":null,"trial_type":"image-keyboard-response","trial_index":95,"plugin_version":"2.1.0","time_elapsed":197138,"subject_id":"92413","group":"Group1","condition":"1_Rep","full_date":"2026-02-24T15:21:15.082Z","date":"2026-02-24","time":"15:21:15"},{"rt":null,"stimulus":"<p style=\"font-size: 50px; margin: 0; text-align: center;\">+</p>","response":null,"trial_type":"html-keyboard-response","trial_index":96,"plugin_version":"2.1.0","time_elapsed":198145,"subject_id":"92413","group":"Group1","condition":"1_Rep","full_date":"2026-02-24T15:21:15.082Z","date":"2026-02-24","time":"15:21:15"},{"task":"memory_phase","broad_category":"I","image_png":"I_Pumice_08.png","image_id":136,"category_name":"Pumice","category":9,"distinct_rating":3.1,"distinct_type":"Bottom","rt":null,"stimulus":"Stimuli_Rocks480/I_Pumice_08.png","response":null,"trial_type":"image-keyboard-response","trial_index":97,"plugin_version":"2.1.0","time_elapsed":200651,"subject_id":"92413","group":"Group1","condition":"1_Rep","full_date":"2026-02-24T15:21:15.082Z","date":"2026-02-24","time":"15:21:15"},{"rt":null,"stimulus":"<p style=\"font-size: 50px; margin: 0; text-align: center;\">+</p>","response":null,"trial_type":"html-keyboard-response","trial_index":98,"plugin_version":"2.1.0","time_elapsed":201657,"subject_id":"92413","group":"Group1","condition":"1_Rep","full_date":"2026-02-24T15:21:15.082Z","date":"2026-02-24","time":"15:21:15"},{"task":"memory_phase","broad_category":"S","image_png":"S_Dolomite_12.png","image_id":396,"category_name":"Dolomite","category":25,"distinct_rating":1.85,"distinct_type":"Bottom","rt":null,"stimulus":"Stimuli_Rocks480/S_Dolomite_12.png","response":null,"trial_type":"image-keyboard-response","trial_index":99,"plugin_version":"2.1.0","time_elapsed":204170,"subject_id":"92413","group":"Group1","condition":"1_Rep","full_date":"2026-02-24T15:21:15.082Z","date":"2026-02-24","time":"15:21:15"},{"rt":null,"stimulus":"<p style=\"font-size: 50px; margin: 0; text-align: center;\">+</p>","response":null,"trial_type":"html-keyboard-response","trial_index":100,"plugin_version":"2.1.0","time_elapsed":205171,"subject_id":"92413","group":"Group1","condition":"1_Rep","full_date":"2026-02-24T15:21:15.082Z","date":"2026-02-24","time":"15:21:15"},{"task":"memory_phase","broad_category":"I","image_png":"I_Rhyolite_14.png","image_id":158,"category_name":"Rhyolite","category":10,"distinct_rating":2.59,"distinct_type":"Bottom","rt":null,"stimulus":"Stimuli_Rocks480/I_Rhyolite_14.png","response":null,"trial_type":"image-keyboard-response","trial_index":101,"plugin_version":"2.1.0","time_elapsed":207689,"subject_id":"92413","group":"Group1","condition":"1_Rep","full_date":"2026-02-24T15:21:15.082Z","date":"2026-02-24","time":"15:21:15"},{"rt":null,"stimulus":"<p style=\"font-size: 50px; margin: 0; text-align: center;\">+</p>","response":null,"trial_type":"html-keyboard-response","trial_index":102,"plugin_version":"2.1.0","time_elapsed":208695,"subject_id":"92413","group":"Group1","condition":"1_Rep","full_date":"2026-02-24T15:21:15.082Z","date":"2026-02-24","time":"15:21:15"},{"task":"memory_phase","broad_category":"S","image_png":"S_Sandstone_16.png","image_id":464,"category_name":"Sandstone","category":29,"distinct_rating":1.93,"distinct_type":"Bottom","rt":null,"stimulus":"Stimuli_Rocks480/S_Sandstone_16.png","response":null,"trial_type":"image-keyboard-response","trial_index":103,"plugin_version":"2.1.0","time_elapsed":211212,"subject_id":"92413","group":"Group1","condition":"1_Rep","full_date":"2026-02-24T15:21:15.082Z","date":"2026-02-24","time":"15:21:15"},{"rt":null,"stimulus":"<p style=\"font-size: 50px; margin: 0; text-align: center;\">+</p>","response":null,"trial_type":"html-keyboard-response","trial_index":104,"plugin_version":"2.1.0","time_elapsed":212223,"subject_id":"92413","group":"Group1","condition":"1_Rep","full_date":"2026-02-24T15:21:15.082Z","date":"2026-02-24","time":"15:21:15"},{"task":"memory_phase","broad_category":"I","image_png":"I_Diorite_04.png","image_id":36,"category_name":"Diorite","category":3,"distinct_rating":2.98,"distinct_type":"Bottom","rt":null,"stimulus":"Stimuli_Rocks480/I_Diorite_04.png","response":null,"trial_type":"image-keyboard-response","trial_index":105,"plugin_version":"2.1.0","time_elapsed":214726,"subject_id":"92413","group":"Group1","condition":"1_Rep","full_date":"2026-02-24T15:21:15.082Z","date":"2026-02-24","time":"15:21:15"},{"rt":18171,"stimulus":"<div style=\"max-width: 760px; margin: auto; font-size: 20px; line-height: 1.5;\">\n      <h1 style=\"text-align:center; font-size: 30px;\">Instructions for the Test Phase</h1>\n      <p>\n        The study phase is now complete.\n      </p>\n      <p>\n        In the test phase, you will again see a series of rock images. \n        Some will be ones you saw before - during the study phase, while others will be new.  \n        <b>Your task</b> is to decide whether you have seen each image before by pressing the corresponding key on your keyboard:<br><br>\n          <b>A</b> - NO (you did not see this image before)<br>\n          <b>L</b> - YES (you saw this image before)<br><br>\n        The test will proceed at your own pace. You will receive feedback after each response.  \n        Please try to respond <b>as accurately as possible</b>.\n      </p>\n      <p>\n        <b>Reminder:</b> If your computer has multiple language settings (e.g., English and another language),\n        please ensure it is set to English during the test phase.\n      </p>\n      <p>\n        You can track your progress using the <b>completion bar</b> at the top of the screen.  \n        Note that it has been refreshed to reflect your progress during this final phase.\n      </p>\n      <p>\n        Press the button below when you are ready to continue.\n      </p>\n    </div>","response":0,"trial_type":"html-button-response","trial_index":106,"plugin_version":"2.1.0","time_elapsed":232899,"subject_id":"92413","group":"Group1","condition":"1_Rep","full_date":"2026-02-24T15:21:15.082Z","date":"2026-02-24","time":"15:21:15"},{"correct_response":"a","task":"test_phase","broad_category":"S","image_png":"S_Dolomite_16.png","image_id":400,"category_name":"Dolomite","category":25,"distinct_rating":1.71,"distinct_type":"Bottom","item_type":"Foil","rt":5171,"stimulus":"Stimuli_Rocks480/S_Dolomite_16.png","response":"l","trial_type":"image-keyboard-response","trial_index":107,"plugin_version":"2.1.0","time_elapsed":238072,"subject_id":"92413","group":"Group1","condition":"1_Rep","full_date":"2026-02-24T15:21:15.082Z","date":"2026-02-24","time":"15:21:15","cor_ans":false},{"trial_type":"html-keyboard-response","rt":null,"stimulus":"<p style=\"color: red; font-size: 50px; font-weight: bold;\">Incorrect</p>","response":null,"trial_index":108,"plugin_version":"2.1.0","time_elapsed":238584,"subject_id":"92413","group":"Group1","condition":"1_Rep","full_date":"2026-02-24T15:21:15.082Z","date":"2026-02-24","time":"15:21:15"},{"correct_response":"l","task":"test_phase","broad_category":"I","image_png":"I_Pumice_11.png","image_id":139,"category_name":"Pumice","category":9,"distinct_rating":1.74,"distinct_type":"Bottom","item_type":"Target","rt":975,"stimulus":"Stimuli_Rocks480/I_Pumice_11.png","response":"l","trial_type":"image-keyboard-response","trial_index":109,"plugin_version":"2.1.0","time_elapsed":239561,"subject_id":"92413","group":"Group1","condition":"1_Rep","full_date":"2026-02-24T15:21:15.082Z","date":"2026-02-24","time":"15:21:15","cor_ans":true},{"trial_type":"html-keyboard-response","rt":null,"stimulus":"<p style=\"color: green; font-size: 50px; font-weight: bold;\">Correct</p>","response":null,"trial_index":110,"plugin_version":"2.1.0","time_elapsed":240066,"subject_id":"92413","group":"Group1","condition":"1_Rep","full_date":"2026-02-24T15:21:15.082Z","date":"2026-02-24","time":"15:21:15"},{"correct_response":"l","task":"test_phase","broad_category":"M","image_png":"M_Marble_04.png","image_id":228,"category_name":"Marble","category":15,"distinct_rating":3.15,"distinct_type":"Bottom","item_type":"Target","rt":942,"stimulus":"Stimuli_Rocks480/M_Marble_04.png","response":"l","trial_type":"image-keyboard-response","trial_index":111,"plugin_version":"2.1.0","time_elapsed":241011,"subject_id":"92413","group":"Group1","condition":"1_Rep","full_date":"2026-02-24T15:21:15.082Z","date":"2026-02-24","time":"15:21:15","cor_ans":true},{"trial_type":"html-keyboard-response","rt":null,"stimulus":"<p style=\"color: green; font-size: 50px; font-weight: bold;\">Correct</p>","response":null,"trial_index":112,"plugin_version":"2.1.0","time_elapsed":241522,"subject_id":"92413","group":"Group1","condition":"1_Rep","full_date":"2026-02-24T15:21:15.082Z","date":"2026-02-24","time":"15:21:15"},{"correct_response":"a","task":"test_phase","broad_category":"I","image_png":"I_Basalt_08.png","image_id":24,"category_name":"Basalt","category":2,"distinct_rating":2.31,"distinct_type":"Bottom","item_type":"Foil","rt":2699,"stimulus":"Stimuli_Rocks480/I_Basalt_08.png","response":"a","trial_type":"image-keyboard-response","trial_index":113,"plugin_version":"2.1.0","time_elapsed":244224,"subject_id":"92413","group":"Group1","condition":"1_Rep","full_date":"2026-02-24T15:21:15.082Z","date":"2026-02-24","time":"15:21:15","cor_ans":true},{"trial_type":"html-keyboard-response","rt":null,"stimulus":"<p style=\"color: green; font-size: 50px; font-weight: bold;\">Correct</p>","response":null,"trial_index":114,"plugin_version":"2.1.0","time_elapsed":244741,"subject_id":"92413","group":"Group1","condition":"1_Rep","full_date":"2026-02-24T15:21:15.082Z","date":"2026-02-24","time":"15:21:15"},{"correct_response":"a","task":"test_phase","broad_category":"M","image_png":"M_Marble_02.png","image_id":226,"category_name":"Marble","category":15,"distinct_rating":3.2,"distinct_type":"Bottom","item_type":"Foil","rt":1521,"stimulus":"Stimuli_Rocks480/M_Marble_02.png","response":"a","trial_type":"image-keyboard-response","trial_index":115,"plugin_version":"2.1.0","time_elapsed":246263,"subject_id":"92413","group":"Group1","condition":"1_Rep","full_date":"2026-02-24T15:21:15.082Z","date":"2026-02-24","time":"15:21:15","cor_ans":true},{"trial_type":"html-keyboard-response","rt":null,"stimulus":"<p style=\"color: green; font-size: 50px; font-weight: bold;\">Correct</p>","response":null,"trial_index":116,"plugin_version":"2.1.0","time_elapsed":246779,"subject_id":"92413","group":"Group1","condition":"1_Rep","full_date":"2026-02-24T15:21:15.082Z","date":"2026-02-24","time":"15:21:15"},{"correct_response":"l","task":"test_phase","broad_category":"I","image_png":"I_Basalt_09.png","image_id":25,"category_name":"Basalt","category":2,"distinct_rating":1.89,"distinct_type":"Bottom","item_type":"Target","rt":931,"stimulus":"Stimuli_Rocks480/I_Basalt_09.png","response":"l","trial_type":"image-keyboard-response","trial_index":117,"plugin_version":"2.1.0","time_elapsed":247712,"subject_id":"92413","group":"Group1","condition":"1_Rep","full_date":"2026-02-24T15:21:15.082Z","date":"2026-02-24","time":"15:21:15","cor_ans":true},{"trial_type":"html-keyboard-response","rt":null,"stimulus":"<p style=\"color: green; font-size: 50px; font-weight: bold;\">Correct</p>","response":null,"trial_index":118,"plugin_version":"2.1.0","time_elapsed":248219,"subject_id":"92413","group":"Group1","condition":"1_Rep","full_date":"2026-02-24T15:21:15.082Z","date":"2026-02-24","time":"15:21:15"},{"correct_response":"a","task":"test_phase","broad_category":"M","image_png":"M_Slate_04.png","image_id":308,"category_name":"Slate","category":20,"distinct_rating":2.2,"distinct_type":"Bottom","item_type":"Foil","rt":726,"stimulus":"Stimuli_Rocks480/M_Slate_04.png","response":"l","trial_type":"image-keyboard-response","trial_index":119,"plugin_version":"2.1.0","time_elapsed":248948,"subject_id":"92413","group":"Group1","condition":"1_Rep","full_date":"2026-02-24T15:21:15.082Z","date":"2026-02-24","time":"15:21:15","cor_ans":false},{"trial_type":"html-keyboard-response","rt":null,"stimulus":"<p style=\"color: red; font-size: 50px; font-weight: bold;\">Incorrect</p>","response":null,"trial_index":120,"plugin_version":"2.1.0","time_elapsed":249452,"subject_id":"92413","group":"Group1","condition":"1_Rep","full_date":"2026-02-24T15:21:15.082Z","date":"2026-02-24","time":"15:21:15"},{"correct_response":"l","task":"test_phase","broad_category":"M","image_png":"M_Quartzite_13.png","image_id":285,"category_name":"Quartzite","category":18,"distinct_rating":2.27,"distinct_type":"Bottom","item_type":"Target","rt":2153,"stimulus":"Stimuli_Rocks480/M_Quartzite_13.png","response":"a","trial_type":"image-keyboard-response","trial_index":121,"plugin_version":"2.1.0","time_elapsed":251607,"subject_id":"92413","group":"Group1","condition":"1_Rep","full_date":"2026-02-24T15:21:15.082Z","date":"2026-02-24","time":"15:21:15","cor_ans":false},{"trial_type":"html-keyboard-response","rt":null,"stimulus":"<p style=\"color: red; font-size: 50px; font-weight: bold;\">Incorrect</p>","response":null,"trial_index":122,"plugin_version":"2.1.0","time_elapsed":252117,"subject_id":"92413","group":"Group1","condition":"1_Rep","full_date":"2026-02-24T15:21:15.082Z","date":"2026-02-24","time":"15:21:15"},{"correct_response":"a","task":"test_phase","broad_category":"M","image_png":"M_Phyllite_02.png","image_id":258,"category_name":"Phyllite","category":17,"distinct_rating":2.89,"distinct_type":"Bottom","item_type":"Foil","rt":1341,"stimulus":"Stimuli_Rocks480/M_Phyllite_02.png","response":"a","trial_type":"image-keyboard-response","trial_index":123,"plugin_version":"2.1.0","time_elapsed":253459,"subject_id":"92413","group":"Group1","condition":"1_Rep","full_date":"2026-02-24T15:21:15.082Z","date":"2026-02-24","time":"15:21:15","cor_ans":true},{"trial_type":"html-keyboard-response","rt":null,"stimulus":"<p style=\"color: green; font-size: 50px; font-weight: bold;\">Correct</p>","response":null,"trial_index":124,"plugin_version":"2.1.0","time_elapsed":253964,"subject_id":"92413","group":"Group1","condition":"1_Rep","full_date":"2026-02-24T15:21:15.082Z","date":"2026-02-24","time":"15:21:15"},{"correct_response":"l","task":"test_phase","broad_category":"I","image_png":"I_Pumice_08.png","image_id":136,"category_name":"Pumice","category":9,"distinct_rating":3.1,"distinct_type":"Bottom","item_type":"Target","rt":966,"stimulus":"Stimuli_Rocks480/I_Pumice_08.png","response":"l","trial_type":"image-keyboard-response","trial_index":125,"plugin_version":"2.1.0","time_elapsed":254932,"subject_id":"92413","group":"Group1","condition":"1_Rep","full_date":"2026-02-24T15:21:15.082Z","date":"2026-02-24","time":"15:21:15","cor_ans":true},{"trial_type":"html-keyboard-response","rt":null,"stimulus":"<p style=\"color: green; font-size: 50px; font-weight: bold;\">Correct</p>","response":null,"trial_index":126,"plugin_version":"2.1.0","time_elapsed":255447,"subject_id":"92413","group":"Group1","condition":"1_Rep","full_date":"2026-02-24T15:21:15.082Z","date":"2026-02-24","time":"15:21:15"},{"correct_response":"l","task":"test_phase","broad_category":"I","image_png":"I_Gabbro_08.png","image_id":56,"category_name":"Gabbro","category":4,"distinct_rating":3.02,"distinct_type":"Bottom","item_type":"Target","rt":2151,"stimulus":"Stimuli_Rocks480/I_Gabbro_08.png","response":"a","trial_type":"image-keyboard-response","trial_index":127,"plugin_version":"2.1.0","time_elapsed":257599,"subject_id":"92413","group":"Group1","condition":"1_Rep","full_date":"2026-02-24T15:21:15.082Z","date":"2026-02-24","time":"15:21:15","cor_ans":false},{"trial_type":"html-keyboard-response","rt":null,"stimulus":"<p style=\"color: red; font-size: 50px; font-weight: bold;\">Incorrect</p>","response":null,"trial_index":128,"plugin_version":"2.1.0","time_elapsed":258102,"subject_id":"92413","group":"Group1","condition":"1_Rep","full_date":"2026-02-24T15:21:15.082Z","date":"2026-02-24","time":"15:21:15"},{"correct_response":"a","task":"test_phase","broad_category":"M","image_png":"M_Gneiss_10.png","image_id":202,"category_name":"Gneiss","category":13,"distinct_rating":3.09,"distinct_type":"Bottom","item_type":"Foil","rt":1152,"stimulus":"Stimuli_Rocks480/M_Gneiss_10.png","response":"l","trial_type":"image-keyboard-response","trial_index":129,"plugin_version":"2.1.0","time_elapsed":259257,"subject_id":"92413","group":"Group1","condition":"1_Rep","full_date":"2026-02-24T15:21:15.082Z","date":"2026-02-24","time":"15:21:15","cor_ans":false},{"trial_type":"html-keyboard-response","rt":null,"stimulus":"<p style=\"color: red; font-size: 50px; font-weight: bold;\">Incorrect</p>","response":null,"trial_index":130,"plugin_version":"2.1.0","time_elapsed":259761,"subject_id":"92413","group":"Group1","condition":"1_Rep","full_date":"2026-02-24T15:21:15.082Z","date":"2026-02-24","time":"15:21:15"},{"correct_response":"l","task":"test_phase","broad_category":"I","image_png":"I_Andesite_08.png","image_id":8,"category_name":"Andesite","category":1,"distinct_rating":1.95,"distinct_type":"Bottom","item_type":"Target","rt":592,"stimulus":"Stimuli_Rocks480/I_Andesite_08.png","response":"l","trial_type":"image-keyboard-response","trial_index":131,"plugin_version":"2.1.0","time_elapsed":260355,"subject_id":"92413","group":"Group1","condition":"1_Rep","full_date":"2026-02-24T15:21:15.082Z","date":"2026-02-24","time":"15:21:15","cor_ans":true},{"trial_type":"html-keyboard-response","rt":null,"stimulus":"<p style=\"color: green; font-size: 50px; font-weight: bold;\">Correct</p>","response":null,"trial_index":132,"plugin_version":"2.1.0","time_elapsed":260867,"subject_id":"92413","group":"Group1","condition":"1_Rep","full_date":"2026-02-24T15:21:15.082Z","date":"2026-02-24","time":"15:21:15"},{"correct_response":"l","task":"test_phase","broad_category":"I","image_png":"I_Pegmatite_10.png","image_id":106,"category_name":"Pegmatite","category":7,"distinct_rating":7.66,"distinct_type":"Top","item_type":"Target","rt":737,"stimulus":"Stimuli_Rocks480/I_Pegmatite_10.png","response":"l","trial_type":"image-keyboard-response","trial_index":133,"plugin_version":"2.1.0","time_elapsed":261606,"subject_id":"92413","group":"Group1","condition":"1_Rep","full_date":"2026-02-24T15:21:15.082Z","date":"2026-02-24","time":"15:21:15","cor_ans":true},{"trial_type":"html-keyboard-response","rt":null,"stimulus":"<p style=\"color: green; font-size: 50px; font-weight: bold;\">Correct</p>","response":null,"trial_index":134,"plugin_version":"2.1.0","time_elapsed":262111,"subject_id":"92413","group":"Group1","condition":"1_Rep","full_date":"2026-02-24T15:21:15.082Z","date":"2026-02-24","time":"15:21:15"},{"correct_response":"l","task":"test_phase","broad_category":"M","image_png":"M_Slate_03.png","image_id":307,"category_name":"Slate","category":20,"distinct_rating":1.87,"distinct_type":"Bottom","item_type":"Target","rt":716,"stimulus":"Stimuli_Rocks480/M_Slate_03.png","response":"l","trial_type":"image-keyboard-response","trial_index":135,"plugin_version":"2.1.0","time_elapsed":262830,"subject_id":"92413","group":"Group1","condition":"1_Rep","full_date":"2026-02-24T15:21:15.082Z","date":"2026-02-24","time":"15:21:15","cor_ans":true},{"trial_type":"html-keyboard-response","rt":null,"stimulus":"<p style=\"color: green; font-size: 50px; font-weight: bold;\">Correct</p>","response":null,"trial_index":136,"plugin_version":"2.1.0","time_elapsed":263336,"subject_id":"92413","group":"Group1","condition":"1_Rep","full_date":"2026-02-24T15:21:15.082Z","date":"2026-02-24","time":"15:21:15"},{"correct_response":"a","task":"test_phase","broad_category":"S","image_png":"S_Sandstone_11.png","image_id":459,"category_name":"Sandstone","category":29,"distinct_rating":1.82,"distinct_type":"Bottom","item_type":"Foil","rt":1800,"stimulus":"Stimuli_Rocks480/S_Sandstone_11.png","response":"a","trial_type":"image-keyboard-response","trial_index":137,"plugin_version":"2.1.0","time_elapsed":265139,"subject_id":"92413","group":"Group1","condition":"1_Rep","full_date":"2026-02-24T15:21:15.082Z","date":"2026-02-24","time":"15:21:15","cor_ans":true},{"trial_type":"html-keyboard-response","rt":null,"stimulus":"<p style=\"color: green; font-size: 50px; font-weight: bold;\">Correct</p>","response":null,"trial_index":138,"plugin_version":"2.1.0","time_elapsed":265654,"subject_id":"92413","group":"Group1","condition":"1_Rep","full_date":"2026-02-24T15:21:15.082Z","date":"2026-02-24","time":"15:21:15"},{"correct_response":"a","task":"test_phase","broad_category":"S","image_png":"S_Conglomerate_14.png","image_id":382,"category_name":"Conglomerate","category":24,"distinct_rating":6.86,"distinct_type":"Top","item_type":"Foil","rt":1196,"stimulus":"Stimuli_Rocks480/S_Conglomerate_14.png","response":"a","trial_type":"image-keyboard-response","trial_index":139,"plugin_version":"2.1.0","time_elapsed":266852,"subject_id":"92413","group":"Group1","condition":"1_Rep","full_date":"2026-02-24T15:21:15.082Z","date":"2026-02-24","time":"15:21:15","cor_ans":true},{"trial_type":"html-keyboard-response","rt":null,"stimulus":"<p style=\"color: green; font-size: 50px; font-weight: bold;\">Correct</p>","response":null,"trial_index":140,"plugin_version":"2.1.0","time_elapsed":267365,"subject_id":"92413","group":"Group1","condition":"1_Rep","full_date":"2026-02-24T15:21:15.082Z","date":"2026-02-24","time":"15:21:15"},{"correct_response":"a","task":"test_phase","broad_category":"I","image_png":"I_Andesite_09.png","image_id":9,"category_name":"Andesite","category":1,"distinct_rating":2.49,"distinct_type":"Bottom","item_type":"Foil","rt":2027,"stimulus":"Stimuli_Rocks480/I_Andesite_09.png","response":"a","trial_type":"image-keyboard-response","trial_index":141,"plugin_version":"2.1.0","time_elapsed":269394,"subject_id":"92413","group":"Group1","condition":"1_Rep","full_date":"2026-02-24T15:21:15.082Z","date":"2026-02-24","time":"15:21:15","cor_ans":true},{"trial_type":"html-keyboard-response","rt":null,"stimulus":"<p style=\"color: green; font-size: 50px; font-weight: bold;\">Correct</p>","response":null,"trial_index":142,"plugin_version":"2.1.0","time_elapsed":269900,"subject_id":"92413","group":"Group1","condition":"1_Rep","full_date":"2026-02-24T15:21:15.082Z","date":"2026-02-24","time":"15:21:15"},{"correct_response":"l","task":"test_phase","broad_category":"I","image_png":"I_Basalt_02.png","image_id":18,"category_name":"Basalt","category":2,"distinct_rating":1.84,"distinct_type":"Bottom","item_type":"Target","rt":1096,"stimulus":"Stimuli_Rocks480/I_Basalt_02.png","response":"l","trial_type":"image-keyboard-response","trial_index":143,"plugin_version":"2.1.0","time_elapsed":270998,"subject_id":"92413","group":"Group1","condition":"1_Rep","full_date":"2026-02-24T15:21:15.082Z","date":"2026-02-24","time":"15:21:15","cor_ans":true},{"trial_type":"html-keyboard-response","rt":null,"stimulus":"<p style=\"color: green; font-size: 50px; font-weight: bold;\">Correct</p>","response":null,"trial_index":144,"plugin_version":"2.1.0","time_elapsed":271509,"subject_id":"92413","group":"Group1","condition":"1_Rep","full_date":"2026-02-24T15:21:15.082Z","date":"2026-02-24","time":"15:21:15"},{"correct_response":"a","task":"test_phase","broad_category":"I","image_png":"I_Andesite_04.png","image_id":4,"category_name":"Andesite","category":1,"distinct_rating":3.18,"distinct_type":"Bottom","item_type":"Foil","rt":2316,"stimulus":"Stimuli_Rocks480/I_Andesite_04.png","response":"l","trial_type":"image-keyboard-response","trial_index":145,"plugin_version":"2.1.0","time_elapsed":273827,"subject_id":"92413","group":"Group1","condition":"1_Rep","full_date":"2026-02-24T15:21:15.082Z","date":"2026-02-24","time":"15:21:15","cor_ans":false},{"trial_type":"html-keyboard-response","rt":null,"stimulus":"<p style=\"color: red; font-size: 50px; font-weight: bold;\">Incorrect</p>","response":null,"trial_index":146,"plugin_version":"2.1.0","time_elapsed":274331,"subject_id":"92413","group":"Group1","condition":"1_Rep","full_date":"2026-02-24T15:21:15.082Z","date":"2026-02-24","time":"15:21:15"},{"correct_response":"a","task":"test_phase","broad_category":"I","image_png":"I_Gabbro_02.png","image_id":50,"category_name":"Gabbro","category":4,"distinct_rating":2.73,"distinct_type":"Bottom","item_type":"Foil","rt":902,"stimulus":"Stimuli_Rocks480/I_Gabbro_02.png","response":"l","trial_type":"image-keyboard-response","trial_index":147,"plugin_version":"2.1.0","time_elapsed":275235,"subject_id":"92413","group":"Group1","condition":"1_Rep","full_date":"2026-02-24T15:21:15.082Z","date":"2026-02-24","time":"15:21:15","cor_ans":false},{"trial_type":"html-keyboard-response","rt":null,"stimulus":"<p style=\"color: red; font-size: 50px; font-weight: bold;\">Incorrect</p>","response":null,"trial_index":148,"plugin_version":"2.1.0","time_elapsed":275749,"subject_id":"92413","group":"Group1","condition":"1_Rep","full_date":"2026-02-24T15:21:15.082Z","date":"2026-02-24","time":"15:21:15"},{"correct_response":"a","task":"test_phase","broad_category":"I","image_png":"I_Basalt_13.png","image_id":29,"category_name":"Basalt","category":2,"distinct_rating":2.68,"distinct_type":"Bottom","item_type":"Foil","rt":964,"stimulus":"Stimuli_Rocks480/I_Basalt_13.png","response":"l","trial_type":"image-keyboard-response","trial_index":149,"plugin_version":"2.1.0","time_elapsed":276715,"subject_id":"92413","group":"Group1","condition":"1_Rep","full_date":"2026-02-24T15:21:15.082Z","date":"2026-02-24","time":"15:21:15","cor_ans":false},{"trial_type":"html-keyboard-response","rt":null,"stimulus":"<p style=\"color: red; font-size: 50px; font-weight: bold;\">Incorrect</p>","response":null,"trial_index":150,"plugin_version":"2.1.0","time_elapsed":277225,"subject_id":"92413","group":"Group1","condition":"1_Rep","full_date":"2026-02-24T15:21:15.082Z","date":"2026-02-24","time":"15:21:15"},{"correct_response":"a","task":"test_phase","broad_category":"I","image_png":"I_Pegmatite_03.png","image_id":99,"category_name":"Pegmatite","category":7,"distinct_rating":7.24,"distinct_type":"Top","item_type":"Foil","rt":1502,"stimulus":"Stimuli_Rocks480/I_Pegmatite_03.png","response":"a","trial_type":"image-keyboard-response","trial_index":151,"plugin_version":"2.1.0","time_elapsed":278729,"subject_id":"92413","group":"Group1","condition":"1_Rep","full_date":"2026-02-24T15:21:15.082Z","date":"2026-02-24","time":"15:21:15","cor_ans":true},{"trial_type":"html-keyboard-response","rt":null,"stimulus":"<p style=\"color: green; font-size: 50px; font-weight: bold;\">Correct</p>","response":null,"trial_index":152,"plugin_version":"2.1.0","time_elapsed":279245,"subject_id":"92413","group":"Group1","condition":"1_Rep","full_date":"2026-02-24T15:21:15.082Z","date":"2026-02-24","time":"15:21:15"},{"correct_response":"l","task":"test_phase","broad_category":"M","image_png":"M_Gneiss_06.png","image_id":198,"category_name":"Gneiss","category":13,"distinct_rating":2.65,"distinct_type":"Bottom","item_type":"Target","rt":976,"stimulus":"Stimuli_Rocks480/M_Gneiss_06.png","response":"l","trial_type":"image-keyboard-response","trial_index":153,"plugin_version":"2.1.0","time_elapsed":280223,"subject_id":"92413","group":"Group1","condition":"1_Rep","full_date":"2026-02-24T15:21:15.082Z","date":"2026-02-24","time":"15:21:15","cor_ans":true},{"trial_type":"html-keyboard-response","rt":null,"stimulus":"<p style=\"color: green; font-size: 50px; font-weight: bold;\">Correct</p>","response":null,"trial_index":154,"plugin_version":"2.1.0","time_elapsed":280726,"subject_id":"92413","group":"Group1","condition":"1_Rep","full_date":"2026-02-24T15:21:15.082Z","date":"2026-02-24","time":"15:21:15"},{"correct_response":"a","task":"test_phase","broad_category":"I","image_png":"I_Rhyolite_08.png","image_id":152,"category_name":"Rhyolite","category":10,"distinct_rating":1.38,"distinct_type":"Bottom","item_type":"Foil","rt":1243,"stimulus":"Stimuli_Rocks480/I_Rhyolite_08.png","response":"a","trial_type":"image-keyboard-response","trial_index":155,"plugin_version":"2.1.0","time_elapsed":281971,"subject_id":"92413","group":"Group1","condition":"1_Rep","full_date":"2026-02-24T15:21:15.082Z","date":"2026-02-24","time":"15:21:15","cor_ans":true},{"trial_type":"html-keyboard-response","rt":null,"stimulus":"<p style=\"color: green; font-size: 50px; font-weight: bold;\">Correct</p>","response":null,"trial_index":156,"plugin_version":"2.1.0","time_elapsed":282476,"subject_id":"92413","group":"Group1","condition":"1_Rep","full_date":"2026-02-24T15:21:15.082Z","date":"2026-02-24","time":"15:21:15"},{"correct_response":"a","task":"test_phase","broad_category":"S","image_png":"S_Shale_07.png","image_id":471,"category_name":"Shale","category":30,"distinct_rating":2.73,"distinct_type":"Bottom","item_type":"Foil","rt":1710,"stimulus":"Stimuli_Rocks480/S_Shale_07.png","response":"a","trial_type":"image-keyboard-response","trial_index":157,"plugin_version":"2.1.0","time_elapsed":284187,"subject_id":"92413","group":"Group1","condition":"1_Rep","full_date":"2026-02-24T15:21:15.082Z","date":"2026-02-24","time":"15:21:15","cor_ans":true},{"trial_type":"html-keyboard-response","rt":null,"stimulus":"<p style=\"color: green; font-size: 50px; font-weight: bold;\">Correct</p>","response":null,"trial_index":158,"plugin_version":"2.1.0","time_elapsed":284691,"subject_id":"92413","group":"Group1","condition":"1_Rep","full_date":"2026-02-24T15:21:15.082Z","date":"2026-02-24","time":"15:21:15"},{"correct_response":"a","task":"test_phase","broad_category":"I","image_png":"I_Gabbro_14.png","image_id":62,"category_name":"Gabbro","category":4,"distinct_rating":2.95,"distinct_type":"Bottom","item_type":"Foil","rt":800,"stimulus":"Stimuli_Rocks480/I_Gabbro_14.png","response":"a","trial_type":"image-keyboard-response","trial_index":159,"plugin_version":"2.1.0","time_elapsed":285493,"subject_id":"92413","group":"Group1","condition":"1_Rep","full_date":"2026-02-24T15:21:15.082Z","date":"2026-02-24","time":"15:21:15","cor_ans":true},{"trial_type":"html-keyboard-response","rt":null,"stimulus":"<p style=\"color: green; font-size: 50px; font-weight: bold;\">Correct</p>","response":null,"trial_index":160,"plugin_version":"2.1.0","time_elapsed":286007,"subject_id":"92413","group":"Group1","condition":"1_Rep","full_date":"2026-02-24T15:21:15.082Z","date":"2026-02-24","time":"15:21:15"},{"correct_response":"a","task":"test_phase","broad_category":"M","image_png":"M_Slate_10.png","image_id":314,"category_name":"Slate","category":20,"distinct_rating":1.94,"distinct_type":"Bottom","item_type":"Foil","rt":1022,"stimulus":"Stimuli_Rocks480/M_Slate_10.png","response":"l","trial_type":"image-keyboard-response","trial_index":161,"plugin_version":"2.1.0","time_elapsed":287032,"subject_id":"92413","group":"Group1","condition":"1_Rep","full_date":"2026-02-24T15:21:15.082Z","date":"2026-02-24","time":"15:21:15","cor_ans":false},{"trial_type":"html-keyboard-response","rt":null,"stimulus":"<p style=\"color: red; font-size: 50px; font-weight: bold;\">Incorrect</p>","response":null,"trial_index":162,"plugin_version":"2.1.0","time_elapsed":287533,"subject_id":"92413","group":"Group1","condition":"1_Rep","full_date":"2026-02-24T15:21:15.082Z","date":"2026-02-24","time":"15:21:15"},{"correct_response":"a","task":"test_phase","broad_category":"I","image_png":"I_Rhyolite_10.png","image_id":154,"category_name":"Rhyolite","category":10,"distinct_rating":2.88,"distinct_type":"Bottom","item_type":"Foil","rt":736,"stimulus":"Stimuli_Rocks480/I_Rhyolite_10.png","response":"l","trial_type":"image-keyboard-response","trial_index":163,"plugin_version":"2.1.0","time_elapsed":288271,"subject_id":"92413","group":"Group1","condition":"1_Rep","full_date":"2026-02-24T15:21:15.082Z","date":"2026-02-24","time":"15:21:15","cor_ans":false},{"trial_type":"html-keyboard-response","rt":null,"stimulus":"<p style=\"color: red; font-size: 50px; font-weight: bold;\">Incorrect</p>","response":null,"trial_index":164,"plugin_version":"2.1.0","time_elapsed":288778,"subject_id":"92413","group":"Group1","condition":"1_Rep","full_date":"2026-02-24T15:21:15.082Z","date":"2026-02-24","time":"15:21:15"},{"correct_response":"l","task":"test_phase","broad_category":"S","image_png":"S_Dolomite_13.png","image_id":397,"category_name":"Dolomite","category":25,"distinct_rating":1.77,"distinct_type":"Bottom","item_type":"Target","rt":823,"stimulus":"Stimuli_Rocks480/S_Dolomite_13.png","response":"l","trial_type":"image-keyboard-response","trial_index":165,"plugin_version":"2.1.0","time_elapsed":289603,"subject_id":"92413","group":"Group1","condition":"1_Rep","full_date":"2026-02-24T15:21:15.082Z","date":"2026-02-24","time":"15:21:15","cor_ans":true},{"trial_type":"html-keyboard-response","rt":null,"stimulus":"<p style=\"color: green; font-size: 50px; font-weight: bold;\">Correct</p>","response":null,"trial_index":166,"plugin_version":"2.1.0","time_elapsed":290105,"subject_id":"92413","group":"Group1","condition":"1_Rep","full_date":"2026-02-24T15:21:15.082Z","date":"2026-02-24","time":"15:21:15"},{"correct_response":"l","task":"test_phase","broad_category":"M","image_png":"M_Quartzite_08.png","image_id":280,"category_name":"Quartzite","category":18,"distinct_rating":2.15,"distinct_type":"Bottom","item_type":"Target","rt":1219,"stimulus":"Stimuli_Rocks480/M_Quartzite_08.png","response":"l","trial_type":"image-keyboard-response","trial_index":167,"plugin_version":"2.1.0","time_elapsed":291326,"subject_id":"92413","group":"Group1","condition":"1_Rep","full_date":"2026-02-24T15:21:15.082Z","date":"2026-02-24","time":"15:21:15","cor_ans":true},{"trial_type":"html-keyboard-response","rt":null,"stimulus":"<p style=\"color: green; font-size: 50px; font-weight: bold;\">Correct</p>","response":null,"trial_index":168,"plugin_version":"2.1.0","time_elapsed":291842,"subject_id":"92413","group":"Group1","condition":"1_Rep","full_date":"2026-02-24T15:21:15.082Z","date":"2026-02-24","time":"15:21:15"},{"correct_response":"l","task":"test_phase","broad_category":"S","image_png":"S_Chert_10.png","image_id":362,"category_name":"Chert","category":23,"distinct_rating":7.17,"distinct_type":"Top","item_type":"Target","rt":656,"stimulus":"Stimuli_Rocks480/S_Chert_10.png","response":"l","trial_type":"image-keyboard-response","trial_index":169,"plugin_version":"2.1.0","time_elapsed":292500,"subject_id":"92413","group":"Group1","condition":"1_Rep","full_date":"2026-02-24T15:21:15.082Z","date":"2026-02-24","time":"15:21:15","cor_ans":true},{"trial_type":"html-keyboard-response","rt":null,"stimulus":"<p style=\"color: green; font-size: 50px; font-weight: bold;\">Correct</p>","response":null,"trial_index":170,"plugin_version":"2.1.0","time_elapsed":293003,"subject_id":"92413","group":"Group1","condition":"1_Rep","full_date":"2026-02-24T15:21:15.082Z","date":"2026-02-24","time":"15:21:15"},{"correct_response":"l","task":"test_phase","broad_category":"I","image_png":"I_Andesite_10.png","image_id":10,"category_name":"Andesite","category":1,"distinct_rating":3.15,"distinct_type":"Bottom","item_type":"Target","rt":1522,"stimulus":"Stimuli_Rocks480/I_Andesite_10.png","response":"a","trial_type":"image-keyboard-response","trial_index":171,"plugin_version":"2.1.0","time_elapsed":294528,"subject_id":"92413","group":"Group1","condition":"1_Rep","full_date":"2026-02-24T15:21:15.082Z","date":"2026-02-24","time":"15:21:15","cor_ans":false},{"trial_type":"html-keyboard-response","rt":null,"stimulus":"<p style=\"color: red; font-size: 50px; font-weight: bold;\">Incorrect</p>","response":null,"trial_index":172,"plugin_version":"2.1.0","time_elapsed":295044,"subject_id":"92413","group":"Group1","condition":"1_Rep","full_date":"2026-02-24T15:21:15.082Z","date":"2026-02-24","time":"15:21:15"},{"correct_response":"a","task":"test_phase","broad_category":"S","image_png":"S_Rock Salt_13.png","image_id":445,"category_name":"Rock Salt","category":28,"distinct_rating":7.58,"distinct_type":"Top","item_type":"Foil","rt":1126,"stimulus":"Stimuli_Rocks480/S_Rock Salt_13.png","response":"a","trial_type":"image-keyboard-response","trial_index":173,"plugin_version":"2.1.0","time_elapsed":296172,"subject_id":"92413","group":"Group1","condition":"1_Rep","full_date":"2026-02-24T15:21:15.082Z","date":"2026-02-24","time":"15:21:15","cor_ans":true},{"trial_type":"html-keyboard-response","rt":null,"stimulus":"<p style=\"color: green; font-size: 50px; font-weight: bold;\">Correct</p>","response":null,"trial_index":174,"plugin_version":"2.1.0","time_elapsed":296676,"subject_id":"92413","group":"Group1","condition":"1_Rep","full_date":"2026-02-24T15:21:15.082Z","date":"2026-02-24","time":"15:21:15"},{"correct_response":"l","task":"test_phase","broad_category":"I","image_png":"I_Gabbro_11.png","image_id":59,"category_name":"Gabbro","category":4,"distinct_rating":1.99,"distinct_type":"Bottom","item_type":"Target","rt":2168,"stimulus":"Stimuli_Rocks480/I_Gabbro_11.png","response":"l","trial_type":"image-keyboard-response","trial_index":175,"plugin_version":"2.1.0","time_elapsed":298847,"subject_id":"92413","group":"Group1","condition":"1_Rep","full_date":"2026-02-24T15:21:15.082Z","date":"2026-02-24","time":"15:21:15","cor_ans":true},{"trial_type":"html-keyboard-response","rt":null,"stimulus":"<p style=\"color: green; font-size: 50px; font-weight: bold;\">Correct</p>","response":null,"trial_index":176,"plugin_version":"2.1.0","time_elapsed":299350,"subject_id":"92413","group":"Group1","condition":"1_Rep","full_date":"2026-02-24T15:21:15.082Z","date":"2026-02-24","time":"15:21:15"},{"correct_response":"a","task":"test_phase","broad_category":"S","image_png":"S_Shale_02.png","image_id":466,"category_name":"Shale","category":30,"distinct_rating":2.9,"distinct_type":"Bottom","item_type":"Foil","rt":1390,"stimulus":"Stimuli_Rocks480/S_Shale_02.png","response":"a","trial_type":"image-keyboard-response","trial_index":177,"plugin_version":"2.1.0","time_elapsed":300742,"subject_id":"92413","group":"Group1","condition":"1_Rep","full_date":"2026-02-24T15:21:15.082Z","date":"2026-02-24","time":"15:21:15","cor_ans":true},{"trial_type":"html-keyboard-response","rt":null,"stimulus":"<p style=\"color: green; font-size: 50px; font-weight: bold;\">Correct</p>","response":null,"trial_index":178,"plugin_version":"2.1.0","time_elapsed":301258,"subject_id":"92413","group":"Group1","condition":"1_Rep","full_date":"2026-02-24T15:21:15.082Z","date":"2026-02-24","time":"15:21:15"},{"correct_response":"l","task":"test_phase","broad_category":"I","image_png":"I_Gabbro_16.png","image_id":64,"category_name":"Gabbro","category":4,"distinct_rating":2.52,"distinct_type":"Bottom","item_type":"Target","rt":1614,"stimulus":"Stimuli_Rocks480/I_Gabbro_16.png","response":"l","trial_type":"image-keyboard-response","trial_index":179,"plugin_version":"2.1.0","time_elapsed":302874,"subject_id":"92413","group":"Group1","condition":"1_Rep","full_date":"2026-02-24T15:21:15.082Z","date":"2026-02-24","time":"15:21:15","cor_ans":true},{"trial_type":"html-keyboard-response","rt":null,"stimulus":"<p style=\"color: green; font-size: 50px; font-weight: bold;\">Correct</p>","response":null,"trial_index":180,"plugin_version":"2.1.0","time_elapsed":303389,"subject_id":"92413","group":"Group1","condition":"1_Rep","full_date":"2026-02-24T15:21:15.082Z","date":"2026-02-24","time":"15:21:15"},{"correct_response":"a","task":"test_phase","broad_category":"I","image_png":"I_Pumice_14.png","image_id":142,"category_name":"Pumice","category":9,"distinct_rating":3.22,"distinct_type":"Bottom","item_type":"Foil","rt":1320,"stimulus":"Stimuli_Rocks480/I_Pumice_14.png","response":"a","trial_type":"image-keyboard-response","trial_index":181,"plugin_version":"2.1.0","time_elapsed":304711,"subject_id":"92413","group":"Group1","condition":"1_Rep","full_date":"2026-02-24T15:21:15.082Z","date":"2026-02-24","time":"15:21:15","cor_ans":true},{"trial_type":"html-keyboard-response","rt":null,"stimulus":"<p style=\"color: green; font-size: 50px; font-weight: bold;\">Correct</p>","response":null,"trial_index":182,"plugin_version":"2.1.0","time_elapsed":305228,"subject_id":"92413","group":"Group1","condition":"1_Rep","full_date":"2026-02-24T15:21:15.082Z","date":"2026-02-24","time":"15:21:15"},{"correct_response":"a","task":"test_phase","broad_category":"I","image_png":"I_Basalt_10.png","image_id":26,"category_name":"Basalt","category":2,"distinct_rating":2.76,"distinct_type":"Bottom","item_type":"Foil","rt":1682,"stimulus":"Stimuli_Rocks480/I_Basalt_10.png","response":"a","trial_type":"image-keyboard-response","trial_index":183,"plugin_version":"2.1.0","time_elapsed":306915,"subject_id":"92413","group":"Group1","condition":"1_Rep","full_date":"2026-02-24T15:21:15.082Z","date":"2026-02-24","time":"15:21:15","cor_ans":true},{"trial_type":"html-keyboard-response","rt":null,"stimulus":"<p style=\"color: green; font-size: 50px; font-weight: bold;\">Correct</p>","response":null,"trial_index":184,"plugin_version":"2.1.0","time_elapsed":307419,"subject_id":"92413","group":"Group1","condition":"1_Rep","full_date":"2026-02-24T15:21:15.082Z","date":"2026-02-24","time":"15:21:15"},{"correct_response":"a","task":"test_phase","broad_category":"M","image_png":"M_Quartzite_07.png","image_id":279,"category_name":"Quartzite","category":18,"distinct_rating":1.97,"distinct_type":"Bottom","item_type":"Foil","rt":2290,"stimulus":"Stimuli_Rocks480/M_Quartzite_07.png","response":"a","trial_type":"image-keyboard-response","trial_index":185,"plugin_version":"2.1.0","time_elapsed":309712,"subject_id":"92413","group":"Group1","condition":"1_Rep","full_date":"2026-02-24T15:21:15.082Z","date":"2026-02-24","time":"15:21:15","cor_ans":true},{"trial_type":"html-keyboard-response","rt":null,"stimulus":"<p style=\"color: green; font-size: 50px; font-weight: bold;\">Correct</p>","response":null,"trial_index":186,"plugin_version":"2.1.0","time_elapsed":310224,"subject_id":"92413","group":"Group1","condition":"1_Rep","full_date":"2026-02-24T15:21:15.082Z","date":"2026-02-24","time":"15:21:15"},{"correct_response":"l","task":"test_phase","broad_category":"S","image_png":"S_Sandstone_03.png","image_id":451,"category_name":"Sandstone","category":29,"distinct_rating":1.86,"distinct_type":"Bottom","item_type":"Target","rt":908,"stimulus":"Stimuli_Rocks480/S_Sandstone_03.png","response":"l","trial_type":"image-keyboard-response","trial_index":187,"plugin_version":"2.1.0","time_elapsed":311135,"subject_id":"92413","group":"Group1","condition":"1_Rep","full_date":"2026-02-24T15:21:15.082Z","date":"2026-02-24","time":"15:21:15","cor_ans":true},{"trial_type":"html-keyboard-response","rt":null,"stimulus":"<p style=\"color: green; font-size: 50px; font-weight: bold;\">Correct</p>","response":null,"trial_index":188,"plugin_version":"2.1.0","time_elapsed":311642,"subject_id":"92413","group":"Group1","condition":"1_Rep","full_date":"2026-02-24T15:21:15.082Z","date":"2026-02-24","time":"15:21:15"},{"correct_response":"a","task":"test_phase","broad_category":"M","image_png":"M_Phyllite_13.png","image_id":269,"category_name":"Phyllite","category":17,"distinct_rating":2.8,"distinct_type":"Bottom","item_type":"Foil","rt":1958,"stimulus":"Stimuli_Rocks480/M_Phyllite_13.png","response":"l","trial_type":"image-keyboard-response","trial_index":189,"plugin_version":"2.1.0","time_elapsed":313602,"subject_id":"92413","group":"Group1","condition":"1_Rep","full_date":"2026-02-24T15:21:15.082Z","date":"2026-02-24","time":"15:21:15","cor_ans":false},{"trial_type":"html-keyboard-response","rt":null,"stimulus":"<p style=\"color: red; font-size: 50px; font-weight: bold;\">Incorrect</p>","response":null,"trial_index":190,"plugin_version":"2.1.0","time_elapsed":314118,"subject_id":"92413","group":"Group1","condition":"1_Rep","full_date":"2026-02-24T15:21:15.082Z","date":"2026-02-24","time":"15:21:15"},{"correct_response":"a","task":"test_phase","broad_category":"S","image_png":"S_Dolomite_01.png","image_id":385,"category_name":"Dolomite","category":25,"distinct_rating":1.43,"distinct_type":"Bottom","item_type":"Foil","rt":1256,"stimulus":"Stimuli_Rocks480/S_Dolomite_01.png","response":"a","trial_type":"image-keyboard-response","trial_index":191,"plugin_version":"2.1.0","time_elapsed":315377,"subject_id":"92413","group":"Group1","condition":"1_Rep","full_date":"2026-02-24T15:21:15.082Z","date":"2026-02-24","time":"15:21:15","cor_ans":true},{"trial_type":"html-keyboard-response","rt":null,"stimulus":"<p style=\"color: green; font-size: 50px; font-weight: bold;\">Correct</p>","response":null,"trial_index":192,"plugin_version":"2.1.0","time_elapsed":315885,"subject_id":"92413","group":"Group1","condition":"1_Rep","full_date":"2026-02-24T15:21:15.082Z","date":"2026-02-24","time":"15:21:15"},{"correct_response":"a","task":"test_phase","broad_category":"I","image_png":"I_Diorite_10.png","image_id":42,"category_name":"Diorite","category":3,"distinct_rating":2.84,"distinct_type":"Bottom","item_type":"Foil","rt":1128,"stimulus":"Stimuli_Rocks480/I_Diorite_10.png","response":"a","trial_type":"image-keyboard-response","trial_index":193,"plugin_version":"2.1.0","time_elapsed":317016,"subject_id":"92413","group":"Group1","condition":"1_Rep","full_date":"2026-02-24T15:21:15.082Z","date":"2026-02-24","time":"15:21:15","cor_ans":true},{"trial_type":"html-keyboard-response","rt":null,"stimulus":"<p style=\"color: green; font-size: 50px; font-weight: bold;\">Correct</p>","response":null,"trial_index":194,"plugin_version":"2.1.0","time_elapsed":317524,"subject_id":"92413","group":"Group1","condition":"1_Rep","full_date":"2026-02-24T15:21:15.082Z","date":"2026-02-24","time":"15:21:15"},{"correct_response":"l","task":"test_phase","broad_category":"S","image_png":"S_Shale_12.png","image_id":476,"category_name":"Shale","category":30,"distinct_rating":2.48,"distinct_type":"Bottom","item_type":"Target","rt":1127,"stimulus":"Stimuli_Rocks480/S_Shale_12.png","response":"l","trial_type":"image-keyboard-response","trial_index":195,"plugin_version":"2.1.0","time_elapsed":318652,"subject_id":"92413","group":"Group1","condition":"1_Rep","full_date":"2026-02-24T15:21:15.082Z","date":"2026-02-24","time":"15:21:15","cor_ans":true},{"trial_type":"html-keyboard-response","rt":null,"stimulus":"<p style=\"color: green; font-size: 50px; font-weight: bold;\">Correct</p>","response":null,"trial_index":196,"plugin_version":"2.1.0","time_elapsed":319163,"subject_id":"92413","group":"Group1","condition":"1_Rep","full_date":"2026-02-24T15:21:15.082Z","date":"2026-02-24","time":"15:21:15"},{"correct_response":"l","task":"test_phase","broad_category":"M","image_png":"M_Phyllite_03.png","image_id":259,"category_name":"Phyllite","category":17,"distinct_rating":2.5,"distinct_type":"Bottom","item_type":"Target","rt":1170,"stimulus":"Stimuli_Rocks480/M_Phyllite_03.png","response":"a","trial_type":"image-keyboard-response","trial_index":197,"plugin_version":"2.1.0","time_elapsed":320335,"subject_id":"92413","group":"Group1","condition":"1_Rep","full_date":"2026-02-24T15:21:15.082Z","date":"2026-02-24","time":"15:21:15","cor_ans":false},{"trial_type":"html-keyboard-response","rt":null,"stimulus":"<p style=\"color: red; font-size: 50px; font-weight: bold;\">Incorrect</p>","response":null,"trial_index":198,"plugin_version":"2.1.0","time_elapsed":320842,"subject_id":"92413","group":"Group1","condition":"1_Rep","full_date":"2026-02-24T15:21:15.082Z","date":"2026-02-24","time":"15:21:15"},{"correct_response":"a","task":"test_phase","broad_category":"I","image_png":"I_Diorite_01.png","image_id":33,"category_name":"Diorite","category":3,"distinct_rating":2.97,"distinct_type":"Bottom","item_type":"Foil","rt":849,"stimulus":"Stimuli_Rocks480/I_Diorite_01.png","response":"l","trial_type":"image-keyboard-response","trial_index":199,"plugin_version":"2.1.0","time_elapsed":321694,"subject_id":"92413","group":"Group1","condition":"1_Rep","full_date":"2026-02-24T15:21:15.082Z","date":"2026-02-24","time":"15:21:15","cor_ans":false},{"trial_type":"html-keyboard-response","rt":null,"stimulus":"<p style=\"color: red; font-size: 50px; font-weight: bold;\">Incorrect</p>","response":null,"trial_index":200,"plugin_version":"2.1.0","time_elapsed":322202,"subject_id":"92413","group":"Group1","condition":"1_Rep","full_date":"2026-02-24T15:21:15.082Z","date":"2026-02-24","time":"15:21:15"},{"correct_response":"a","task":"test_phase","broad_category":"I","image_png":"I_Rhyolite_05.png","image_id":149,"category_name":"Rhyolite","category":10,"distinct_rating":3.02,"distinct_type":"Bottom","item_type":"Foil","rt":664,"stimulus":"Stimuli_Rocks480/I_Rhyolite_05.png","response":"l","trial_type":"image-keyboard-response","trial_index":201,"plugin_version":"2.1.0","time_elapsed":322869,"subject_id":"92413","group":"Group1","condition":"1_Rep","full_date":"2026-02-24T15:21:15.082Z","date":"2026-02-24","time":"15:21:15","cor_ans":false},{"trial_type":"html-keyboard-response","rt":null,"stimulus":"<p style=\"color: red; font-size: 50px; font-weight: bold;\">Incorrect</p>","response":null,"trial_index":202,"plugin_version":"2.1.0","time_elapsed":323371,"subject_id":"92413","group":"Group1","condition":"1_Rep","full_date":"2026-02-24T15:21:15.082Z","date":"2026-02-24","time":"15:21:15"},{"correct_response":"l","task":"test_phase","broad_category":"S","image_png":"S_Dolomite_12.png","image_id":396,"category_name":"Dolomite","category":25,"distinct_rating":1.85,"distinct_type":"Bottom","item_type":"Target","rt":626,"stimulus":"Stimuli_Rocks480/S_Dolomite_12.png","response":"l","trial_type":"image-keyboard-response","trial_index":203,"plugin_version":"2.1.0","time_elapsed":323999,"subject_id":"92413","group":"Group1","condition":"1_Rep","full_date":"2026-02-24T15:21:15.082Z","date":"2026-02-24","time":"15:21:15","cor_ans":true},{"trial_type":"html-keyboard-response","rt":null,"stimulus":"<p style=\"color: green; font-size: 50px; font-weight: bold;\">Correct</p>","response":null,"trial_index":204,"plugin_version":"2.1.0","time_elapsed":324502,"subject_id":"92413","group":"Group1","condition":"1_Rep","full_date":"2026-02-24T15:21:15.082Z","date":"2026-02-24","time":"15:21:15"},{"correct_response":"a","task":"test_phase","broad_category":"M","image_png":"M_Gneiss_14.png","image_id":206,"category_name":"Gneiss","category":13,"distinct_rating":3.41,"distinct_type":"Bottom","item_type":"Foil","rt":1033,"stimulus":"Stimuli_Rocks480/M_Gneiss_14.png","response":"l","trial_type":"image-keyboard-response","trial_index":205,"plugin_version":"2.1.0","time_elapsed":325539,"subject_id":"92413","group":"Group1","condition":"1_Rep","full_date":"2026-02-24T15:21:15.082Z","date":"2026-02-24","time":"15:21:15","cor_ans":false},{"trial_type":"html-keyboard-response","rt":null,"stimulus":"<p style=\"color: red; font-size: 50px; font-weight: bold;\">Incorrect</p>","response":null,"trial_index":206,"plugin_version":"2.1.0","time_elapsed":326047,"subject_id":"92413","group":"Group1","condition":"1_Rep","full_date":"2026-02-24T15:21:15.082Z","date":"2026-02-24","time":"15:21:15"},{"correct_response":"l","task":"test_phase","broad_category":"S","image_png":"S_Sandstone_15.png","image_id":463,"category_name":"Sandstone","category":29,"distinct_rating":2,"distinct_type":"Bottom","item_type":"Target","rt":1109,"stimulus":"Stimuli_Rocks480/S_Sandstone_15.png","response":"a","trial_type":"image-keyboard-response","trial_index":207,"plugin_version":"2.1.0","time_elapsed":327158,"subject_id":"92413","group":"Group1","condition":"1_Rep","full_date":"2026-02-24T15:21:15.082Z","date":"2026-02-24","time":"15:21:15","cor_ans":false},{"trial_type":"html-keyboard-response","rt":null,"stimulus":"<p style=\"color: red; font-size: 50px; font-weight: bold;\">Incorrect</p>","response":null,"trial_index":208,"plugin_version":"2.1.0","time_elapsed":327673,"subject_id":"92413","group":"Group1","condition":"1_Rep","full_date":"2026-02-24T15:21:15.082Z","date":"2026-02-24","time":"15:21:15"},{"correct_response":"l","task":"test_phase","broad_category":"I","image_png":"I_Rhyolite_14.png","image_id":158,"category_name":"Rhyolite","category":10,"distinct_rating":2.59,"distinct_type":"Bottom","item_type":"Target","rt":1388,"stimulus":"Stimuli_Rocks480/I_Rhyolite_14.png","response":"l","trial_type":"image-keyboard-response","trial_index":209,"plugin_version":"2.1.0","time_elapsed":329064,"subject_id":"92413","group":"Group1","condition":"1_Rep","full_date":"2026-02-24T15:21:15.082Z","date":"2026-02-24","time":"15:21:15","cor_ans":true},{"trial_type":"html-keyboard-response","rt":null,"stimulus":"<p style=\"color: green; font-size: 50px; font-weight: bold;\">Correct</p>","response":null,"trial_index":210,"plugin_version":"2.1.0","time_elapsed":329573,"subject_id":"92413","group":"Group1","condition":"1_Rep","full_date":"2026-02-24T15:21:15.082Z","date":"2026-02-24","time":"15:21:15"},{"correct_response":"a","task":"test_phase","broad_category":"M","image_png":"M_Marble_03.png","image_id":227,"category_name":"Marble","category":15,"distinct_rating":2.67,"distinct_type":"Bottom","item_type":"Foil","rt":1066,"stimulus":"Stimuli_Rocks480/M_Marble_03.png","response":"a","trial_type":"image-keyboard-response","trial_index":211,"plugin_version":"2.1.0","time_elapsed":330641,"subject_id":"92413","group":"Group1","condition":"1_Rep","full_date":"2026-02-24T15:21:15.082Z","date":"2026-02-24","time":"15:21:15","cor_ans":true},{"trial_type":"html-keyboard-response","rt":null,"stimulus":"<p style=\"color: green; font-size: 50px; font-weight: bold;\">Correct</p>","response":null,"trial_index":212,"plugin_version":"2.1.0","time_elapsed":331154,"subject_id":"92413","group":"Group1","condition":"1_Rep","full_date":"2026-02-24T15:21:15.082Z","date":"2026-02-24","time":"15:21:15"},{"correct_response":"l","task":"test_phase","broad_category":"M","image_png":"M_Phyllite_07.png","image_id":263,"category_name":"Phyllite","category":17,"distinct_rating":2.59,"distinct_type":"Bottom","item_type":"Target","rt":1280,"stimulus":"Stimuli_Rocks480/M_Phyllite_07.png","response":"l","trial_type":"image-keyboard-response","trial_index":213,"plugin_version":"2.1.0","time_elapsed":332436,"subject_id":"92413","group":"Group1","condition":"1_Rep","full_date":"2026-02-24T15:21:15.082Z","date":"2026-02-24","time":"15:21:15","cor_ans":true},{"trial_type":"html-keyboard-response","rt":null,"stimulus":"<p style=\"color: green; font-size: 50px; font-weight: bold;\">Correct</p>","response":null,"trial_index":214,"plugin_version":"2.1.0","time_elapsed":332940,"subject_id":"92413","group":"Group1","condition":"1_Rep","full_date":"2026-02-24T15:21:15.082Z","date":"2026-02-24","time":"15:21:15"},{"correct_response":"l","task":"test_phase","broad_category":"I","image_png":"I_Obsidian_05.png","image_id":85,"category_name":"Obsidian","category":6,"distinct_rating":7.32,"distinct_type":"Top","item_type":"Target","rt":660,"stimulus":"Stimuli_Rocks480/I_Obsidian_05.png","response":"l","trial_type":"image-keyboard-response","trial_index":215,"plugin_version":"2.1.0","time_elapsed":333602,"subject_id":"92413","group":"Group1","condition":"1_Rep","full_date":"2026-02-24T15:21:15.082Z","date":"2026-02-24","time":"15:21:15","cor_ans":true},{"trial_type":"html-keyboard-response","rt":null,"stimulus":"<p style=\"color: green; font-size: 50px; font-weight: bold;\">Correct</p>","response":null,"trial_index":216,"plugin_version":"2.1.0","time_elapsed":334109,"subject_id":"92413","group":"Group1","condition":"1_Rep","full_date":"2026-02-24T15:21:15.082Z","date":"2026-02-24","time":"15:21:15"},{"correct_response":"a","task":"test_phase","broad_category":"S","image_png":"S_Shale_03.png","image_id":467,"category_name":"Shale","category":30,"distinct_rating":1.95,"distinct_type":"Bottom","item_type":"Foil","rt":1254,"stimulus":"Stimuli_Rocks480/S_Shale_03.png","response":"a","trial_type":"image-keyboard-response","trial_index":217,"plugin_version":"2.1.0","time_elapsed":335364,"subject_id":"92413","group":"Group1","condition":"1_Rep","full_date":"2026-02-24T15:21:15.082Z","date":"2026-02-24","time":"15:21:15","cor_ans":true},{"trial_type":"html-keyboard-response","rt":null,"stimulus":"<p style=\"color: green; font-size: 50px; font-weight: bold;\">Correct</p>","response":null,"trial_index":218,"plugin_version":"2.1.0","time_elapsed":335876,"subject_id":"92413","group":"Group1","condition":"1_Rep","full_date":"2026-02-24T15:21:15.082Z","date":"2026-02-24","time":"15:21:15"},{"correct_response":"a","task":"test_phase","broad_category":"M","image_png":"M_Gneiss_15.png","image_id":207,"category_name":"Gneiss","category":13,"distinct_rating":3.11,"distinct_type":"Bottom","item_type":"Foil","rt":1208,"stimulus":"Stimuli_Rocks480/M_Gneiss_15.png","response":"a","trial_type":"image-keyboard-response","trial_index":219,"plugin_version":"2.1.0","time_elapsed":337086,"subject_id":"92413","group":"Group1","condition":"1_Rep","full_date":"2026-02-24T15:21:15.082Z","date":"2026-02-24","time":"15:21:15","cor_ans":true},{"trial_type":"html-keyboard-response","rt":null,"stimulus":"<p style=\"color: green; font-size: 50px; font-weight: bold;\">Correct</p>","response":null,"trial_index":220,"plugin_version":"2.1.0","time_elapsed":337602,"subject_id":"92413","group":"Group1","condition":"1_Rep","full_date":"2026-02-24T15:21:15.082Z","date":"2026-02-24","time":"15:21:15"},{"correct_response":"a","task":"test_phase","broad_category":"S","image_png":"S_Rock Salt_15.png","image_id":447,"category_name":"Rock Salt","category":28,"distinct_rating":7.79,"distinct_type":"Top","item_type":"Foil","rt":867,"stimulus":"Stimuli_Rocks480/S_Rock Salt_15.png","response":"a","trial_type":"image-keyboard-response","trial_index":221,"plugin_version":"2.1.0","time_elapsed":338472,"subject_id":"92413","group":"Group1","condition":"1_Rep","full_date":"2026-02-24T15:21:15.082Z","date":"2026-02-24","time":"15:21:15","cor_ans":true},{"trial_type":"html-keyboard-response","rt":null,"stimulus":"<p style=\"color: green; font-size: 50px; font-weight: bold;\">Correct</p>","response":null,"trial_index":222,"plugin_version":"2.1.0","time_elapsed":338983,"subject_id":"92413","group":"Group1","condition":"1_Rep","full_date":"2026-02-24T15:21:15.082Z","date":"2026-02-24","time":"15:21:15"},{"correct_response":"l","task":"test_phase","broad_category":"I","image_png":"I_Diorite_05.png","image_id":37,"category_name":"Diorite","category":3,"distinct_rating":3.08,"distinct_type":"Bottom","item_type":"Target","rt":1426,"stimulus":"Stimuli_Rocks480/I_Diorite_05.png","response":"l","trial_type":"image-keyboard-response","trial_index":223,"plugin_version":"2.1.0","time_elapsed":340411,"subject_id":"92413","group":"Group1","condition":"1_Rep","full_date":"2026-02-24T15:21:15.082Z","date":"2026-02-24","time":"15:21:15","cor_ans":true},{"trial_type":"html-keyboard-response","rt":null,"stimulus":"<p style=\"color: green; font-size: 50px; font-weight: bold;\">Correct</p>","response":null,"trial_index":224,"plugin_version":"2.1.0","time_elapsed":340925,"subject_id":"92413","group":"Group1","condition":"1_Rep","full_date":"2026-02-24T15:21:15.082Z","date":"2026-02-24","time":"15:21:15"},{"correct_response":"a","task":"test_phase","broad_category":"M","image_png":"M_Phyllite_05.png","image