[{"width":1440,"height":765,"webaudio":true,"browser":"chrome","browser_version":"145.0.0","mobile":false,"os":"Windows 10","fullscreen":true,"vsync_rate":60.65,"webcam":true,"microphone":true,"trial_type":"browser-check","trial_index":0,"plugin_version":"2.1.0","time_elapsed":1004,"subject_id":"92465","group":"Group1","condition":"3_Rep","full_date":"2026-03-07T21:54:22.154Z","date":"2026-03-07","time":"21:54:22"},{"success":true,"timeout":false,"failed_images":[],"failed_audio":[],"failed_video":[],"trial_type":"preload","trial_index":1,"plugin_version":"2.1.0","time_elapsed":12258,"subject_id":"92465","group":"Group1","condition":"3_Rep","full_date":"2026-03-07T21:54:22.154Z","date":"2026-03-07","time":"21:54:22"},{"rt":3092574,"url":"SONA_consent_memorability.html","trial_type":"external-html","trial_index":2,"plugin_version":"2.1.0","time_elapsed":3104898,"subject_id":"92465","group":"Group1","condition":"3_Rep","full_date":"2026-03-07T21:54:22.154Z","date":"2026-03-07","time":"21:54:22"},{"success":true,"rt":3079,"trial_type":"fullscreen","trial_index":3,"plugin_version":"2.1.0","time_elapsed":3108985,"subject_id":"92465","group":"Group1","condition":"3_Rep","full_date":"2026-03-07T21:54:22.154Z","date":"2026-03-07","time":"21:54:22"},{"rt":1435,"stimulus":"<div style=\"max-width: 760px; margin: auto; font-size: 20px; line-height: 1.5;\">\n      <h1 style=\"text-align:center; font-size: 30px;\">Instructions</h1>\n      <p>\n        Welcome to the study on <b>visual memory</b>. This experiment consists of <b>two phases</b>: \n        a <b>study phase</b> and a <b>test phase</b>.\n      </p>\n      <p>\n        In the study phase, you will see a series of rock images along with their category labels.\n        The images will appear one at a time.\n        <b>Your task</b> is to learn the categories to which the rock images belong \n        and to remember each image as accurately as possible.\n      </p> \n      <p>\n        Note that we will repeat the study phase <b>3 times</b>, \n             so you will have multiple opportunities to see and remember each image.\n      </p>\n      <p>\n        After the study phase, <b>your memory will be tested</b>. \n        Additional instructions for the test phase will be provided at that time.\n      </p>\n      <p>\n        If your computer has multiple <b>language settings</b> (e.g., English and another language),\n        please make sure it is set to English before starting.\n      </p>\n      <p>\n        You can track your progress using the <b>completion bar</b> at the top of the screen. \n        Please note that the bar will refresh when the test phase begins \n        to give you an accurate sense of your progress in both phases.\n      </p> \n      <p>\n        Press the button below when you are ready to begin.\n      </p>\n    </div>","response":0,"trial_type":"html-button-response","trial_index":4,"plugin_version":"2.1.0","time_elapsed":3110423,"subject_id":"92465","group":"Group1","condition":"3_Rep","full_date":"2026-03-07T21:54:22.154Z","date":"2026-03-07","time":"21:54:22"},{"rt":null,"stimulus":"<p style=\"font-size: 50px; margin: 0; text-align: center;\">+</p>","response":null,"trial_type":"html-keyboard-response","trial_index":5,"plugin_version":"2.1.0","time_elapsed":3111439,"subject_id":"92465","group":"Group1","condition":"3_Rep","full_date":"2026-03-07T21:54:22.154Z","date":"2026-03-07","time":"21:54:22"},{"task":"memory_phase","broad_category":"M","image_png":"M_Slate_03.png","image_id":307,"category_name":"Slate","category":20,"distinct_rating":1.87,"distinct_type":"Bottom","rt":null,"stimulus":"Stimuli_Rocks480/M_Slate_03.png","response":null,"trial_type":"image-keyboard-response","trial_index":6,"plugin_version":"2.1.0","time_elapsed":3113960,"subject_id":"92465","group":"Group1","condition":"3_Rep","full_date":"2026-03-07T21:54:22.154Z","date":"2026-03-07","time":"21:54:22"},{"rt":null,"stimulus":"<p style=\"font-size: 50px; margin: 0; text-align: center;\">+</p>","response":null,"trial_type":"html-keyboard-response","trial_index":7,"plugin_version":"2.1.0","time_elapsed":3114975,"subject_id":"92465","group":"Group1","condition":"3_Rep","full_date":"2026-03-07T21:54:22.154Z","date":"2026-03-07","time":"21:54:22"},{"task":"memory_phase","broad_category":"M","image_png":"M_Quartzite_08.png","image_id":280,"category_name":"Quartzite","category":18,"distinct_rating":2.15,"distinct_type":"Bottom","rt":null,"stimulus":"Stimuli_Rocks480/M_Quartzite_08.png","response":null,"trial_type":"image-keyboard-response","trial_index":8,"plugin_version":"2.1.0","time_elapsed":3117489,"subject_id":"92465","group":"Group1","condition":"3_Rep","full_date":"2026-03-07T21:54:22.154Z","date":"2026-03-07","time":"21:54:22"},{"rt":null,"stimulus":"<p style=\"font-size: 50px; margin: 0; text-align: center;\">+</p>","response":null,"trial_type":"html-keyboard-response","trial_index":9,"plugin_version":"2.1.0","time_elapsed":3118504,"subject_id":"92465","group":"Group1","condition":"3_Rep","full_date":"2026-03-07T21:54:22.154Z","date":"2026-03-07","time":"21:54:22"},{"task":"memory_phase","broad_category":"I","image_png":"I_Rhyolite_16.png","image_id":160,"category_name":"Rhyolite","category":10,"distinct_rating":2.19,"distinct_type":"Bottom","rt":null,"stimulus":"Stimuli_Rocks480/I_Rhyolite_16.png","response":null,"trial_type":"image-keyboard-response","trial_index":10,"plugin_version":"2.1.0","time_elapsed":3121016,"subject_id":"92465","group":"Group1","condition":"3_Rep","full_date":"2026-03-07T21:54:22.154Z","date":"2026-03-07","time":"21:54:22"},{"rt":null,"stimulus":"<p style=\"font-size: 50px; margin: 0; text-align: center;\">+</p>","response":null,"trial_type":"html-keyboard-response","trial_index":11,"plugin_version":"2.1.0","time_elapsed":3122028,"subject_id":"92465","group":"Group1","condition":"3_Rep","full_date":"2026-03-07T21:54:22.154Z","date":"2026-03-07","time":"21:54:22"},{"task":"memory_phase","broad_category":"S","image_png":"S_Sandstone_03.png","image_id":451,"category_name":"Sandstone","category":29,"distinct_rating":1.86,"distinct_type":"Bottom","rt":null,"stimulus":"Stimuli_Rocks480/S_Sandstone_03.png","response":null,"trial_type":"image-keyboard-response","trial_index":12,"plugin_version":"2.1.0","time_elapsed":3124541,"subject_id":"92465","group":"Group1","condition":"3_Rep","full_date":"2026-03-07T21:54:22.154Z","date":"2026-03-07","time":"21:54:22"},{"rt":null,"stimulus":"<p style=\"font-size: 50px; margin: 0; text-align: center;\">+</p>","response":null,"trial_type":"html-keyboard-response","trial_index":13,"plugin_version":"2.1.0","time_elapsed":3125556,"subject_id":"92465","group":"Group1","condition":"3_Rep","full_date":"2026-03-07T21:54:22.154Z","date":"2026-03-07","time":"21:54:22"},{"task":"memory_phase","broad_category":"M","image_png":"M_Gneiss_06.png","image_id":198,"category_name":"Gneiss","category":13,"distinct_rating":2.65,"distinct_type":"Bottom","rt":null,"stimulus":"Stimuli_Rocks480/M_Gneiss_06.png","response":null,"trial_type":"image-keyboard-response","trial_index":14,"plugin_version":"2.1.0","time_elapsed":3128074,"subject_id":"92465","group":"Group1","condition":"3_Rep","full_date":"2026-03-07T21:54:22.154Z","date":"2026-03-07","time":"21:54:22"},{"rt":null,"stimulus":"<p style=\"font-size: 50px; margin: 0; text-align: center;\">+</p>","response":null,"trial_type":"html-keyboard-response","trial_index":15,"plugin_version":"2.1.0","time_elapsed":3129090,"subject_id":"92465","group":"Group1","condition":"3_Rep","full_date":"2026-03-07T21:54:22.154Z","date":"2026-03-07","time":"21:54:22"},{"task":"memory_phase","broad_category":"S","image_png":"S_Dolomite_12.png","image_id":396,"category_name":"Dolomite","category":25,"distinct_rating":1.85,"distinct_type":"Bottom","rt":null,"stimulus":"Stimuli_Rocks480/S_Dolomite_12.png","response":null,"trial_type":"image-keyboard-response","trial_index":16,"plugin_version":"2.1.0","time_elapsed":3131604,"subject_id":"92465","group":"Group1","condition":"3_Rep","full_date":"2026-03-07T21:54:22.154Z","date":"2026-03-07","time":"21:54:22"},{"rt":null,"stimulus":"<p style=\"font-size: 50px; margin: 0; text-align: center;\">+</p>","response":null,"trial_type":"html-keyboard-response","trial_index":17,"plugin_version":"2.1.0","time_elapsed":3132608,"subject_id":"92465","group":"Group1","condition":"3_Rep","full_date":"2026-03-07T21:54:22.154Z","date":"2026-03-07","time":"21:54:22"},{"task":"memory_phase","broad_category":"I","image_png":"I_Pumice_11.png","image_id":139,"category_name":"Pumice","category":9,"distinct_rating":1.74,"distinct_type":"Bottom","rt":null,"stimulus":"Stimuli_Rocks480/I_Pumice_11.png","response":null,"trial_type":"image-keyboard-response","trial_index":18,"plugin_version":"2.1.0","time_elapsed":3135124,"subject_id":"92465","group":"Group1","condition":"3_Rep","full_date":"2026-03-07T21:54:22.154Z","date":"2026-03-07","time":"21:54:22"},{"rt":null,"stimulus":"<p style=\"font-size: 50px; margin: 0; text-align: center;\">+</p>","response":null,"trial_type":"html-keyboard-response","trial_index":19,"plugin_version":"2.1.0","time_elapsed":3136139,"subject_id":"92465","group":"Group1","condition":"3_Rep","full_date":"2026-03-07T21:54:22.154Z","date":"2026-03-07","time":"21:54:22"},{"task":"memory_phase","broad_category":"S","image_png":"S_Breccia_11.png","image_id":347,"category_name":"Breccia","category":22,"distinct_rating":6.7,"distinct_type":"Top","rt":null,"stimulus":"Stimuli_Rocks480/S_Breccia_11.png","response":null,"trial_type":"image-keyboard-response","trial_index":20,"plugin_version":"2.1.0","time_elapsed":3138653,"subject_id":"92465","group":"Group1","condition":"3_Rep","full_date":"2026-03-07T21:54:22.154Z","date":"2026-03-07","time":"21:54:22"},{"rt":null,"stimulus":"<p style=\"font-size: 50px; margin: 0; text-align: center;\">+</p>","response":null,"trial_type":"html-keyboard-response","trial_index":21,"plugin_version":"2.1.0","time_elapsed":3139671,"subject_id":"92465","group":"Group1","condition":"3_Rep","full_date":"2026-03-07T21:54:22.154Z","date":"2026-03-07","time":"21:54:22"},{"task":"memory_phase","broad_category":"I","image_png":"I_Diorite_03.png","image_id":35,"category_name":"Diorite","category":3,"distinct_rating":3.14,"distinct_type":"Bottom","rt":null,"stimulus":"Stimuli_Rocks480/I_Diorite_03.png","response":null,"trial_type":"image-keyboard-response","trial_index":22,"plugin_version":"2.1.0","time_elapsed":3142182,"subject_id":"92465","group":"Group1","condition":"3_Rep","full_date":"2026-03-07T21:54:22.154Z","date":"2026-03-07","time":"21:54:22"},{"rt":null,"stimulus":"<p style=\"font-size: 50px; margin: 0; text-align: center;\">+</p>","response":null,"trial_type":"html-keyboard-response","trial_index":23,"plugin_version":"2.1.0","time_elapsed":3143201,"subject_id":"92465","group":"Group1","condition":"3_Rep","full_date":"2026-03-07T21:54:22.154Z","date":"2026-03-07","time":"21:54:22"},{"task":"memory_phase","broad_category":"S","image_png":"S_Dolomite_13.png","image_id":397,"category_name":"Dolomite","category":25,"distinct_rating":1.77,"distinct_type":"Bottom","rt":null,"stimulus":"Stimuli_Rocks480/S_Dolomite_13.png","response":null,"trial_type":"image-keyboard-response","trial_index":24,"plugin_version":"2.1.0","time_elapsed":3145715,"subject_id":"92465","group":"Group1","condition":"3_Rep","full_date":"2026-03-07T21:54:22.154Z","date":"2026-03-07","time":"21:54:22"},{"rt":null,"stimulus":"<p style=\"font-size: 50px; margin: 0; text-align: center;\">+</p>","response":null,"trial_type":"html-keyboard-response","trial_index":25,"plugin_version":"2.1.0","time_elapsed":3146725,"subject_id":"92465","group":"Group1","condition":"3_Rep","full_date":"2026-03-07T21:54:22.154Z","date":"2026-03-07","time":"21:54:22"},{"task":"memory_phase","broad_category":"I","image_png":"I_Basalt_01.png","image_id":17,"category_name":"Basalt","category":2,"distinct_rating":1.92,"distinct_type":"Bottom","rt":null,"stimulus":"Stimuli_Rocks480/I_Basalt_01.png","response":null,"trial_type":"image-keyboard-response","trial_index":26,"plugin_version":"2.1.0","time_elapsed":3149241,"subject_id":"92465","group":"Group1","condition":"3_Rep","full_date":"2026-03-07T21:54:22.154Z","date":"2026-03-07","time":"21:54:22"},{"rt":null,"stimulus":"<p style=\"font-size: 50px; margin: 0; text-align: center;\">+</p>","response":null,"trial_type":"html-keyboard-response","trial_index":27,"plugin_version":"2.1.0","time_elapsed":3150252,"subject_id":"92465","group":"Group1","condition":"3_Rep","full_date":"2026-03-07T21:54:22.154Z","date":"2026-03-07","time":"21:54:22"},{"task":"memory_phase","broad_category":"M","image_png":"M_Slate_15.png","image_id":319,"category_name":"Slate","category":20,"distinct_rating":2.13,"distinct_type":"Bottom","rt":null,"stimulus":"Stimuli_Rocks480/M_Slate_15.png","response":null,"trial_type":"image-keyboard-response","trial_index":28,"plugin_version":"2.1.0","time_elapsed":3152766,"subject_id":"92465","group":"Group1","condition":"3_Rep","full_date":"2026-03-07T21:54:22.154Z","date":"2026-03-07","time":"21:54:22"},{"rt":null,"stimulus":"<p style=\"font-size: 50px; margin: 0; text-align: center;\">+</p>","response":null,"trial_type":"html-keyboard-response","trial_index":29,"plugin_version":"2.1.0","time_elapsed":3153778,"subject_id":"92465","group":"Group1","condition":"3_Rep","full_date":"2026-03-07T21:54:22.154Z","date":"2026-03-07","time":"21:54:22"},{"task":"memory_phase","broad_category":"S","image_png":"S_Chert_10.png","image_id":362,"category_name":"Chert","category":23,"distinct_rating":7.17,"distinct_type":"Top","rt":null,"stimulus":"Stimuli_Rocks480/S_Chert_10.png","response":null,"trial_type":"image-keyboard-response","trial_index":30,"plugin_version":"2.1.0","time_elapsed":3156283,"subject_id":"92465","group":"Group1","condition":"3_Rep","full_date":"2026-03-07T21:54:22.154Z","date":"2026-03-07","time":"21:54:22"},{"rt":null,"stimulus":"<p style=\"font-size: 50px; margin: 0; text-align: center;\">+</p>","response":null,"trial_type":"html-keyboard-response","trial_index":31,"plugin_version":"2.1.0","time_elapsed":3157298,"subject_id":"92465","group":"Group1","condition":"3_Rep","full_date":"2026-03-07T21:54:22.154Z","date":"2026-03-07","time":"21:54:22"},{"task":"memory_phase","broad_category":"I","image_png":"I_Gabbro_16.png","image_id":64,"category_name":"Gabbro","category":4,"distinct_rating":2.52,"distinct_type":"Bottom","rt":null,"stimulus":"Stimuli_Rocks480/I_Gabbro_16.png","response":null,"trial_type":"image-keyboard-response","trial_index":32,"plugin_version":"2.1.0","time_elapsed":3159808,"subject_id":"92465","group":"Group1","condition":"3_Rep","full_date":"2026-03-07T21:54:22.154Z","date":"2026-03-07","time":"21:54:22"},{"rt":null,"stimulus":"<p style=\"font-size: 50px; margin: 0; text-align: center;\">+</p>","response":null,"trial_type":"html-keyboard-response","trial_index":33,"plugin_version":"2.1.0","time_elapsed":3160825,"subject_id":"92465","group":"Group1","condition":"3_Rep","full_date":"2026-03-07T21:54:22.154Z","date":"2026-03-07","time":"21:54:22"},{"task":"memory_phase","broad_category":"I","image_png":"I_Pegmatite_16.png","image_id":112,"category_name":"Pegmatite","category":7,"distinct_rating":7.03,"distinct_type":"Top","rt":null,"stimulus":"Stimuli_Rocks480/I_Pegmatite_16.png","response":null,"trial_type":"image-keyboard-response","trial_index":34,"plugin_version":"2.1.0","time_elapsed":3163342,"subject_id":"92465","group":"Group1","condition":"3_Rep","full_date":"2026-03-07T21:54:22.154Z","date":"2026-03-07","time":"21:54:22"},{"rt":null,"stimulus":"<p style=\"font-size: 50px; margin: 0; text-align: center;\">+</p>","response":null,"trial_type":"html-keyboard-response","trial_index":35,"plugin_version":"2.1.0","time_elapsed":3164347,"subject_id":"92465","group":"Group1","condition":"3_Rep","full_date":"2026-03-07T21:54:22.154Z","date":"2026-03-07","time":"21:54:22"},{"task":"memory_phase","broad_category":"M","image_png":"M_Gneiss_13.png","image_id":205,"category_name":"Gneiss","category":13,"distinct_rating":3.26,"distinct_type":"Bottom","rt":null,"stimulus":"Stimuli_Rocks480/M_Gneiss_13.png","response":null,"trial_type":"image-keyboard-response","trial_index":36,"plugin_version":"2.1.0","time_elapsed":3166854,"subject_id":"92465","group":"Group1","condition":"3_Rep","full_date":"2026-03-07T21:54:22.154Z","date":"2026-03-07","time":"21:54:22"},{"rt":null,"stimulus":"<p style=\"font-size: 50px; margin: 0; text-align: center;\">+</p>","response":null,"trial_type":"html-keyboard-response","trial_index":37,"plugin_version":"2.1.0","time_elapsed":3167856,"subject_id":"92465","group":"Group1","condition":"3_Rep","full_date":"2026-03-07T21:54:22.154Z","date":"2026-03-07","time":"21:54:22"},{"task":"memory_phase","broad_category":"I","image_png":"I_Pumice_08.png","image_id":136,"category_name":"Pumice","category":9,"distinct_rating":3.1,"distinct_type":"Bottom","rt":null,"stimulus":"Stimuli_Rocks480/I_Pumice_08.png","response":null,"trial_type":"image-keyboard-response","trial_index":38,"plugin_version":"2.1.0","time_elapsed":3170365,"subject_id":"92465","group":"Group1","condition":"3_Rep","full_date":"2026-03-07T21:54:22.154Z","date":"2026-03-07","time":"21:54:22"},{"rt":null,"stimulus":"<p style=\"font-size: 50px; margin: 0; text-align: center;\">+</p>","response":null,"trial_type":"html-keyboard-response","trial_index":39,"plugin_version":"2.1.0","time_elapsed":3171374,"subject_id":"92465","group":"Group1","condition":"3_Rep","full_date":"2026-03-07T21:54:22.154Z","date":"2026-03-07","time":"21:54:22"},{"task":"memory_phase","broad_category":"I","image_png":"I_Rhyolite_11.png","image_id":155,"category_name":"Rhyolite","category":10,"distinct_rating":1.73,"distinct_type":"Bottom","rt":null,"stimulus":"Stimuli_Rocks480/I_Rhyolite_11.png","response":null,"trial_type":"image-keyboard-response","trial_index":40,"plugin_version":"2.1.0","time_elapsed":3173888,"subject_id":"92465","group":"Group1","condition":"3_Rep","full_date":"2026-03-07T21:54:22.154Z","date":"2026-03-07","time":"21:54:22"},{"rt":null,"stimulus":"<p style=\"font-size: 50px; margin: 0; text-align: center;\">+</p>","response":null,"trial_type":"html-keyboard-response","trial_index":41,"plugin_version":"2.1.0","time_elapsed":3174905,"subject_id":"92465","group":"Group1","condition":"3_Rep","full_date":"2026-03-07T21:54:22.154Z","date":"2026-03-07","time":"21:54:22"},{"task":"memory_phase","broad_category":"S","image_png":"S_Conglomerate_05.png","image_id":373,"category_name":"Conglomerate","category":24,"distinct_rating":7.32,"distinct_type":"Top","rt":null,"stimulus":"Stimuli_Rocks480/S_Conglomerate_05.png","response":null,"trial_type":"image-keyboard-response","trial_index":42,"plugin_version":"2.1.0","time_elapsed":3177418,"subject_id":"92465","group":"Group1","condition":"3_Rep","full_date":"2026-03-07T21:54:22.154Z","date":"2026-03-07","time":"21:54:22"},{"rt":null,"stimulus":"<p style=\"font-size: 50px; margin: 0; text-align: center;\">+</p>","response":null,"trial_type":"html-keyboard-response","trial_index":43,"plugin_version":"2.1.0","time_elapsed":3178434,"subject_id":"92465","group":"Group1","condition":"3_Rep","full_date":"2026-03-07T21:54:22.154Z","date":"2026-03-07","time":"21:54:22"},{"task":"memory_phase","broad_category":"S","image_png":"S_Dolomite_14.png","image_id":398,"category_name":"Dolomite","category":25,"distinct_rating":1.43,"distinct_type":"Bottom","rt":null,"stimulus":"Stimuli_Rocks480/S_Dolomite_14.png","response":null,"trial_type":"image-keyboard-response","trial_index":44,"plugin_version":"2.1.0","time_elapsed":3180949,"subject_id":"92465","group":"Group1","condition":"3_Rep","full_date":"2026-03-07T21:54:22.154Z","date":"2026-03-07","time":"21:54:22"},{"rt":null,"stimulus":"<p style=\"font-size: 50px; margin: 0; text-align: center;\">+</p>","response":null,"trial_type":"html-keyboard-response","trial_index":45,"plugin_version":"2.1.0","time_elapsed":3181966,"subject_id":"92465","group":"Group1","condition":"3_Rep","full_date":"2026-03-07T21:54:22.154Z","date":"2026-03-07","time":"21:54:22"},{"task":"memory_phase","broad_category":"S","image_png":"S_Sandstone_15.png","image_id":463,"category_name":"Sandstone","category":29,"distinct_rating":2,"distinct_type":"Bottom","rt":null,"stimulus":"Stimuli_Rocks480/S_Sandstone_15.png","response":null,"trial_type":"image-keyboard-response","trial_index":46,"plugin_version":"2.1.0","time_elapsed":3184477,"subject_id":"92465","group":"Group1","condition":"3_Rep","full_date":"2026-03-07T21:54:22.154Z","date":"2026-03-07","time":"21:54:22"},{"rt":null,"stimulus":"<p style=\"font-size: 50px; margin: 0; text-align: center;\">+</p>","response":null,"trial_type":"html-keyboard-response","trial_index":47,"plugin_version":"2.1.0","time_elapsed":3185495,"subject_id":"92465","group":"Group1","condition":"3_Rep","full_date":"2026-03-07T21:54:22.154Z","date":"2026-03-07","time":"21:54:22"},{"task":"memory_phase","broad_category":"M","image_png":"M_Phyllite_03.png","image_id":259,"category_name":"Phyllite","category":17,"distinct_rating":2.5,"distinct_type":"Bottom","rt":null,"stimulus":"Stimuli_Rocks480/M_Phyllite_03.png","response":null,"trial_type":"image-keyboard-response","trial_index":48,"plugin_version":"2.1.0","time_elapsed":3188001,"subject_id":"92465","group":"Group1","condition":"3_Rep","full_date":"2026-03-07T21:54:22.154Z","date":"2026-03-07","time":"21:54:22"},{"rt":null,"stimulus":"<p style=\"font-size: 50px; margin: 0; text-align: center;\">+</p>","response":null,"trial_type":"html-keyboard-response","trial_index":49,"plugin_version":"2.1.0","time_elapsed":3189015,"subject_id":"92465","group":"Group1","condition":"3_Rep","full_date":"2026-03-07T21:54:22.154Z","date":"2026-03-07","time":"21:54:22"},{"task":"memory_phase","broad_category":"M","image_png":"M_Quartzite_13.png","image_id":285,"category_name":"Quartzite","category":18,"distinct_rating":2.27,"distinct_type":"Bottom","rt":null,"stimulus":"Stimuli_Rocks480/M_Quartzite_13.png","response":null,"trial_type":"image-keyboard-response","trial_index":50,"plugin_version":"2.1.0","time_elapsed":3191529,"subject_id":"92465","group":"Group1","condition":"3_Rep","full_date":"2026-03-07T21:54:22.154Z","date":"2026-03-07","time":"21:54:22"},{"rt":null,"stimulus":"<p style=\"font-size: 50px; margin: 0; text-align: center;\">+</p>","response":null,"trial_type":"html-keyboard-response","trial_index":51,"plugin_version":"2.1.0","time_elapsed":3192544,"subject_id":"92465","group":"Group1","condition":"3_Rep","full_date":"2026-03-07T21:54:22.154Z","date":"2026-03-07","time":"21:54:22"},{"task":"memory_phase","broad_category":"M","image_png":"M_Phyllite_07.png","image_id":263,"category_name":"Phyllite","category":17,"distinct_rating":2.59,"distinct_type":"Bottom","rt":null,"stimulus":"Stimuli_Rocks480/M_Phyllite_07.png","response":null,"trial_type":"image-keyboard-response","trial_index":52,"plugin_version":"2.1.0","time_elapsed":3195060,"subject_id":"92465","group":"Group1","condition":"3_Rep","full_date":"2026-03-07T21:54:22.154Z","date":"2026-03-07","time":"21:54:22"},{"rt":null,"stimulus":"<p style=\"font-size: 50px; margin: 0; text-align: center;\">+</p>","response":null,"trial_type":"html-keyboard-response","trial_index":53,"plugin_version":"2.1.0","time_elapsed":3196077,"subject_id":"92465","group":"Group1","condition":"3_Rep","full_date":"2026-03-07T21:54:22.154Z","date":"2026-03-07","time":"21:54:22"},{"task":"memory_phase","broad_category":"I","image_png":"I_Gabbro_11.png","image_id":59,"category_name":"Gabbro","category":4,"distinct_rating":1.99,"distinct_type":"Bottom","rt":null,"stimulus":"Stimuli_Rocks480/I_Gabbro_11.png","response":null,"trial_type":"image-keyboard-response","trial_index":54,"plugin_version":"2.1.0","time_elapsed":3198589,"subject_id":"92465","group":"Group1","condition":"3_Rep","full_date":"2026-03-07T21:54:22.154Z","date":"2026-03-07","time":"21:54:22"},{"rt":6207,"stimulus":"<p style=\"max-width: 760px; margin: auto; font-size: 35px; line-height: 1.5;\">\n                Press SPACE to continue study phase\n              </p>","response":" ","trial_type":"html-keyboard-response","trial_index":55,"plugin_version":"2.1.0","time_elapsed":3204801,"subject_id":"92465","group":"Group1","condition":"3_Rep","full_date":"2026-03-07T21:54:22.154Z","date":"2026-03-07","time":"21:54:22"},{"rt":null,"stimulus":"<p style=\"font-size: 50px; margin: 0; text-align: center;\">+</p>","response":null,"trial_type":"html-keyboard-response","trial_index":56,"plugin_version":"2.1.0","time_elapsed":3205806,"subject_id":"92465","group":"Group1","condition":"3_Rep","full_date":"2026-03-07T21:54:22.154Z","date":"2026-03-07","time":"21:54:22"},{"task":"memory_phase","broad_category":"I","image_png":"I_Pegmatite_10.png","image_id":106,"category_name":"Pegmatite","category":7,"distinct_rating":7.66,"distinct_type":"Top","rt":null,"stimulus":"Stimuli_Rocks480/I_Pegmatite_10.png","response":null,"trial_type":"image-keyboard-response","trial_index":57,"plugin_version":"2.1.0","time_elapsed":3208324,"subject_id":"92465","group":"Group1","condition":"3_Rep","full_date":"2026-03-07T21:54:22.154Z","date":"2026-03-07","time":"21:54:22"},{"rt":null,"stimulus":"<p style=\"font-size: 50px; margin: 0; text-align: center;\">+</p>","response":null,"trial_type":"html-keyboard-response","trial_index":58,"plugin_version":"2.1.0","time_elapsed":3209337,"subject_id":"92465","group":"Group1","condition":"3_Rep","full_date":"2026-03-07T21:54:22.154Z","date":"2026-03-07","time":"21:54:22"},{"task":"memory_phase","broad_category":"S","image_png":"S_Shale_01.png","image_id":465,"category_name":"Shale","category":30,"distinct_rating":2.7,"distinct_type":"Bottom","rt":null,"stimulus":"Stimuli_Rocks480/S_Shale_01.png","response":null,"trial_type":"image-keyboard-response","trial_index":59,"plugin_version":"2.1.0","time_elapsed":3211850,"subject_id":"92465","group":"Group1","condition":"3_Rep","full_date":"2026-03-07T21:54:22.154Z","date":"2026-03-07","time":"21:54:22"},{"rt":null,"stimulus":"<p style=\"font-size: 50px; margin: 0; text-align: center;\">+</p>","response":null,"trial_type":"html-keyboard-response","trial_index":60,"plugin_version":"2.1.0","time_elapsed":3212863,"subject_id":"92465","group":"Group1","condition":"3_Rep","full_date":"2026-03-07T21:54:22.154Z","date":"2026-03-07","time":"21:54:22"},{"task":"memory_phase","broad_category":"I","image_png":"I_Gabbro_08.png","image_id":56,"category_name":"Gabbro","category":4,"distinct_rating":3.02,"distinct_type":"Bottom","rt":null,"stimulus":"Stimuli_Rocks480/I_Gabbro_08.png","response":null,"trial_type":"image-keyboard-response","trial_index":61,"plugin_version":"2.1.0","time_elapsed":3215379,"subject_id":"92465","group":"Group1","condition":"3_Rep","full_date":"2026-03-07T21:54:22.154Z","date":"2026-03-07","time":"21:54:22"},{"rt":null,"stimulus":"<p style=\"font-size: 50px; margin: 0; text-align: center;\">+</p>","response":null,"trial_type":"html-keyboard-response","trial_index":62,"plugin_version":"2.1.0","time_elapsed":3216393,"subject_id":"92465","group":"Group1","condition":"3_Rep","full_date":"2026-03-07T21:54:22.154Z","date":"2026-03-07","time":"21:54:22"},{"task":"memory_phase","broad_category":"M","image_png":"M_Gneiss_05.png","image_id":197,"category_name":"Gneiss","category":13,"distinct_rating":2.97,"distinct_type":"Bottom","rt":null,"stimulus":"Stimuli_Rocks480/M_Gneiss_05.png","response":null,"trial_type":"image-keyboard-response","trial_index":63,"plugin_version":"2.1.0","time_elapsed":3218908,"subject_id":"92465","group":"Group1","condition":"3_Rep","full_date":"2026-03-07T21:54:22.154Z","date":"2026-03-07","time":"21:54:22"},{"rt":null,"stimulus":"<p style=\"font-size: 50px; margin: 0; text-align: center;\">+</p>","response":null,"trial_type":"html-keyboard-response","trial_index":64,"plugin_version":"2.1.0","time_elapsed":3219922,"subject_id":"92465","group":"Group1","condition":"3_Rep","full_date":"2026-03-07T21:54:22.154Z","date":"2026-03-07","time":"21:54:22"},{"task":"memory_phase","broad_category":"I","image_png":"I_Rhyolite_14.png","image_id":158,"category_name":"Rhyolite","category":10,"distinct_rating":2.59,"distinct_type":"Bottom","rt":null,"stimulus":"Stimuli_Rocks480/I_Rhyolite_14.png","response":null,"trial_type":"image-keyboard-response","trial_index":65,"plugin_version":"2.1.0","time_elapsed":3222435,"subject_id":"92465","group":"Group1","condition":"3_Rep","full_date":"2026-03-07T21:54:22.154Z","date":"2026-03-07","time":"21:54:22"},{"rt":null,"stimulus":"<p style=\"font-size: 50px; margin: 0; text-align: center;\">+</p>","response":null,"trial_type":"html-keyboard-response","trial_index":66,"plugin_version":"2.1.0","time_elapsed":3223451,"subject_id":"92465","group":"Group1","condition":"3_Rep","full_date":"2026-03-07T21:54:22.154Z","date":"2026-03-07","time":"21:54:22"},{"task":"memory_phase","broad_category":"S","image_png":"S_Rock Salt_01.png","image_id":433,"category_name":"Rock Salt","category":28,"distinct_rating":7.18,"distinct_type":"Top","rt":null,"stimulus":"Stimuli_Rocks480/S_Rock Salt_01.png","response":null,"trial_type":"image-keyboard-response","trial_index":67,"plugin_version":"2.1.0","time_elapsed":3225964,"subject_id":"92465","group":"Group1","condition":"3_Rep","full_date":"2026-03-07T21:54:22.154Z","date":"2026-03-07","time":"21:54:22"},{"rt":null,"stimulus":"<p style=\"font-size: 50px; margin: 0; text-align: center;\">+</p>","response":null,"trial_type":"html-keyboard-response","trial_index":68,"plugin_version":"2.1.0","time_elapsed":3226981,"subject_id":"92465","group":"Group1","condition":"3_Rep","full_date":"2026-03-07T21:54:22.154Z","date":"2026-03-07","time":"21:54:22"},{"task":"memory_phase","broad_category":"M","image_png":"M_Marble_16.png","image_id":240,"category_name":"Marble","category":15,"distinct_rating":2.57,"distinct_type":"Bottom","rt":null,"stimulus":"Stimuli_Rocks480/M_Marble_16.png","response":null,"trial_type":"image-keyboard-response","trial_index":69,"plugin_version":"2.1.0","time_elapsed":3229492,"subject_id":"92465","group":"Group1","condition":"3_Rep","full_date":"2026-03-07T21:54:22.154Z","date":"2026-03-07","time":"21:54:22"},{"rt":null,"stimulus":"<p style=\"font-size: 50px; margin: 0; text-align: center;\">+</p>","response":null,"trial_type":"html-keyboard-response","trial_index":70,"plugin_version":"2.1.0","time_elapsed":3230508,"subject_id":"92465","group":"Group1","condition":"3_Rep","full_date":"2026-03-07T21:54:22.154Z","date":"2026-03-07","time":"21:54:22"},{"task":"memory_phase","broad_category":"I","image_png":"I_Andesite_08.png","image_id":8,"category_name":"Andesite","category":1,"distinct_rating":1.95,"distinct_type":"Bottom","rt":null,"stimulus":"Stimuli_Rocks480/I_Andesite_08.png","response":null,"trial_type":"image-keyboard-response","trial_index":71,"plugin_version":"2.1.0","time_elapsed":3233025,"subject_id":"92465","group":"Group1","condition":"3_Rep","full_date":"2026-03-07T21:54:22.154Z","date":"2026-03-07","time":"21:54:22"},{"rt":null,"stimulus":"<p style=\"font-size: 50px; margin: 0; text-align: center;\">+</p>","response":null,"trial_type":"html-keyboard-response","trial_index":72,"plugin_version":"2.1.0","time_elapsed":3234041,"subject_id":"92465","group":"Group1","condition":"3_Rep","full_date":"2026-03-07T21:54:22.154Z","date":"2026-03-07","time":"21:54:22"},{"task":"memory_phase","broad_category":"M","image_png":"M_Marble_06.png","image_id":230,"category_name":"Marble","category":15,"distinct_rating":3.4,"distinct_type":"Bottom","rt":null,"stimulus":"Stimuli_Rocks480/M_Marble_06.png","response":null,"trial_type":"image-keyboard-response","trial_index":73,"plugin_version":"2.1.0","time_elapsed":3236545,"subject_id":"92465","group":"Group1","condition":"3_Rep","full_date":"2026-03-07T21:54:22.154Z","date":"2026-03-07","time":"21:54:22"},{"rt":null,"stimulus":"<p style=\"font-size: 50px; margin: 0; text-align: center;\">+</p>","response":null,"trial_type":"html-keyboard-response","trial_index":74,"plugin_version":"2.1.0","time_elapsed":3237550,"subject_id":"92465","group":"Group1","condition":"3_Rep","full_date":"2026-03-07T21:54:22.154Z","date":"2026-03-07","time":"21:54:22"},{"task":"memory_phase","broad_category":"S","image_png":"S_Shale_12.png","image_id":476,"category_name":"Shale","category":30,"distinct_rating":2.48,"distinct_type":"Bottom","rt":null,"stimulus":"Stimuli_Rocks480/S_Shale_12.png","response":null,"trial_type":"image-keyboard-response","trial_index":75,"plugin_version":"2.1.0","time_elapsed":3240053,"subject_id":"92465","group":"Group1","condition":"3_Rep","full_date":"2026-03-07T21:54:22.154Z","date":"2026-03-07","time":"21:54:22"},{"rt":null,"stimulus":"<p style=\"font-size: 50px; margin: 0; text-align: center;\">+</p>","response":null,"trial_type":"html-keyboard-response","trial_index":76,"plugin_version":"2.1.0","time_elapsed":3241068,"subject_id":"92465","group":"Group1","condition":"3_Rep","full_date":"2026-03-07T21:54:22.154Z","date":"2026-03-07","time":"21:54:22"},{"task":"memory_phase","broad_category":"I","image_png":"I_Pumice_12.png","image_id":140,"category_name":"Pumice","category":9,"distinct_rating":2.97,"distinct_type":"Bottom","rt":null,"stimulus":"Stimuli_Rocks480/I_Pumice_12.png","response":null,"trial_type":"image-keyboard-response","trial_index":77,"plugin_version":"2.1.0","time_elapsed":3243580,"subject_id":"92465","group":"Group1","condition":"3_Rep","full_date":"2026-03-07T21:54:22.154Z","date":"2026-03-07","time":"21:54:22"},{"rt":null,"stimulus":"<p style=\"font-size: 50px; margin: 0; text-align: center;\">+</p>","response":null,"trial_type":"html-keyboard-response","trial_index":78,"plugin_version":"2.1.0","time_elapsed":3244593,"subject_id":"92465","group":"Group1","condition":"3_Rep","full_date":"2026-03-07T21:54:22.154Z","date":"2026-03-07","time":"21:54:22"},{"task":"memory_phase","broad_category":"S","image_png":"S_Rock Gypsum_04.png","image_id":420,"category_name":"Rock Gypsum","category":27,"distinct_rating":7.61,"distinct_type":"Top","rt":null,"stimulus":"Stimuli_Rocks480/S_Rock Gypsum_04.png","response":null,"trial_type":"image-keyboard-response","trial_index":79,"plugin_version":"2.1.0","time_elapsed":3247111,"subject_id":"92465","group":"Group1","condition":"3_Rep","full_date":"2026-03-07T21:54:22.154Z","date":"2026-03-07","time":"21:54:22"},{"rt":null,"stimulus":"<p style=\"font-size: 50px; margin: 0; text-align: center;\">+</p>","response":null,"trial_type":"html-keyboard-response","trial_index":80,"plugin_version":"2.1.0","time_elapsed":3248129,"subject_id":"92465","group":"Group1","condition":"3_Rep","full_date":"2026-03-07T21:54:22.154Z","date":"2026-03-07","time":"21:54:22"},{"task":"memory_phase","broad_category":"M","image_png":"M_Slate_11.png","image_id":315,"category_name":"Slate","category":20,"distinct_rating":2.75,"distinct_type":"Bottom","rt":null,"stimulus":"Stimuli_Rocks480/M_Slate_11.png","response":null,"trial_type":"image-keyboard-response","trial_index":81,"plugin_version":"2.1.0","time_elapsed":3250637,"subject_id":"92465","group":"Group1","condition":"3_Rep","full_date":"2026-03-07T21:54:22.154Z","date":"2026-03-07","time":"21:54:22"},{"rt":null,"stimulus":"<p style=\"font-size: 50px; margin: 0; text-align: center;\">+</p>","response":null,"trial_type":"html-keyboard-response","trial_index":82,"plugin_version":"2.1.0","time_elapsed":3251656,"subject_id":"92465","group":"Group1","condition":"3_Rep","full_date":"2026-03-07T21:54:22.154Z","date":"2026-03-07","time":"21:54:22"},{"task":"memory_phase","broad_category":"I","image_png":"I_Diorite_04.png","image_id":36,"category_name":"Diorite","category":3,"distinct_rating":2.98,"distinct_type":"Bottom","rt":null,"stimulus":"Stimuli_Rocks480/I_Diorite_04.png","response":null,"trial_type":"image-keyboard-response","trial_index":83,"plugin_version":"2.1.0","time_elapsed":3254159,"subject_id":"92465","group":"Group1","condition":"3_Rep","full_date":"2026-03-07T21:54:22.154Z","date":"2026-03-07","time":"21:54:22"},{"rt":null,"stimulus":"<p style=\"font-size: 50px; margin: 0; text-align: center;\">+</p>","response":null,"trial_type":"html-keyboard-response","trial_index":84,"plugin_version":"2.1.0","time_elapsed":3255172,"subject_id":"92465","group":"Group1","condition":"3_Rep","full_date":"2026-03-07T21:54:22.154Z","date":"2026-03-07","time":"21:54:22"},{"task":"memory_phase","broad_category":"I","image_png":"I_Basalt_02.png","image_id":18,"category_name":"Basalt","category":2,"distinct_rating":1.84,"distinct_type":"Bottom","rt":null,"stimulus":"Stimuli_Rocks480/I_Basalt_02.png","response":null,"trial_type":"image-keyboard-response","trial_index":85,"plugin_version":"2.1.0","time_elapsed":3257682,"subject_id":"92465","group":"Group1","condition":"3_Rep","full_date":"2026-03-07T21:54:22.154Z","date":"2026-03-07","time":"21:54:22"},{"rt":null,"stimulus":"<p style=\"font-size: 50px; margin: 0; text-align: center;\">+</p>","response":null,"trial_type":"html-keyboard-response","trial_index":86,"plugin_version":"2.1.0","time_elapsed":3258697,"subject_id":"92465","group":"Group1","condition":"3_Rep","full_date":"2026-03-07T21:54:22.154Z","date":"2026-03-07","time":"21:54:22"},{"task":"memory_phase","broad_category":"I","image_png":"I_Basalt_09.png","image_id":25,"category_name":"Basalt","category":2,"distinct_rating":1.89,"distinct_type":"Bottom","rt":null,"stimulus":"Stimuli_Rocks480/I_Basalt_09.png","response":null,"trial_type":"image-keyboard-response","trial_index":87,"plugin_version":"2.1.0","time_elapsed":3261209,"subject_id":"92465","group":"Group1","condition":"3_Rep","full_date":"2026-03-07T21:54:22.154Z","date":"2026-03-07","time":"21:54:22"},{"rt":null,"stimulus":"<p style=\"font-size: 50px; margin: 0; text-align: center;\">+</p>","response":null,"trial_type":"html-keyboard-response","trial_index":88,"plugin_version":"2.1.0","time_elapsed":3262217,"subject_id":"92465","group":"Group1","condition":"3_Rep","full_date":"2026-03-07T21:54:22.154Z","date":"2026-03-07","time":"21:54:22"},{"task":"memory_phase","broad_category":"M","image_png":"M_Phyllite_10.png","image_id":266,"category_name":"Phyllite","category":17,"distinct_rating":2.6,"distinct_type":"Bottom","rt":null,"stimulus":"Stimuli_Rocks480/M_Phyllite_10.png","response":null,"trial_type":"image-keyboard-response","trial_index":89,"plugin_version":"2.1.0","time_elapsed":3264725,"subject_id":"92465","group":"Group1","condition":"3_Rep","full_date":"2026-03-07T21:54:22.154Z","date":"2026-03-07","time":"21:54:22"},{"rt":null,"stimulus":"<p style=\"font-size: 50px; margin: 0; text-align: center;\">+</p>","response":null,"trial_type":"html-keyboard-response","trial_index":90,"plugin_version":"2.1.0","time_elapsed":3265731,"subject_id":"92465","group":"Group1","condition":"3_Rep","full_date":"2026-03-07T21:54:22.154Z","date":"2026-03-07","time":"21:54:22"},{"task":"memory_phase","broad_category":"S","image_png":"S_Sandstone_16.png","image_id":464,"category_name":"Sandstone","category":29,"distinct_rating":1.93,"distinct_type":"Bottom","rt":null,"stimulus":"Stimuli_Rocks480/S_Sandstone_16.png","response":null,"trial_type":"image-keyboard-response","trial_index":91,"plugin_version":"2.1.0","time_elapsed":3268239,"subject_id":"92465","group":"Group1","condition":"3_Rep","full_date":"2026-03-07T21:54:22.154Z","date":"2026-03-07","time":"21:54:22"},{"rt":null,"stimulus":"<p style=\"font-size: 50px; margin: 0; text-align: center;\">+</p>","response":null,"trial_type":"html-keyboard-response","trial_index":92,"plugin_version":"2.1.0","time_elapsed":3269252,"subject_id":"92465","group":"Group1","condition":"3_Rep","full_date":"2026-03-07T21:54:22.154Z","date":"2026-03-07","time":"21:54:22"},{"task":"memory_phase","broad_category":"I","image_png":"I_Diorite_05.png","image_id":37,"category_name":"Diorite","category":3,"distinct_rating":3.08,"distinct_type":"Bottom","rt":null,"stimulus":"Stimuli_Rocks480/I_Diorite_05.png","response":null,"trial_type":"image-keyboard-response","trial_index":93,"plugin_version":"2.1.0","time_elapsed":3271758,"subject_id":"92465","group":"Group1","condition":"3_Rep","full_date":"2026-03-07T21:54:22.154Z","date":"2026-03-07","time":"21:54:22"},{"rt":null,"stimulus":"<p style=\"font-size: 50px; margin: 0; text-align: center;\">+</p>","response":null,"trial_type":"html-keyboard-response","trial_index":94,"plugin_version":"2.1.0","time_elapsed":3272772,"subject_id":"92465","group":"Group1","condition":"3_Rep","full_date":"2026-03-07T21:54:22.154Z","date":"2026-03-07","time":"21:54:22"},{"task":"memory_phase","broad_category":"S","image_png":"S_Shale_08.png","image_id":472,"category_name":"Shale","category":30,"distinct_rating":2.55,"distinct_type":"Bottom","rt":null,"stimulus":"Stimuli_Rocks480/S_Shale_08.png","response":null,"trial_type":"image-keyboard-response","trial_index":95,"plugin_version":"2.1.0","time_elapsed":3275286,"subject_id":"92465","group":"Group1","condition":"3_Rep","full_date":"2026-03-07T21:54:22.154Z","date":"2026-03-07","time":"21:54:22"},{"rt":null,"stimulus":"<p style=\"font-size: 50px; margin: 0; text-align: center;\">+</p>","response":null,"trial_type":"html-keyboard-response","trial_index":96,"plugin_version":"2.1.0","time_elapsed":3276296,"subject_id":"92465","group":"Group1","condition":"3_Rep","full_date":"2026-03-07T21:54:22.154Z","date":"2026-03-07","time":"21:54:22"},{"task":"memory_phase","broad_category":"I","image_png":"I_Andesite_10.png","image_id":10,"category_name":"Andesite","category":1,"distinct_rating":3.15,"distinct_type":"Bottom","rt":null,"stimulus":"Stimuli_Rocks480/I_Andesite_10.png","response":null,"trial_type":"image-keyboard-response","trial_index":97,"plugin_version":"2.1.0","time_elapsed":3278813,"subject_id":"92465","group":"Group1","condition":"3_Rep","full_date":"2026-03-07T21:54:22.154Z","date":"2026-03-07","time":"21:54:22"},{"rt":null,"stimulus":"<p style=\"font-size: 50px; margin: 0; text-align: center;\">+</p>","response":null,"trial_type":"html-keyboard-response","trial_index":98,"plugin_version":"2.1.0","time_elapsed":3279830,"subject_id":"92465","group":"Group1","condition":"3_Rep","full_date":"2026-03-07T21:54:22.154Z","date":"2026-03-07","time":"21:54:22"},{"task":"memory_phase","broad_category":"I","image_png":"I_Obsidian_05.png","image_id":85,"category_name":"Obsidian","category":6,"distinct_rating":7.32,"distinct_type":"Top","rt":null,"stimulus":"Stimuli_Rocks480/I_Obsidian_05.png","response":null,"trial_type":"image-keyboard-response","trial_index":99,"plugin_version":"2.1.0","time_elapsed":3282340,"subject_id":"92465","group":"Group1","condition":"3_Rep","full_date":"2026-03-07T21:54:22.154Z","date":"2026-03-07","time":"21:54:22"},{"rt":null,"stimulus":"<p style=\"font-size: 50px; margin: 0; text-align: center;\">+</p>","response":null,"trial_type":"html-keyboard-response","trial_index":100,"plugin_version":"2.1.0","time_elapsed":3283355,"subject_id":"92465","group":"Group1","condition":"3_Rep","full_date":"2026-03-07T21:54:22.154Z","date":"2026-03-07","time":"21:54:22"},{"task":"memory_phase","broad_category":"M","image_png":"M_Marble_04.png","image_id":228,"category_name":"Marble","category":15,"distinct_rating":3.15,"distinct_type":"Bottom","rt":null,"stimulus":"Stimuli_Rocks480/M_Marble_04.png","response":null,"trial_type":"image-keyboard-response","trial_index":101,"plugin_version":"2.1.0","time_elapsed":3285868,"subject_id":"92465","group":"Group1","condition":"3_Rep","full_date":"2026-03-07T21:54:22.154Z","date":"2026-03-07","time":"21:54:22"},{"rt":null,"stimulus":"<p style=\"font-size: 50px; margin: 0; text-align: center;\">+</p>","response":null,"trial_type":"html-keyboard-response","trial_index":102,"plugin_version":"2.1.0","time_elapsed":3286871,"subject_id":"92465","group":"Group1","condition":"3_Rep","full_date":"2026-03-07T21:54:22.154Z","date":"2026-03-07","time":"21:54:22"},{"task":"memory_phase","broad_category":"I","image_png":"I_Andesite_06.png","image_id":6,"category_name":"Andesite","category":1,"distinct_rating":3.17,"distinct_type":"Bottom","rt":null,"stimulus":"Stimuli_Rocks480/I_Andesite_06.png","response":null,"trial_type":"image-keyboard-response","trial_index":103,"plugin_version":"2.1.0","time_elapsed":3289382,"subject_id":"92465","group":"Group1","condition":"3_Rep","full_date":"2026-03-07T21:54:22.154Z","date":"2026-03-07","time":"21:54:22"},{"rt":null,"stimulus":"<p style=\"font-size: 50px; margin: 0; text-align: center;\">+</p>","response":null,"trial_type":"html-keyboard-response","trial_index":104,"plugin_version":"2.1.0","time_elapsed":3290397,"subject_id":"92465","group":"Group1","condition":"3_Rep","full_date":"2026-03-07T21:54:22.154Z","date":"2026-03-07","time":"21:54:22"},{"task":"memory_phase","broad_category":"M","image_png":"M_Quartzite_05.png","image_id":277,"category_name":"Quartzite","category":18,"distinct_rating":2.23,"distinct_type":"Bottom","rt":null,"stimulus":"Stimuli_Rocks480/M_Quartzite_05.png","response":null,"trial_type":"image-keyboard-response","trial_index":105,"plugin_version":"2.1.0","time_elapsed":3292910,"subject_id":"92465","group":"Group1","condition":"3_Rep","full_date":"2026-03-07T21:54:22.154Z","date":"2026-03-07","time":"21:54:22"},{"rt":12201,"stimulus":"<p style=\"max-width: 760px; margin: auto; font-size: 35px; line-height: 1.5;\">\n                You have completed 1 study phase. \n                Now, we'll show you all the images again 2 more times.\n                <br><br>Press SPACE to continue\n              </p>","response":" ","trial_type":"html-keyboard-response","trial_index":106,"plugin_version":"2.1.0","time_elapsed":3305113,"subject_id":"92465","group":"Group1","condition":"3_Rep","full_date":"2026-03-07T21:54:22.154Z","date":"2026-03-07","time":"21:54:22"},{"rt":null,"stimulus":"<p style=\"font-size: 50px; margin: 0; text-align: center;\">+</p>","response":null,"trial_type":"html-keyboard-response","trial_index":107,"plugin_version":"2.1.0","time_elapsed":3306123,"subject_id":"92465","group":"Group1","condition":"3_Rep","full_date":"2026-03-07T21:54:22.154Z","date":"2026-03-07","time":"21:54:22"},{"task":"memory_phase","broad_category":"S","image_png":"S_Shale_12.png","image_id":476,"category_name":"Shale","category":30,"distinct_rating":2.48,"distinct_type":"Bottom","rt":null,"stimulus":"Stimuli_Rocks480/S_Shale_12.png","response":null,"trial_type":"image-keyboard-response","trial_index":108,"plugin_version":"2.1.0","time_elapsed":3308639,"subject_id":"92465","group":"Group1","condition":"3_Rep","full_date":"2026-03-07T21:54:22.154Z","date":"2026-03-07","time":"21:54:22"},{"rt":null,"stimulus":"<p style=\"font-size: 50px; margin: 0; text-align: center;\">+</p>","response":null,"trial_type":"html-keyboard-response","trial_index":109,"plugin_version":"2.1.0","time_elapsed":3309653,"subject_id":"92465","group":"Group1","condition":"3_Rep","full_date":"2026-03-07T21:54:22.154Z","date":"2026-03-07","time":"21:54:22"},{"task":"memory_phase","broad_category":"I","image_png":"I_Pegmatite_16.png","image_id":112,"category_name":"Pegmatite","category":7,"distinct_rating":7.03,"distinct_type":"Top","rt":null,"stimulus":"Stimuli_Rocks480/I_Pegmatite_16.png","response":null,"trial_type":"image-keyboard-response","trial_index":110,"plugin_version":"2.1.0","time_elapsed":3312166,"subject_id":"92465","group":"Group1","condition":"3_Rep","full_date":"2026-03-07T21:54:22.154Z","date":"2026-03-07","time":"21:54:22"},{"rt":null,"stimulus":"<p style=\"font-size: 50px; margin: 0; text-align: center;\">+</p>","response":null,"trial_type":"html-keyboard-response","trial_index":111,"plugin_version":"2.1.0","time_elapsed":3313173,"subject_id":"92465","group":"Group1","condition":"3_Rep","full_date":"2026-03-07T21:54:22.154Z","date":"2026-03-07","time":"21:54:22"},{"task":"memory_phase","broad_category":"I","image_png":"I_Rhyolite_11.png","image_id":155,"category_name":"Rhyolite","category":10,"distinct_rating":1.73,"distinct_type":"Bottom","rt":null,"stimulus":"Stimuli_Rocks480/I_Rhyolite_11.png","response":null,"trial_type":"image-keyboard-response","trial_index":112,"plugin_version":"2.1.0","time_elapsed":3315689,"subject_id":"92465","group":"Group1","condition":"3_Rep","full_date":"2026-03-07T21:54:22.154Z","date":"2026-03-07","time":"21:54:22"},{"rt":null,"stimulus":"<p style=\"font-size: 50px; margin: 0; text-align: center;\">+</p>","response":null,"trial_type":"html-keyboard-response","trial_index":113,"plugin_version":"2.1.0","time_elapsed":3316700,"subject_id":"92465","group":"Group1","condition":"3_Rep","full_date":"2026-03-07T21:54:22.154Z","date":"2026-03-07","time":"21:54:22"},{"task":"memory_phase","broad_category":"M","image_png":"M_Quartzite_08.png","image_id":280,"category_name":"Quartzite","category":18,"distinct_rating":2.15,"distinct_type":"Bottom","rt":null,"stimulus":"Stimuli_Rocks480/M_Quartzite_08.png","response":null,"trial_type":"image-keyboard-response","trial_index":114,"plugin_version":"2.1.0","time_elapsed":3319214,"subject_id":"92465","group":"Group1","condition":"3_Rep","full_date":"2026-03-07T21:54:22.154Z","date":"2026-03-07","time":"21:54:22"},{"rt":null,"stimulus":"<p style=\"font-size: 50px; margin: 0; text-align: center;\">+</p>","response":null,"trial_type":"html-keyboard-response","trial_index":115,"plugin_version":"2.1.0","time_elapsed":3320229,"subject_id":"92465","group":"Group1","condition":"3_Rep","full_date":"2026-03-07T21:54:22.154Z","date":"2026-03-07","time":"21:54:22"},{"task":"memory_phase","broad_category":"M","image_png":"M_Phyllite_07.png","image_id":263,"category_name":"Phyllite","category":17,"distinct_rating":2.59,"distinct_type":"Bottom","rt":null,"stimulus":"Stimuli_Rocks480/M_Phyllite_07.png","response":null,"trial_type":"image-keyboard-response","trial_index":116,"plugin_version":"2.1.0","time_elapsed":3322745,"subject_id":"92465","group":"Group1","condition":"3_Rep","full_date":"2026-03-07T21:54:22.154Z","date":"2026-03-07","time":"21:54:22"},{"rt":null,"stimulus":"<p style=\"font-size: 50px; margin: 0; text-align: center;\">+</p>","response":null,"trial_type":"html-keyboard-response","trial_index":117,"plugin_version":"2.1.0","time_elapsed":3323759,"subject_id":"92465","group":"Group1","condition":"3_Rep","full_date":"2026-03-07T21:54:22.154Z","date":"2026-03-07","time":"21:54:22"},{"task":"memory_phase","broad_category":"I","image_png":"I_Diorite_03.png","image_id":35,"category_name":"Diorite","category":3,"distinct_rating":3.14,"distinct_type":"Bottom","rt":null,"stimulus":"Stimuli_Rocks480/I_Diorite_03.png","response":null,"trial_type":"image-keyboard-response","trial_index":118,"plugin_version":"2.1.0","time_elapsed":3326274,"subject_id":"92465","group":"Group1","condition":"3_Rep","full_date":"2026-03-07T21:54:22.154Z","date":"2026-03-07","time":"21:54:22"},{"rt":null,"stimulus":"<p style=\"font-size: 50px; margin: 0; text-align: center;\">+</p>","response":null,"trial_type":"html-keyboard-response","trial_index":119,"plugin_version":"2.1.0","time_elapsed":3327289,"subject_id":"92465","group":"Group1","condition":"3_Rep","full_date":"2026-03-07T21:54:22.154Z","date":"2026-03-07","time":"21:54:22"},{"task":"memory_phase","broad_category":"S","image_png":"S_Sandstone_03.png","image_id":451,"category_name":"Sandstone","category":29,"distinct_rating":1.86,"distinct_type":"Bottom","rt":null,"stimulus":"Stimuli_Rocks480/S_Sandstone_03.png","response":null,"trial_type":"image-keyboard-response","trial_index":120,"plugin_version":"2.1.0","time_elapsed":3329792,"subject_id":"92465","group":"Group1","condition":"3_Rep","full_date":"2026-03-07T21:54:22.154Z","date":"2026-03-07","time":"21:54:22"},{"rt":null,"stimulus":"<p style=\"font-size: 50px; margin: 0; text-align: center;\">+</p>","response":null,"trial_type":"html-keyboard-response","trial_index":121,"plugin_version":"2.1.0","time_elapsed":3330807,"subject_id":"92465","group":"Group1","condition":"3_Rep","full_date":"2026-03-07T21:54:22.154Z","date":"2026-03-07","time":"21:54:22"},{"task":"memory_phase","broad_category":"I","image_png":"I_Rhyolite_16.png","image_id":160,"category_name":"Rhyolite","category":10,"distinct_rating":2.19,"distinct_type":"Bottom","rt":null,"stimulus":"Stimuli_Rocks480/I_Rhyolite_16.png","response":null,"trial_type":"image-keyboard-response","trial_index":122,"plugin_version":"2.1.0","time_elapsed":3333311,"subject_id":"92465","group":"Group1","condition":"3_Rep","full_date":"2026-03-07T21:54:22.154Z","date":"2026-03-07","time":"21:54:22"},{"rt":null,"stimulus":"<p style=\"font-size: 50px; margin: 0; text-align: center;\">+</p>","response":null,"trial_type":"html-keyboard-response","trial_index":123,"plugin_version":"2.1.0","time_elapsed":3334322,"subject_id":"92465","group":"Group1","condition":"3_Rep","full_date":"2026-03-07T21:54:22.154Z","date":"2026-03-07","time":"21:54:22"},{"task":"memory_phase","broad_category":"M","image_png":"M_Gneiss_05.png","image_id":197,"category_name":"Gneiss","category":13,"distinct_rating":2.97,"distinct_type":"Bottom","rt":null,"stimulus":"Stimuli_Rocks480/M_Gneiss_05.png","response":null,"trial_type":"image-keyboard-response","trial_index":124,"plugin_version":"2.1.0","time_elapsed":3336826,"subject_id":"92465","group":"Group1","condition":"3_Rep","full_date":"2026-03-07T21:54:22.154Z","date":"2026-03-07","time":"21:54:22"},{"rt":null,"stimulus":"<p style=\"font-size: 50px; margin: 0; text-align: center;\">+</p>","response":null,"trial_type":"html-keyboard-response","trial_index":125,"plugin_version":"2.1.0","time_elapsed":3337840,"subject_id":"92465","group":"Group1","condition":"3_Rep","full_date":"2026-03-07T21:54:22.154Z","date":"2026-03-07","time":"21:54:22"},{"task":"memory_phase","broad_category":"I","image_png":"I_Diorite_05.png","image_id":37,"category_name":"Diorite","category":3,"distinct_rating":3.08,"distinct_type":"Bottom","rt":null,"stimulus":"Stimuli_Rocks480/I_Diorite_05.png","response":null,"trial_type":"image-keyboard-response","trial_index":126,"plugin_version":"2.1.0","time_elapsed":3340356,"subject_id":"92465","group":"Group1","condition":"3_Rep","full_date":"2026-03-07T21:54:22.154Z","date":"2026-03-07","time":"21:54:22"},{"rt":null,"stimulus":"<p style=\"font-size: 50px; margin: 0; text-align: center;\">+</p>","response":null,"trial_type":"html-keyboard-response","trial_index":127,"plugin_version":"2.1.0","time_elapsed":3341372,"subject_id":"92465","group":"Group1","condition":"3_Rep","full_date":"2026-03-07T21:54:22.154Z","date":"2026-03-07","time":"21:54:22"},{"task":"memory_phase","broad_category":"S","image_png":"S_Breccia_11.png","image_id":347,"category_name":"Breccia","category":22,"distinct_rating":6.7,"distinct_type":"Top","rt":null,"stimulus":"Stimuli_Rocks480/S_Breccia_11.png","response":null,"trial_type":"image-keyboard-response","trial_index":128,"plugin_version":"2.1.0","time_elapsed":3343887,"subject_id":"92465","group":"Group1","condition":"3_Rep","full_date":"2026-03-07T21:54:22.154Z","date":"2026-03-07","time":"21:54:22"},{"rt":null,"stimulus":"<p style=\"font-size: 50px; margin: 0; text-align: center;\">+</p>","response":null,"trial_type":"html-keyboard-response","trial_index":129,"plugin_version":"2.1.0","time_elapsed":3344899,"subject_id":"92465","group":"Group1","condition":"3_Rep","full_date":"2026-03-07T21:54:22.154Z","date":"2026-03-07","time":"21:54:22"},{"task":"memory_phase","broad_category":"S","image_png":"S_Chert_10.png","image_id":362,"category_name":"Chert","category":23,"distinct_rating":7.17,"distinct_type":"Top","rt":null,"stimulus":"Stimuli_Rocks480/S_Chert_10.png","response":null,"trial_type":"image-keyboard-response","trial_index":130,"plugin_version":"2.1.0","time_elapsed":3347415,"subject_id":"92465","group":"Group1","condition":"3_Rep","full_date":"2026-03-07T21:54:22.154Z","date":"2026-03-07","time":"21:54:22"},{"rt":null,"stimulus":"<p style=\"font-size: 50px; margin: 0; text-align: center;\">+</p>","response":null,"trial_type":"html-keyboard-response","trial_index":131,"plugin_version":"2.1.0","time_elapsed":3348429,"subject_id":"92465","group":"Group1","condition":"3_Rep","full_date":"2026-03-07T21:54:22.154Z","date":"2026-03-07","time":"21:54:22"},{"task":"memory_phase","broad_category":"S","image_png":"S_Shale_08.png","image_id":472,"category_name":"Shale","category":30,"distinct_rating":2.55,"distinct_type":"Bottom","rt":null,"stimulus":"Stimuli_Rocks480/S_Shale_08.png","response":null,"trial_type":"image-keyboard-response","trial_index":132,"plugin_version":"2.1.0","time_elapsed":3350935,"subject_id":"92465","group":"Group1","condition":"3_Rep","full_date":"2026-03-07T21:54:22.154Z","date":"2026-03-07","time":"21:54:22"},{"rt":null,"stimulus":"<p style=\"font-size: 50px; margin: 0; text-align: center;\">+</p>","response":null,"trial_type":"html-keyboard-response","trial_index":133,"plugin_version":"2.1.0","time_elapsed":3351950,"subject_id":"92465","group":"Group1","condition":"3_Rep","full_date":"2026-03-07T21:54:22.154Z","date":"2026-03-07","time":"21:54:22"},{"task":"memory_phase","broad_category":"I","image_png":"I_Rhyolite_14.png","image_id":158,"category_name":"Rhyolite","category":10,"distinct_rating":2.59,"distinct_type":"Bottom","rt":null,"stimulus":"Stimuli_Rocks480/I_Rhyolite_14.png","response":null,"trial_type":"image-keyboard-response","trial_index":134,"plugin_version":"2.1.0","time_elapsed":3354467,"subject_id":"92465","group":"Group1","condition":"3_Rep","full_date":"2026-03-07T21:54:22.154Z","date":"2026-03-07","time":"21:54:22"},{"rt":null,"stimulus":"<p style=\"font-size: 50px; margin: 0; text-align: center;\">+</p>","response":null,"trial_type":"html-keyboard-response","trial_index":135,"plugin_version":"2.1.0","time_elapsed":3355483,"subject_id":"92465","group":"Group1","condition":"3_Rep","full_date":"2026-03-07T21:54:22.154Z","date":"2026-03-07","time":"21:54:22"},{"task":"memory_phase","broad_category":"M","image_png":"M_Marble_16.png","image_id":240,"category_name":"Marble","category":15,"distinct_rating":2.57,"distinct_type":"Bottom","rt":null,"stimulus":"Stimuli_Rocks480/M_Marble_16.png","response":null,"trial_type":"image-keyboard-response","trial_index":136,"plugin_version":"2.1.0","time_elapsed":3357988,"subject_id":"92465","group":"Group1","condition":"3_Rep","full_date":"2026-03-07T21:54:22.154Z","date":"2026-03-07","time":"21:54:22"},{"rt":null,"stimulus":"<p style=\"font-size: 50px; margin: 0; text-align: center;\">+</p>","response":null,"trial_type":"html-keyboard-response","trial_index":137,"plugin_version":"2.1.0","time_elapsed":3358991,"subject_id":"92465","group":"Group1","condition":"3_Rep","full_date":"2026-03-07T21:54:22.154Z","date":"2026-03-07","time":"21:54:22"},{"task":"memory_phase","broad_category":"M","image_png":"M_Phyllite_10.png","image_id":266,"category_name":"Phyllite","category":17,"distinct_rating":2.6,"distinct_type":"Bottom","rt":null,"stimulus":"Stimuli_Rocks480/M_Phyllite_10.png","response":null,"trial_type":"image-keyboard-response","trial_index":138,"plugin_version":"2.1.0","time_elapsed":3361501,"subject_id":"92465","group":"Group1","condition":"3_Rep","full_date":"2026-03-07T21:54:22.154Z","date":"2026-03-07","time":"21:54:22"},{"rt":null,"stimulus":"<p style=\"font-size: 50px; margin: 0; text-align: center;\">+</p>","response":null,"trial_type":"html-keyboard-response","trial_index":139,"plugin_version":"2.1.0","time_elapsed":3362515,"subject_id":"92465","group":"Group1","condition":"3_Rep","full_date":"2026-03-07T21:54:22.154Z","date":"2026-03-07","time":"21:54:22"},{"task":"memory_phase","broad_category":"I","image_png":"I_Basalt_01.png","image_id":17,"category_name":"Basalt","category":2,"distinct_rating":1.92,"distinct_type":"Bottom","rt":null,"stimulus":"Stimuli_Rocks480/I_Basalt_01.png","response":null,"trial_type":"image-keyboard-response","trial_index":140,"plugin_version":"2.1.0","time_elapsed":3365028,"subject_id":"92465","group":"Group1","condition":"3_Rep","full_date":"2026-03-07T21:54:22.154Z","date":"2026-03-07","time":"21:54:22"},{"rt":null,"stimulus":"<p style=\"font-size: 50px; margin: 0; text-align: center;\">+</p>","response":null,"trial_type":"html-keyboard-response","trial_index":141,"plugin_version":"2.1.0","time_elapsed":3366045,"subject_id":"92465","group":"Group1","condition":"3_Rep","full_date":"2026-03-07T21:54:22.154Z","date":"2026-03-07","time":"21:54:22"},{"task":"memory_phase","broad_category":"M","image_png":"M_Slate_11.png","image_id":315,"category_name":"Slate","category":20,"distinct_rating":2.75,"distinct_type":"Bottom","rt":null,"stimulus":"Stimuli_Rocks480/M_Slate_11.png","response":null,"trial_type":"image-keyboard-response","trial_index":142,"plugin_version":"2.1.0","time_elapsed":3368558,"subject_id":"92465","group":"Group1","condition":"3_Rep","full_date":"2026-03-07T21:54:22.154Z","date":"2026-03-07","time":"21:54:22"},{"rt":null,"stimulus":"<p style=\"font-size: 50px; margin: 0; text-align: center;\">+</p>","response":null,"trial_type":"html-keyboard-response","trial_index":143,"plugin_version":"2.1.0","time_elapsed":3369573,"subject_id":"92465","group":"Group1","condition":"3_Rep","full_date":"2026-03-07T21:54:22.154Z","date":"2026-03-07","time":"21:54:22"},{"task":"memory_phase","broad_category":"I","image_png":"I_Pegmatite_10.png","image_id":106,"category_name":"Pegmatite","category":7,"distinct_rating":7.66,"distinct_type":"Top","rt":null,"stimulus":"Stimuli_Rocks480/I_Pegmatite_10.png","response":null,"trial_type":"image-keyboard-response","trial_index":144,"plugin_version":"2.1.0","time_elapsed":3372086,"subject_id":"92465","group":"Group1","condition":"3_Rep","full_date":"2026-03-07T21:54:22.154Z","date":"2026-03-07","time":"21:54:22"},{"rt":null,"stimulus":"<p style=\"font-size: 50px; margin: 0; text-align: center;\">+</p>","response":null,"trial_type":"html-keyboard-response","trial_index":145,"plugin_version":"2.1.0","time_elapsed":3373103,"subject_id":"92465","group":"Group1","condition":"3_Rep","full_date":"2026-03-07T21:54:22.154Z","date":"2026-03-07","time":"21:54:22"},{"task":"memory_phase","broad_category":"I","image_png":"I_Gabbro_08.png","image_id":56,"category_name":"Gabbro","category":4,"distinct_rating":3.02,"distinct_type":"Bottom","rt":null,"stimulus":"Stimuli_Rocks480/I_Gabbro_08.png","response":null,"trial_type":"image-keyboard-response","trial_index":146,"plugin_version":"2.1.0","time_elapsed":3375608,"subject_id":"92465","group":"Group1","condition":"3_Rep","full_date":"2026-03-07T21:54:22.154Z","date":"2026-03-07","time":"21:54:22"},{"rt":null,"stimulus":"<p style=\"font-size: 50px; margin: 0; text-align: center;\">+</p>","response":null,"trial_type":"html-keyboard-response","trial_index":147,"plugin_version":"2.1.0","time_elapsed":3376614,"subject_id":"92465","group":"Group1","condition":"3_Rep","full_date":"2026-03-07T21:54:22.154Z","date":"2026-03-07","time":"21:54:22"},{"task":"memory_phase","broad_category":"I","image_png":"I_Pumice_11.png","image_id":139,"category_name":"Pumice","category":9,"distinct_rating":1.74,"distinct_type":"Bottom","rt":null,"stimulus":"Stimuli_Rocks480/I_Pumice_11.png","response":null,"trial_type":"image-keyboard-response","trial_index":148,"plugin_version":"2.1.0","time_elapsed":3379120,"subject_id":"92465","group":"Group1","condition":"3_Rep","full_date":"2026-03-07T21:54:22.154Z","date":"2026-03-07","time":"21:54:22"},{"rt":null,"stimulus":"<p style=\"font-size: 50px; margin: 0; text-align: center;\">+</p>","response":null,"trial_type":"html-keyboard-response","trial_index":149,"plugin_version":"2.1.0","time_elapsed":3380136,"subject_id":"92465","group":"Group1","condition":"3_Rep","full_date":"2026-03-07T21:54:22.154Z","date":"2026-03-07","time":"21:54:22"},{"task":"memory_phase","broad_category":"S","image_png":"S_Dolomite_14.png","image_id":398,"category_name":"Dolomite","category":25,"distinct_rating":1.43,"distinct_type":"Bottom","rt":null,"stimulus":"Stimuli_Rocks480/S_Dolomite_14.png","response":null,"trial_type":"image-keyboard-response","trial_index":150,"plugin_version":"2.1.0","time_elapsed":3382647,"subject_id":"92465","group":"Group1","condition":"3_Rep","full_date":"2026-03-07T21:54:22.154Z","date":"2026-03-07","time":"21:54:22"},{"rt":null,"stimulus":"<p style=\"font-size: 50px; margin: 0; text-align: center;\">+</p>","response":null,"trial_type":"html-keyboard-response","trial_index":151,"plugin_version":"2.1.0","time_elapsed":3383648,"subject_id":"92465","group":"Group1","condition":"3_Rep","full_date":"2026-03-07T21:54:22.154Z","date":"2026-03-07","time":"21:54:22"},{"task":"memory_phase","broad_category":"I","image_png":"I_Diorite_04.png","image_id":36,"category_name":"Diorite","category":3,"distinct_rating":2.98,"distinct_type":"Bottom","rt":null,"stimulus":"Stimuli_Rocks480/I_Diorite_04.png","response":null,"trial_type":"image-keyboard-response","trial_index":152,"plugin_version":"2.1.0","time_elapsed":3386165,"subject_id":"92465","group":"Group1","condition":"3_Rep","full_date":"2026-03-07T21:54:22.154Z","date":"2026-03-07","time":"21:54:22"},{"rt":null,"stimulus":"<p style=\"font-size: 50px; margin: 0; text-align: center;\">+</p>","response":null,"trial_type":"html-keyboard-response","trial_index":153,"plugin_version":"2.1.0","time_elapsed":3387181,"subject_id":"92465","group":"Group1","condition":"3_Rep","full_date":"2026-03-07T21:54:22.154Z","date":"2026-03-07","time":"21:54:22"},{"task":"memory_phase","broad_category":"S","image_png":"S_Dolomite_13.png","image_id":397,"category_name":"Dolomite","category":25,"distinct_rating":1.77,"distinct_type":"Bottom","rt":null,"stimulus":"Stimuli_Rocks480/S_Dolomite_13.png","response":null,"trial_type":"image-keyboard-response","trial_index":154,"plugin_version":"2.1.0","time_elapsed":3389694,"subject_id":"92465","group":"Group1","condition":"3_Rep","full_date":"2026-03-07T21:54:22.154Z","date":"2026-03-07","time":"21:54:22"},{"rt":null,"stimulus":"<p style=\"font-size: 50px; margin: 0; text-align: center;\">+</p>","response":null,"trial_type":"html-keyboard-response","trial_index":155,"plugin_version":"2.1.0","time_elapsed":3390701,"subject_id":"92465","group":"Group1","condition":"3_Rep","full_date":"2026-03-07T21:54:22.154Z","date":"2026-03-07","time":"21:54:22"},{"task":"memory_phase","broad_category":"I","image_png":"I_Andesite_10.png","image_id":10,"category_name":"Andesite","category":1,"distinct_rating":3.15,"distinct_type":"Bottom","rt":null,"stimulus":"Stimuli_Rocks480/I_Andesite_10.png","response":null,"trial_type":"image-keyboard-response","trial_index":156,"plugin_version":"2.1.0","time_elapsed":3393212,"subject_id":"92465","group":"Group1","condition":"3_Rep","full_date":"2026-03-07T21:54:22.154Z","date":"2026-03-07","time":"21:54:22"},{"rt":3031,"stimulus":"<p style=\"max-width: 760px; margin: auto; font-size: 35px; line-height: 1.5;\">\n                Press SPACE to continue study phase\n              </p>","response":" ","trial_type":"html-keyboard-response","trial_index":157,"plugin_version":"2.1.0","time_elapsed":3396245,"subject_id":"92465","group":"Group1","condition":"3_Rep","full_date":"2026-03-07T21:54:22.154Z","date":"2026-03-07","time":"21:54:22"},{"rt":null,"stimulus":"<p style=\"font-size: 50px; margin: 0; text-align: center;\">+</p>","response":null,"trial_type":"html-keyboard-response","trial_index":158,"plugin_version":"2.1.0","time_elapsed":3397252,"subject_id":"92465","group":"Group1","condition":"3_Rep","full_date":"2026-03-07T21:54:22.154Z","date":"2026-03-07","time":"21:54:22"},{"task":"memory_phase","broad_category":"I","image_png":"I_Basalt_09.png","image_id":25,"category_name":"Basalt","category":2,"distinct_rating":1.89,"distinct_type":"Bottom","rt":null,"stimulus":"Stimuli_Rocks480/I_Basalt_09.png","response":null,"trial_type":"image-keyboard-response","trial_index":159,"plugin_version":"2.1.0","time_elapsed":3399756,"subject_id":"92465","group":"Group1","condition":"3_Rep","full_date":"2026-03-07T21:54:22.154Z","date":"2026-03-07","time":"21:54:22"},{"rt":null,"stimulus":"<p style=\"font-size: 50px; margin: 0; text-align: center;\">+</p>","response":null,"trial_type":"html-keyboard-response","trial_index":160,"plugin_version":"2.1.0","time_elapsed":3400759,"subject_id":"92465","group":"Group1","condition":"3_Rep","full_date":"2026-03-07T21:54:22.154Z","date":"2026-03-07","time":"21:54:22"},{"task":"memory_phase","broad_category":"M","image_png":"M_Slate_15.png","image_id":319,"category_name":"Slate","category":20,"distinct_rating":2.13,"distinct_type":"Bottom","rt":null,"stimulus":"Stimuli_Rocks480/M_Slate_15.png","response":null,"trial_type":"image-keyboard-response","trial_index":161,"plugin_version":"2.1.0","time_elapsed":3403268,"subject_id":"92465","group":"Group1","condition":"3_Rep","full_date":"2026-03-07T21:54:22.154Z","date":"2026-03-07","time":"21:54:22"},{"rt":null,"stimulus":"<p style=\"font-size: 50px; margin: 0; text-align: center;\">+</p>","response":null,"trial_type":"html-keyboard-response","trial_index":162,"plugin_version":"2.1.0","time_elapsed":3404285,"subject_id":"92465","group":"Group1","condition":"3_Rep","full_date":"2026-03-07T21:54:22.154Z","date":"2026-03-07","time":"21:54:22"},{"task":"memory_phase","broad_category":"I","image_png":"I_Gabbro_16.png","image_id":64,"category_name":"Gabbro","category":4,"distinct_rating":2.52,"distinct_type":"Bottom","rt":null,"stimulus":"Stimuli_Rocks480/I_Gabbro_16.png","response":null,"trial_type":"image-keyboard-response","trial_index":163,"plugin_version":"2.1.0","time_elapsed":3406800,"subject_id":"92465","group":"Group1","condition":"3_Rep","full_date":"2026-03-07T21:54:22.154Z","date":"2026-03-07","time":"21:54:22"},{"rt":null,"stimulus":"<p style=\"font-size: 50px; margin: 0; text-align: center;\">+</p>","response":null,"trial_type":"html-keyboard-response","trial_index":164,"plugin_version":"2.1.0","time_elapsed":3407809,"subject_id":"92465","group":"Group1","condition":"3_Rep","full_date":"2026-03-07T21:54:22.154Z","date":"2026-03-07","time":"21:54:22"},{"task":"memory_phase","broad_category":"I","image_png":"I_Andesite_06.png","image_id":6,"category_name":"Andesite","category":1,"distinct_rating":3.17,"distinct_type":"Bottom","rt":null,"stimulus":"Stimuli_Rocks480/I_Andesite_06.png","response":null,"trial_type":"image-keyboard-response","trial_index":165,"plugin_version":"2.1.0","time_elapsed":3410325,"subject_id":"92465","group":"Group1","condition":"3_Rep","full_date":"2026-03-07T21:54:22.154Z","date":"2026-03-07","time":"21:54:22"},{"rt":null,"stimulus":"<p style=\"font-size: 50px; margin: 0; text-align: center;\">+</p>","response":null,"trial_type":"html-keyboard-response","trial_index":166,"plugin_version":"2.1.0","time_elapsed":3411342,"subject_id":"92465","group":"Group1","condition":"3_Rep","full_date":"2026-03-07T21:54:22.154Z","date":"2026-03-07","time":"21:54:22"},{"task":"memory_phase","broad_category":"I","image_png":"I_Andesite_08.png","image_id":8,"category_name":"Andesite","category":1,"distinct_rating":1.95,"distinct_type":"Bottom","rt":null,"stimulus":"Stimuli_Rocks480/I_Andesite_08.png","response":null,"trial_type":"image-keyboard-response","trial_index":167,"plugin_version":"2.1.0","time_elapsed":3413857,"subject_id":"92465","group":"Group1","condition":"3_Rep","full_date":"2026-03-07T21:54:22.154Z","date":"2026-03-07","time":"21:54:22"},{"rt":null,"stimulus":"<p style=\"font-size: 50px; margin: 0; text-align: center;\">+</p>","response":null,"trial_type":"html-keyboard-response","trial_index":168,"plugin_version":"2.1.0","time_elapsed":3414869,"subject_id":"92465","group":"Group1","condition":"3_Rep","full_date":"2026-03-07T21:54:22.154Z","date":"2026-03-07","time":"21:54:22"},{"task":"memory_phase","broad_category":"I","image_png":"I_Obsidian_05.png","image_id":85,"category_name":"Obsidian","category":6,"distinct_rating":7.32,"distinct_type":"Top","rt":null,"stimulus":"Stimuli_Rocks480/I_Obsidian_05.png","response":null,"trial_type":"image-keyboard-response","trial_index":169,"plugin_version":"2.1.0","time_elapsed":3417373,"subject_id":"92465","group":"Group1","condition":"3_Rep","full_date":"2026-03-07T21:54:22.154Z","date":"2026-03-07","time":"21:54:22"},{"rt":null,"stimulus":"<p style=\"font-size: 50px; margin: 0; text-align: center;\">+</p>","response":null,"trial_type":"html-keyboard-response","trial_index":170,"plugin_version":"2.1.0","time_elapsed":3418377,"subject_id":"92465","group":"Group1","condition":"3_Rep","full_date":"2026-03-07T21:54:22.154Z","date":"2026-03-07","time":"21:54:22"},{"task":"memory_phase","broad_category":"S","image_png":"S_Shale_01.png","image_id":465,"category_name":"Shale","category":30,"distinct_rating":2.7,"distinct_type":"Bottom","rt":null,"stimulus":"Stimuli_Rocks480/S_Shale_01.png","response":null,"trial_type":"image-keyboard-response","trial_index":171,"plugin_version":"2.1.0","time_elapsed":3420891,"subject_id":"92465","group":"Group1","condition":"3_Rep","full_date":"2026-03-07T21:54:22.154Z","date":"2026-03-07","time":"21:54:22"},{"rt":null,"stimulus":"<p style=\"font-size: 50px; margin: 0; text-align: center;\">+</p>","response":null,"trial_type":"html-keyboard-response","trial_index":172,"plugin_version":"2.1.0","time_elapsed":3421907,"subject_id":"92465","group":"Group1","condition":"3_Rep","full_date":"2026-03-07T21:54:22.154Z","date":"2026-03-07","time":"21:54:22"},{"task":"memory_phase","broad_category":"M","image_png":"M_Gneiss_06.png","image_id":198,"category_name":"Gneiss","category":13,"distinct_rating":2.65,"distinct_type":"Bottom","rt":null,"stimulus":"Stimuli_Rocks480/M_Gneiss_06.png","response":null,"trial_type":"image-keyboard-response","trial_index":173,"plugin_version":"2.1.0","time_elapsed":3424414,"subject_id":"92465","group":"Group1","condition":"3_Rep","full_date":"2026-03-07T21:54:22.154Z","date":"2026-03-07","time":"21:54:22"},{"rt":null,"stimulus":"<p style=\"font-size: 50px; margin: 0; text-align: center;\">+</p>","response":null,"trial_type":"html-keyboard-response","trial_index":174,"plugin_version":"2.1.0","time_elapsed":3425429,"subject_id":"92465","group":"Group1","condition":"3_Rep","full_date":"2026-03-07T21:54:22.154Z","date":"2026-03-07","time":"21:54:22"},{"task":"memory_phase","broad_category":"M","image_png":"M_Marble_06.png","image_id":230,"category_name":"Marble","category":15,"distinct_rating":3.4,"distinct_type":"Bottom","rt":null,"stimulus":"Stimuli_Rocks480/M_Marble_06.png","response":null,"trial_type":"image-keyboard-response","trial_index":175,"plugin_version":"2.1.0","time_elapsed":3427940,"subject_id":"92465","group":"Group1","condition":"3_Rep","full_date":"2026-03-07T21:54:22.154Z","date":"2026-03-07","time":"21:54:22"},{"rt":null,"stimulus":"<p style=\"font-size: 50px; margin: 0; text-align: center;\">+</p>","response":null,"trial_type":"html-keyboard-response","trial_index":176,"plugin_version":"2.1.0","time_elapsed":3428943,"subject_id":"92465","group":"Group1","condition":"3_Rep","full_date":"2026-03-07T21:54:22.154Z","date":"2026-03-07","time":"21:54:22"},{"task":"memory_phase","broad_category":"I","image_png":"I_Gabbro_11.png","image_id":59,"category_name":"Gabbro","category":4,"distinct_rating":1.99,"distinct_type":"Bottom","rt":null,"stimulus":"Stimuli_Rocks480/I_Gabbro_11.png","response":null,"trial_type":"image-keyboard-response","trial_index":177,"plugin_version":"2.1.0","time_elapsed":3431456,"subject_id":"92465","group":"Group1","condition":"3_Rep","full_date":"2026-03-07T21:54:22.154Z","date":"2026-03-07","time":"21:54:22"},{"rt":null,"stimulus":"<p style=\"font-size: 50px; margin: 0; text-align: center;\">+</p>","response":null,"trial_type":"html-keyboard-response","trial_index":178,"plugin_version":"2.1.0","time_elapsed":3432468,"subject_id":"92465","group":"Group1","condition":"3_Rep","full_date":"2026-03-07T21:54:22.154Z","date":"2026-03-07","time":"21:54:22"},{"task":"memory_phase","broad_category":"S","image_png":"S_Rock Gypsum_04.png","image_id":420,"category_name":"Rock Gypsum","category":27,"distinct_rating":7.61,"distinct_type":"Top","rt":null,"stimulus":"Stimuli_Rocks480/S_Rock Gypsum_04.png","response":null,"trial_type":"image-keyboard-response","trial_index":179,"plugin_version":"2.1.0","time_elapsed":3434971,"subject_id":"92465","group":"Group1","condition":"3_Rep","full_date":"2026-03-07T21:54:22.154Z","date":"2026-03-07","time":"21:54:22"},{"rt":null,"stimulus":"<p style=\"font-size: 50px; margin: 0; text-align: center;\">+</p>","response":null,"trial_type":"html-keyboard-response","trial_index":180,"plugin_version":"2.1.0","time_elapsed":3435986,"subject_id":"92465","group":"Group1","condition":"3_Rep","full_date":"2026-03-07T21:54:22.154Z","date":"2026-03-07","time":"21:54:22"},{"task":"memory_phase","broad_category":"I","image_png":"I_Pumice_12.png","image_id":140,"category_name":"Pumice","category":9,"distinct_rating":2.97,"distinct_type":"Bottom","rt":null,"stimulus":"Stimuli_Rocks480/I_Pumice_12.png","response":null,"trial_type":"image-keyboard-response","trial_index":181,"plugin_version":"2.1.0","time_elapsed":3438497,"subject_id":"92465","group":"Group1","condition":"3_Rep","full_date":"2026-03-07T21:54:22.154Z","date":"2026-03-07","time":"21:54:22"},{"rt":null,"stimulus":"<p style=\"font-size: 50px; margin: 0; text-align: center;\">+</p>","response":null,"trial_type":"html-keyboard-response","trial_index":182,"plugin_version":"2.1.0","time_elapsed":3439513,"subject_id":"92465","group":"Group1","condition":"3_Rep","full_date":"2026-03-07T21:54:22.154Z","date":"2026-03-07","time":"21:54:22"},{"task":"memory_phase","broad_category":"M","image_png":"M_Slate_03.png","image_id":307,"category_name":"Slate","category":20,"distinct_rating":1.87,"distinct_type":"Bottom","rt":null,"stimulus":"Stimuli_Rocks480/M_Slate_03.png","response":null,"trial_type":"image-keyboard-response","trial_index":183,"plugin_version":"2.1.0","time_elapsed":3442022,"subject_id":"92465","group":"Group1","condition":"3_Rep","full_date":"2026-03-07T21:54:22.154Z","date":"2026-03-07","time":"21:54:22"},{"rt":null,"stimulus":"<p style=\"font-size: 50px; margin: 0; text-align: center;\">+</p>","response":null,"trial_type":"html-keyboard-response","trial_index":184,"plugin_version":"2.1.0","time_elapsed":3443032,"subject_id":"92465","group":"Group1","condition":"3_Rep","full_date":"2026-03-07T21:54:22.154Z","date":"2026-03-07","time":"21:54:22"},{"task":"memory_phase","broad_category":"S","image_png":"S_Rock Salt_01.png","image_id":433,"category_name":"Rock Salt","category":28,"distinct_rating":7.18,"distinct_type":"Top","rt":null,"stimulus":"Stimuli_Rocks480/S_Rock Salt_01.png","response":null,"trial_type":"image-keyboard-response","trial_index":185,"plugin_version":"2.1.0","time_elapsed":3445543,"subject_id":"92465","group":"Group1","condition":"3_Rep","full_date":"2026-03-07T21:54:22.154Z","date":"2026-03-07","time":"21:54:22"},{"rt":null,"stimulus":"<p style=\"font-size: 50px; margin: 0; text-align: center;\">+</p>","response":null,"trial_type":"html-keyboard-response","trial_index":186,"plugin_version":"2.1.0","time_elapsed":3446559,"subject_id":"92465","group":"Group1","condition":"3_Rep","full_date":"2026-03-07T21:54:22.154Z","date":"2026-03-07","time":"21:54:22"},{"task":"memory_phase","broad_category":"I","image_png":"I_Pumice_08.png","image_id":136,"category_name":"Pumice","category":9,"distinct_rating":3.1,"distinct_type":"Bottom","rt":null,"stimulus":"Stimuli_Rocks480/I_Pumice_08.png","response":null,"trial_type":"image-keyboard-response","trial_index":187,"plugin_version":"2.1.0","time_elapsed":3449065,"subject_id":"92465","group":"Group1","condition":"3_Rep","full_date":"2026-03-07T21:54:22.154Z","date":"2026-03-07","time":"21:54:22"},{"rt":null,"stimulus":"<p style=\"font-size: 50px; margin: 0; text-align: center;\">+</p>","response":null,"trial_type":"html-keyboard-response","trial_index":188,"plugin_version":"2.1.0","time_elapsed":3450082,"subject_id":"92465","group":"Group1","condition":"3_Rep","full_date":"2026-03-07T21:54:22.154Z","date":"2026-03-07","time":"21:54:22"},{"task":"memory_phase","broad_category":"M","image_png":"M_Quartzite_05.png","image_id":277,"category_name":"Quartzite","category":18,"distinct_rating":2.23,"distinct_type":"Bottom","rt":null,"stimulus":"Stimuli_Rocks480/M_Quartzite_05.png","response":null,"trial_type":"image-keyboard-response","trial_index":189,"plugin_version":"2.1.0","time_elapsed":3452595,"subject_id":"92465","group":"Group1","condition":"3_Rep","full_date":"2026-03-07T21:54:22.154Z","date":"2026-03-07","time":"21:54:22"},{"rt":null,"stimulus":"<p style=\"font-size: 50px; margin: 0; text-align: center;\">+</p>","response":null,"trial_type":"html-keyboard-response","trial_index":190,"plugin_version":"2.1.0","time_elapsed":3453609,"subject_id":"92465","group":"Group1","condition":"3_Rep","full_date":"2026-03-07T21:54:22.154Z","date":"2026-03-07","time":"21:54:22"},{"task":"memory_phase","broad_category":"M","image_png":"M_Gneiss_13.png","image_id":205,"category_name":"Gneiss","category":13,"distinct_rating":3.26,"distinct_type":"Bottom","rt":null,"stimulus":"Stimuli_Rocks480/M_Gneiss_13.png","response":null,"trial_type":"image-keyboard-response","trial_index":191,"plugin_version":"2.1.0","time_elapsed":3456125,"subject_id":"92465","group":"Group1","condition":"3_Rep","full_date":"2026-03-07T21:54:22.154Z","date":"2026-03-07","time":"21:54:22"},{"rt":null,"stimulus":"<p style=\"font-size: 50px; margin: 0; text-align: center;\">+</p>","response":null,"trial_type":"html-keyboard-response","trial_index":192,"plugin_version":"2.1.0","time_elapsed":3457143,"subject_id":"92465","group":"Group1","condition":"3_Rep","full_date":"2026-03-07T21:54:22.154Z","date":"2026-03-07","time":"21:54:22"},{"task":"memory_phase","broad_category":"S","image_png":"S_Dolomite_12.png","image_id":396,"category_name":"Dolomite","category":25,"distinct_rating":1.85,"distinct_type":"Bottom","rt":null,"stimulus":"Stimuli_Rocks480/S_Dolomite_12.png","response":null,"trial_type":"image-keyboard-response","trial_index":193,"plugin_version":"2.1.0","time_elapsed":3459654,"subject_id":"92465","group":"Group1","condition":"3_Rep","full_date":"2026-03-07T21:54:22.154Z","date":"2026-03-07","time":"21:54:22"},{"rt":null,"stimulus":"<p style=\"font-size: 50px; margin: 0; text-align: center;\">+</p>","response":null,"trial_type":"html-keyboard-response","trial_index":194,"plugin_version":"2.1.0","time_elapsed":3460669,"subject_id":"92465","group":"Group1","condition":"3_Rep","full_date":"2026-03-07T21:54:22.154Z","date":"2026-03-07","time":"21:54:22"},{"task":"memory_phase","broad_category":"S","image_png":"S_Sandstone_16.png","image_id":464,"category_name":"Sandstone","category":29,"distinct_rating":1.93,"distinct_type":"Bottom","rt":null,"stimulus":"Stimuli_Rocks480/S_Sandstone_16.png","response":null,"trial_type":"image-keyboard-response","trial_index":195,"plugin_version":"2.1.0","time_elapsed":3463188,"subject_id":"92465","group":"Group1","condition":"3_Rep","full_date":"2026-03-07T21:54:22.154Z","date":"2026-03-07","time":"21:54:22"},{"rt":null,"stimulus":"<p style=\"font-size: 50px; margin: 0; text-align: center;\">+</p>","response":null,"trial_type":"html-keyboard-response","trial_index":196,"plugin_version":"2.1.0","time_elapsed":3464202,"subject_id":"92465","group":"Group1","condition":"3_Rep","full_date":"2026-03-07T21:54:22.154Z","date":"2026-03-07","time":"21:54:22"},{"task":"memory_phase","broad_category":"M","image_png":"M_Marble_04.png","image_id":228,"category_name":"Marble","category":15,"distinct_rating":3.15,"distinct_type":"Bottom","rt":null,"stimulus":"Stimuli_Rocks480/M_Marble_04.png","response":null,"trial_type":"image-keyboard-response","trial_index":197,"plugin_version":"2.1.0","time_elapsed":3466714,"subject_id":"92465","group":"Group1","condition":"3_Rep","full_date":"2026-03-07T21:54:22.154Z","date":"2026-03-07","time":"21:54:22"},{"rt":null,"stimulus":"<p style=\"font-size: 50px; margin: 0; text-align: center;\">+</p>","response":null,"trial_type":"html-keyboard-response","trial_index":198,"plugin_version":"2.1.0","time_elapsed":3467729,"subject_id":"92465","group":"Group1","condition":"3_Rep","full_date":"2026-03-07T21:54:22.154Z","date":"2026-03-07","time":"21:54:22"},{"task":"memory_phase","broad_category":"S","image_png":"S_Sandstone_15.png","image_id":463,"category_name":"Sandstone","category":29,"distinct_rating":2,"distinct_type":"Bottom","rt":null,"stimulus":"Stimuli_Rocks480/S_Sandstone_15.png","response":null,"trial_type":"image-keyboard-response","trial_index":199,"plugin_version":"2.1.0","time_elapsed":3470246,"subject_id":"92465","group":"Group1","condition":"3_Rep","full_date":"2026-03-07T21:54:22.154Z","date":"2026-03-07","time":"21:54:22"},{"rt":null,"stimulus":"<p style=\"font-size: 50px; margin: 0; text-align: center;\">+</p>","response":null,"trial_type":"html-keyboard-response","trial_index":200,"plugin_version":"2.1.0","time_elapsed":3471250,"subject_id":"92465","group":"Group1","condition":"3_Rep","full_date":"2026-03-07T21:54:22.154Z","date":"2026-03-07","time":"21:54:22"},{"task":"memory_phase","broad_category":"M","image_png":"M_Quartzite_13.png","image_id":285,"category_name":"Quartzite","category":18,"distinct_rating":2.27,"distinct_type":"Bottom","rt":null,"stimulus":"Stimuli_Rocks480/M_Quartzite_13.png","response":null,"trial_type":"image-keyboard-response","trial_index":201,"plugin_version":"2.1.0","time_elapsed":3473766,"subject_id":"92465","group":"Group1","condition":"3_Rep","full_date":"2026-03-07T21:54:22.154Z","date":"2026-03-07","time":"21:54:22"},{"rt":null,"stimulus":"<p style=\"font-size: 50px; margin: 0; text-align: center;\">+</p>","response":null,"trial_type":"html-keyboard-response","trial_index":202,"plugin_version":"2.1.0","time_elapsed":3474780,"subject_id":"92465","group":"Group1","condition":"3_Rep","full_date":"2026-03-07T21:54:22.154Z","date":"2026-03-07","time":"21:54:22"},{"task":"memory_phase","broad_category":"S","image_png":"S_Conglomerate_05.png","image_id":373,"category_name":"Conglomerate","category":24,"distinct_rating":7.32,"distinct_type":"Top","rt":null,"stimulus":"Stimuli_Rocks480/S_Conglomerate_05.png","response":null,"trial_type":"image-keyboard-response","trial_index":203,"plugin_version":"2.1.0","time_elapsed":3477295,"subject_id":"92465","group":"Group1","condition":"3_Rep","full_date":"2026-03-07T21:54:22.154Z","date":"2026-03-07","time":"21:54:22"},{"rt":null,"stimulus":"<p style=\"font-size: 50px; margin: 0; text-align: center;\">+</p>","response":null,"trial_type":"html-keyboard-response","trial_index":204,"plugin_version":"2.1.0","time_elapsed":3478313,"subject_id":"92465","group":"Group1","condition":"3_Rep","full_date":"2026-03-07T21:54:22.154Z","date":"2026-03-07","time":"21:54:22"},{"task":"memory_phase","broad_category":"M","image_png":"M_Phyllite_03.png","image_id":259,"category_name":"Phyllite","category":17,"distinct_rating":2.5,"distinct_type":"Bottom","rt":null,"stimulus":"Stimuli_Rocks480/M_Phyllite_03.png","response":null,"trial_type":"image-keyboard-response","trial_index":205,"plugin_version":"2.1.0","time_elapsed":3480826,"subject_id":"92465","group":"Group1","condition":"3_Rep","full_date":"2026-03-07T21:54:22.154Z","date":"2026-03-07","time":"21:54:22"},{"rt":null,"stimulus":"<p style=\"font-size: 50px; margin: 0; text-align: center;\">+</p>","response":null,"trial_type":"html-keyboard-response","trial_index":206,"plugin_version":"2.1.0","time_elapsed":3481837,"subject_id":"92465","group":"Group1","condition":"3_Rep","full_date":"2026-03-07T21:54:22.154Z","date":"2026-03-07","time":"21:54:22"},{"task":"memory_phase","broad_category":"I","image_png":"I_Basalt_02.png","image_id":18,"category_name":"Basalt","category":2,"distinct_rating":1.84,"distinct_type":"Bottom","rt":null,"stimulus":"Stimuli_Rocks480/I_Basalt_02.png","response":null,"trial_type":"image-keyboard-response","trial_index":207,"plugin_version":"2.1.0","time_elapsed":3484352,"subject_id":"92465","group":"Group1","condition":"3_Rep","full_date":"2026-03-07T21:54:22.154Z","date":"2026-03-07","time":"21:54:22"},{"rt":34058,"stimulus":"<p style=\"max-width: 760px; margin: auto; font-size: 35px; line-height: 1.5;\">\n                You have completed 2 study phases. \n                Now, we'll show you all the images again 1 more time.\n                <br><br>Press SPACE to continue\n              </p>","response":" ","trial_type":"html-keyboard-response","trial_index":208,"plugin_version":"2.1.0","time_elapsed":3518413,"subject_id":"92465","group":"Group1","condition":"3_Rep","full_date":"2026-03-07T21:54:22.154Z","date":"2026-03-07","time":"21:54:22"},{"rt":null,"stimulus":"<p style=\"font-size: 50px; margin: 0; text-align: center;\">+</p>","response":null,"trial_type":"html-keyboard-response","trial_index":209,"plugin_version":"2.1.0","time_elapsed":3519425,"subject_id":"92465","group":"Group1","condition":"3_Rep","full_date":"2026-03-07T21:54:22.154Z","date":"2026-03-07","time":"21:54:22"},{"task":"memory_phase","broad_category":"S","image_png":"S_Dolomite_12.png","image_id":396,"category_name":"Dolomite","category":25,"distinct_rating":1.85,"distinct_type":"Bottom","rt":null,"stimulus":"Stimuli_Rocks480/S_Dolomite_12.png","response":null,"trial_type":"image-keyboard-response","trial_index":210,"plugin_version":"2.1.0","time_elapsed":3521940,"subject_id":"92465","group":"Group1","condition":"3_Rep","full_date":"2026-03-07T21:54:22.154Z","date":"2026-03-07","time":"21:54:22"},{"rt":null,"stimulus":"<p style=\"font-size: 50px; margin: 0; text-align: center;\">+</p>","response":null,"trial_type":"html-keyboard-response","trial_index":211,"plugin_version":"2.1.0","time_elapsed":3522955,"subject_id":"92465","group":"Group1","condition":"3_Rep","full_date":"2026-03-07T21:54:22.154Z","date":"2026-03-07","time":"21:54:22"},{"task":"memory_phase","broad_category":"M","image_png":"M_Quartzite_08.png","image_id":280,"category_name":"Quartzite","category":18,"distinct_rating":2.15,"distinct_type":"Bottom","rt":null,"stimulus":"Stimuli_Rocks480/M_Quartzite_08.png","response":null,"trial_type":"image-keyboard-response","trial_index":212,"plugin_version":"2.1.0","time_elapsed":3525469,"subject_id":"92465","group":"Group1","condition":"3_Rep","full_date":"2026-03-07T21:54:22.154Z","date":"2026-03-07","time":"21:54:22"},{"rt":null,"stimulus":"<p style=\"font-size: 50px; margin: 0; text-align: center;\">+</p>","response":null,"trial_type":"html-keyboard-response","trial_index":213,"plugin_version":"2.1.0","time_elapsed":3526485,"subject_id":"92465","group":"Group1","condition":"3_Rep","full_date":"2026-03-07T21:54:22.154Z","date":"2026-03-07","time":"21:54:22"},{"task":"memory_phase","broad_category":"M","image_png":"M_Gneiss_13.png","image_id":205,"category_name":"Gneiss","category":13,"distinct_rating":3.26,"distinct_type":"Bottom","rt":null,"stimulus":"Stimuli_Rocks480/M_Gneiss_13.png","response":null,"trial_type":"image-keyboard-response","trial_index":214,"plugin_version":"2.1.0","time_elapsed":3528996,"subject_id":"92465","group":"Group1","condition":"3_Rep","full_date":"2026-03-07T21:54:22.154Z","date":"2026-03-07","time":"21:54:22"},{"rt":null,"stimulus":"<p style=\"font-size: 50px; margin: 0; text-align: center;\">+</p>","response":null,"trial_type":"html-keyboard-response","trial_index":215,"plugin_version":"2.1.0","time_elapsed":3530009,"subject_id":"92465","group":"Group1","condition":"3_Rep","full_date":"2026-03-07T21:54:22.154Z","date":"2026-03-07","time":"21:54:22"},{"task":"memory_phase","broad_category":"M","image_png":"M_Slate_15.png","image_id":319,"category_name":"Slate","category":20,"distinct_rating":2.13,"distinct_type":"Bottom","rt":null,"stimulus":"Stimuli_Rocks480/M_Slate_15.png","response":null,"trial_type":"image-keyboard-response","trial_index":216,"plugin_version":"2.1.0","time_elapsed":3532524,"subject_id":"92465","group":"Group1","condition":"3_Rep","full_date":"2026-03-07T21:54:22.154Z","date":"2026-03-07","time":"21:54:22"},{"rt":null,"stimulus":"<p style=\"font-size: 50px; margin: 0; text-align: center;\">+</p>","response":null,"trial_type":"html-keyboard-response","trial_index":217,"plugin_version":"2.1.0","time_elapsed":3533538,"subject_id":"92465","group":"Group1","condition":"3_Rep","full_date":"2026-03-07T21:54:22.154Z","date":"2026-03-07","time":"21:54:22"},{"task":"memory_phase","broad_category":"I","image_png":"I_Gabbro_16.png","image_id":64,"category_name":"Gabbro","category":4,"distinct_rating":2.52,"distinct_type":"Bottom","rt":null,"stimulus":"Stimuli_Rocks480/I_Gabbro_16.png","response":null,"trial_type":"image-keyboard-response","trial_index":218,"plugin_version":"2.1.0","time_elapsed":3536051,"subject_id":"92465","group":"Group1","condition":"3_Rep","full_date":"2026-03-07T21:54:22.154Z","date":"2026-03-07","time":"21:54:22"},{"rt":null,"stimulus":"<p style=\"font-size: 50px; margin: 0; text-align: center;\">+</p>","response":null,"trial_type":"html-keyboard-response","trial_index":219,"plugin_version":"2.1.0","time_elapsed":3537059,"subject_id":"92465","group":"Group1","condition":"3_Rep","full_date":"2026-03-07T21:54:22.154Z","date":"2026-03-07","time":"21:54:22"},{"task":"memory_phase","broad_category":"I","image_png":"I_Basalt_01.png","image_id":17,"category_name":"Basalt","category":2,"distinct_rating":1.92,"distinct_type":"Bottom","rt":null,"stimulus":"Stimuli_Rocks480/I_Basalt_01.png","response":null,"trial_type":"image-keyboard-response","trial_index":220,"plugin_version":"2.1.0","time_elapsed":3539573,"subject_id":"92465","group":"Group1","condition":"3_Rep","full_date":"2026-03-07T21:54:22.154Z","date":"2026-03-07","time":"21:54:22"},{"rt":null,"stimulus":"<p style=\"font-size: 50px; margin: 0; text-align: center;\">+</p>","response":null,"trial_type":"html-keyboard-response","trial_index":221,"plugin_version":"2.1.0","time_elapsed":3540591,"subject_id":"92465","group":"Group1","condition":"3_Rep","full_date":"2026-03-07T21:54:22.154Z","date":"2026-03-07","time":"21:54:22"},{"task":"memory_phase","broad_category":"M","image_png":"M_Quartzite_05.png","image_id":277,"category_name":"Quartzite","category":18,"distinct_rating":2.23,"distinct_type":"Bottom","rt":null,"stimulus":"Stimuli_Rocks480/M_Quartzite_05.png","response":null,"trial_type":"image-keyboard-response","trial_index":222,"plugin_version":"2.1.0","time_elapsed":3543103,"subject_id":"92465","group":"Group1","condition":"3_Rep","full_date":"2026-03-07T21:54:22.154Z","date":"2026-03-07","time":"21:54:22"},{"rt":null,"stimulus":"<p style=\"font-size: 50px; margin: 0; text-align: center;\">+</p>","response":null,"trial_type":"html-keyboard-response","trial_index":223,"plugin_version":"2.1.0","time_elapsed":3544118,"subject_id":"92465","group":"Group1","condition":"3_Rep","full_date":"2026-03-07T21:54:22.154Z","date":"2026-03-07","time":"21:54:22"},{"task":"memory_phase","broad_category":"S","image_png":"S_Rock Salt_01.png","image_id":433,"category_name":"Rock Salt","category":28,"distinct_rating":7.18,"distinct_type":"Top","rt":null,"stimulus":"Stimuli_Rocks480/S_Rock Salt_01.png","response":null,"trial_type":"image-keyboard-response","trial_index":224,"plugin_version":"2.1.0","time_elapsed":3546630,"subject_id":"92465","group":"Group1","condition":"3_Rep","full_date":"2026-03-07T21:54:22.154Z","date":"2026-03-07","time":"21:54:22"},{"rt":null,"stimulus":"<p style=\"font-size: 50px; margin: 0; text-align: center;\">+</p>","response":null,"trial_type":"html-keyboard-response","trial_index":225,"plugin_version":"2.1.0","time_elapsed":3547647,"subject_id":"92465","group":"Group1","condition":"3_Rep","full_date":"2026-03-07T21:54:22.154Z","date":"2026-03-07","time":"21:54:22"},{"task":"memory_phase","broad_category":"I","image_png":"I_Diorite_04.png","image_id":36,"category_name":"Diorite","category":3,"distinct_rating":2.98,"distinct_type":"Bottom","rt":null,"stimulus":"Stimuli_Rocks480/I_Diorite_04.png","response":null,"trial_type":"image-keyboard-response","trial_index":226,"plugin_version":"2.1.0","time_elapsed":3550157,"subject_id":"92465","group":"Group1","condition":"3_Rep","full_date":"2026-03-07T21:54:22.154Z","date":"2026-03-07","time":"21:54:22"},{"rt":null,"stimulus":"<p style=\"font-size: 50px; margin: 0; text-align: center;\">+</p>","response":null,"trial_type":"html-keyboard-response","trial_index":227,"plugin_version":"2.1.0","time_elapsed":3551171,"subject_id":"92465","group":"Group1","condition":"3_Rep","full_date":"2026-03-07T21:54:22.154Z","date":"2026-03-07","time":"21:54:22"},{"task":"memory_phase","broad_category":"I","image_png":"I_Gabbro_08.png","image_id":56,"category_name":"Gabbro","category":4,"distinct_rating":3.02,"distinct_type":"Bottom","rt":null,"stimulus":"Stimuli_Rocks480/I_Gabbro_08.png","response":null,"trial_type":"image-keyboard-response","trial_index":228,"plugin_version":"2.1.0","time_elapsed":3553689,"subject_id":"92465","group":"Group1","condition":"3_Rep","full_date":"2026-03-07T21:54:22.154Z","date":"2026-03-07","time":"21:54:22"},{"rt":null,"stimulus":"<p style=\"font-size: 50px; margin: 0; text-align: center;\">+</p>","response":null,"trial_type":"html-keyboard-response","trial_index":229,"plugin_version":"2.1.0","time_elapsed":3554693,"subject_id":"92465","group":"Group1","condition":"3_Rep","full_date":"2026-03-07T21:54:22.154Z","date":"2026-03-07","time":"21:54:22"},{"task":"memory_phase","broad_category":"M","image_png":"M_Marble_16.png","image_id":240,"category_name":"Marble","category":15,"distinct_rating":2.57,"distinct_type":"Bottom","rt":null,"stimulus":"Stimuli_Rocks480/M_Marble_16.png","response":null,"trial_type":"image-keyboard-response","trial_index":230,"plugin_version":"2.1.0","time_elapsed":3557206,"subject_id":"92465","group":"Group1","condition":"3_Rep","full_date":"2026-03-07T21:54:22.154Z","date":"2026-03-07","time":"21:54:22"},{"rt":null,"stimulus":"<p style=\"font-size: 50px; margin: 0; text-align: center;\">+</p>","response":null,"trial_type":"html-keyboard-response","trial_index":231,"plugin_version":"2.1.0","time_elapsed":3558221,"subject_id":"92465","group":"Group1","condition":"3_Rep","full_date":"2026-03-07T21:54:22.154Z","date":"2026-03-07","time":"21:54:22"},{"task":"memory_phase","broad_category":"I","image_png":"I_Pumice_12.png","image_id":140,"category_name":"Pumice","category":9,"distinct_rating":2.97,"distinct_type":"Bottom","rt":null,"stimulus":"Stimuli_Rocks480/I_Pumice_12.png","response":null,"trial_type":"image-keyboard-response","trial_index":232,"plugin_version":"2.1.0","time_elapsed":3560734,"subject_id":"92465","group":"Group1","condition":"3_Rep","full_date":"2026-03-07T21:54:22.154Z","date":"2026-03-07","time":"21:54:22"},{"rt":null,"stimulus":"<p style=\"font-size: 50px; margin: 0; text-align: center;\">+</p>","response":null,"trial_type":"html-keyboard-response","trial_index":233,"plugin_version":"2.1.0","time_elapsed":3561747,"subject_id":"92465","group":"Group1","condition":"3_Rep","full_date":"2026-03-07T21:54:22.154Z","date":"2026-03-07","time":"21:54:22"},{"task":"memory_phase","broad_category":"I","image_png":"I_Obsidian_05.png","image_id":85,"category_name":"Obsidian","category":6,"distinct_rating":7.32,"distinct_type":"Top","rt":null,"stimulus":"Stimuli_Rocks480/I_Obsidian_05.png","response":null,"trial_type":"image-keyboard-response","trial_index":234,"plugin_version":"2.1.0","time_elapsed":3564259,"subject_id":"92465","group":"Group1","condition":"3_Rep","full_date":"2026-03-07T21:54:22.154Z","date":"2026-03-07","time":"21:54:22"},{"rt":null,"stimulus":"<p style=\"font-size: 50px; margin: 0; text-align: center;\">+</p>","response":null,"trial_type":"html-keyboard-response","trial_index":235,"plugin_version":"2.1.0","time_elapsed":3565274,"subject_id":"92465","group":"Group1","condition":"3_Rep","full_date":"2026-03-07T21:54:22.154Z"