[{"width":1470,"height":839,"webaudio":true,"browser":"safari","browser_version":"18.6.0","mobile":false,"os":"Mac OS","fullscreen":true,"vsync_rate":60.67,"webcam":true,"microphone":true,"trial_type":"browser-check","trial_index":0,"plugin_version":"2.1.0","time_elapsed":999,"subject_id":"92573","group":"Group1","condition":"3_Rep","full_date":"2026-02-23T23:53:00.399Z","date":"2026-02-23","time":"23:53:00"},{"success":true,"timeout":false,"failed_images":[],"failed_audio":[],"failed_video":[],"trial_type":"preload","trial_index":1,"plugin_version":"2.1.0","time_elapsed":7377,"subject_id":"92573","group":"Group1","condition":"3_Rep","full_date":"2026-02-23T23:53:00.399Z","date":"2026-02-23","time":"23:53:00"},{"rt":6723,"url":"SONA_consent_memorability.html","trial_type":"external-html","trial_index":2,"plugin_version":"2.1.0","time_elapsed":14151,"subject_id":"92573","group":"Group1","condition":"3_Rep","full_date":"2026-02-23T23:53:00.399Z","date":"2026-02-23","time":"23:53:00"},{"success":true,"rt":2130,"trial_type":"fullscreen","trial_index":3,"plugin_version":"2.1.0","time_elapsed":17285,"subject_id":"92573","group":"Group1","condition":"3_Rep","full_date":"2026-02-23T23:53:00.399Z","date":"2026-02-23","time":"23:53:00"},{"rt":18580,"stimulus":"<div style=\"max-width: 760px; margin: auto; font-size: 20px; line-height: 1.5;\">\n      <h1 style=\"text-align:center; font-size: 30px;\">Instructions</h1>\n      <p>\n        Welcome to the study on <b>visual memory</b>. This experiment consists of <b>two phases</b>: \n        a <b>study phase</b> and a <b>test phase</b>.\n      </p>\n      <p>\n        In the study phase, you will see a series of rock images along with their category labels.\n        The images will appear one at a time.\n        <b>Your task</b> is to learn the categories to which the rock images belong \n        and to remember each image as accurately as possible.\n      </p> \n      <p>\n        Note that we will repeat the study phase <b>3 times</b>, \n             so you will have multiple opportunities to see and remember each image.\n      </p>\n      <p>\n        After the study phase, <b>your memory will be tested</b>. \n        Additional instructions for the test phase will be provided at that time.\n      </p>\n      <p>\n        If your computer has multiple <b>language settings</b> (e.g., English and another language),\n        please make sure it is set to English before starting.\n      </p>\n      <p>\n        You can track your progress using the <b>completion bar</b> at the top of the screen. \n        Please note that the bar will refresh when the test phase begins \n        to give you an accurate sense of your progress in both phases.\n      </p> \n      <p>\n        Press the button below when you are ready to begin.\n      </p>\n    </div>","response":0,"trial_type":"html-button-response","trial_index":4,"plugin_version":"2.1.0","time_elapsed":35866,"subject_id":"92573","group":"Group1","condition":"3_Rep","full_date":"2026-02-23T23:53:00.399Z","date":"2026-02-23","time":"23:53:00"},{"rt":null,"stimulus":"<p style=\"font-size: 50px; margin: 0; text-align: center;\">+</p>","response":null,"trial_type":"html-keyboard-response","trial_index":5,"plugin_version":"2.1.0","time_elapsed":36869,"subject_id":"92573","group":"Group1","condition":"3_Rep","full_date":"2026-02-23T23:53:00.399Z","date":"2026-02-23","time":"23:53:00"},{"task":"memory_phase","broad_category":"S","image_png":"S_Shale_01.png","image_id":465,"category_name":"Shale","category":30,"distinct_rating":2.7,"distinct_type":"Bottom","rt":null,"stimulus":"Stimuli_Rocks480/S_Shale_01.png","response":null,"trial_type":"image-keyboard-response","trial_index":6,"plugin_version":"2.1.0","time_elapsed":39384,"subject_id":"92573","group":"Group1","condition":"3_Rep","full_date":"2026-02-23T23:53:00.399Z","date":"2026-02-23","time":"23:53:00"},{"rt":null,"stimulus":"<p style=\"font-size: 50px; margin: 0; text-align: center;\">+</p>","response":null,"trial_type":"html-keyboard-response","trial_index":7,"plugin_version":"2.1.0","time_elapsed":40386,"subject_id":"92573","group":"Group1","condition":"3_Rep","full_date":"2026-02-23T23:53:00.399Z","date":"2026-02-23","time":"23:53:00"},{"task":"memory_phase","broad_category":"S","image_png":"S_Shale_08.png","image_id":472,"category_name":"Shale","category":30,"distinct_rating":2.55,"distinct_type":"Bottom","rt":null,"stimulus":"Stimuli_Rocks480/S_Shale_08.png","response":null,"trial_type":"image-keyboard-response","trial_index":8,"plugin_version":"2.1.0","time_elapsed":42902,"subject_id":"92573","group":"Group1","condition":"3_Rep","full_date":"2026-02-23T23:53:00.399Z","date":"2026-02-23","time":"23:53:00"},{"rt":null,"stimulus":"<p style=\"font-size: 50px; margin: 0; text-align: center;\">+</p>","response":null,"trial_type":"html-keyboard-response","trial_index":9,"plugin_version":"2.1.0","time_elapsed":43905,"subject_id":"92573","group":"Group1","condition":"3_Rep","full_date":"2026-02-23T23:53:00.399Z","date":"2026-02-23","time":"23:53:00"},{"task":"memory_phase","broad_category":"I","image_png":"I_Pumice_08.png","image_id":136,"category_name":"Pumice","category":9,"distinct_rating":3.1,"distinct_type":"Bottom","rt":null,"stimulus":"Stimuli_Rocks480/I_Pumice_08.png","response":null,"trial_type":"image-keyboard-response","trial_index":10,"plugin_version":"2.1.0","time_elapsed":46420,"subject_id":"92573","group":"Group1","condition":"3_Rep","full_date":"2026-02-23T23:53:00.399Z","date":"2026-02-23","time":"23:53:00"},{"rt":null,"stimulus":"<p style=\"font-size: 50px; margin: 0; text-align: center;\">+</p>","response":null,"trial_type":"html-keyboard-response","trial_index":11,"plugin_version":"2.1.0","time_elapsed":47422,"subject_id":"92573","group":"Group1","condition":"3_Rep","full_date":"2026-02-23T23:53:00.399Z","date":"2026-02-23","time":"23:53:00"},{"task":"memory_phase","broad_category":"I","image_png":"I_Rhyolite_16.png","image_id":160,"category_name":"Rhyolite","category":10,"distinct_rating":2.19,"distinct_type":"Bottom","rt":null,"stimulus":"Stimuli_Rocks480/I_Rhyolite_16.png","response":null,"trial_type":"image-keyboard-response","trial_index":12,"plugin_version":"2.1.0","time_elapsed":49936,"subject_id":"92573","group":"Group1","condition":"3_Rep","full_date":"2026-02-23T23:53:00.399Z","date":"2026-02-23","time":"23:53:00"},{"rt":null,"stimulus":"<p style=\"font-size: 50px; margin: 0; text-align: center;\">+</p>","response":null,"trial_type":"html-keyboard-response","trial_index":13,"plugin_version":"2.1.0","time_elapsed":50939,"subject_id":"92573","group":"Group1","condition":"3_Rep","full_date":"2026-02-23T23:53:00.399Z","date":"2026-02-23","time":"23:53:00"},{"task":"memory_phase","broad_category":"M","image_png":"M_Slate_03.png","image_id":307,"category_name":"Slate","category":20,"distinct_rating":1.87,"distinct_type":"Bottom","rt":null,"stimulus":"Stimuli_Rocks480/M_Slate_03.png","response":null,"trial_type":"image-keyboard-response","trial_index":14,"plugin_version":"2.1.0","time_elapsed":53454,"subject_id":"92573","group":"Group1","condition":"3_Rep","full_date":"2026-02-23T23:53:00.399Z","date":"2026-02-23","time":"23:53:00"},{"rt":null,"stimulus":"<p style=\"font-size: 50px; margin: 0; text-align: center;\">+</p>","response":null,"trial_type":"html-keyboard-response","trial_index":15,"plugin_version":"2.1.0","time_elapsed":54457,"subject_id":"92573","group":"Group1","condition":"3_Rep","full_date":"2026-02-23T23:53:00.399Z","date":"2026-02-23","time":"23:53:00"},{"task":"memory_phase","broad_category":"M","image_png":"M_Phyllite_03.png","image_id":259,"category_name":"Phyllite","category":17,"distinct_rating":2.5,"distinct_type":"Bottom","rt":null,"stimulus":"Stimuli_Rocks480/M_Phyllite_03.png","response":null,"trial_type":"image-keyboard-response","trial_index":16,"plugin_version":"2.1.0","time_elapsed":56973,"subject_id":"92573","group":"Group1","condition":"3_Rep","full_date":"2026-02-23T23:53:00.399Z","date":"2026-02-23","time":"23:53:00"},{"rt":null,"stimulus":"<p style=\"font-size: 50px; margin: 0; text-align: center;\">+</p>","response":null,"trial_type":"html-keyboard-response","trial_index":17,"plugin_version":"2.1.0","time_elapsed":57976,"subject_id":"92573","group":"Group1","condition":"3_Rep","full_date":"2026-02-23T23:53:00.399Z","date":"2026-02-23","time":"23:53:00"},{"task":"memory_phase","broad_category":"I","image_png":"I_Andesite_06.png","image_id":6,"category_name":"Andesite","category":1,"distinct_rating":3.17,"distinct_type":"Bottom","rt":null,"stimulus":"Stimuli_Rocks480/I_Andesite_06.png","response":null,"trial_type":"image-keyboard-response","trial_index":18,"plugin_version":"2.1.0","time_elapsed":60492,"subject_id":"92573","group":"Group1","condition":"3_Rep","full_date":"2026-02-23T23:53:00.399Z","date":"2026-02-23","time":"23:53:00"},{"rt":null,"stimulus":"<p style=\"font-size: 50px; margin: 0; text-align: center;\">+</p>","response":null,"trial_type":"html-keyboard-response","trial_index":19,"plugin_version":"2.1.0","time_elapsed":61494,"subject_id":"92573","group":"Group1","condition":"3_Rep","full_date":"2026-02-23T23:53:00.399Z","date":"2026-02-23","time":"23:53:00"},{"task":"memory_phase","broad_category":"M","image_png":"M_Slate_11.png","image_id":315,"category_name":"Slate","category":20,"distinct_rating":2.75,"distinct_type":"Bottom","rt":null,"stimulus":"Stimuli_Rocks480/M_Slate_11.png","response":null,"trial_type":"image-keyboard-response","trial_index":20,"plugin_version":"2.1.0","time_elapsed":64009,"subject_id":"92573","group":"Group1","condition":"3_Rep","full_date":"2026-02-23T23:53:00.399Z","date":"2026-02-23","time":"23:53:00"},{"rt":null,"stimulus":"<p style=\"font-size: 50px; margin: 0; text-align: center;\">+</p>","response":null,"trial_type":"html-keyboard-response","trial_index":21,"plugin_version":"2.1.0","time_elapsed":65011,"subject_id":"92573","group":"Group1","condition":"3_Rep","full_date":"2026-02-23T23:53:00.399Z","date":"2026-02-23","time":"23:53:00"},{"task":"memory_phase","broad_category":"S","image_png":"S_Chert_10.png","image_id":362,"category_name":"Chert","category":23,"distinct_rating":7.17,"distinct_type":"Top","rt":null,"stimulus":"Stimuli_Rocks480/S_Chert_10.png","response":null,"trial_type":"image-keyboard-response","trial_index":22,"plugin_version":"2.1.0","time_elapsed":67527,"subject_id":"92573","group":"Group1","condition":"3_Rep","full_date":"2026-02-23T23:53:00.399Z","date":"2026-02-23","time":"23:53:00"},{"rt":null,"stimulus":"<p style=\"font-size: 50px; margin: 0; text-align: center;\">+</p>","response":null,"trial_type":"html-keyboard-response","trial_index":23,"plugin_version":"2.1.0","time_elapsed":68529,"subject_id":"92573","group":"Group1","condition":"3_Rep","full_date":"2026-02-23T23:53:00.399Z","date":"2026-02-23","time":"23:53:00"},{"task":"memory_phase","broad_category":"M","image_png":"M_Gneiss_13.png","image_id":205,"category_name":"Gneiss","category":13,"distinct_rating":3.26,"distinct_type":"Bottom","rt":null,"stimulus":"Stimuli_Rocks480/M_Gneiss_13.png","response":null,"trial_type":"image-keyboard-response","trial_index":24,"plugin_version":"2.1.0","time_elapsed":71042,"subject_id":"92573","group":"Group1","condition":"3_Rep","full_date":"2026-02-23T23:53:00.399Z","date":"2026-02-23","time":"23:53:00"},{"rt":null,"stimulus":"<p style=\"font-size: 50px; margin: 0; text-align: center;\">+</p>","response":null,"trial_type":"html-keyboard-response","trial_index":25,"plugin_version":"2.1.0","time_elapsed":72044,"subject_id":"92573","group":"Group1","condition":"3_Rep","full_date":"2026-02-23T23:53:00.399Z","date":"2026-02-23","time":"23:53:00"},{"task":"memory_phase","broad_category":"I","image_png":"I_Diorite_04.png","image_id":36,"category_name":"Diorite","category":3,"distinct_rating":2.98,"distinct_type":"Bottom","rt":null,"stimulus":"Stimuli_Rocks480/I_Diorite_04.png","response":null,"trial_type":"image-keyboard-response","trial_index":26,"plugin_version":"2.1.0","time_elapsed":74561,"subject_id":"92573","group":"Group1","condition":"3_Rep","full_date":"2026-02-23T23:53:00.399Z","date":"2026-02-23","time":"23:53:00"},{"rt":null,"stimulus":"<p style=\"font-size: 50px; margin: 0; text-align: center;\">+</p>","response":null,"trial_type":"html-keyboard-response","trial_index":27,"plugin_version":"2.1.0","time_elapsed":75563,"subject_id":"92573","group":"Group1","condition":"3_Rep","full_date":"2026-02-23T23:53:00.399Z","date":"2026-02-23","time":"23:53:00"},{"task":"memory_phase","broad_category":"I","image_png":"I_Pumice_11.png","image_id":139,"category_name":"Pumice","category":9,"distinct_rating":1.74,"distinct_type":"Bottom","rt":null,"stimulus":"Stimuli_Rocks480/I_Pumice_11.png","response":null,"trial_type":"image-keyboard-response","trial_index":28,"plugin_version":"2.1.0","time_elapsed":78073,"subject_id":"92573","group":"Group1","condition":"3_Rep","full_date":"2026-02-23T23:53:00.399Z","date":"2026-02-23","time":"23:53:00"},{"rt":null,"stimulus":"<p style=\"font-size: 50px; margin: 0; text-align: center;\">+</p>","response":null,"trial_type":"html-keyboard-response","trial_index":29,"plugin_version":"2.1.0","time_elapsed":79075,"subject_id":"92573","group":"Group1","condition":"3_Rep","full_date":"2026-02-23T23:53:00.399Z","date":"2026-02-23","time":"23:53:00"},{"task":"memory_phase","broad_category":"I","image_png":"I_Pumice_12.png","image_id":140,"category_name":"Pumice","category":9,"distinct_rating":2.97,"distinct_type":"Bottom","rt":null,"stimulus":"Stimuli_Rocks480/I_Pumice_12.png","response":null,"trial_type":"image-keyboard-response","trial_index":30,"plugin_version":"2.1.0","time_elapsed":81588,"subject_id":"92573","group":"Group1","condition":"3_Rep","full_date":"2026-02-23T23:53:00.399Z","date":"2026-02-23","time":"23:53:00"},{"rt":null,"stimulus":"<p style=\"font-size: 50px; margin: 0; text-align: center;\">+</p>","response":null,"trial_type":"html-keyboard-response","trial_index":31,"plugin_version":"2.1.0","time_elapsed":82590,"subject_id":"92573","group":"Group1","condition":"3_Rep","full_date":"2026-02-23T23:53:00.399Z","date":"2026-02-23","time":"23:53:00"},{"task":"memory_phase","broad_category":"S","image_png":"S_Breccia_11.png","image_id":347,"category_name":"Breccia","category":22,"distinct_rating":6.7,"distinct_type":"Top","rt":null,"stimulus":"Stimuli_Rocks480/S_Breccia_11.png","response":null,"trial_type":"image-keyboard-response","trial_index":32,"plugin_version":"2.1.0","time_elapsed":85113,"subject_id":"92573","group":"Group1","condition":"3_Rep","full_date":"2026-02-23T23:53:00.399Z","date":"2026-02-23","time":"23:53:00"},{"rt":null,"stimulus":"<p style=\"font-size: 50px; margin: 0; text-align: center;\">+</p>","response":null,"trial_type":"html-keyboard-response","trial_index":33,"plugin_version":"2.1.0","time_elapsed":86116,"subject_id":"92573","group":"Group1","condition":"3_Rep","full_date":"2026-02-23T23:53:00.399Z","date":"2026-02-23","time":"23:53:00"},{"task":"memory_phase","broad_category":"M","image_png":"M_Phyllite_10.png","image_id":266,"category_name":"Phyllite","category":17,"distinct_rating":2.6,"distinct_type":"Bottom","rt":null,"stimulus":"Stimuli_Rocks480/M_Phyllite_10.png","response":null,"trial_type":"image-keyboard-response","trial_index":34,"plugin_version":"2.1.0","time_elapsed":88630,"subject_id":"92573","group":"Group1","condition":"3_Rep","full_date":"2026-02-23T23:53:00.399Z","date":"2026-02-23","time":"23:53:00"},{"rt":null,"stimulus":"<p style=\"font-size: 50px; margin: 0; text-align: center;\">+</p>","response":null,"trial_type":"html-keyboard-response","trial_index":35,"plugin_version":"2.1.0","time_elapsed":89633,"subject_id":"92573","group":"Group1","condition":"3_Rep","full_date":"2026-02-23T23:53:00.399Z","date":"2026-02-23","time":"23:53:00"},{"task":"memory_phase","broad_category":"I","image_png":"I_Gabbro_16.png","image_id":64,"category_name":"Gabbro","category":4,"distinct_rating":2.52,"distinct_type":"Bottom","rt":null,"stimulus":"Stimuli_Rocks480/I_Gabbro_16.png","response":null,"trial_type":"image-keyboard-response","trial_index":36,"plugin_version":"2.1.0","time_elapsed":92146,"subject_id":"92573","group":"Group1","condition":"3_Rep","full_date":"2026-02-23T23:53:00.399Z","date":"2026-02-23","time":"23:53:00"},{"rt":null,"stimulus":"<p style=\"font-size: 50px; margin: 0; text-align: center;\">+</p>","response":null,"trial_type":"html-keyboard-response","trial_index":37,"plugin_version":"2.1.0","time_elapsed":93149,"subject_id":"92573","group":"Group1","condition":"3_Rep","full_date":"2026-02-23T23:53:00.399Z","date":"2026-02-23","time":"23:53:00"},{"task":"memory_phase","broad_category":"S","image_png":"S_Dolomite_13.png","image_id":397,"category_name":"Dolomite","category":25,"distinct_rating":1.77,"distinct_type":"Bottom","rt":null,"stimulus":"Stimuli_Rocks480/S_Dolomite_13.png","response":null,"trial_type":"image-keyboard-response","trial_index":38,"plugin_version":"2.1.0","time_elapsed":95664,"subject_id":"92573","group":"Group1","condition":"3_Rep","full_date":"2026-02-23T23:53:00.399Z","date":"2026-02-23","time":"23:53:00"},{"rt":null,"stimulus":"<p style=\"font-size: 50px; margin: 0; text-align: center;\">+</p>","response":null,"trial_type":"html-keyboard-response","trial_index":39,"plugin_version":"2.1.0","time_elapsed":96667,"subject_id":"92573","group":"Group1","condition":"3_Rep","full_date":"2026-02-23T23:53:00.399Z","date":"2026-02-23","time":"23:53:00"},{"task":"memory_phase","broad_category":"M","image_png":"M_Quartzite_08.png","image_id":280,"category_name":"Quartzite","category":18,"distinct_rating":2.15,"distinct_type":"Bottom","rt":null,"stimulus":"Stimuli_Rocks480/M_Quartzite_08.png","response":null,"trial_type":"image-keyboard-response","trial_index":40,"plugin_version":"2.1.0","time_elapsed":99183,"subject_id":"92573","group":"Group1","condition":"3_Rep","full_date":"2026-02-23T23:53:00.399Z","date":"2026-02-23","time":"23:53:00"},{"rt":null,"stimulus":"<p style=\"font-size: 50px; margin: 0; text-align: center;\">+</p>","response":null,"trial_type":"html-keyboard-response","trial_index":41,"plugin_version":"2.1.0","time_elapsed":100186,"subject_id":"92573","group":"Group1","condition":"3_Rep","full_date":"2026-02-23T23:53:00.399Z","date":"2026-02-23","time":"23:53:00"},{"task":"memory_phase","broad_category":"M","image_png":"M_Slate_15.png","image_id":319,"category_name":"Slate","category":20,"distinct_rating":2.13,"distinct_type":"Bottom","rt":null,"stimulus":"Stimuli_Rocks480/M_Slate_15.png","response":null,"trial_type":"image-keyboard-response","trial_index":42,"plugin_version":"2.1.0","time_elapsed":102698,"subject_id":"92573","group":"Group1","condition":"3_Rep","full_date":"2026-02-23T23:53:00.399Z","date":"2026-02-23","time":"23:53:00"},{"rt":null,"stimulus":"<p style=\"font-size: 50px; margin: 0; text-align: center;\">+</p>","response":null,"trial_type":"html-keyboard-response","trial_index":43,"plugin_version":"2.1.0","time_elapsed":103700,"subject_id":"92573","group":"Group1","condition":"3_Rep","full_date":"2026-02-23T23:53:00.399Z","date":"2026-02-23","time":"23:53:00"},{"task":"memory_phase","broad_category":"I","image_png":"I_Obsidian_05.png","image_id":85,"category_name":"Obsidian","category":6,"distinct_rating":7.32,"distinct_type":"Top","rt":null,"stimulus":"Stimuli_Rocks480/I_Obsidian_05.png","response":null,"trial_type":"image-keyboard-response","trial_index":44,"plugin_version":"2.1.0","time_elapsed":106215,"subject_id":"92573","group":"Group1","condition":"3_Rep","full_date":"2026-02-23T23:53:00.399Z","date":"2026-02-23","time":"23:53:00"},{"rt":null,"stimulus":"<p style=\"font-size: 50px; margin: 0; text-align: center;\">+</p>","response":null,"trial_type":"html-keyboard-response","trial_index":45,"plugin_version":"2.1.0","time_elapsed":107217,"subject_id":"92573","group":"Group1","condition":"3_Rep","full_date":"2026-02-23T23:53:00.399Z","date":"2026-02-23","time":"23:53:00"},{"task":"memory_phase","broad_category":"I","image_png":"I_Rhyolite_11.png","image_id":155,"category_name":"Rhyolite","category":10,"distinct_rating":1.73,"distinct_type":"Bottom","rt":null,"stimulus":"Stimuli_Rocks480/I_Rhyolite_11.png","response":null,"trial_type":"image-keyboard-response","trial_index":46,"plugin_version":"2.1.0","time_elapsed":109731,"subject_id":"92573","group":"Group1","condition":"3_Rep","full_date":"2026-02-23T23:53:00.399Z","date":"2026-02-23","time":"23:53:00"},{"rt":null,"stimulus":"<p style=\"font-size: 50px; margin: 0; text-align: center;\">+</p>","response":null,"trial_type":"html-keyboard-response","trial_index":47,"plugin_version":"2.1.0","time_elapsed":110733,"subject_id":"92573","group":"Group1","condition":"3_Rep","full_date":"2026-02-23T23:53:00.399Z","date":"2026-02-23","time":"23:53:00"},{"task":"memory_phase","broad_category":"S","image_png":"S_Dolomite_14.png","image_id":398,"category_name":"Dolomite","category":25,"distinct_rating":1.43,"distinct_type":"Bottom","rt":null,"stimulus":"Stimuli_Rocks480/S_Dolomite_14.png","response":null,"trial_type":"image-keyboard-response","trial_index":48,"plugin_version":"2.1.0","time_elapsed":113248,"subject_id":"92573","group":"Group1","condition":"3_Rep","full_date":"2026-02-23T23:53:00.399Z","date":"2026-02-23","time":"23:53:00"},{"rt":null,"stimulus":"<p style=\"font-size: 50px; margin: 0; text-align: center;\">+</p>","response":null,"trial_type":"html-keyboard-response","trial_index":49,"plugin_version":"2.1.0","time_elapsed":114250,"subject_id":"92573","group":"Group1","condition":"3_Rep","full_date":"2026-02-23T23:53:00.399Z","date":"2026-02-23","time":"23:53:00"},{"task":"memory_phase","broad_category":"M","image_png":"M_Marble_16.png","image_id":240,"category_name":"Marble","category":15,"distinct_rating":2.57,"distinct_type":"Bottom","rt":null,"stimulus":"Stimuli_Rocks480/M_Marble_16.png","response":null,"trial_type":"image-keyboard-response","trial_index":50,"plugin_version":"2.1.0","time_elapsed":116766,"subject_id":"92573","group":"Group1","condition":"3_Rep","full_date":"2026-02-23T23:53:00.399Z","date":"2026-02-23","time":"23:53:00"},{"rt":null,"stimulus":"<p style=\"font-size: 50px; margin: 0; text-align: center;\">+</p>","response":null,"trial_type":"html-keyboard-response","trial_index":51,"plugin_version":"2.1.0","time_elapsed":117768,"subject_id":"92573","group":"Group1","condition":"3_Rep","full_date":"2026-02-23T23:53:00.399Z","date":"2026-02-23","time":"23:53:00"},{"task":"memory_phase","broad_category":"I","image_png":"I_Basalt_01.png","image_id":17,"category_name":"Basalt","category":2,"distinct_rating":1.92,"distinct_type":"Bottom","rt":null,"stimulus":"Stimuli_Rocks480/I_Basalt_01.png","response":null,"trial_type":"image-keyboard-response","trial_index":52,"plugin_version":"2.1.0","time_elapsed":120286,"subject_id":"92573","group":"Group1","condition":"3_Rep","full_date":"2026-02-23T23:53:00.399Z","date":"2026-02-23","time":"23:53:00"},{"rt":null,"stimulus":"<p style=\"font-size: 50px; margin: 0; text-align: center;\">+</p>","response":null,"trial_type":"html-keyboard-response","trial_index":53,"plugin_version":"2.1.0","time_elapsed":121288,"subject_id":"92573","group":"Group1","condition":"3_Rep","full_date":"2026-02-23T23:53:00.399Z","date":"2026-02-23","time":"23:53:00"},{"task":"memory_phase","broad_category":"I","image_png":"I_Basalt_09.png","image_id":25,"category_name":"Basalt","category":2,"distinct_rating":1.89,"distinct_type":"Bottom","rt":null,"stimulus":"Stimuli_Rocks480/I_Basalt_09.png","response":null,"trial_type":"image-keyboard-response","trial_index":54,"plugin_version":"2.1.0","time_elapsed":123802,"subject_id":"92573","group":"Group1","condition":"3_Rep","full_date":"2026-02-23T23:53:00.399Z","date":"2026-02-23","time":"23:53:00"},{"rt":2240,"stimulus":"<p style=\"max-width: 760px; margin: auto; font-size: 35px; line-height: 1.5;\">\n                Press SPACE to continue study phase\n              </p>","response":" ","trial_type":"html-keyboard-response","trial_index":55,"plugin_version":"2.1.0","time_elapsed":126044,"subject_id":"92573","group":"Group1","condition":"3_Rep","full_date":"2026-02-23T23:53:00.399Z","date":"2026-02-23","time":"23:53:00"},{"rt":null,"stimulus":"<p style=\"font-size: 50px; margin: 0; text-align: center;\">+</p>","response":null,"trial_type":"html-keyboard-response","trial_index":56,"plugin_version":"2.1.0","time_elapsed":127046,"subject_id":"92573","group":"Group1","condition":"3_Rep","full_date":"2026-02-23T23:53:00.399Z","date":"2026-02-23","time":"23:53:00"},{"task":"memory_phase","broad_category":"S","image_png":"S_Sandstone_03.png","image_id":451,"category_name":"Sandstone","category":29,"distinct_rating":1.86,"distinct_type":"Bottom","rt":null,"stimulus":"Stimuli_Rocks480/S_Sandstone_03.png","response":null,"trial_type":"image-keyboard-response","trial_index":57,"plugin_version":"2.1.0","time_elapsed":129562,"subject_id":"92573","group":"Group1","condition":"3_Rep","full_date":"2026-02-23T23:53:00.399Z","date":"2026-02-23","time":"23:53:00"},{"rt":null,"stimulus":"<p style=\"font-size: 50px; margin: 0; text-align: center;\">+</p>","response":null,"trial_type":"html-keyboard-response","trial_index":58,"plugin_version":"2.1.0","time_elapsed":130564,"subject_id":"92573","group":"Group1","condition":"3_Rep","full_date":"2026-02-23T23:53:00.399Z","date":"2026-02-23","time":"23:53:00"},{"task":"memory_phase","broad_category":"I","image_png":"I_Andesite_08.png","image_id":8,"category_name":"Andesite","category":1,"distinct_rating":1.95,"distinct_type":"Bottom","rt":null,"stimulus":"Stimuli_Rocks480/I_Andesite_08.png","response":null,"trial_type":"image-keyboard-response","trial_index":59,"plugin_version":"2.1.0","time_elapsed":133081,"subject_id":"92573","group":"Group1","condition":"3_Rep","full_date":"2026-02-23T23:53:00.399Z","date":"2026-02-23","time":"23:53:00"},{"rt":null,"stimulus":"<p style=\"font-size: 50px; margin: 0; text-align: center;\">+</p>","response":null,"trial_type":"html-keyboard-response","trial_index":60,"plugin_version":"2.1.0","time_elapsed":134083,"subject_id":"92573","group":"Group1","condition":"3_Rep","full_date":"2026-02-23T23:53:00.399Z","date":"2026-02-23","time":"23:53:00"},{"task":"memory_phase","broad_category":"M","image_png":"M_Phyllite_07.png","image_id":263,"category_name":"Phyllite","category":17,"distinct_rating":2.59,"distinct_type":"Bottom","rt":null,"stimulus":"Stimuli_Rocks480/M_Phyllite_07.png","response":null,"trial_type":"image-keyboard-response","trial_index":61,"plugin_version":"2.1.0","time_elapsed":136594,"subject_id":"92573","group":"Group1","condition":"3_Rep","full_date":"2026-02-23T23:53:00.399Z","date":"2026-02-23","time":"23:53:00"},{"rt":null,"stimulus":"<p style=\"font-size: 50px; margin: 0; text-align: center;\">+</p>","response":null,"trial_type":"html-keyboard-response","trial_index":62,"plugin_version":"2.1.0","time_elapsed":137596,"subject_id":"92573","group":"Group1","condition":"3_Rep","full_date":"2026-02-23T23:53:00.399Z","date":"2026-02-23","time":"23:53:00"},{"task":"memory_phase","broad_category":"I","image_png":"I_Rhyolite_14.png","image_id":158,"category_name":"Rhyolite","category":10,"distinct_rating":2.59,"distinct_type":"Bottom","rt":null,"stimulus":"Stimuli_Rocks480/I_Rhyolite_14.png","response":null,"trial_type":"image-keyboard-response","trial_index":63,"plugin_version":"2.1.0","time_elapsed":140109,"subject_id":"92573","group":"Group1","condition":"3_Rep","full_date":"2026-02-23T23:53:00.399Z","date":"2026-02-23","time":"23:53:00"},{"rt":null,"stimulus":"<p style=\"font-size: 50px; margin: 0; text-align: center;\">+</p>","response":null,"trial_type":"html-keyboard-response","trial_index":64,"plugin_version":"2.1.0","time_elapsed":141111,"subject_id":"92573","group":"Group1","condition":"3_Rep","full_date":"2026-02-23T23:53:00.399Z","date":"2026-02-23","time":"23:53:00"},{"task":"memory_phase","broad_category":"I","image_png":"I_Gabbro_08.png","image_id":56,"category_name":"Gabbro","category":4,"distinct_rating":3.02,"distinct_type":"Bottom","rt":null,"stimulus":"Stimuli_Rocks480/I_Gabbro_08.png","response":null,"trial_type":"image-keyboard-response","trial_index":65,"plugin_version":"2.1.0","time_elapsed":143624,"subject_id":"92573","group":"Group1","condition":"3_Rep","full_date":"2026-02-23T23:53:00.399Z","date":"2026-02-23","time":"23:53:00"},{"rt":null,"stimulus":"<p style=\"font-size: 50px; margin: 0; text-align: center;\">+</p>","response":null,"trial_type":"html-keyboard-response","trial_index":66,"plugin_version":"2.1.0","time_elapsed":144626,"subject_id":"92573","group":"Group1","condition":"3_Rep","full_date":"2026-02-23T23:53:00.399Z","date":"2026-02-23","time":"23:53:00"},{"task":"memory_phase","broad_category":"M","image_png":"M_Gneiss_06.png","image_id":198,"category_name":"Gneiss","category":13,"distinct_rating":2.65,"distinct_type":"Bottom","rt":null,"stimulus":"Stimuli_Rocks480/M_Gneiss_06.png","response":null,"trial_type":"image-keyboard-response","trial_index":67,"plugin_version":"2.1.0","time_elapsed":147145,"subject_id":"92573","group":"Group1","condition":"3_Rep","full_date":"2026-02-23T23:53:00.399Z","date":"2026-02-23","time":"23:53:00"},{"rt":null,"stimulus":"<p style=\"font-size: 50px; margin: 0; text-align: center;\">+</p>","response":null,"trial_type":"html-keyboard-response","trial_index":68,"plugin_version":"2.1.0","time_elapsed":148148,"subject_id":"92573","group":"Group1","condition":"3_Rep","full_date":"2026-02-23T23:53:00.399Z","date":"2026-02-23","time":"23:53:00"},{"task":"memory_phase","broad_category":"I","image_png":"I_Basalt_02.png","image_id":18,"category_name":"Basalt","category":2,"distinct_rating":1.84,"distinct_type":"Bottom","rt":null,"stimulus":"Stimuli_Rocks480/I_Basalt_02.png","response":null,"trial_type":"image-keyboard-response","trial_index":69,"plugin_version":"2.1.0","time_elapsed":150663,"subject_id":"92573","group":"Group1","condition":"3_Rep","full_date":"2026-02-23T23:53:00.399Z","date":"2026-02-23","time":"23:53:00"},{"rt":null,"stimulus":"<p style=\"font-size: 50px; margin: 0; text-align: center;\">+</p>","response":null,"trial_type":"html-keyboard-response","trial_index":70,"plugin_version":"2.1.0","time_elapsed":151666,"subject_id":"92573","group":"Group1","condition":"3_Rep","full_date":"2026-02-23T23:53:00.399Z","date":"2026-02-23","time":"23:53:00"},{"task":"memory_phase","broad_category":"S","image_png":"S_Shale_12.png","image_id":476,"category_name":"Shale","category":30,"distinct_rating":2.48,"distinct_type":"Bottom","rt":null,"stimulus":"Stimuli_Rocks480/S_Shale_12.png","response":null,"trial_type":"image-keyboard-response","trial_index":71,"plugin_version":"2.1.0","time_elapsed":154182,"subject_id":"92573","group":"Group1","condition":"3_Rep","full_date":"2026-02-23T23:53:00.399Z","date":"2026-02-23","time":"23:53:00"},{"rt":null,"stimulus":"<p style=\"font-size: 50px; margin: 0; text-align: center;\">+</p>","response":null,"trial_type":"html-keyboard-response","trial_index":72,"plugin_version":"2.1.0","time_elapsed":155184,"subject_id":"92573","group":"Group1","condition":"3_Rep","full_date":"2026-02-23T23:53:00.399Z","date":"2026-02-23","time":"23:53:00"},{"task":"memory_phase","broad_category":"I","image_png":"I_Pegmatite_16.png","image_id":112,"category_name":"Pegmatite","category":7,"distinct_rating":7.03,"distinct_type":"Top","rt":null,"stimulus":"Stimuli_Rocks480/I_Pegmatite_16.png","response":null,"trial_type":"image-keyboard-response","trial_index":73,"plugin_version":"2.1.0","time_elapsed":157699,"subject_id":"92573","group":"Group1","condition":"3_Rep","full_date":"2026-02-23T23:53:00.399Z","date":"2026-02-23","time":"23:53:00"},{"rt":null,"stimulus":"<p style=\"font-size: 50px; margin: 0; text-align: center;\">+</p>","response":null,"trial_type":"html-keyboard-response","trial_index":74,"plugin_version":"2.1.0","time_elapsed":158701,"subject_id":"92573","group":"Group1","condition":"3_Rep","full_date":"2026-02-23T23:53:00.399Z","date":"2026-02-23","time":"23:53:00"},{"task":"memory_phase","broad_category":"I","image_png":"I_Pegmatite_10.png","image_id":106,"category_name":"Pegmatite","category":7,"distinct_rating":7.66,"distinct_type":"Top","rt":null,"stimulus":"Stimuli_Rocks480/I_Pegmatite_10.png","response":null,"trial_type":"image-keyboard-response","trial_index":75,"plugin_version":"2.1.0","time_elapsed":161215,"subject_id":"92573","group":"Group1","condition":"3_Rep","full_date":"2026-02-23T23:53:00.399Z","date":"2026-02-23","time":"23:53:00"},{"rt":null,"stimulus":"<p style=\"font-size: 50px; margin: 0; text-align: center;\">+</p>","response":null,"trial_type":"html-keyboard-response","trial_index":76,"plugin_version":"2.1.0","time_elapsed":162217,"subject_id":"92573","group":"Group1","condition":"3_Rep","full_date":"2026-02-23T23:53:00.399Z","date":"2026-02-23","time":"23:53:00"},{"task":"memory_phase","broad_category":"S","image_png":"S_Sandstone_16.png","image_id":464,"category_name":"Sandstone","category":29,"distinct_rating":1.93,"distinct_type":"Bottom","rt":null,"stimulus":"Stimuli_Rocks480/S_Sandstone_16.png","response":null,"trial_type":"image-keyboard-response","trial_index":77,"plugin_version":"2.1.0","time_elapsed":164730,"subject_id":"92573","group":"Group1","condition":"3_Rep","full_date":"2026-02-23T23:53:00.399Z","date":"2026-02-23","time":"23:53:00"},{"rt":null,"stimulus":"<p style=\"font-size: 50px; margin: 0; text-align: center;\">+</p>","response":null,"trial_type":"html-keyboard-response","trial_index":78,"plugin_version":"2.1.0","time_elapsed":165733,"subject_id":"92573","group":"Group1","condition":"3_Rep","full_date":"2026-02-23T23:53:00.399Z","date":"2026-02-23","time":"23:53:00"},{"task":"memory_phase","broad_category":"I","image_png":"I_Diorite_03.png","image_id":35,"category_name":"Diorite","category":3,"distinct_rating":3.14,"distinct_type":"Bottom","rt":null,"stimulus":"Stimuli_Rocks480/I_Diorite_03.png","response":null,"trial_type":"image-keyboard-response","trial_index":79,"plugin_version":"2.1.0","time_elapsed":168250,"subject_id":"92573","group":"Group1","condition":"3_Rep","full_date":"2026-02-23T23:53:00.399Z","date":"2026-02-23","time":"23:53:00"},{"rt":null,"stimulus":"<p style=\"font-size: 50px; margin: 0; text-align: center;\">+</p>","response":null,"trial_type":"html-keyboard-response","trial_index":80,"plugin_version":"2.1.0","time_elapsed":169252,"subject_id":"92573","group":"Group1","condition":"3_Rep","full_date":"2026-02-23T23:53:00.399Z","date":"2026-02-23","time":"23:53:00"},{"task":"memory_phase","broad_category":"M","image_png":"M_Gneiss_05.png","image_id":197,"category_name":"Gneiss","category":13,"distinct_rating":2.97,"distinct_type":"Bottom","rt":null,"stimulus":"Stimuli_Rocks480/M_Gneiss_05.png","response":null,"trial_type":"image-keyboard-response","trial_index":81,"plugin_version":"2.1.0","time_elapsed":171773,"subject_id":"92573","group":"Group1","condition":"3_Rep","full_date":"2026-02-23T23:53:00.399Z","date":"2026-02-23","time":"23:53:00"},{"rt":null,"stimulus":"<p style=\"font-size: 50px; margin: 0; text-align: center;\">+</p>","response":null,"trial_type":"html-keyboard-response","trial_index":82,"plugin_version":"2.1.0","time_elapsed":172775,"subject_id":"92573","group":"Group1","condition":"3_Rep","full_date":"2026-02-23T23:53:00.399Z","date":"2026-02-23","time":"23:53:00"},{"task":"memory_phase","broad_category":"I","image_png":"I_Gabbro_11.png","image_id":59,"category_name":"Gabbro","category":4,"distinct_rating":1.99,"distinct_type":"Bottom","rt":null,"stimulus":"Stimuli_Rocks480/I_Gabbro_11.png","response":null,"trial_type":"image-keyboard-response","trial_index":83,"plugin_version":"2.1.0","time_elapsed":175288,"subject_id":"92573","group":"Group1","condition":"3_Rep","full_date":"2026-02-23T23:53:00.399Z","date":"2026-02-23","time":"23:53:00"},{"rt":null,"stimulus":"<p style=\"font-size: 50px; margin: 0; text-align: center;\">+</p>","response":null,"trial_type":"html-keyboard-response","trial_index":84,"plugin_version":"2.1.0","time_elapsed":176290,"subject_id":"92573","group":"Group1","condition":"3_Rep","full_date":"2026-02-23T23:53:00.399Z","date":"2026-02-23","time":"23:53:00"},{"task":"memory_phase","broad_category":"M","image_png":"M_Marble_06.png","image_id":230,"category_name":"Marble","category":15,"distinct_rating":3.4,"distinct_type":"Bottom","rt":null,"stimulus":"Stimuli_Rocks480/M_Marble_06.png","response":null,"trial_type":"image-keyboard-response","trial_index":85,"plugin_version":"2.1.0","time_elapsed":178805,"subject_id":"92573","group":"Group1","condition":"3_Rep","full_date":"2026-02-23T23:53:00.399Z","date":"2026-02-23","time":"23:53:00"},{"rt":null,"stimulus":"<p style=\"font-size: 50px; margin: 0; text-align: center;\">+</p>","response":null,"trial_type":"html-keyboard-response","trial_index":86,"plugin_version":"2.1.0","time_elapsed":179807,"subject_id":"92573","group":"Group1","condition":"3_Rep","full_date":"2026-02-23T23:53:00.399Z","date":"2026-02-23","time":"23:53:00"},{"task":"memory_phase","broad_category":"M","image_png":"M_Quartzite_05.png","image_id":277,"category_name":"Quartzite","category":18,"distinct_rating":2.23,"distinct_type":"Bottom","rt":null,"stimulus":"Stimuli_Rocks480/M_Quartzite_05.png","response":null,"trial_type":"image-keyboard-response","trial_index":87,"plugin_version":"2.1.0","time_elapsed":182325,"subject_id":"92573","group":"Group1","condition":"3_Rep","full_date":"2026-02-23T23:53:00.399Z","date":"2026-02-23","time":"23:53:00"},{"rt":null,"stimulus":"<p style=\"font-size: 50px; margin: 0; text-align: center;\">+</p>","response":null,"trial_type":"html-keyboard-response","trial_index":88,"plugin_version":"2.1.0","time_elapsed":183328,"subject_id":"92573","group":"Group1","condition":"3_Rep","full_date":"2026-02-23T23:53:00.399Z","date":"2026-02-23","time":"23:53:00"},{"task":"memory_phase","broad_category":"S","image_png":"S_Conglomerate_05.png","image_id":373,"category_name":"Conglomerate","category":24,"distinct_rating":7.32,"distinct_type":"Top","rt":null,"stimulus":"Stimuli_Rocks480/S_Conglomerate_05.png","response":null,"trial_type":"image-keyboard-response","trial_index":89,"plugin_version":"2.1.0","time_elapsed":185845,"subject_id":"92573","group":"Group1","condition":"3_Rep","full_date":"2026-02-23T23:53:00.399Z","date":"2026-02-23","time":"23:53:00"},{"rt":null,"stimulus":"<p style=\"font-size: 50px; margin: 0; text-align: center;\">+</p>","response":null,"trial_type":"html-keyboard-response","trial_index":90,"plugin_version":"2.1.0","time_elapsed":186847,"subject_id":"92573","group":"Group1","condition":"3_Rep","full_date":"2026-02-23T23:53:00.399Z","date":"2026-02-23","time":"23:53:00"},{"task":"memory_phase","broad_category":"S","image_png":"S_Rock Salt_01.png","image_id":433,"category_name":"Rock Salt","category":28,"distinct_rating":7.18,"distinct_type":"Top","rt":null,"stimulus":"Stimuli_Rocks480/S_Rock Salt_01.png","response":null,"trial_type":"image-keyboard-response","trial_index":91,"plugin_version":"2.1.0","time_elapsed":189365,"subject_id":"92573","group":"Group1","condition":"3_Rep","full_date":"2026-02-23T23:53:00.399Z","date":"2026-02-23","time":"23:53:00"},{"rt":null,"stimulus":"<p style=\"font-size: 50px; margin: 0; text-align: center;\">+</p>","response":null,"trial_type":"html-keyboard-response","trial_index":92,"plugin_version":"2.1.0","time_elapsed":190367,"subject_id":"92573","group":"Group1","condition":"3_Rep","full_date":"2026-02-23T23:53:00.399Z","date":"2026-02-23","time":"23:53:00"},{"task":"memory_phase","broad_category":"M","image_png":"M_Quartzite_13.png","image_id":285,"category_name":"Quartzite","category":18,"distinct_rating":2.27,"distinct_type":"Bottom","rt":null,"stimulus":"Stimuli_Rocks480/M_Quartzite_13.png","response":null,"trial_type":"image-keyboard-response","trial_index":93,"plugin_version":"2.1.0","time_elapsed":192883,"subject_id":"92573","group":"Group1","condition":"3_Rep","full_date":"2026-02-23T23:53:00.399Z","date":"2026-02-23","time":"23:53:00"},{"rt":null,"stimulus":"<p style=\"font-size: 50px; margin: 0; text-align: center;\">+</p>","response":null,"trial_type":"html-keyboard-response","trial_index":94,"plugin_version":"2.1.0","time_elapsed":193885,"subject_id":"92573","group":"Group1","condition":"3_Rep","full_date":"2026-02-23T23:53:00.399Z","date":"2026-02-23","time":"23:53:00"},{"task":"memory_phase","broad_category":"S","image_png":"S_Rock Gypsum_04.png","image_id":420,"category_name":"Rock Gypsum","category":27,"distinct_rating":7.61,"distinct_type":"Top","rt":null,"stimulus":"Stimuli_Rocks480/S_Rock Gypsum_04.png","response":null,"trial_type":"image-keyboard-response","trial_index":95,"plugin_version":"2.1.0","time_elapsed":196401,"subject_id":"92573","group":"Group1","condition":"3_Rep","full_date":"2026-02-23T23:53:00.399Z","date":"2026-02-23","time":"23:53:00"},{"rt":null,"stimulus":"<p style=\"font-size: 50px; margin: 0; text-align: center;\">+</p>","response":null,"trial_type":"html-keyboard-response","trial_index":96,"plugin_version":"2.1.0","time_elapsed":197403,"subject_id":"92573","group":"Group1","condition":"3_Rep","full_date":"2026-02-23T23:53:00.399Z","date":"2026-02-23","time":"23:53:00"},{"task":"memory_phase","broad_category":"I","image_png":"I_Diorite_05.png","image_id":37,"category_name":"Diorite","category":3,"distinct_rating":3.08,"distinct_type":"Bottom","rt":null,"stimulus":"Stimuli_Rocks480/I_Diorite_05.png","response":null,"trial_type":"image-keyboard-response","trial_index":97,"plugin_version":"2.1.0","time_elapsed":199918,"subject_id":"92573","group":"Group1","condition":"3_Rep","full_date":"2026-02-23T23:53:00.399Z","date":"2026-02-23","time":"23:53:00"},{"rt":null,"stimulus":"<p style=\"font-size: 50px; margin: 0; text-align: center;\">+</p>","response":null,"trial_type":"html-keyboard-response","trial_index":98,"plugin_version":"2.1.0","time_elapsed":200921,"subject_id":"92573","group":"Group1","condition":"3_Rep","full_date":"2026-02-23T23:53:00.399Z","date":"2026-02-23","time":"23:53:00"},{"task":"memory_phase","broad_category":"S","image_png":"S_Sandstone_15.png","image_id":463,"category_name":"Sandstone","category":29,"distinct_rating":2,"distinct_type":"Bottom","rt":null,"stimulus":"Stimuli_Rocks480/S_Sandstone_15.png","response":null,"trial_type":"image-keyboard-response","trial_index":99,"plugin_version":"2.1.0","time_elapsed":203440,"subject_id":"92573","group":"Group1","condition":"3_Rep","full_date":"2026-02-23T23:53:00.399Z","date":"2026-02-23","time":"23:53:00"},{"rt":null,"stimulus":"<p style=\"font-size: 50px; margin: 0; text-align: center;\">+</p>","response":null,"trial_type":"html-keyboard-response","trial_index":100,"plugin_version":"2.1.0","time_elapsed":204442,"subject_id":"92573","group":"Group1","condition":"3_Rep","full_date":"2026-02-23T23:53:00.399Z","date":"2026-02-23","time":"23:53:00"},{"task":"memory_phase","broad_category":"S","image_png":"S_Dolomite_12.png","image_id":396,"category_name":"Dolomite","category":25,"distinct_rating":1.85,"distinct_type":"Bottom","rt":null,"stimulus":"Stimuli_Rocks480/S_Dolomite_12.png","response":null,"trial_type":"image-keyboard-response","trial_index":101,"plugin_version":"2.1.0","time_elapsed":206956,"subject_id":"92573","group":"Group1","condition":"3_Rep","full_date":"2026-02-23T23:53:00.399Z","date":"2026-02-23","time":"23:53:00"},{"rt":null,"stimulus":"<p style=\"font-size: 50px; margin: 0; text-align: center;\">+</p>","response":null,"trial_type":"html-keyboard-response","trial_index":102,"plugin_version":"2.1.0","time_elapsed":207958,"subject_id":"92573","group":"Group1","condition":"3_Rep","full_date":"2026-02-23T23:53:00.399Z","date":"2026-02-23","time":"23:53:00"},{"task":"memory_phase","broad_category":"I","image_png":"I_Andesite_10.png","image_id":10,"category_name":"Andesite","category":1,"distinct_rating":3.15,"distinct_type":"Bottom","rt":null,"stimulus":"Stimuli_Rocks480/I_Andesite_10.png","response":null,"trial_type":"image-keyboard-response","trial_index":103,"plugin_version":"2.1.0","time_elapsed":210469,"subject_id":"92573","group":"Group1","condition":"3_Rep","full_date":"2026-02-23T23:53:00.399Z","date":"2026-02-23","time":"23:53:00"},{"rt":null,"stimulus":"<p style=\"font-size: 50px; margin: 0; text-align: center;\">+</p>","response":null,"trial_type":"html-keyboard-response","trial_index":104,"plugin_version":"2.1.0","time_elapsed":211472,"subject_id":"92573","group":"Group1","condition":"3_Rep","full_date":"2026-02-23T23:53:00.399Z","date":"2026-02-23","time":"23:53:00"},{"task":"memory_phase","broad_category":"M","image_png":"M_Marble_04.png","image_id":228,"category_name":"Marble","category":15,"distinct_rating":3.15,"distinct_type":"Bottom","rt":null,"stimulus":"Stimuli_Rocks480/M_Marble_04.png","response":null,"trial_type":"image-keyboard-response","trial_index":105,"plugin_version":"2.1.0","time_elapsed":213987,"subject_id":"92573","group":"Group1","condition":"3_Rep","full_date":"2026-02-23T23:53:00.399Z","date":"2026-02-23","time":"23:53:00"},{"rt":3287,"stimulus":"<p style=\"max-width: 760px; margin: auto; font-size: 35px; line-height: 1.5;\">\n                You have completed 1 study phase. \n                Now, we'll show you all the images again 2 more times.\n                <br><br>Press SPACE to continue\n              </p>","response":" ","trial_type":"html-keyboard-response","trial_index":106,"plugin_version":"2.1.0","time_elapsed":217276,"subject_id":"92573","group":"Group1","condition":"3_Rep","full_date":"2026-02-23T23:53:00.399Z","date":"2026-02-23","time":"23:53:00"},{"rt":null,"stimulus":"<p style=\"font-size: 50px; margin: 0; text-align: center;\">+</p>","response":null,"trial_type":"html-keyboard-response","trial_index":107,"plugin_version":"2.1.0","time_elapsed":218278,"subject_id":"92573","group":"Group1","condition":"3_Rep","full_date":"2026-02-23T23:53:00.399Z","date":"2026-02-23","time":"23:53:00"},{"task":"memory_phase","broad_category":"M","image_png":"M_Slate_03.png","image_id":307,"category_name":"Slate","category":20,"distinct_rating":1.87,"distinct_type":"Bottom","rt":null,"stimulus":"Stimuli_Rocks480/M_Slate_03.png","response":null,"trial_type":"image-keyboard-response","trial_index":108,"plugin_version":"2.1.0","time_elapsed":220795,"subject_id":"92573","group":"Group1","condition":"3_Rep","full_date":"2026-02-23T23:53:00.399Z","date":"2026-02-23","time":"23:53:00"},{"rt":null,"stimulus":"<p style=\"font-size: 50px; margin: 0; text-align: center;\">+</p>","response":null,"trial_type":"html-keyboard-response","trial_index":109,"plugin_version":"2.1.0","time_elapsed":221797,"subject_id":"92573","group":"Group1","condition":"3_Rep","full_date":"2026-02-23T23:53:00.399Z","date":"2026-02-23","time":"23:53:00"},{"task":"memory_phase","broad_category":"S","image_png":"S_Sandstone_03.png","image_id":451,"category_name":"Sandstone","category":29,"distinct_rating":1.86,"distinct_type":"Bottom","rt":null,"stimulus":"Stimuli_Rocks480/S_Sandstone_03.png","response":null,"trial_type":"image-keyboard-response","trial_index":110,"plugin_version":"2.1.0","time_elapsed":224300,"subject_id":"92573","group":"Group1","condition":"3_Rep","full_date":"2026-02-23T23:53:00.399Z","date":"2026-02-23","time":"23:53:00"},{"rt":null,"stimulus":"<p style=\"font-size: 50px; margin: 0; text-align: center;\">+</p>","response":null,"trial_type":"html-keyboard-response","trial_index":111,"plugin_version":"2.1.0","time_elapsed":225302,"subject_id":"92573","group":"Group1","condition":"3_Rep","full_date":"2026-02-23T23:53:00.399Z","date":"2026-02-23","time":"23:53:00"},{"task":"memory_phase","broad_category":"M","image_png":"M_Slate_11.png","image_id":315,"category_name":"Slate","category":20,"distinct_rating":2.75,"distinct_type":"Bottom","rt":null,"stimulus":"Stimuli_Rocks480/M_Slate_11.png","response":null,"trial_type":"image-keyboard-response","trial_index":112,"plugin_version":"2.1.0","time_elapsed":227815,"subject_id":"92573","group":"Group1","condition":"3_Rep","full_date":"2026-02-23T23:53:00.399Z","date":"2026-02-23","time":"23:53:00"},{"rt":null,"stimulus":"<p style=\"font-size: 50px; margin: 0; text-align: center;\">+</p>","response":null,"trial_type":"html-keyboard-response","trial_index":113,"plugin_version":"2.1.0","time_elapsed":228817,"subject_id":"92573","group":"Group1","condition":"3_Rep","full_date":"2026-02-23T23:53:00.399Z","date":"2026-02-23","time":"23:53:00"},{"task":"memory_phase","broad_category":"M","image_png":"M_Gneiss_05.png","image_id":197,"category_name":"Gneiss","category":13,"distinct_rating":2.97,"distinct_type":"Bottom","rt":null,"stimulus":"Stimuli_Rocks480/M_Gneiss_05.png","response":null,"trial_type":"image-keyboard-response","trial_index":114,"plugin_version":"2.1.0","time_elapsed":231340,"subject_id":"92573","group":"Group1","condition":"3_Rep","full_date":"2026-02-23T23:53:00.399Z","date":"2026-02-23","time":"23:53:00"},{"rt":null,"stimulus":"<p style=\"font-size: 50px; margin: 0; text-align: center;\">+</p>","response":null,"trial_type":"html-keyboard-response","trial_index":115,"plugin_version":"2.1.0","time_elapsed":232342,"subject_id":"92573","group":"Group1","condition":"3_Rep","full_date":"2026-02-23T23:53:00.399Z","date":"2026-02-23","time":"23:53:00"},{"task":"memory_phase","broad_category":"I","image_png":"I_Diorite_03.png","image_id":35,"category_name":"Diorite","category":3,"distinct_rating":3.14,"distinct_type":"Bottom","rt":null,"stimulus":"Stimuli_Rocks480/I_Diorite_03.png","response":null,"trial_type":"image-keyboard-response","trial_index":116,"plugin_version":"2.1.0","time_elapsed":234863,"subject_id":"92573","group":"Group1","condition":"3_Rep","full_date":"2026-02-23T23:53:00.399Z","date":"2026-02-23","time":"23:53:00"},{"rt":null,"stimulus":"<p style=\"font-size: 50px; margin: 0; text-align: center;\">+</p>","response":null,"trial_type":"html-keyboard-response","trial_index":117,"plugin_version":"2.1.0","time_elapsed":235865,"subject_id":"92573","group":"Group1","condition":"3_Rep","full_date":"2026-02-23T23:53:00.399Z","date":"2026-02-23","time":"23:53:00"},{"task":"memory_phase","broad_category":"I","image_png":"I_Pegmatite_16.png","image_id":112,"category_name":"Pegmatite","category":7,"distinct_rating":7.03,"distinct_type":"Top","rt":null,"stimulus":"Stimuli_Rocks480/I_Pegmatite_16.png","response":null,"trial_type":"image-keyboard-response","trial_index":118,"plugin_version":"2.1.0","time_elapsed":238379,"subject_id":"92573","group":"Group1","condition":"3_Rep","full_date":"2026-02-23T23:53:00.399Z","date":"2026-02-23","time":"23:53:00"},{"rt":null,"stimulus":"<p style=\"font-size: 50px; margin: 0; text-align: center;\">+</p>","response":null,"trial_type":"html-keyboard-response","trial_index":119,"plugin_version":"2.1.0","time_elapsed":239381,"subject_id":"92573","group":"Group1","condition":"3_Rep","full_date":"2026-02-23T23:53:00.399Z","date":"2026-02-23","time":"23:53:00"},{"task":"memory_phase","broad_category":"S","image_png":"S_Dolomite_13.png","image_id":397,"category_name":"Dolomite","category":25,"distinct_rating":1.77,"distinct_type":"Bottom","rt":null,"stimulus":"Stimuli_Rocks480/S_Dolomite_13.png","response":null,"trial_type":"image-keyboard-response","trial_index":120,"plugin_version":"2.1.0","time_elapsed":241895,"subject_id":"92573","group":"Group1","condition":"3_Rep","full_date":"2026-02-23T23:53:00.399Z","date":"2026-02-23","time":"23:53:00"},{"rt":null,"stimulus":"<p style=\"font-size: 50px; margin: 0; text-align: center;\">+</p>","response":null,"trial_type":"html-keyboard-response","trial_index":121,"plugin_version":"2.1.0","time_elapsed":242897,"subject_id":"92573","group":"Group1","condition":"3_Rep","full_date":"2026-02-23T23:53:00.399Z","date":"2026-02-23","time":"23:53:00"},{"task":"memory_phase","broad_category":"S","image_png":"S_Conglomerate_05.png","image_id":373,"category_name":"Conglomerate","category":24,"distinct_rating":7.32,"distinct_type":"Top","rt":null,"stimulus":"Stimuli_Rocks480/S_Conglomerate_05.png","response":null,"trial_type":"image-keyboard-response","trial_index":122,"plugin_version":"2.1.0","time_elapsed":245412,"subject_id":"92573","group":"Group1","condition":"3_Rep","full_date":"2026-02-23T23:53:00.399Z","date":"2026-02-23","time":"23:53:00"},{"rt":null,"stimulus":"<p style=\"font-size: 50px; margin: 0; text-align: center;\">+</p>","response":null,"trial_type":"html-keyboard-response","trial_index":123,"plugin_version":"2.1.0","time_elapsed":246414,"subject_id":"92573","group":"Group1","condition":"3_Rep","full_date":"2026-02-23T23:53:00.399Z","date":"2026-02-23","time":"23:53:00"},{"task":"memory_phase","broad_category":"I","image_png":"I_Pegmatite_10.png","image_id":106,"category_name":"Pegmatite","category":7,"distinct_rating":7.66,"distinct_type":"Top","rt":null,"stimulus":"Stimuli_Rocks480/I_Pegmatite_10.png","response":null,"trial_type":"image-keyboard-response","trial_index":124,"plugin_version":"2.1.0","time_elapsed":248929,"subject_id":"92573","group":"Group1","condition":"3_Rep","full_date":"2026-02-23T23:53:00.399Z","date":"2026-02-23","time":"23:53:00"},{"rt":null,"stimulus":"<p style=\"font-size: 50px; margin: 0; text-align: center;\">+</p>","response":null,"trial_type":"html-keyboard-response","trial_index":125,"plugin_version":"2.1.0","time_elapsed":249931,"subject_id":"92573","group":"Group1","condition":"3_Rep","full_date":"2026-02-23T23:53:00.399Z","date":"2026-02-23","time":"23:53:00"},{"task":"memory_phase","broad_category":"M","image_png":"M_Marble_16.png","image_id":240,"category_name":"Marble","category":15,"distinct_rating":2.57,"distinct_type":"Bottom","rt":null,"stimulus":"Stimuli_Rocks480/M_Marble_16.png","response":null,"trial_type":"image-keyboard-response","trial_index":126,"plugin_version":"2.1.0","time_elapsed":252447,"subject_id":"92573","group":"Group1","condition":"3_Rep","full_date":"2026-02-23T23:53:00.399Z","date":"2026-02-23","time":"23:53:00"},{"rt":null,"stimulus":"<p style=\"font-size: 50px; margin: 0; text-align: center;\">+</p>","response":null,"trial_type":"html-keyboard-response","trial_index":127,"plugin_version":"2.1.0","time_elapsed":253449,"subject_id":"92573","group":"Group1","condition":"3_Rep","full_date":"2026-02-23T23:53:00.399Z","date":"2026-02-23","time":"23:53:00"},{"task":"memory_phase","broad_category":"S","image_png":"S_Chert_10.png","image_id":362,"category_name":"Chert","category":23,"distinct_rating":7.17,"distinct_type":"Top","rt":null,"stimulus":"Stimuli_Rocks480/S_Chert_10.png","response":null,"trial_type":"image-keyboard-response","trial_index":128,"plugin_version":"2.1.0","time_elapsed":255964,"subject_id":"92573","group":"Group1","condition":"3_Rep","full_date":"2026-02-23T23:53:00.399Z","date":"2026-02-23","time":"23:53:00"},{"rt":null,"stimulus":"<p style=\"font-size: 50px; margin: 0; text-align: center;\">+</p>","response":null,"trial_type":"html-keyboard-response","trial_index":129,"plugin_version":"2.1.0","time_elapsed":256966,"subject_id":"92573","group":"Group1","condition":"3_Rep","full_date":"2026-02-23T23:53:00.399Z","date":"2026-02-23","time":"23:53:00"},{"task":"memory_phase","broad_category":"I","image_png":"I_Gabbro_11.png","image_id":59,"category_name":"Gabbro","category":4,"distinct_rating":1.99,"distinct_type":"Bottom","rt":null,"stimulus":"Stimuli_Rocks480/I_Gabbro_11.png","response":null,"trial_type":"image-keyboard-response","trial_index":130,"plugin_version":"2.1.0","time_elapsed":259478,"subject_id":"92573","group":"Group1","condition":"3_Rep","full_date":"2026-02-23T23:53:00.399Z","date":"2026-02-23","time":"23:53:00"},{"rt":null,"stimulus":"<p style=\"font-size: 50px; margin: 0; text-align: center;\">+</p>","response":null,"trial_type":"html-keyboard-response","trial_index":131,"plugin_version":"2.1.0","time_elapsed":260480,"subject_id":"92573","group":"Group1","condition":"3_Rep","full_date":"2026-02-23T23:53:00.399Z","date":"2026-02-23","time":"23:53:00"},{"task":"memory_phase","broad_category":"S","image_png":"S_Rock Gypsum_04.png","image_id":420,"category_name":"Rock Gypsum","category":27,"distinct_rating":7.61,"distinct_type":"Top","rt":null,"stimulus":"Stimuli_Rocks480/S_Rock Gypsum_04.png","response":null,"trial_type":"image-keyboard-response","trial_index":132,"plugin_version":"2.1.0","time_elapsed":262983,"subject_id":"92573","group":"Group1","condition":"3_Rep","full_date":"2026-02-23T23:53:00.399Z","date":"2026-02-23","time":"23:53:00"},{"rt":null,"stimulus":"<p style=\"font-size: 50px; margin: 0; text-align: center;\">+</p>","response":null,"trial_type":"html-keyboard-response","trial_index":133,"plugin_version":"2.1.0","time_elapsed":263985,"subject_id":"92573","group":"Group1","condition":"3_Rep","full_date":"2026-02-23T23:53:00.399Z","date":"2026-02-23","time":"23:53:00"},{"task":"memory_phase","broad_category":"S","image_png":"S_Shale_12.png","image_id":476,"category_name":"Shale","category":30,"distinct_rating":2.48,"distinct_type":"Bottom","rt":null,"stimulus":"Stimuli_Rocks480/S_Shale_12.png","response":null,"trial_type":"image-keyboard-response","trial_index":134,"plugin_version":"2.1.0","time_elapsed":266503,"subject_id":"92573","group":"Group1","condition":"3_Rep","full_date":"2026-02-23T23:53:00.399Z","date":"2026-02-23","time":"23:53:00"},{"rt":null,"stimulus":"<p style=\"font-size: 50px; margin: 0; text-align: center;\">+</p>","response":null,"trial_type":"html-keyboard-response","trial_index":135,"plugin_version":"2.1.0","time_elapsed":267505,"subject_id":"92573","group":"Group1","condition":"3_Rep","full_date":"2026-02-23T23:53:00.399Z","date":"2026-02-23","time":"23:53:00"},{"task":"memory_phase","broad_category":"M","image_png":"M_Quartzite_08.png","image_id":280,"category_name":"Quartzite","category":18,"distinct_rating":2.15,"distinct_type":"Bottom","rt":null,"stimulus":"Stimuli_Rocks480/M_Quartzite_08.png","response":null,"trial_type":"image-keyboard-response","trial_index":136,"plugin_version":"2.1.0","time_elapsed":270020,"subject_id":"92573","group":"Group1","condition":"3_Rep","full_date":"2026-02-23T23:53:00.399Z","date":"2026-02-23","time":"23:53:00"},{"rt":null,"stimulus":"<p style=\"font-size: 50px; margin: 0; text-align: center;\">+</p>","response":null,"trial_type":"html-keyboard-response","trial_index":137,"plugin_version":"2.1.0","time_elapsed":271024,"subject_id":"92573","group":"Group1","condition":"3_Rep","full_date":"2026-02-23T23:53:00.399Z","date":"2026-02-23","time":"23:53:00"},{"task":"memory_phase","broad_category":"I","image_png":"I_Gabbro_16.png","image_id":64,"category_name":"Gabbro","category":4,"distinct_rating":2.52,"distinct_type":"Bottom","rt":null,"stimulus":"Stimuli_Rocks480/I_Gabbro_16.png","response":null,"trial_type":"image-keyboard-response","trial_index":138,"plugin_version":"2.1.0","time_elapsed":273538,"subject_id":"92573","group":"Group1","condition":"3_Rep","full_date":"2026-02-23T23:53:00.399Z","date":"2026-02-23","time":"23:53:00"},{"rt":null,"stimulus":"<p style=\"font-size: 50px; margin: 0; text-align: center;\">+</p>","response":null,"trial_type":"html-keyboard-response","trial_index":139,"plugin_version":"2.1.0","time_elapsed":274541,"subject_id":"92573","group":"Group1","condition":"3_Rep","full_date":"2026-02-23T23:53:00.399Z","date":"2026-02-23","time":"23:53:00"},{"task":"memory_phase","broad_category":"I","image_png":"I_Andesite_10.png","image_id":10,"category_name":"Andesite","category":1,"distinct_rating":3.15,"distinct_type":"Bottom","rt":null,"stimulus":"Stimuli_Rocks480/I_Andesite_10.png","response":null,"trial_type":"image-keyboard-response","trial_index":140,"plugin_version":"2.1.0","time_elapsed":277044,"subject_id":"92573","group":"Group1","condition":"3_Rep","full_date":"2026-02-23T23:53:00.399Z","date":"2026-02-23","time":"23:53:00"},{"rt":null,"stimulus":"<p style=\"font-size: 50px; margin: 0; text-align: center;\">+</p>","response":null,"trial_type":"html-keyboard-response","trial_index":141,"plugin_version":"2.1.0","time_elapsed":278046,"subject_id":"92573","group":"Group1","condition":"3_Rep","full_date":"2026-02-23T23:53:00.399Z","date":"2026-02-23","time":"23:53:00"},{"task":"memory_phase","broad_category":"M","image_png":"M_Phyllite_03.png","image_id":259,"category_name":"Phyllite","category":17,"distinct_rating":2.5,"distinct_type":"Bottom","rt":null,"stimulus":"Stimuli_Rocks480/M_Phyllite_03.png","response":null,"trial_type":"image-keyboard-response","trial_index":142,"plugin_version":"2.1.0","time_elapsed":280561,"subject_id":"92573","group":"Group1","condition":"3_Rep","full_date":"2026-02-23T23:53:00.399Z","date":"2026-02-23","time":"23:53:00"},{"rt":null,"stimulus":"<p style=\"font-size: 50px; margin: 0; text-align: center;\">+</p>","response":null,"trial_type":"html-keyboard-response","trial_index":143,"plugin_version":"2.1.0","time_elapsed":281563,"subject_id":"92573","group":"Group1","condition":"3_Rep","full_date":"2026-02-23T23:53:00.399Z","date":"2026-02-23","time":"23:53:00"},{"task":"memory_phase","broad_category":"I","image_png":"I_Basalt_09.png","image_id":25,"category_name":"Basalt","category":2,"distinct_rating":1.89,"distinct_type":"Bottom","rt":null,"stimulus":"Stimuli_Rocks480/I_Basalt_09.png","response":null,"trial_type":"image-keyboard-response","trial_index":144,"plugin_version":"2.1.0","time_elapsed":284076,"subject_id":"92573","group":"Group1","condition":"3_Rep","full_date":"2026-02-23T23:53:00.399Z","date":"2026-02-23","time":"23:53:00"},{"rt":null,"stimulus":"<p style=\"font-size: 50px; margin: 0; text-align: center;\">+</p>","response":null,"trial_type":"html-keyboard-response","trial_index":145,"plugin_version":"2.1.0","time_elapsed":285079,"subject_id":"92573","group":"Group1","condition":"3_Rep","full_date":"2026-02-23T23:53:00.399Z","date":"2026-02-23","time":"23:53:00"},{"task":"memory_phase","broad_category":"I","image_png":"I_Pumice_12.png","image_id":140,"category_name":"Pumice","category":9,"distinct_rating":2.97,"distinct_type":"Bottom","rt":null,"stimulus":"Stimuli_Rocks480/I_Pumice_12.png","response":null,"trial_type":"image-keyboard-response","trial_index":146,"plugin_version":"2.1.0","time_elapsed":287592,"subject_id":"92573","group":"Group1","condition":"3_Rep","full_date":"2026-02-23T23:53:00.399Z","date":"2026-02-23","time":"23:53:00"},{"rt":null,"stimulus":"<p style=\"font-size: 50px; margin: 0; text-align: center;\">+</p>","response":null,"trial_type":"html-keyboard-response","trial_index":147,"plugin_version":"2.1.0","time_elapsed":288594,"subject_id":"92573","group":"Group1","condition":"3_Rep","full_date":"2026-02-23T23:53:00.399Z","date":"2026-02-23","time":"23:53:00"},{"task":"memory_phase","broad_category":"I","image_png":"I_Basalt_02.png","image_id":18,"category_name":"Basalt","category":2,"distinct_rating":1.84,"distinct_type":"Bottom","rt":null,"stimulus":"Stimuli_Rocks480/I_Basalt_02.png","response":null,"trial_type":"image-keyboard-response","trial_index":148,"plugin_version":"2.1.0","time_elapsed":291109,"subject_id":"92573","group":"Group1","condition":"3_Rep","full_date":"2026-02-23T23:53:00.399Z","date":"2026-02-23","time":"23:53:00"},{"rt":null,"stimulus":"<p style=\"font-size: 50px; margin: 0; text-align: center;\">+</p>","response":null,"trial_type":"html-keyboard-response","trial_index":149,"plugin_version":"2.1.0","time_elapsed":292111,"subject_id":"92573","group":"Group1","condition":"3_Rep","full_date":"2026-02-23T23:53:00.399Z","date":"2026-02-23","time":"23:53:00"},{"task":"memory_phase","broad_category":"S","image_png":"S_Dolomite_12.png","image_id":396,"category_name":"Dolomite","category":25,"distinct_rating":1.85,"distinct_type":"Bottom","rt":null,"stimulus":"Stimuli_Rocks480/S_Dolomite_12.png","response":null,"trial_type":"image-keyboard-response","trial_index":150,"plugin_version":"2.1.0","time_elapsed":294614,"subject_id":"92573","group":"Group1","condition":"3_Rep","full_date":"2026-02-23T23:53:00.399Z","date":"2026-02-23","time":"23:53:00"},{"rt":null,"stimulus":"<p style=\"font-size: 50px; margin: 0; text-align: center;\">+</p>","response":null,"trial_type":"html-keyboard-response","trial_index":151,"plugin_version":"2.1.0","time_elapsed":295616,"subject_id":"92573","group":"Group1","condition":"3_Rep","full_date":"2026-02-23T23:53:00.399Z","date":"2026-02-23","time":"23:53:00"},{"task":"memory_phase","broad_category":"M","image_png":"M_Quartzite_13.png","image_id":285,"category_name":"Quartzite","category":18,"distinct_rating":2.27,"distinct_type":"Bottom","rt":null,"stimulus":"Stimuli_Rocks480/M_Quartzite_13.png","response":null,"trial_type":"image-keyboard-response","trial_index":152,"plugin_version":"2.1.0","time_elapsed":298118,"subject_id":"92573","group":"Group1","condition":"3_Rep","full_date":"2026-02-23T23:53:00.399Z","date":"2026-02-23","time":"23:53:00"},{"rt":null,"stimulus":"<p style=\"font-size: 50px; margin: 0; text-align: center;\">+</p>","response":null,"trial_type":"html-keyboard-response","trial_index":153,"plugin_version":"2.1.0","time_elapsed":299121,"subject_id":"92573","group":"Group1","condition":"3_Rep","full_date":"2026-02-23T23:53:00.399Z","date":"2026-02-23","time":"23:53:00"},{"task":"memory_phase","broad_category":"S","image_png":"S_Shale_08.png","image_id":472,"category_name":"Shale","category":30,"distinct_rating":2.55,"distinct_type":"Bottom","rt":null,"stimulus":"Stimuli_Rocks480/S_Shale_08.png","response":null,"trial_type":"image-keyboard-response","trial_index":154,"plugin_version":"2.1.0","time_elapsed":301636,"subject_id":"92573","group":"Group1","condition":"3_Rep","full_date":"2026-02-23T23:53:00.399Z","date":"2026-02-23","time":"23:53:00"},{"rt":null,"stimulus":"<p style=\"font-size: 50px; margin: 0; text-align: center;\">+</p>","response":null,"trial_type":"html-keyboard-response","trial_index":155,"plugin_version":"2.1.0","time_elapsed":302638,"subject_id":"92573","group":"Group1","condition":"3_Rep","full_date":"2026-02-23T23:53:00.399Z","date":"2026-02-23","time":"23:53:00"},{"task":"memory_phase","broad_category":"S","image_png":"S_Sandstone_16.png","image_id":464,"category_name":"Sandstone","category":29,"distinct_rating":1.93,"distinct_type":"Bottom","rt":null,"stimulus":"Stimuli_Rocks480/S_Sandstone_16.png","response":null,"trial_type":"image-keyboard-response","trial_index":156,"plugin_version":"2.1.0","time_elapsed":305151,"subject_id":"92573","group":"Group1","condition":"3_Rep","full_date":"2026-02-23T23:53:00.399Z","date":"2026-02-23","time":"23:53:00"},{"rt":3577,"stimulus":"<p style=\"max-width: 760px; margin: auto; font-size: 35px; line-height: 1.5;\">\n                Press SPACE to continue study phase\n              </p>","response":" ","trial_type":"html-keyboard-response","trial_index":157,"plugin_version":"2.1.0","time_elapsed":308728,"subject_id":"92573","group":"Group1","condition":"3_Rep","full_date":"2026-02-23T23:53:00.399Z","date":"2026-02-23","time":"23:53:00"},{"rt":null,"stimulus":"<p style=\"font-size: 50px; margin: 0; text-align: center;\">+</p>","response":null,"trial_type":"html-keyboard-response","trial_index":158,"plugin_version":"2.1.0","time_elapsed":309731,"subject_id":"92573","group":"Group1","condition":"3_Rep","full_date":"2026-02-23T23:53:00.399Z","date":"2026-02-23","time":"23:53:00"},{"task":"memory_phase","broad_category":"I","image_png":"I_Gabbro_08.png","image_id":56,"category_name":"Gabbro","category":4,"distinct_rating":3.02,"distinct_type":"Bottom","rt":null,"stimulus":"Stimuli_Rocks480/I_Gabbro_08.png","response":null,"trial_type":"image-keyboard-response","trial_index":159,"plugin_version":"2.1.0","time_elapsed":312246,"subject_id":"92573","group":"Group1","condition":"3_Rep","full_date":"2026-02-23T23:53:00.399Z","date":"2026-02-23","time":"23:53:00"},{"rt":null,"stimulus":"<p style=\"font-size: 50px; margin: 0; text-align: center;\">+</p>","response":null,"trial_type":"html-keyboard-response","trial_index":160,"plugin_version":"2.1.0","time_elapsed":313248,"subject_id":"92573","group":"Group1","condition":"3_Rep","full_date":"2026-02-23T23:53:00.399Z","date":"2026-02-23","time":"23:53:00"},{"task":"memory_phase","broad_category":"M","image_png":"M_Phyllite_07.png","image_id":263,"category_name":"Phyllite","category":17,"distinct_rating":2.59,"distinct_type":"Bottom","rt":null,"stimulus":"Stimuli_Rocks480/M_Phyllite_07.png","response":null,"trial_type":"image-keyboard-response","trial_index":161,"plugin_version":"2.1.0","time_elapsed":315761,"subject_id":"92573","group":"Group1","condition":"3_Rep","full_date":"2026-02-23T23:53:00.399Z","date":"2026-02-23","time":"23:53:00"},{"rt":null,"stimulus":"<p style=\"font-size: 50px; margin: 0; text-align: center;\">+</p>","response":null,"trial_type":"html-keyboard-response","trial_index":162,"plugin_version":"2.1.0","time_elapsed":316763,"subject_id":"92573","group":"Group1","condition":"3_Rep","full_date":"2026-02-23T23:53:00.399Z","date":"2026-02-23","time":"23:53:00"},{"task":"memory_phase","broad_category":"S","image_png":"S_Breccia_11.png","image_id":347,"category_name":"Breccia","category":22,"distinct_rating":6.7,"distinct_type":"Top","rt":null,"stimulus":"Stimuli_Rocks480/S_Breccia_11.png","response":null,"trial_type":"image-keyboard-response","trial_index":163,"plugin_version":"2.1.0","time_elapsed":319284,"subject_id":"92573","group":"Group1","condition":"3_Rep","full_date":"2026-02-23T23:53:00.399Z","date":"2026-02-23","time":"23:53:00"},{"rt":null,"stimulus":"<p style=\"font-size: 50px; margin: 0; text-align: center;\">+</p>","response":null,"trial_type":"html-keyboard-response","trial_index":164,"plugin_version":"2.1.0","time_elapsed":320286,"subject_id":"92573","group":"Group1","condition":"3_Rep","full_date":"2026-02-23T23:53:00.399Z","date":"2026-02-23","time":"23:53:00"},{"task":"memory_phase","broad_category":"I","image_png":"I_Pumice_11.png","image_id":139,"category_name":"Pumice","category":9,"distinct_rating":1.74,"distinct_type":"Bottom","rt":null,"stimulus":"Stimuli_Rocks480/I_Pumice_11.png","response":null,"trial_type":"image-keyboard-response","trial_index":165,"plugin_version":"2.1.0","time_elapsed":322798,"subject_id":"92573","group":"Group1","condition":"3_Rep","full_date":"2026-02-23T23:53:00.399Z","date":"2026-02-23","time":"23:53:00"},{"rt":null,"stimulus":"<p style=\"font-size: 50px; margin: 0; text-align: center;\">+</p>","response":null,"trial_type":"html-keyboard-response","trial_index":166,"plugin_version":"2.1.0","time_elapsed":323800,"subject_id":"92573","group":"Group1","condition":"3_Rep","full_date":"2026-02-23T23:53:00.399Z","date":"2026-02-23","time":"23:53:00"},{"task":"memory_phase","broad_category":"S","image_png":"S_Shale_01.png","image_id":465,"category_name":"Shale","category":30,"distinct_rating":2.7,"distinct_type":"Bottom","rt":null,"stimulus":"Stimuli_Rocks480/S_Shale_01.png","response":null,"trial_type":"image-keyboard-response","trial_index":167,"plugin_version":"2.1.0","time_elapsed":326314,"subject_id":"92573","group":"Group1","condition":"3_Rep","full_date":"2026-02-23T23:53:00.399Z","date":"2026-02-23","time":"23:53:00"},{"rt":null,"stimulus":"<p style=\"font-size: 50px; margin: 0; text-align: center;\">+</p>","response":null,"trial_type":"html-keyboard-response","trial_index":168,"plugin_version":"2.1.0","time_elapsed":327316,"subject_id":"92573","group":"Group1","condition":"3_Rep","full_date":"2026-02-23T23:53:00.399Z","date":"2026-02-23","time":"23:53:00"},{"task":"memory_phase","broad_category":"M","image_png":"M_Slate_15.png","image_id":319,"category_name":"Slate","category":20,"distinct_rating":2.13,"distinct_type":"Bottom","rt":null,"stimulus":"Stimuli_Rocks480/M_Slate_15.png","response":null,"trial_type":"image-keyboard-response","trial_index":169,"plugin_version":"2.1.0","time_elapsed":329828,"subject_id":"92573","group":"Group1","condition":"3_Rep","full_date":"2026-02-23T23:53:00.399Z","date":"2026-02-23","time":"23:53:00"},{"rt":null,"stimulus":"<p style=\"font-size: 50px; margin: 0; text-align: center;\">+</p>","response":null,"trial_type":"html-keyboard-response","trial_index":170,"plugin_version":"2.1.0","time_elapsed":330830,"subject_id":"92573","group":"Group1","condition":"3_Rep","full_date":"2026-02-23T23:53:00.399Z","date":"2026-02-23","time":"23:53:00"},{"task":"memory_phase","broad_category":"I","image_png":"I_Andesite_06.png","image_id":6,"category_name":"Andesite","category":1,"distinct_rating":3.17,"distinct_type":"Bottom","rt":null,"stimulus":"Stimuli_Rocks480/I_Andesite_06.png","response":null,"trial_type":"image-keyboard-response","trial_index":171,"plugin_version":"2.1.0","time_elapsed":333347,"subject_id":"92573","group":"Group1","condition":"3_Rep","full_date":"2026-02-23T23:53:00.399Z","date":"2026-02-23","time":"23:53:00"},{"rt":null,"stimulus":"<p style=\"font-size: 50px; margin: 0; text-align: center;\">+</p>","response":null,"trial_type":"html-keyboard-response","trial_index":172,"plugin_version":"2.1.0","time_elapsed":334349,"subject_id":"92573","group":"Group1","condition":"3_Rep","full_date":"2026-02-23T23:53:00.399Z","date":"2026-02-23","time":"23:53:00"},{"task":"memory_phase","broad_category":"M","image_png":"M_Phyllite_10.png","image_id":266,"category_name":"Phyllite","category":17,"distinct_rating":2.6,"distinct_type":"Bottom","rt":null,"stimulus":"Stimuli_Rocks480/M_Phyllite_10.png","response":null,"trial_type":"image-keyboard-response","trial_index":173,"plugin_version":"2.1.0","time_elapsed":336863,"subject_id":"92573","group":"Group1","condition":"3_Rep","full_date":"2026-02-23T23:53:00.399Z","date":"2026-02-23","time":"23:53:00"},{"rt":null,"stimulus":"<p style=\"font-size: 50px; margin: 0; text-align: center;\">+</p>","response":null,"trial_type":"html-keyboard-response","trial_index":174,"plugin_version":"2.1.0","time_elapsed":337866,"subject_id":"92573","group":"Group1","condition":"3_Rep","full_date":"2026-02-23T23:53:00.399Z","date":"2026-02-23","time":"23:53:00"},{"task":"memory_phase","broad_category":"M","image_png":"M_Gneiss_06.png","image_id":198,"category_name":"Gneiss","category":13,"distinct_rating":2.65,"distinct_type":"Bottom","rt":null,"stimulus":"Stimuli_Rocks480/M_Gneiss_06.png","response":null,"trial_type":"image-keyboard-response","trial_index":175,"plugin_version":"2.1.0","time_elapsed":340382,"subject_id":"92573","group":"Group1","condition":"3_Rep","full_date":"2026-02-23T23:53:00.399Z","date":"2026-02-23","time":"23:53:00"},{"rt":null,"stimulus":"<p style=\"font-size: 50px; margin: 0; text-align: center;\">+</p>","response":null,"trial_type":"html-keyboard-response","trial_index":176,"plugin_version":"2.1.0","time_elapsed":341384,"subject_id":"92573","group":"Group1","condition":"3_Rep","full_date":"2026-02-23T23:53:00.399Z","date":"2026-02-23","time":"23:53:00"},{"task":"memory_phase","broad_category":"I","image_png":"I_Obsidian_05.png","image_id":85,"category_name":"Obsidian","category":6,"distinct_rating":7.32,"distinct_type":"Top","rt":null,"stimulus":"Stimuli_Rocks480/I_Obsidian_05.png","response":null,"trial_type":"image-keyboard-response","trial_index":177,"plugin_version":"2.1.0","time_elapsed":343901,"subject_id":"92573","group":"Group1","condition":"3_Rep","full_date":"2026-02-23T23:53:00.399Z","date":"2026-02-23","time":"23:53:00"},{"rt":null,"stimulus":"<p style=\"font-size: 50px; margin: 0; text-align: center;\">+</p>","response":null,"trial_type":"html-keyboard-response","trial_index":178,"plugin_version":"2.1.0","time_elapsed":344904,"subject_id":"92573","group":"Group1","condition":"3_Rep","full_date":"2026-02-23T23:53:00.399Z","date":"2026-02-23","time":"23:53:00"},{"task":"memory_phase","broad_category":"S","image_png":"S_Rock Salt_01.png","image_id":433,"category_name":"Rock Salt","category":28,"distinct_rating":7.18,"distinct_type":"Top","rt":null,"stimulus":"Stimuli_Rocks480/S_Rock Salt_01.png","response":null,"trial_type":"image-keyboard-response","trial_index":179,"plugin_version":"2.1.0","time_elapsed":347422,"subject_id":"92573","group":"Group1","condition":"3_Rep","full_date":"2026-02-23T23:53:00.399Z","date":"2026-02-23","time":"23:53:00"},{"rt":null,"stimulus":"<p style=\"font-size: 50px; margin: 0; text-align: center;\">+</p>","response":null,"trial_type":"html-keyboard-response","trial_index":180,"plugin_version":"2.1.0","time_elapsed":348424,"subject_id":"92573","group":"Group1","condition":"3_Rep","full_date":"2026-02-23T23:53:00.399Z","date":"2026-02-23","time":"23:53:00"},{"task":"memory_phase","broad_category":"I","image_png":"I_Diorite_05.png","image_id":37,"category_name":"Diorite","category":3,"distinct_rating":3.08,"distinct_type":"Bottom","rt":null,"stimulus":"Stimuli_Rocks480/I_Diorite_05.png","response":null,"trial_type":"image-keyboard-response","trial_index":181,"plugin_version":"2.1.0","time_elapsed":350939,"subject_id":"92573","group":"Group1","condition":"3_Rep","full_date":"2026-02-23T23:53:00.399Z","date":"2026-02-23","time":"23:53:00"},{"rt":null,"stimulus":"<p style=\"font-size: 50px; margin: 0; text-align: center;\">+</p>","response":null,"trial_type":"html-keyboard-response","trial_index":182,"plugin_version":"2.1.0","time_elapsed":351941,"subject_id":"92573","group":"Group1","condition":"3_Rep","full_date":"2026-02-23T23:53:00.399Z","date":"2026-02-23","time":"23:53:00"},{"task":"memory_phase","broad_category":"I","image_png":"I_Rhyolite_11.png","image_id":155,"category_name":"Rhyolite","category":10,"distinct_rating":1.73,"distinct_type":"Bottom","rt":null,"stimulus":"Stimuli_Rocks480/I_Rhyolite_11.png","response":null,"trial_type":"image-keyboard-response","trial_index":183,"plugin_version":"2.1.0","time_elapsed":354453,"subject_id":"92573","group":"Group1","condition":"3_Rep","full_date":"2026-02-23T23:53:00.399Z","date":"2026-02-23","time":"23:53:00"},{"rt":null,"stimulus":"<p style=\"font-size: 50px; margin: 0; text-align: center;\">+</p>","response":null,"trial_type":"html-keyboard-response","trial_index":184,"plugin_version":"2.1.0","time_elapsed":355455,"subject_id":"92573","group":"Group1","condition":"3_Rep","full_date":"2026-02-23T23:53:00.399Z","date":"2026-02-23","time":"23:53:00"},{"task":"memory_phase","broad_category":"I","image_png":"I_Pumice_08.png","image_id":136,"category_name":"Pumice","category":9,"distinct_rating":3.1,"distinct_type":"Bottom","rt":null,"stimulus":"Stimuli_Rocks480/I_Pumice_08.png","response":null,"trial_type":"image-keyboard-response","trial_index":185,"plugin_version":"2.1.0","time_elapsed":357970,"subject_id":"92573","group":"Group1","condition":"3_Rep","full_date":"2026-02-23T23:53:00.399Z","date":"2026-02-23","time":"23:53:00"},{"rt":null,"stimulus":"<p style=\"font-size: 50px; margin: 0; text-align: center;\">+</p>","response":null,"trial_type":"html-keyboard-response","trial_index":186,"plugin_version":"2.1.0","time_elapsed":358972,"subject_id":"92573","group":"Group1","condition":"3_Rep","full_date":"2026-02-23T23:53:00.399Z","date":"2026-02-23","time":"23:53:00"},{"task":"memory_phase","broad_category":"I","image_png":"I_Rhyolite_16.png","image_id":160,"category_name":"Rhyolite","category":10,"distinct_rating":2.19,"distinct_type":"Bottom","rt":null,"stimulus":"Stimuli_Rocks480/I_Rhyolite_16.png","response":null,"trial_type":"image-keyboard-response","trial_index":187,"plugin_version":"2.1.0","time_elapsed":361488,"subject_id":"92573","group":"Group1","condition":"3_Rep","full_date":"2026-02-23T23:53:00.399Z","date":"2026-02-23","time":"23:53:00"},{"rt":null,"stimulus":"<p style=\"font-size: 50px; margin: 0; text-align: center;\">+</p>","response":null,"trial_type":"html-keyboard-response","trial_index":188,"plugin_version":"2.1.0","time_elapsed":362491,"subject_id":"92573","group":"Group1","condition":"3_Rep","full_date":"2026-02-23T23:53:00.399Z","date":"2026-02-23","time":"23:53:00"},{"task":"memory_phase","broad_category":"I","image_png":"I_Diorite_04.png","image_id":36,"category_name":"Diorite","category":3,"distinct_rating":2.98,"distinct_type":"Bottom","rt":null,"stimulus":"Stimuli_Rocks480/I_Diorite_04.png","response":null,"trial_type":"image-keyboard-response","trial_index":189,"plugin_version":"2.1.0","time_elapsed":365007,"subject_id":"92573","group":"Group1","condition":"3_Rep","full_date":"2026-02-23T23:53:00.399Z","date":"2026-02-23","time":"23:53:00"},{"rt":null,"stimulus":"<p style=\"font-size: 50px; margin: 0; text-align: center;\">+</p>","response":null,"trial_type":"html-keyboard-response","trial_index":190,"plugin_version":"2.1.0","time_elapsed":366009,"subject_id":"92573","group":"Group1","condition":"3_Rep","full_date":"2026-02-23T23:53:00.399Z","date":"2026-02-23","time":"23:53:00"},{"task":"memory_phase","broad_category":"I","image_png":"I_Basalt_01.png","image_id":17,"category_name":"Basalt","category":2,"distinct_rating":1.92,"distinct_type":"Bottom","rt":null,"stimulus":"Stimuli_Rocks480/I_Basalt_01.png","response":null,"trial_type":"image-keyboard-response","trial_index":191,"plugin_version":"2.1.0","time_elapsed":368527,"subject_id":"92573","group":"Group1","condition":"3_Rep","full_date":"2026-02-23T23:53:00.399Z","date":"2026-02-23","time":"23:53:00"},{"rt":null,"stimulus":"<p style=\"font-size: 50px; margin: 0; text-align: center;\">+</p>","response":null,"trial_type":"html-keyboard-response","trial_index":192,"plugin_version":"2.1.0","time_elapsed":369529,"subject_id":"92573","group":"Group1","condition":"3_Rep","full_date":"2026-02-23T23:53:00.399Z","date":"2026-02-23","time":"23:53:00"},{"task":"memory_phase","broad_category":"I","image_png":"I_Rhyolite_14.png","image_id":158,"category_name":"Rhyolite","category":10,"distinct_rating":2.59,"distinct_type":"Bottom","rt":null,"stimulus":"Stimuli_Rocks480/I_Rhyolite_14.png","response":null,"trial_type":"image-keyboard-response","trial_index":193,"plugin_version":"2.1.0","time_elapsed":372043,"subject_id":"92573","group":"Group1","condition":"3_Rep","full_date":"2026-02-23T23:53:00.399Z","date":"2026-02-23","time":"23:53:00"},{"rt":null,"stimulus":"<p style=\"font-size: 50px; margin: 0; text-align: center;\">+</p>","response":null,"trial_type":"html-keyboard-response","trial_index":194,"plugin_version":"2.1.0","time_elapsed":373046,"subject_id":"92573","group":"Group1","condition":"3_Rep","full_date":"2026-02-23T23:53:00.399Z","date":"2026-02-23","time":"23:53:00"},{"task":"memory_phase","broad_category":"M","image_png":"M_Quartzite_05.png","image_id":277,"category_name":"Quartzite","category":18,"distinct_rating":2.23,"distinct_type":"Bottom","rt":null,"stimulus":"Stimuli_Rocks480/M_Quartzite_05.png","response":null,"trial_type":"image-keyboard-response","trial_index":195,"plugin_version":"2.1.0","time_elapsed":375563,"subject_id":"92573","group":"Group1","condition":"3_Rep","full_date":"2026-02-23T23:53:00.399Z","date":"2026-02-23","time":"23:53:00"},{"rt":null,"stimulus":"<p style=\"font-size: 50px; margin: 0; text-align: center;\">+</p>","response":null,"trial_type":"html-keyboard-response","trial_index":196,"plugin_version":"2.1.0","time_elapsed":376565,"subject_id":"92573","group":"Group1","condition":"3_Rep","full_date":"2026-02-23T23:53:00.399Z","date":"2026-02-23","time":"23:53:00"},{"task":"memory_phase","broad_category":"I","image_png":"I_Andesite_08.png","image_id":8,"category_name":"Andesite","category":1,"distinct_rating":1.95,"distinct_type":"Bottom","rt":null,"stimulus":"Stimuli_Rocks480/I_Andesite_08.png","response":null,"trial_type":"image-keyboard-response","trial_index":197,"plugin_version":"2.1.0","time_elapsed":379080,"subject_id":"92573","group":"Group1","condition":"3_Rep","full_date":"2026-02-23T23:53:00.399Z","date":"2026-02-23","time":"23:53:00"},{"rt":null,"stimulus":"<p style=\"font-size: 50px; margin: 0; text-align: center;\">+</p>","response":null,"trial_type":"html-keyboard-response","trial_index":198,"plugin_version":"2.1.0","time_elapsed":380083,"subject_id":"92573","group":"Group1","condition":"3_Rep","full_date":"2026-02-23T23:53:00.399Z","date":"2026-02-23","time":"23:53:00"},{"task":"memory_phase","broad_category":"M","image_png":"M_Marble_06.png","image_id":230,"category_name":"Marble","category":15,"distinct_rating":3.4,"distinct_type":"Bottom","rt":null,"stimulus":"Stimuli_Rocks480/M_Marble_06.png","response":null,"trial_type":"image-keyboard-response","trial_index":199,"plugin_version":"2.1.0","time_elapsed":382599,"subject_id":"92573","group":"Group1","condition":"3_Rep","full_date":"2026-02-23T23:53:00.399Z","date":"2026-02-23","time":"23:53:00"},{"rt":null,"stimulus":"<p style=\"font-size: 50px; margin: 0; text-align: center;\">+</p>","response":null,"trial_type":"html-keyboard-response","trial_index":200,"plugin_version":"2.1.0","time_elapsed":383601,"subject_id":"92573","group":"Group1","condition":"3_Rep","full_date":"2026-02-23T23:53:00.399Z","date":"2026-02-23","time":"23:53:00"},{"task":"memory_phase","broad_category":"S","image_png":"S_Sandstone_15.png","image_id":463,"category_name":"Sandstone","category":29,"distinct_rating":2,"distinct_type":"Bottom","rt":null,"stimulus":"Stimuli_Rocks480/S_Sandstone_15.png","response":null,"trial_type":"image-keyboard-response","trial_index":201,"plugin_version":"2.1.0","time_elapsed":386122,"subject_id":"92573","group":"Group1","condition":"3_Rep","full_date":"2026-02-23T23:53:00.399Z","date":"2026-02-23","time":"23:53:00"},{"rt":null,"stimulus":"<p style=\"font-size: 50px; margin: 0; text-align: center;\">+</p>","response":null,"trial_type":"html-keyboard-response","trial_index":202,"plugin_version":"2.1.0","time_elapsed":387124,"subject_id":"92573","group":"Group1","condition":"3_Rep","full_date":"2026-02-23T23:53:00.399Z","date":"2026-02-23","time":"23:53:00"},{"task":"memory_phase","broad_category":"S","image_png":"S_Dolomite_14.png","image_id":398,"category_name":"Dolomite","category":25,"distinct_rating":1.43,"distinct_type":"Bottom","rt":null,"stimulus":"Stimuli_Rocks480/S_Dolomite_14.png","response":null,"trial_type":"image-keyboard-response","trial_index":203,"plugin_version":"2.1.0","time_elapsed":389641,"subject_id":"92573","group":"Group1","condition":"3_Rep","full_date":"2026-02-23T23:53:00.399Z","date":"2026-02-23","time":"23:53:00"},{"rt":null,"stimulus":"<p style=\"font-size: 50px; margin: 0; text-align: center;\">+</p>","response":null,"trial_type":"html-keyboard-response","trial_index":204,"plugin_version":"2.1.0","time_elapsed":390643,"subject_id":"92573","group":"Group1","condition":"3_Rep","full_date":"2026-02-23T23:53:00.399Z","date":"2026-02-23","time":"23:53:00"},{"task":"memory_phase","broad_category":"M","image_png":"M_Marble_04.png","image_id":228,"category_name":"Marble","category":15,"distinct_rating":3.15,"distinct_type":"Bottom","rt":null,"stimulus":"Stimuli_Rocks480/M_Marble_04.png","response":null,"trial_type":"image-keyboard-response","trial_index":205,"plugin_version":"2.1.0","time_elapsed":393158,"subject_id":"92573","group":"Group1","condition":"3_Rep","full_date":"2026-02-23T23:53:00.399Z","date":"2026-02-23","time":"23:53:00"},{"rt":null,"stimulus":"<p style=\"font-size: 50px; margin: 0; text-align: center;\">+</p>","response":null,"trial_type":"html-keyboard-response","trial_index":206,"plugin_version":"2.1.0","time_elapsed":394160,"subject_id":"92573","group":"Group1","condition":"3_Rep","full_date":"2026-02-23T23:53:00.399Z","date":"2026-02-23","time":"23:53:00"},{"task":"memory_phase","broad_category":"M","image_png":"M_Gneiss_13.png","image_id":205,"category_name":"Gneiss","category":13,"distinct_rating":3.26,"distinct_type":"Bottom","rt":null,"stimulus":"Stimuli_Rocks480/M_Gneiss_13.png","response":null,"trial_type":"image-keyboard-response","trial_index":207,"plugin_version":"2.1.0","time_elapsed":396672,"subject_id":"92573","group":"Group1","condition":"3_Rep","full_date":"2026-02-23T23:53:00.399Z","date":"2026-02-23","time":"23:53:00"},{"rt":3799,"stimulus":"<p style=\"max-width: 760px; margin: auto; font-size: 35px; line-height: 1.5;\">\n                You have completed 2 study phases. \n                Now, we'll show you all the images again 1 more time.\n                <br><br>Press SPACE to continue\n              </p>","response":" ","trial_type":"html-keyboard-response","trial_index":208,"plugin_version":"2.1.0","time_elapsed":400472,"subject_id":"92573","group":"Group1","condition":"3_Rep","full_date":"2026-02-23T23:53:00.399Z","date":"2026-02-23","time":"23:53:00"},{"rt":null,"stimulus":"<p style=\"font-size: 50px; margin: 0; text-align: center;\">+</p>","response":null,"trial_type":"html-keyboard-response","trial_index":209,"plugin_version":"2.1.0","time_elapsed":401475,"subject_id":"92573","group":"Group1","condition":"3_Rep","full_date":"2026-02-23T23:53:00.399Z","date":"2026-02-23","time":"23:53:00"},{"task":"memory_phase","broad_category":"S","image_png":"S_Dolomite_14.png","image_id":398,"category_name":"Dolomite","category":25,"distinct_rating":1.43,"distinct_type":"Bottom","rt":null,"stimulus":"Stimuli_Rocks480/S_Dolomite_14.png","response":null,"trial_type":"image-keyboard-response","trial_index":210,"plugin_version":"2.1.0","time_elapsed":403978,"subject_id":"92573","group":"Group1","condition":"3_Rep","full_date":"2026-02-23T23:53:00.399Z","date":"2026-02-23","time":"23:53:00"},{"rt":null,"stimulus":"<p style=\"font-size: 50px; margin: 0; text-align: center;\">+</p>","response":null,"trial_type":"html-keyboard-response","trial_index":211,"plugin_version":"2.1.0","time_elapsed":404980,"subject_id":"92573","group":"Group1","condition":"3_Rep","full_date":"2026-02-23T23:53:00.399Z","date":"2026-02-23","time":"23:53:00"},{"task":"memory_phase","broad_category":"M","image_png":"M_Phyllite_07.png","image_id":263,"category_name":"Phyllite","category":17,"distinct_rating":2.59,"distinct_type":"Bottom","rt":null,"stimulus":"Stimuli_Rocks480/M_Phyllite_07.png","response":null,"trial_type":"image-keyboard-response","trial_index":212,"plugin_version":"2.1.0","time_elapsed":407493,"subject_id":"92573","group":"Group1","condition":"3_Rep","full_date":"2026-02-23T23:53:00.399Z","date":"2026-02-23","time":"23:53:00"},{"rt":null,"stimulus":"<p style=\"font-size: 50px; margin: 0; text-align: center;\">+</p>","response":null,"trial_type":"html-keyboard-response","trial_index":213,"plugin_version":"2.1.0","time_elapsed":408495,"subject_id":"92573","group":"Group1","condition":"3_Rep","full_date":"2026-02-23T23:53:00.399Z","date":"2026-02-23","time":"23:53:00"},{"task":"memory_phase","broad_category":"I","image_png":"I_Pumice_11.png","image_id":139,"category_name":"Pumice","category":9,"distinct_rating":1.74,"distinct_type":"Bottom","rt":null,"stimulus":"Stimuli_Rocks480/I_Pumice_11.png","response":null,"trial_type":"image-keyboard-response","trial_index":214,"plugin_version":"2.1.0","time_elapsed":411006,"subject_id":"92573","group":"Group1","condition":"3_Rep","full_date":"2026-02-23T23:53:00.399Z","date":"2026-02-23","time":"23:53:00"},{"rt":null,"stimulus":"<p style=\"font-size: 50px; margin: 0; text-align: center;\">+</p>","response":null,"trial_type":"html-keyboard-response","trial_index":215,"plugin_version":"2.1.0","time_elapsed":412008,"subject_id":"92573","group":"Group1","condition":"3_Rep","full_date":"2026-02-23T23:53:00.399Z","date":"2026-02-23","time":"23:53:00"},{"task":"memory_phase","broad_category":"M","image_png":"M_Slate_03.png","image_id":307,"category_name":"Slate","category":20,"distinct_rating":1.87,"distinct_type":"Bottom","rt":null,"stimulus":"Stimuli_Rocks480/M_Slate_03.png","response":null,"trial_type":"image-keyboard-response","trial_index":216,"plugin_version":"2.1.0","time_elapsed":414523,"subject_id":"92573","group":"Group1","condition":"3_Rep","full_date":"2026-02-23T23:53:00.399Z","date":"2026-02-23","time":"23:53:00"},{"rt":null,"stimulus":"<p style=\"font-size: 50px; margin: 0; text-align: center;\">+</p>","response":null,"trial_type":"html-keyboard-response","trial_index":217,"plugin_version":"2.1.0","time_elapsed":415525,"subject_id":"92573","group":"Group1","condition":"3_Rep","full_date":"2026-02-23T23:53:00.399Z","date":"2026-02-23","time":"23:53:00"},{"task":"memory_phase","broad_category":"M","image_png":"M_Slate_15.png","image_id":319,"category_name":"Slate","category":20,"distinct_rating":2.13,"distinct_type":"Bottom","rt":null,"stimulus":"Stimuli_Rocks480/M_Slate_15.png","response":null,"trial_type":"image-keyboard-response","trial_index":218,"plugin_version":"2.1.0","time_elapsed":418037,"subject_id":"92573","group":"Group1","condition":"3_Rep","full_date":"2026-02-23T23:53:00.399Z","date":"2026-02-23","time":"23:53:00"},{"rt":null,"stimulus":"<p style=\"font-size: 50px; margin: 0; text-align: center;\">+</p>","response":null,"trial_type":"html-keyboard-response","trial_index":219,"plugin_version":"2.1.0","time_elapsed":419039,"subject_id":"92573","group":"Group1","condition":"3_Rep","full_date":"2026-02-23T23:53:00.399Z","date":"2026-02-23","time":"23:53:00"},{"task":"memory_phase","broad_category":"M","image_png":"M_Marble_16.png","image_id":240,"category_name":"Marble","category":15,"distinct_rating":2.57,"distinct_type":"Bottom","rt":null,"stimulus":"Stimuli_Rocks480/M_Marble_16.png","response":null,"trial_type":"image-keyboard-response","trial_index":220,"plugin_version":"2.1.0","time_elapsed":421554,"subject_id":"92573","group":"Group1","condition":"3_Rep","full_date":"2026-02-23T23:53:00.399Z","date":"2026-02-23","time":"23:53:00"},{"rt":null,"stimulus":"<p style=\"font-size: 50px; margin: 0; text-align: center;\">+</p>","response":null,"trial_type":"html-keyboard-response","trial_index":221,"plugin_version":"2.1.0","time_elapsed":422556,"subject_id":"92573","group":"Group1","condition":"3_Rep","full_date":"2026-02-23T23:53:00.399Z","date":"2026-02-23","time":"23:53:00"},{"task":"memory_phase","broad_category":"I","image_png":"I_Rhyolite_16.png","image_id":160,"category_name":"Rhyolite","category":10,"distinct_rating":2.19,"distinct_type":"Bottom","rt":null,"stimulus":"Stimuli_Rocks480/I_Rhyolite_16.png","response":null,"trial_type":"image-keyboard-response","trial_index":222,"plugin_version":"2.1.0","time_elapsed":425059,"subject_id":"92573","group":"Group1","condition":"3_Rep","full_date":"2026-02-23T23:53:00.399Z","date":"2026-02-23","time":"23:53:00"},{"rt":null,"stimulus":"<p style=\"font-size: 50px; margin: 0; text-align: center;\">+</p>","response":null,"trial_type":"html-keyboard-response","trial_index":223,"plugin_version":"2.1.0","time_elapsed":426061,"subject_id":"92573","group":"Group1","condition":"3_Rep","full_date":"2026-02-23T23:53:00.399Z","date":"2026-02-23","time":"23:53:00"},{"task":"memory_phase","broad_category":"S","image_png":"S_Rock Gypsum_04.png","image_id":420,"category_name":"Rock Gypsum","category":27,"distinct_rating":7.61,"distinct_type":"Top","rt":null,"stimulus":"Stimuli_Rocks480/S_Rock Gypsum_04.png","response":null,"trial_type":"image-keyboard-response","trial_index":224,"plugin_version":"2.1.0","time_elapsed":428576,"subject_id":"92573","group":"Group1","condition":"3_Rep","full_date":"2026-02-23T23:53:00.399Z","date":"2026-02-23","time":"23:53:00"},{"rt":null,"stimulus":"<p style=\"font-size: 50px; margin: 0; text-align: center;\">+</p>","response":null,"trial_type":"html-keyboard-response","trial_index":225,"plugin_version":"2.1.0","time_elapsed":429578,"subject_id":"92573","group":"Group1","condition":"3_Rep","full_date":"2026-02-23T23:53:00.399Z","date":"2026-02-23","time":"23:53:00"},{"task":"memory_phase","broad_category":"I","image_png":"I_Gabbro_08.png","image_id":56,"category_name":"Gabbro","category":4,"distinct_rating":3.02,"distinct_type":"Bottom","rt":null,"stimulus":"Stimuli_Rocks480/I_Gabbro_08.png","response":null,"trial_type":"image-keyboard-response","trial_index":226,"plugin_version":"2.1.0","time_elapsed":432092,"subject_id":"92573","group":"Group1","condition":"3_Rep","full_date":"2026-02-23T23:53:00.399Z","date":"2026-02-23","time":"23:53:00"},{"rt":null,"stimulus":"<p style=\"font-size: 50px; margin: 0; text-align: center;\">+</p>","response":null,"trial_type":"html-keyboard-response","trial_index":227,"plugin_version":"2.1.0","time_elapsed":433095,"subject_id":"92573","group":"Group1","condition":"3_Rep","full_date":"2026-02-23T23:53:00.399Z","date":"2026-02-23","time":"23:53:00"},{"task":"memory_phase","broad_category":"S","image_png":"S_Rock Salt_01.png","image_id":433,"category_name":"Rock Salt","category":28,"distinct_rating":7.18,"distinct_type":"Top","rt":null,"stimulus":"Stimuli_Rocks480/S_Rock Salt_01.png","response":null,"trial_type":"image-keyboard-response","trial_index":228,"plugin_version":"2.1.0","time_elapsed":435615,"subject_id":"92573","group":"Group1","condition":"3_Rep","full_date":"2026-02-23T23:53:00.399Z","date":"2026-02-23","time":"23:53:00"},{"rt":null,"stimulus":"<p style=\"font-size: 50px; margin: 0; text-align: center;\">+</p>","response":null,"trial_type":"html-keyboard-response","trial_index":229,"plugin_version":"2.1.0","time_elapsed":436617,"subject_id":"92573","group":"Group1","condition":"3_Rep","full_date":"2026-02-23T23:53:00.399Z","date":"2026-02-23","time":"23:53:00"},{"task":"memory_phase","broad_category":"M","image_png":"M_Gneiss_05.png","image_id":197,"category_name":"Gneiss","category":13,"distinct_rating":2.97,"distinct_type":"Bottom","rt":null,"stimulus":"Stimuli_Rocks480/M_Gneiss_05.png","response":null,"trial_type":"image-keyboard-response","trial_index":230,"plugin_version":"2.1.0","time_elapsed":439139,"subject_id":"92573","group":"Group1","condition":"3_Rep","full_date":"2026-02-23T23:53:00.399Z","date":"2026-02-23","time":"23:53:00"},{"rt":null,"stimulus":"<p style=\"font-size: 50px; margin: 0; text-align: center;\">+</p>","response":null,"trial_type":"html-keyboard-response","trial_index":231,"plugin_version":"2.1.0","time_elapsed":440141,"subject_id":"92573","group":"Group1","condition":"3_Rep","full_date":"2026-02-23T23:53:00.399Z","date":"2026-02-23","time":"23:53:00"},{"task":"memory_phase","broad_category":"I","image_png":"I_Rhyolite_14.png","image_id":158,"category_name":"Rhyolite","category":10,"distinct_rating":2.59,"distinct_type":"Bottom","rt":null,"stimulus":"Stimuli_Rocks480/I_Rhyolite_14.png","response":null,"trial_type":"image-keyboard-response","trial_index":232,"plugin_version":"2.1.0","time_elapsed":442644,"subject_id":"92573","group":"Group1","condition":"3_Rep","full_date":"2026-02-23T23:53:00.399Z","date":"2026-02-23","time":"23:53:00"},{"rt":null,"stimulus":"<p style=\"font-size: 50px; margin: 0; text-align: center;\">+</p>","response":null,"trial_type":"html-keyboard-response","trial_index":233,"plugin_version":"2.1.0","time_elapsed":443646,"subject_id":"92573","group":"Group1","condition":"3_Rep","full_date":"2026-02-23T23:53:00.399Z","date":"2026-02-23","time":"23:53:00"},{"task":"memory_phase","broad_category":"S","image_png":"S_Conglomerate_05.png","image_id":373,"category_name":"Conglomerate","category":24,"distinct_rating":7.32,"distinct_type":"Top","rt":null,"stimulus":"Stimuli_Rocks480/S_Conglomerate_05.png","response":null,"trial_type":"image-keyboard-response","trial_index":234,"plugin_version":"2.1.0","time_elapsed":446162,"subject_id":"92573","group":"Group1","condition":"3_Rep","full_date":"2026-02-23T23:53:00.399Z","date":"2026-02-23","time":"23:53:00"},{"rt":null,"stimulus":"<p style=\"font-size: 50px; margin: 0; text-align: center;\">+</p>","response":null,"trial_type":"html-keyboard-response","trial_index":235,"plugin_version":"2.1.0","time_elapsed":447164,"subject_id":"92573","group":"Group1","condition":"3_Rep","full_date":"2026-02-23T23:53:00.399Z","date":"2026-02-23","time":"23:53:00"},{"task":"memory_phase","broad_category":"I","image_png":"I_Diorite_03.png","image_id":35,"category_name":"Diorite","category":3,"distinct_rating":3.14,"distinct_type":"Bottom","rt":null,"stimulus":"Stimuli_Rocks480/I_D