[{"width":1470,"height":797,"webaudio":true,"browser":"chrome","browser_version":"144.0.0","mobile":false,"os":"Mac OS","fullscreen":true,"vsync_rate":60.34,"webcam":true,"microphone":true,"trial_type":"browser-check","trial_index":0,"plugin_version":"2.1.0","time_elapsed":1005,"subject_id":"92220","group":"Group1","condition":"1_Rep","full_date":"2026-02-04T16:41:55.530Z","date":"2026-02-04","time":"16:41:55"},{"success":true,"timeout":false,"failed_images":[],"failed_audio":[],"failed_video":[],"trial_type":"preload","trial_index":1,"plugin_version":"2.1.0","time_elapsed":5861,"subject_id":"92220","group":"Group1","condition":"1_Rep","full_date":"2026-02-04T16:41:55.530Z","date":"2026-02-04","time":"16:41:55"},{"rt":6702,"url":"SONA_consent_memorability.html","trial_type":"external-html","trial_index":2,"plugin_version":"2.1.0","time_elapsed":12618,"subject_id":"92220","group":"Group1","condition":"1_Rep","full_date":"2026-02-04T16:41:55.530Z","date":"2026-02-04","time":"16:41:55"},{"success":true,"rt":3897,"trial_type":"fullscreen","trial_index":3,"plugin_version":"2.1.0","time_elapsed":17520,"subject_id":"92220","group":"Group1","condition":"1_Rep","full_date":"2026-02-04T16:41:55.530Z","date":"2026-02-04","time":"16:41:55"},{"rt":1212,"stimulus":"<div style=\"max-width: 760px; margin: auto; font-size: 20px; line-height: 1.5;\">\n      <h1 style=\"text-align:center; font-size: 30px;\">Instructions</h1>\n      <p>\n        Welcome to the study on <b>visual memory</b>. This experiment consists of <b>two phases</b>: \n        a <b>study phase</b> and a <b>test phase</b>.\n      </p>\n      <p>\n        In the study phase, you will see a series of rock images along with their category labels.\n        The images will appear one at a time.\n        <b>Your task</b> is to learn the categories to which the rock images belong \n        and to remember each image as accurately as possible.\n      </p> \n      <p>\n        Note that you will see each image only <b>once</b> during the study phase. \n          So, please pay close attention and try to remember each image carefully.\n      </p>\n      <p>\n        After the study phase, <b>your memory will be tested</b>. \n        Additional instructions for the test phase will be provided at that time.\n      </p>\n      <p>\n        If your computer has multiple <b>language settings</b> (e.g., English and another language),\n        please make sure it is set to English before starting.\n      </p>\n      <p>\n        You can track your progress using the <b>completion bar</b> at the top of the screen. \n        Please note that the bar will refresh when the test phase begins \n        to give you an accurate sense of your progress in both phases.\n      </p> \n      <p>\n        Press the button below when you are ready to begin.\n      </p>\n    </div>","response":0,"trial_type":"html-button-response","trial_index":4,"plugin_version":"2.1.0","time_elapsed":18734,"subject_id":"92220","group":"Group1","condition":"1_Rep","full_date":"2026-02-04T16:41:55.530Z","date":"2026-02-04","time":"16:41:55"},{"rt":null,"stimulus":"<p style=\"font-size: 50px; margin: 0; text-align: center;\">+</p>","response":null,"trial_type":"html-keyboard-response","trial_index":5,"plugin_version":"2.1.0","time_elapsed":19738,"subject_id":"92220","group":"Group1","condition":"1_Rep","full_date":"2026-02-04T16:41:55.530Z","date":"2026-02-04","time":"16:41:55"},{"task":"memory_phase","broad_category":"S","image_png":"S_Rock Salt_01.png","image_id":433,"category_name":"Rock Salt","category":28,"distinct_rating":7.18,"distinct_type":"Top","rt":null,"stimulus":"Stimuli_Rocks480/S_Rock Salt_01.png","response":null,"trial_type":"image-keyboard-response","trial_index":6,"plugin_version":"2.1.0","time_elapsed":22244,"subject_id":"92220","group":"Group1","condition":"1_Rep","full_date":"2026-02-04T16:41:55.530Z","date":"2026-02-04","time":"16:41:55"},{"rt":null,"stimulus":"<p style=\"font-size: 50px; margin: 0; text-align: center;\">+</p>","response":null,"trial_type":"html-keyboard-response","trial_index":7,"plugin_version":"2.1.0","time_elapsed":23247,"subject_id":"92220","group":"Group1","condition":"1_Rep","full_date":"2026-02-04T16:41:55.530Z","date":"2026-02-04","time":"16:41:55"},{"task":"memory_phase","broad_category":"M","image_png":"M_Slate_03.png","image_id":307,"category_name":"Slate","category":20,"distinct_rating":1.87,"distinct_type":"Bottom","rt":null,"stimulus":"Stimuli_Rocks480/M_Slate_03.png","response":null,"trial_type":"image-keyboard-response","trial_index":8,"plugin_version":"2.1.0","time_elapsed":25751,"subject_id":"92220","group":"Group1","condition":"1_Rep","full_date":"2026-02-04T16:41:55.530Z","date":"2026-02-04","time":"16:41:55"},{"rt":null,"stimulus":"<p style=\"font-size: 50px; margin: 0; text-align: center;\">+</p>","response":null,"trial_type":"html-keyboard-response","trial_index":9,"plugin_version":"2.1.0","time_elapsed":26754,"subject_id":"92220","group":"Group1","condition":"1_Rep","full_date":"2026-02-04T16:41:55.530Z","date":"2026-02-04","time":"16:41:55"},{"task":"memory_phase","broad_category":"I","image_png":"I_Pumice_12.png","image_id":140,"category_name":"Pumice","category":9,"distinct_rating":2.97,"distinct_type":"Bottom","rt":null,"stimulus":"Stimuli_Rocks480/I_Pumice_12.png","response":null,"trial_type":"image-keyboard-response","trial_index":10,"plugin_version":"2.1.0","time_elapsed":29257,"subject_id":"92220","group":"Group1","condition":"1_Rep","full_date":"2026-02-04T16:41:55.530Z","date":"2026-02-04","time":"16:41:55"},{"rt":null,"stimulus":"<p style=\"font-size: 50px; margin: 0; text-align: center;\">+</p>","response":null,"trial_type":"html-keyboard-response","trial_index":11,"plugin_version":"2.1.0","time_elapsed":30260,"subject_id":"92220","group":"Group1","condition":"1_Rep","full_date":"2026-02-04T16:41:55.530Z","date":"2026-02-04","time":"16:41:55"},{"task":"memory_phase","broad_category":"I","image_png":"I_Basalt_02.png","image_id":18,"category_name":"Basalt","category":2,"distinct_rating":1.84,"distinct_type":"Bottom","rt":null,"stimulus":"Stimuli_Rocks480/I_Basalt_02.png","response":null,"trial_type":"image-keyboard-response","trial_index":12,"plugin_version":"2.1.0","time_elapsed":32763,"subject_id":"92220","group":"Group1","condition":"1_Rep","full_date":"2026-02-04T16:41:55.530Z","date":"2026-02-04","time":"16:41:55"},{"rt":null,"stimulus":"<p style=\"font-size: 50px; margin: 0; text-align: center;\">+</p>","response":null,"trial_type":"html-keyboard-response","trial_index":13,"plugin_version":"2.1.0","time_elapsed":33766,"subject_id":"92220","group":"Group1","condition":"1_Rep","full_date":"2026-02-04T16:41:55.530Z","date":"2026-02-04","time":"16:41:55"},{"task":"memory_phase","broad_category":"S","image_png":"S_Sandstone_15.png","image_id":463,"category_name":"Sandstone","category":29,"distinct_rating":2,"distinct_type":"Bottom","rt":null,"stimulus":"Stimuli_Rocks480/S_Sandstone_15.png","response":null,"trial_type":"image-keyboard-response","trial_index":14,"plugin_version":"2.1.0","time_elapsed":36270,"subject_id":"92220","group":"Group1","condition":"1_Rep","full_date":"2026-02-04T16:41:55.530Z","date":"2026-02-04","time":"16:41:55"},{"rt":null,"stimulus":"<p style=\"font-size: 50px; margin: 0; text-align: center;\">+</p>","response":null,"trial_type":"html-keyboard-response","trial_index":15,"plugin_version":"2.1.0","time_elapsed":37272,"subject_id":"92220","group":"Group1","condition":"1_Rep","full_date":"2026-02-04T16:41:55.530Z","date":"2026-02-04","time":"16:41:55"},{"task":"memory_phase","broad_category":"I","image_png":"I_Rhyolite_14.png","image_id":158,"category_name":"Rhyolite","category":10,"distinct_rating":2.59,"distinct_type":"Bottom","rt":null,"stimulus":"Stimuli_Rocks480/I_Rhyolite_14.png","response":null,"trial_type":"image-keyboard-response","trial_index":16,"plugin_version":"2.1.0","time_elapsed":39775,"subject_id":"92220","group":"Group1","condition":"1_Rep","full_date":"2026-02-04T16:41:55.530Z","date":"2026-02-04","time":"16:41:55"},{"rt":null,"stimulus":"<p style=\"font-size: 50px; margin: 0; text-align: center;\">+</p>","response":null,"trial_type":"html-keyboard-response","trial_index":17,"plugin_version":"2.1.0","time_elapsed":40778,"subject_id":"92220","group":"Group1","condition":"1_Rep","full_date":"2026-02-04T16:41:55.530Z","date":"2026-02-04","time":"16:41:55"},{"task":"memory_phase","broad_category":"M","image_png":"M_Phyllite_10.png","image_id":266,"category_name":"Phyllite","category":17,"distinct_rating":2.6,"distinct_type":"Bottom","rt":null,"stimulus":"Stimuli_Rocks480/M_Phyllite_10.png","response":null,"trial_type":"image-keyboard-response","trial_index":18,"plugin_version":"2.1.0","time_elapsed":43281,"subject_id":"92220","group":"Group1","condition":"1_Rep","full_date":"2026-02-04T16:41:55.530Z","date":"2026-02-04","time":"16:41:55"},{"rt":null,"stimulus":"<p style=\"font-size: 50px; margin: 0; text-align: center;\">+</p>","response":null,"trial_type":"html-keyboard-response","trial_index":19,"plugin_version":"2.1.0","time_elapsed":44284,"subject_id":"92220","group":"Group1","condition":"1_Rep","full_date":"2026-02-04T16:41:55.530Z","date":"2026-02-04","time":"16:41:55"},{"task":"memory_phase","broad_category":"M","image_png":"M_Phyllite_07.png","image_id":263,"category_name":"Phyllite","category":17,"distinct_rating":2.59,"distinct_type":"Bottom","rt":null,"stimulus":"Stimuli_Rocks480/M_Phyllite_07.png","response":null,"trial_type":"image-keyboard-response","trial_index":20,"plugin_version":"2.1.0","time_elapsed":46788,"subject_id":"92220","group":"Group1","condition":"1_Rep","full_date":"2026-02-04T16:41:55.530Z","date":"2026-02-04","time":"16:41:55"},{"rt":null,"stimulus":"<p style=\"font-size: 50px; margin: 0; text-align: center;\">+</p>","response":null,"trial_type":"html-keyboard-response","trial_index":21,"plugin_version":"2.1.0","time_elapsed":47791,"subject_id":"92220","group":"Group1","condition":"1_Rep","full_date":"2026-02-04T16:41:55.530Z","date":"2026-02-04","time":"16:41:55"},{"task":"memory_phase","broad_category":"I","image_png":"I_Rhyolite_11.png","image_id":155,"category_name":"Rhyolite","category":10,"distinct_rating":1.73,"distinct_type":"Bottom","rt":null,"stimulus":"Stimuli_Rocks480/I_Rhyolite_11.png","response":null,"trial_type":"image-keyboard-response","trial_index":22,"plugin_version":"2.1.0","time_elapsed":50294,"subject_id":"92220","group":"Group1","condition":"1_Rep","full_date":"2026-02-04T16:41:55.530Z","date":"2026-02-04","time":"16:41:55"},{"rt":null,"stimulus":"<p style=\"font-size: 50px; margin: 0; text-align: center;\">+</p>","response":null,"trial_type":"html-keyboard-response","trial_index":23,"plugin_version":"2.1.0","time_elapsed":51297,"subject_id":"92220","group":"Group1","condition":"1_Rep","full_date":"2026-02-04T16:41:55.530Z","date":"2026-02-04","time":"16:41:55"},{"task":"memory_phase","broad_category":"M","image_png":"M_Slate_11.png","image_id":315,"category_name":"Slate","category":20,"distinct_rating":2.75,"distinct_type":"Bottom","rt":null,"stimulus":"Stimuli_Rocks480/M_Slate_11.png","response":null,"trial_type":"image-keyboard-response","trial_index":24,"plugin_version":"2.1.0","time_elapsed":53801,"subject_id":"92220","group":"Group1","condition":"1_Rep","full_date":"2026-02-04T16:41:55.530Z","date":"2026-02-04","time":"16:41:55"},{"rt":null,"stimulus":"<p style=\"font-size: 50px; margin: 0; text-align: center;\">+</p>","response":null,"trial_type":"html-keyboard-response","trial_index":25,"plugin_version":"2.1.0","time_elapsed":54804,"subject_id":"92220","group":"Group1","condition":"1_Rep","full_date":"2026-02-04T16:41:55.530Z","date":"2026-02-04","time":"16:41:55"},{"task":"memory_phase","broad_category":"S","image_png":"S_Chert_10.png","image_id":362,"category_name":"Chert","category":23,"distinct_rating":7.17,"distinct_type":"Top","rt":null,"stimulus":"Stimuli_Rocks480/S_Chert_10.png","response":null,"trial_type":"image-keyboard-response","trial_index":26,"plugin_version":"2.1.0","time_elapsed":57307,"subject_id":"92220","group":"Group1","condition":"1_Rep","full_date":"2026-02-04T16:41:55.530Z","date":"2026-02-04","time":"16:41:55"},{"rt":null,"stimulus":"<p style=\"font-size: 50px; margin: 0; text-align: center;\">+</p>","response":null,"trial_type":"html-keyboard-response","trial_index":27,"plugin_version":"2.1.0","time_elapsed":58310,"subject_id":"92220","group":"Group1","condition":"1_Rep","full_date":"2026-02-04T16:41:55.530Z","date":"2026-02-04","time":"16:41:55"},{"task":"memory_phase","broad_category":"I","image_png":"I_Basalt_09.png","image_id":25,"category_name":"Basalt","category":2,"distinct_rating":1.89,"distinct_type":"Bottom","rt":null,"stimulus":"Stimuli_Rocks480/I_Basalt_09.png","response":null,"trial_type":"image-keyboard-response","trial_index":28,"plugin_version":"2.1.0","time_elapsed":60813,"subject_id":"92220","group":"Group1","condition":"1_Rep","full_date":"2026-02-04T16:41:55.530Z","date":"2026-02-04","time":"16:41:55"},{"rt":null,"stimulus":"<p style=\"font-size: 50px; margin: 0; text-align: center;\">+</p>","response":null,"trial_type":"html-keyboard-response","trial_index":29,"plugin_version":"2.1.0","time_elapsed":61816,"subject_id":"92220","group":"Group1","condition":"1_Rep","full_date":"2026-02-04T16:41:55.530Z","date":"2026-02-04","time":"16:41:55"},{"task":"memory_phase","broad_category":"I","image_png":"I_Rhyolite_16.png","image_id":160,"category_name":"Rhyolite","category":10,"distinct_rating":2.19,"distinct_type":"Bottom","rt":null,"stimulus":"Stimuli_Rocks480/I_Rhyolite_16.png","response":null,"trial_type":"image-keyboard-response","trial_index":30,"plugin_version":"2.1.0","time_elapsed":64319,"subject_id":"92220","group":"Group1","condition":"1_Rep","full_date":"2026-02-04T16:41:55.530Z","date":"2026-02-04","time":"16:41:55"},{"rt":null,"stimulus":"<p style=\"font-size: 50px; margin: 0; text-align: center;\">+</p>","response":null,"trial_type":"html-keyboard-response","trial_index":31,"plugin_version":"2.1.0","time_elapsed":65321,"subject_id":"92220","group":"Group1","condition":"1_Rep","full_date":"2026-02-04T16:41:55.530Z","date":"2026-02-04","time":"16:41:55"},{"task":"memory_phase","broad_category":"S","image_png":"S_Dolomite_13.png","image_id":397,"category_name":"Dolomite","category":25,"distinct_rating":1.77,"distinct_type":"Bottom","rt":null,"stimulus":"Stimuli_Rocks480/S_Dolomite_13.png","response":null,"trial_type":"image-keyboard-response","trial_index":32,"plugin_version":"2.1.0","time_elapsed":67824,"subject_id":"92220","group":"Group1","condition":"1_Rep","full_date":"2026-02-04T16:41:55.530Z","date":"2026-02-04","time":"16:41:55"},{"rt":null,"stimulus":"<p style=\"font-size: 50px; margin: 0; text-align: center;\">+</p>","response":null,"trial_type":"html-keyboard-response","trial_index":33,"plugin_version":"2.1.0","time_elapsed":68827,"subject_id":"92220","group":"Group1","condition":"1_Rep","full_date":"2026-02-04T16:41:55.530Z","date":"2026-02-04","time":"16:41:55"},{"task":"memory_phase","broad_category":"I","image_png":"I_Andesite_10.png","image_id":10,"category_name":"Andesite","category":1,"distinct_rating":3.15,"distinct_type":"Bottom","rt":null,"stimulus":"Stimuli_Rocks480/I_Andesite_10.png","response":null,"trial_type":"image-keyboard-response","trial_index":34,"plugin_version":"2.1.0","time_elapsed":71331,"subject_id":"92220","group":"Group1","condition":"1_Rep","full_date":"2026-02-04T16:41:55.530Z","date":"2026-02-04","time":"16:41:55"},{"rt":null,"stimulus":"<p style=\"font-size: 50px; margin: 0; text-align: center;\">+</p>","response":null,"trial_type":"html-keyboard-response","trial_index":35,"plugin_version":"2.1.0","time_elapsed":72334,"subject_id":"92220","group":"Group1","condition":"1_Rep","full_date":"2026-02-04T16:41:55.530Z","date":"2026-02-04","time":"16:41:55"},{"task":"memory_phase","broad_category":"S","image_png":"S_Dolomite_12.png","image_id":396,"category_name":"Dolomite","category":25,"distinct_rating":1.85,"distinct_type":"Bottom","rt":null,"stimulus":"Stimuli_Rocks480/S_Dolomite_12.png","response":null,"trial_type":"image-keyboard-response","trial_index":36,"plugin_version":"2.1.0","time_elapsed":74837,"subject_id":"92220","group":"Group1","condition":"1_Rep","full_date":"2026-02-04T16:41:55.530Z","date":"2026-02-04","time":"16:41:55"},{"rt":null,"stimulus":"<p style=\"font-size: 50px; margin: 0; text-align: center;\">+</p>","response":null,"trial_type":"html-keyboard-response","trial_index":37,"plugin_version":"2.1.0","time_elapsed":75839,"subject_id":"92220","group":"Group1","condition":"1_Rep","full_date":"2026-02-04T16:41:55.530Z","date":"2026-02-04","time":"16:41:55"},{"task":"memory_phase","broad_category":"S","image_png":"S_Conglomerate_05.png","image_id":373,"category_name":"Conglomerate","category":24,"distinct_rating":7.32,"distinct_type":"Top","rt":null,"stimulus":"Stimuli_Rocks480/S_Conglomerate_05.png","response":null,"trial_type":"image-keyboard-response","trial_index":38,"plugin_version":"2.1.0","time_elapsed":78343,"subject_id":"92220","group":"Group1","condition":"1_Rep","full_date":"2026-02-04T16:41:55.530Z","date":"2026-02-04","time":"16:41:55"},{"rt":null,"stimulus":"<p style=\"font-size: 50px; margin: 0; text-align: center;\">+</p>","response":null,"trial_type":"html-keyboard-response","trial_index":39,"plugin_version":"2.1.0","time_elapsed":79345,"subject_id":"92220","group":"Group1","condition":"1_Rep","full_date":"2026-02-04T16:41:55.530Z","date":"2026-02-04","time":"16:41:55"},{"task":"memory_phase","broad_category":"I","image_png":"I_Pumice_08.png","image_id":136,"category_name":"Pumice","category":9,"distinct_rating":3.1,"distinct_type":"Bottom","rt":null,"stimulus":"Stimuli_Rocks480/I_Pumice_08.png","response":null,"trial_type":"image-keyboard-response","trial_index":40,"plugin_version":"2.1.0","time_elapsed":81849,"subject_id":"92220","group":"Group1","condition":"1_Rep","full_date":"2026-02-04T16:41:55.530Z","date":"2026-02-04","time":"16:41:55"},{"rt":null,"stimulus":"<p style=\"font-size: 50px; margin: 0; text-align: center;\">+</p>","response":null,"trial_type":"html-keyboard-response","trial_index":41,"plugin_version":"2.1.0","time_elapsed":82851,"subject_id":"92220","group":"Group1","condition":"1_Rep","full_date":"2026-02-04T16:41:55.530Z","date":"2026-02-04","time":"16:41:55"},{"task":"memory_phase","broad_category":"I","image_png":"I_Basalt_01.png","image_id":17,"category_name":"Basalt","category":2,"distinct_rating":1.92,"distinct_type":"Bottom","rt":null,"stimulus":"Stimuli_Rocks480/I_Basalt_01.png","response":null,"trial_type":"image-keyboard-response","trial_index":42,"plugin_version":"2.1.0","time_elapsed":85355,"subject_id":"92220","group":"Group1","condition":"1_Rep","full_date":"2026-02-04T16:41:55.530Z","date":"2026-02-04","time":"16:41:55"},{"rt":null,"stimulus":"<p style=\"font-size: 50px; margin: 0; text-align: center;\">+</p>","response":null,"trial_type":"html-keyboard-response","trial_index":43,"plugin_version":"2.1.0","time_elapsed":86358,"subject_id":"92220","group":"Group1","condition":"1_Rep","full_date":"2026-02-04T16:41:55.530Z","date":"2026-02-04","time":"16:41:55"},{"task":"memory_phase","broad_category":"I","image_png":"I_Pegmatite_10.png","image_id":106,"category_name":"Pegmatite","category":7,"distinct_rating":7.66,"distinct_type":"Top","rt":null,"stimulus":"Stimuli_Rocks480/I_Pegmatite_10.png","response":null,"trial_type":"image-keyboard-response","trial_index":44,"plugin_version":"2.1.0","time_elapsed":88862,"subject_id":"92220","group":"Group1","condition":"1_Rep","full_date":"2026-02-04T16:41:55.530Z","date":"2026-02-04","time":"16:41:55"},{"rt":null,"stimulus":"<p style=\"font-size: 50px; margin: 0; text-align: center;\">+</p>","response":null,"trial_type":"html-keyboard-response","trial_index":45,"plugin_version":"2.1.0","time_elapsed":89864,"subject_id":"92220","group":"Group1","condition":"1_Rep","full_date":"2026-02-04T16:41:55.530Z","date":"2026-02-04","time":"16:41:55"},{"task":"memory_phase","broad_category":"M","image_png":"M_Gneiss_13.png","image_id":205,"category_name":"Gneiss","category":13,"distinct_rating":3.26,"distinct_type":"Bottom","rt":null,"stimulus":"Stimuli_Rocks480/M_Gneiss_13.png","response":null,"trial_type":"image-keyboard-response","trial_index":46,"plugin_version":"2.1.0","time_elapsed":92367,"subject_id":"92220","group":"Group1","condition":"1_Rep","full_date":"2026-02-04T16:41:55.530Z","date":"2026-02-04","time":"16:41:55"},{"rt":null,"stimulus":"<p style=\"font-size: 50px; margin: 0; text-align: center;\">+</p>","response":null,"trial_type":"html-keyboard-response","trial_index":47,"plugin_version":"2.1.0","time_elapsed":93369,"subject_id":"92220","group":"Group1","condition":"1_Rep","full_date":"2026-02-04T16:41:55.530Z","date":"2026-02-04","time":"16:41:55"},{"task":"memory_phase","broad_category":"I","image_png":"I_Pegmatite_16.png","image_id":112,"category_name":"Pegmatite","category":7,"distinct_rating":7.03,"distinct_type":"Top","rt":null,"stimulus":"Stimuli_Rocks480/I_Pegmatite_16.png","response":null,"trial_type":"image-keyboard-response","trial_index":48,"plugin_version":"2.1.0","time_elapsed":95872,"subject_id":"92220","group":"Group1","condition":"1_Rep","full_date":"2026-02-04T16:41:55.530Z","date":"2026-02-04","time":"16:41:55"},{"rt":null,"stimulus":"<p style=\"font-size: 50px; margin: 0; text-align: center;\">+</p>","response":null,"trial_type":"html-keyboard-response","trial_index":49,"plugin_version":"2.1.0","time_elapsed":96874,"subject_id":"92220","group":"Group1","condition":"1_Rep","full_date":"2026-02-04T16:41:55.530Z","date":"2026-02-04","time":"16:41:55"},{"task":"memory_phase","broad_category":"M","image_png":"M_Quartzite_13.png","image_id":285,"category_name":"Quartzite","category":18,"distinct_rating":2.27,"distinct_type":"Bottom","rt":null,"stimulus":"Stimuli_Rocks480/M_Quartzite_13.png","response":null,"trial_type":"image-keyboard-response","trial_index":50,"plugin_version":"2.1.0","time_elapsed":99377,"subject_id":"92220","group":"Group1","condition":"1_Rep","full_date":"2026-02-04T16:41:55.530Z","date":"2026-02-04","time":"16:41:55"},{"rt":null,"stimulus":"<p style=\"font-size: 50px; margin: 0; text-align: center;\">+</p>","response":null,"trial_type":"html-keyboard-response","trial_index":51,"plugin_version":"2.1.0","time_elapsed":100380,"subject_id":"92220","group":"Group1","condition":"1_Rep","full_date":"2026-02-04T16:41:55.530Z","date":"2026-02-04","time":"16:41:55"},{"task":"memory_phase","broad_category":"S","image_png":"S_Breccia_11.png","image_id":347,"category_name":"Breccia","category":22,"distinct_rating":6.7,"distinct_type":"Top","rt":null,"stimulus":"Stimuli_Rocks480/S_Breccia_11.png","response":null,"trial_type":"image-keyboard-response","trial_index":52,"plugin_version":"2.1.0","time_elapsed":102883,"subject_id":"92220","group":"Group1","condition":"1_Rep","full_date":"2026-02-04T16:41:55.530Z","date":"2026-02-04","time":"16:41:55"},{"rt":null,"stimulus":"<p style=\"font-size: 50px; margin: 0; text-align: center;\">+</p>","response":null,"trial_type":"html-keyboard-response","trial_index":53,"plugin_version":"2.1.0","time_elapsed":103886,"subject_id":"92220","group":"Group1","condition":"1_Rep","full_date":"2026-02-04T16:41:55.530Z","date":"2026-02-04","time":"16:41:55"},{"task":"memory_phase","broad_category":"S","image_png":"S_Sandstone_03.png","image_id":451,"category_name":"Sandstone","category":29,"distinct_rating":1.86,"distinct_type":"Bottom","rt":null,"stimulus":"Stimuli_Rocks480/S_Sandstone_03.png","response":null,"trial_type":"image-keyboard-response","trial_index":54,"plugin_version":"2.1.0","time_elapsed":106389,"subject_id":"92220","group":"Group1","condition":"1_Rep","full_date":"2026-02-04T16:41:55.530Z","date":"2026-02-04","time":"16:41:55"},{"rt":1237,"stimulus":"<p style=\"max-width: 760px; margin: auto; font-size: 35px; line-height: 1.5;\">\n                Press SPACE to continue study phase\n              </p>","response":" ","trial_type":"html-keyboard-response","trial_index":55,"plugin_version":"2.1.0","time_elapsed":107628,"subject_id":"92220","group":"Group1","condition":"1_Rep","full_date":"2026-02-04T16:41:55.530Z","date":"2026-02-04","time":"16:41:55"},{"rt":null,"stimulus":"<p style=\"font-size: 50px; margin: 0; text-align: center;\">+</p>","response":null,"trial_type":"html-keyboard-response","trial_index":56,"plugin_version":"2.1.0","time_elapsed":108631,"subject_id":"92220","group":"Group1","condition":"1_Rep","full_date":"2026-02-04T16:41:55.530Z","date":"2026-02-04","time":"16:41:55"},{"task":"memory_phase","broad_category":"I","image_png":"I_Diorite_03.png","image_id":35,"category_name":"Diorite","category":3,"distinct_rating":3.14,"distinct_type":"Bottom","rt":null,"stimulus":"Stimuli_Rocks480/I_Diorite_03.png","response":null,"trial_type":"image-keyboard-response","trial_index":57,"plugin_version":"2.1.0","time_elapsed":111134,"subject_id":"92220","group":"Group1","condition":"1_Rep","full_date":"2026-02-04T16:41:55.530Z","date":"2026-02-04","time":"16:41:55"},{"rt":null,"stimulus":"<p style=\"font-size: 50px; margin: 0; text-align: center;\">+</p>","response":null,"trial_type":"html-keyboard-response","trial_index":58,"plugin_version":"2.1.0","time_elapsed":112136,"subject_id":"92220","group":"Group1","condition":"1_Rep","full_date":"2026-02-04T16:41:55.530Z","date":"2026-02-04","time":"16:41:55"},{"task":"memory_phase","broad_category":"I","image_png":"I_Diorite_04.png","image_id":36,"category_name":"Diorite","category":3,"distinct_rating":2.98,"distinct_type":"Bottom","rt":null,"stimulus":"Stimuli_Rocks480/I_Diorite_04.png","response":null,"trial_type":"image-keyboard-response","trial_index":59,"plugin_version":"2.1.0","time_elapsed":114639,"subject_id":"92220","group":"Group1","condition":"1_Rep","full_date":"2026-02-04T16:41:55.530Z","date":"2026-02-04","time":"16:41:55"},{"rt":null,"stimulus":"<p style=\"font-size: 50px; margin: 0; text-align: center;\">+</p>","response":null,"trial_type":"html-keyboard-response","trial_index":60,"plugin_version":"2.1.0","time_elapsed":115642,"subject_id":"92220","group":"Group1","condition":"1_Rep","full_date":"2026-02-04T16:41:55.530Z","date":"2026-02-04","time":"16:41:55"},{"task":"memory_phase","broad_category":"I","image_png":"I_Gabbro_11.png","image_id":59,"category_name":"Gabbro","category":4,"distinct_rating":1.99,"distinct_type":"Bottom","rt":null,"stimulus":"Stimuli_Rocks480/I_Gabbro_11.png","response":null,"trial_type":"image-keyboard-response","trial_index":61,"plugin_version":"2.1.0","time_elapsed":118145,"subject_id":"92220","group":"Group1","condition":"1_Rep","full_date":"2026-02-04T16:41:55.530Z","date":"2026-02-04","time":"16:41:55"},{"rt":null,"stimulus":"<p style=\"font-size: 50px; margin: 0; text-align: center;\">+</p>","response":null,"trial_type":"html-keyboard-response","trial_index":62,"plugin_version":"2.1.0","time_elapsed":119147,"subject_id":"92220","group":"Group1","condition":"1_Rep","full_date":"2026-02-04T16:41:55.530Z","date":"2026-02-04","time":"16:41:55"},{"task":"memory_phase","broad_category":"M","image_png":"M_Slate_15.png","image_id":319,"category_name":"Slate","category":20,"distinct_rating":2.13,"distinct_type":"Bottom","rt":null,"stimulus":"Stimuli_Rocks480/M_Slate_15.png","response":null,"trial_type":"image-keyboard-response","trial_index":63,"plugin_version":"2.1.0","time_elapsed":121651,"subject_id":"92220","group":"Group1","condition":"1_Rep","full_date":"2026-02-04T16:41:55.530Z","date":"2026-02-04","time":"16:41:55"},{"rt":null,"stimulus":"<p style=\"font-size: 50px; margin: 0; text-align: center;\">+</p>","response":null,"trial_type":"html-keyboard-response","trial_index":64,"plugin_version":"2.1.0","time_elapsed":122653,"subject_id":"92220","group":"Group1","condition":"1_Rep","full_date":"2026-02-04T16:41:55.530Z","date":"2026-02-04","time":"16:41:55"},{"task":"memory_phase","broad_category":"I","image_png":"I_Andesite_06.png","image_id":6,"category_name":"Andesite","category":1,"distinct_rating":3.17,"distinct_type":"Bottom","rt":null,"stimulus":"Stimuli_Rocks480/I_Andesite_06.png","response":null,"trial_type":"image-keyboard-response","trial_index":65,"plugin_version":"2.1.0","time_elapsed":125156,"subject_id":"92220","group":"Group1","condition":"1_Rep","full_date":"2026-02-04T16:41:55.530Z","date":"2026-02-04","time":"16:41:55"},{"rt":null,"stimulus":"<p style=\"font-size: 50px; margin: 0; text-align: center;\">+</p>","response":null,"trial_type":"html-keyboard-response","trial_index":66,"plugin_version":"2.1.0","time_elapsed":126159,"subject_id":"92220","group":"Group1","condition":"1_Rep","full_date":"2026-02-04T16:41:55.530Z","date":"2026-02-04","time":"16:41:55"},{"task":"memory_phase","broad_category":"I","image_png":"I_Obsidian_05.png","image_id":85,"category_name":"Obsidian","category":6,"distinct_rating":7.32,"distinct_type":"Top","rt":null,"stimulus":"Stimuli_Rocks480/I_Obsidian_05.png","response":null,"trial_type":"image-keyboard-response","trial_index":67,"plugin_version":"2.1.0","time_elapsed":128663,"subject_id":"92220","group":"Group1","condition":"1_Rep","full_date":"2026-02-04T16:41:55.530Z","date":"2026-02-04","time":"16:41:55"},{"rt":null,"stimulus":"<p style=\"font-size: 50px; margin: 0; text-align: center;\">+</p>","response":null,"trial_type":"html-keyboard-response","trial_index":68,"plugin_version":"2.1.0","time_elapsed":129666,"subject_id":"92220","group":"Group1","condition":"1_Rep","full_date":"2026-02-04T16:41:55.530Z","date":"2026-02-04","time":"16:41:55"},{"task":"memory_phase","broad_category":"S","image_png":"S_Shale_01.png","image_id":465,"category_name":"Shale","category":30,"distinct_rating":2.7,"distinct_type":"Bottom","rt":null,"stimulus":"Stimuli_Rocks480/S_Shale_01.png","response":null,"trial_type":"image-keyboard-response","trial_index":69,"plugin_version":"2.1.0","time_elapsed":132169,"subject_id":"92220","group":"Group1","condition":"1_Rep","full_date":"2026-02-04T16:41:55.530Z","date":"2026-02-04","time":"16:41:55"},{"rt":null,"stimulus":"<p style=\"font-size: 50px; margin: 0; text-align: center;\">+</p>","response":null,"trial_type":"html-keyboard-response","trial_index":70,"plugin_version":"2.1.0","time_elapsed":133172,"subject_id":"92220","group":"Group1","condition":"1_Rep","full_date":"2026-02-04T16:41:55.530Z","date":"2026-02-04","time":"16:41:55"},{"task":"memory_phase","broad_category":"I","image_png":"I_Pumice_11.png","image_id":139,"category_name":"Pumice","category":9,"distinct_rating":1.74,"distinct_type":"Bottom","rt":null,"stimulus":"Stimuli_Rocks480/I_Pumice_11.png","response":null,"trial_type":"image-keyboard-response","trial_index":71,"plugin_version":"2.1.0","time_elapsed":135675,"subject_id":"92220","group":"Group1","condition":"1_Rep","full_date":"2026-02-04T16:41:55.530Z","date":"2026-02-04","time":"16:41:55"},{"rt":null,"stimulus":"<p style=\"font-size: 50px; margin: 0; text-align: center;\">+</p>","response":null,"trial_type":"html-keyboard-response","trial_index":72,"plugin_version":"2.1.0","time_elapsed":136678,"subject_id":"92220","group":"Group1","condition":"1_Rep","full_date":"2026-02-04T16:41:55.530Z","date":"2026-02-04","time":"16:41:55"},{"task":"memory_phase","broad_category":"M","image_png":"M_Quartzite_05.png","image_id":277,"category_name":"Quartzite","category":18,"distinct_rating":2.23,"distinct_type":"Bottom","rt":null,"stimulus":"Stimuli_Rocks480/M_Quartzite_05.png","response":null,"trial_type":"image-keyboard-response","trial_index":73,"plugin_version":"2.1.0","time_elapsed":139181,"subject_id":"92220","group":"Group1","condition":"1_Rep","full_date":"2026-02-04T16:41:55.530Z","date":"2026-02-04","time":"16:41:55"},{"rt":null,"stimulus":"<p style=\"font-size: 50px; margin: 0; text-align: center;\">+</p>","response":null,"trial_type":"html-keyboard-response","trial_index":74,"plugin_version":"2.1.0","time_elapsed":140183,"subject_id":"92220","group":"Group1","condition":"1_Rep","full_date":"2026-02-04T16:41:55.530Z","date":"2026-02-04","time":"16:41:55"},{"task":"memory_phase","broad_category":"M","image_png":"M_Phyllite_03.png","image_id":259,"category_name":"Phyllite","category":17,"distinct_rating":2.5,"distinct_type":"Bottom","rt":null,"stimulus":"Stimuli_Rocks480/M_Phyllite_03.png","response":null,"trial_type":"image-keyboard-response","trial_index":75,"plugin_version":"2.1.0","time_elapsed":142687,"subject_id":"92220","group":"Group1","condition":"1_Rep","full_date":"2026-02-04T16:41:55.530Z","date":"2026-02-04","time":"16:41:55"},{"rt":null,"stimulus":"<p style=\"font-size: 50px; margin: 0; text-align: center;\">+</p>","response":null,"trial_type":"html-keyboard-response","trial_index":76,"plugin_version":"2.1.0","time_elapsed":143689,"subject_id":"92220","group":"Group1","condition":"1_Rep","full_date":"2026-02-04T16:41:55.530Z","date":"2026-02-04","time":"16:41:55"},{"task":"memory_phase","broad_category":"M","image_png":"M_Quartzite_08.png","image_id":280,"category_name":"Quartzite","category":18,"distinct_rating":2.15,"distinct_type":"Bottom","rt":null,"stimulus":"Stimuli_Rocks480/M_Quartzite_08.png","response":null,"trial_type":"image-keyboard-response","trial_index":77,"plugin_version":"2.1.0","time_elapsed":146193,"subject_id":"92220","group":"Group1","condition":"1_Rep","full_date":"2026-02-04T16:41:55.530Z","date":"2026-02-04","time":"16:41:55"},{"rt":null,"stimulus":"<p style=\"font-size: 50px; margin: 0; text-align: center;\">+</p>","response":null,"trial_type":"html-keyboard-response","trial_index":78,"plugin_version":"2.1.0","time_elapsed":147196,"subject_id":"92220","group":"Group1","condition":"1_Rep","full_date":"2026-02-04T16:41:55.530Z","date":"2026-02-04","time":"16:41:55"},{"task":"memory_phase","broad_category":"S","image_png":"S_Shale_08.png","image_id":472,"category_name":"Shale","category":30,"distinct_rating":2.55,"distinct_type":"Bottom","rt":null,"stimulus":"Stimuli_Rocks480/S_Shale_08.png","response":null,"trial_type":"image-keyboard-response","trial_index":79,"plugin_version":"2.1.0","time_elapsed":149699,"subject_id":"92220","group":"Group1","condition":"1_Rep","full_date":"2026-02-04T16:41:55.530Z","date":"2026-02-04","time":"16:41:55"},{"rt":null,"stimulus":"<p style=\"font-size: 50px; margin: 0; text-align: center;\">+</p>","response":null,"trial_type":"html-keyboard-response","trial_index":80,"plugin_version":"2.1.0","time_elapsed":150701,"subject_id":"92220","group":"Group1","condition":"1_Rep","full_date":"2026-02-04T16:41:55.530Z","date":"2026-02-04","time":"16:41:55"},{"task":"memory_phase","broad_category":"S","image_png":"S_Dolomite_14.png","image_id":398,"category_name":"Dolomite","category":25,"distinct_rating":1.43,"distinct_type":"Bottom","rt":null,"stimulus":"Stimuli_Rocks480/S_Dolomite_14.png","response":null,"trial_type":"image-keyboard-response","trial_index":81,"plugin_version":"2.1.0","time_elapsed":153204,"subject_id":"92220","group":"Group1","condition":"1_Rep","full_date":"2026-02-04T16:41:55.530Z","date":"2026-02-04","time":"16:41:55"},{"rt":null,"stimulus":"<p style=\"font-size: 50px; margin: 0; text-align: center;\">+</p>","response":null,"trial_type":"html-keyboard-response","trial_index":82,"plugin_version":"2.1.0","time_elapsed":154207,"subject_id":"92220","group":"Group1","condition":"1_Rep","full_date":"2026-02-04T16:41:55.530Z","date":"2026-02-04","time":"16:41:55"},{"task":"memory_phase","broad_category":"S","image_png":"S_Shale_12.png","image_id":476,"category_name":"Shale","category":30,"distinct_rating":2.48,"distinct_type":"Bottom","rt":null,"stimulus":"Stimuli_Rocks480/S_Shale_12.png","response":null,"trial_type":"image-keyboard-response","trial_index":83,"plugin_version":"2.1.0","time_elapsed":156710,"subject_id":"92220","group":"Group1","condition":"1_Rep","full_date":"2026-02-04T16:41:55.530Z","date":"2026-02-04","time":"16:41:55"},{"rt":null,"stimulus":"<p style=\"font-size: 50px; margin: 0; text-align: center;\">+</p>","response":null,"trial_type":"html-keyboard-response","trial_index":84,"plugin_version":"2.1.0","time_elapsed":157712,"subject_id":"92220","group":"Group1","condition":"1_Rep","full_date":"2026-02-04T16:41:55.530Z","date":"2026-02-04","time":"16:41:55"},{"task":"memory_phase","broad_category":"M","image_png":"M_Marble_06.png","image_id":230,"category_name":"Marble","category":15,"distinct_rating":3.4,"distinct_type":"Bottom","rt":null,"stimulus":"Stimuli_Rocks480/M_Marble_06.png","response":null,"trial_type":"image-keyboard-response","trial_index":85,"plugin_version":"2.1.0","time_elapsed":160215,"subject_id":"92220","group":"Group1","condition":"1_Rep","full_date":"2026-02-04T16:41:55.530Z","date":"2026-02-04","time":"16:41:55"},{"rt":null,"stimulus":"<p style=\"font-size: 50px; margin: 0; text-align: center;\">+</p>","response":null,"trial_type":"html-keyboard-response","trial_index":86,"plugin_version":"2.1.0","time_elapsed":161218,"subject_id":"92220","group":"Group1","condition":"1_Rep","full_date":"2026-02-04T16:41:55.530Z","date":"2026-02-04","time":"16:41:55"},{"task":"memory_phase","broad_category":"S","image_png":"S_Sandstone_16.png","image_id":464,"category_name":"Sandstone","category":29,"distinct_rating":1.93,"distinct_type":"Bottom","rt":null,"stimulus":"Stimuli_Rocks480/S_Sandstone_16.png","response":null,"trial_type":"image-keyboard-response","trial_index":87,"plugin_version":"2.1.0","time_elapsed":163721,"subject_id":"92220","group":"Group1","condition":"1_Rep","full_date":"2026-02-04T16:41:55.530Z","date":"2026-02-04","time":"16:41:55"},{"rt":null,"stimulus":"<p style=\"font-size: 50px; margin: 0; text-align: center;\">+</p>","response":null,"trial_type":"html-keyboard-response","trial_index":88,"plugin_version":"2.1.0","time_elapsed":164724,"subject_id":"92220","group":"Group1","condition":"1_Rep","full_date":"2026-02-04T16:41:55.530Z","date":"2026-02-04","time":"16:41:55"},{"task":"memory_phase","broad_category":"I","image_png":"I_Andesite_08.png","image_id":8,"category_name":"Andesite","category":1,"distinct_rating":1.95,"distinct_type":"Bottom","rt":null,"stimulus":"Stimuli_Rocks480/I_Andesite_08.png","response":null,"trial_type":"image-keyboard-response","trial_index":89,"plugin_version":"2.1.0","time_elapsed":167228,"subject_id":"92220","group":"Group1","condition":"1_Rep","full_date":"2026-02-04T16:41:55.530Z","date":"2026-02-04","time":"16:41:55"},{"rt":null,"stimulus":"<p style=\"font-size: 50px; margin: 0; text-align: center;\">+</p>","response":null,"trial_type":"html-keyboard-response","trial_index":90,"plugin_version":"2.1.0","time_elapsed":168231,"subject_id":"92220","group":"Group1","condition":"1_Rep","full_date":"2026-02-04T16:41:55.530Z","date":"2026-02-04","time":"16:41:55"},{"task":"memory_phase","broad_category":"M","image_png":"M_Marble_16.png","image_id":240,"category_name":"Marble","category":15,"distinct_rating":2.57,"distinct_type":"Bottom","rt":null,"stimulus":"Stimuli_Rocks480/M_Marble_16.png","response":null,"trial_type":"image-keyboard-response","trial_index":91,"plugin_version":"2.1.0","time_elapsed":170734,"subject_id":"92220","group":"Group1","condition":"1_Rep","full_date":"2026-02-04T16:41:55.530Z","date":"2026-02-04","time":"16:41:55"},{"rt":null,"stimulus":"<p style=\"font-size: 50px; margin: 0; text-align: center;\">+</p>","response":null,"trial_type":"html-keyboard-response","trial_index":92,"plugin_version":"2.1.0","time_elapsed":171737,"subject_id":"92220","group":"Group1","condition":"1_Rep","full_date":"2026-02-04T16:41:55.530Z","date":"2026-02-04","time":"16:41:55"},{"task":"memory_phase","broad_category":"M","image_png":"M_Gneiss_05.png","image_id":197,"category_name":"Gneiss","category":13,"distinct_rating":2.97,"distinct_type":"Bottom","rt":null,"stimulus":"Stimuli_Rocks480/M_Gneiss_05.png","response":null,"trial_type":"image-keyboard-response","trial_index":93,"plugin_version":"2.1.0","time_elapsed":174241,"subject_id":"92220","group":"Group1","condition":"1_Rep","full_date":"2026-02-04T16:41:55.530Z","date":"2026-02-04","time":"16:41:55"},{"rt":null,"stimulus":"<p style=\"font-size: 50px; margin: 0; text-align: center;\">+</p>","response":null,"trial_type":"html-keyboard-response","trial_index":94,"plugin_version":"2.1.0","time_elapsed":175243,"subject_id":"92220","group":"Group1","condition":"1_Rep","full_date":"2026-02-04T16:41:55.530Z","date":"2026-02-04","time":"16:41:55"},{"task":"memory_phase","broad_category":"M","image_png":"M_Gneiss_06.png","image_id":198,"category_name":"Gneiss","category":13,"distinct_rating":2.65,"distinct_type":"Bottom","rt":null,"stimulus":"Stimuli_Rocks480/M_Gneiss_06.png","response":null,"trial_type":"image-keyboard-response","trial_index":95,"plugin_version":"2.1.0","time_elapsed":177747,"subject_id":"92220","group":"Group1","condition":"1_Rep","full_date":"2026-02-04T16:41:55.530Z","date":"2026-02-04","time":"16:41:55"},{"rt":null,"stimulus":"<p style=\"font-size: 50px; margin: 0; text-align: center;\">+</p>","response":null,"trial_type":"html-keyboard-response","trial_index":96,"plugin_version":"2.1.0","time_elapsed":178750,"subject_id":"92220","group":"Group1","condition":"1_Rep","full_date":"2026-02-04T16:41:55.530Z","date":"2026-02-04","time":"16:41:55"},{"task":"memory_phase","broad_category":"I","image_png":"I_Gabbro_16.png","image_id":64,"category_name":"Gabbro","category":4,"distinct_rating":2.52,"distinct_type":"Bottom","rt":null,"stimulus":"Stimuli_Rocks480/I_Gabbro_16.png","response":null,"trial_type":"image-keyboard-response","trial_index":97,"plugin_version":"2.1.0","time_elapsed":181253,"subject_id":"92220","group":"Group1","condition":"1_Rep","full_date":"2026-02-04T16:41:55.530Z","date":"2026-02-04","time":"16:41:55"},{"rt":null,"stimulus":"<p style=\"font-size: 50px; margin: 0; text-align: center;\">+</p>","response":null,"trial_type":"html-keyboard-response","trial_index":98,"plugin_version":"2.1.0","time_elapsed":182255,"subject_id":"92220","group":"Group1","condition":"1_Rep","full_date":"2026-02-04T16:41:55.530Z","date":"2026-02-04","time":"16:41:55"},{"task":"memory_phase","broad_category":"I","image_png":"I_Diorite_05.png","image_id":37,"category_name":"Diorite","category":3,"distinct_rating":3.08,"distinct_type":"Bottom","rt":null,"stimulus":"Stimuli_Rocks480/I_Diorite_05.png","response":null,"trial_type":"image-keyboard-response","trial_index":99,"plugin_version":"2.1.0","time_elapsed":184759,"subject_id":"92220","group":"Group1","condition":"1_Rep","full_date":"2026-02-04T16:41:55.530Z","date":"2026-02-04","time":"16:41:55"},{"rt":null,"stimulus":"<p style=\"font-size: 50px; margin: 0; text-align: center;\">+</p>","response":null,"trial_type":"html-keyboard-response","trial_index":100,"plugin_version":"2.1.0","time_elapsed":185760,"subject_id":"92220","group":"Group1","condition":"1_Rep","full_date":"2026-02-04T16:41:55.530Z","date":"2026-02-04","time":"16:41:55"},{"task":"memory_phase","broad_category":"I","image_png":"I_Gabbro_08.png","image_id":56,"category_name":"Gabbro","category":4,"distinct_rating":3.02,"distinct_type":"Bottom","rt":null,"stimulus":"Stimuli_Rocks480/I_Gabbro_08.png","response":null,"trial_type":"image-keyboard-response","trial_index":101,"plugin_version":"2.1.0","time_elapsed":188264,"subject_id":"92220","group":"Group1","condition":"1_Rep","full_date":"2026-02-04T16:41:55.530Z","date":"2026-02-04","time":"16:41:55"},{"rt":null,"stimulus":"<p style=\"font-size: 50px; margin: 0; text-align: center;\">+</p>","response":null,"trial_type":"html-keyboard-response","trial_index":102,"plugin_version":"2.1.0","time_elapsed":189266,"subject_id":"92220","group":"Group1","condition":"1_Rep","full_date":"2026-02-04T16:41:55.530Z","date":"2026-02-04","time":"16:41:55"},{"task":"memory_phase","broad_category":"S","image_png":"S_Rock Gypsum_04.png","image_id":420,"category_name":"Rock Gypsum","category":27,"distinct_rating":7.61,"distinct_type":"Top","rt":null,"stimulus":"Stimuli_Rocks480/S_Rock Gypsum_04.png","response":null,"trial_type":"image-keyboard-response","trial_index":103,"plugin_version":"2.1.0","time_elapsed":191769,"subject_id":"92220","group":"Group1","condition":"1_Rep","full_date":"2026-02-04T16:41:55.530Z","date":"2026-02-04","time":"16:41:55"},{"rt":null,"stimulus":"<p style=\"font-size: 50px; margin: 0; text-align: center;\">+</p>","response":null,"trial_type":"html-keyboard-response","trial_index":104,"plugin_version":"2.1.0","time_elapsed":192772,"subject_id":"92220","group":"Group1","condition":"1_Rep","full_date":"2026-02-04T16:41:55.530Z","date":"2026-02-04","time":"16:41:55"},{"task":"memory_phase","broad_category":"M","image_png":"M_Marble_04.png","image_id":228,"category_name":"Marble","category":15,"distinct_rating":3.15,"distinct_type":"Bottom","rt":null,"stimulus":"Stimuli_Rocks480/M_Marble_04.png","response":null,"trial_type":"image-keyboard-response","trial_index":105,"plugin_version":"2.1.0","time_elapsed":195276,"subject_id":"92220","group":"Group1","condition":"1_Rep","full_date":"2026-02-04T16:41:55.530Z","date":"2026-02-04","time":"16:41:55"},{"rt":7171,"stimulus":"<div style=\"max-width: 760px; margin: auto; font-size: 20px; line-height: 1.5;\">\n      <h1 style=\"text-align:center; font-size: 30px;\">Instructions for the Test Phase</h1>\n      <p>\n        The study phase is now complete.\n      </p>\n      <p>\n        In the test phase, you will again see a series of rock images. \n        Some will be ones you saw before - during the study phase, while others will be new.  \n        <b>Your task</b> is to decide whether you have seen each image before by pressing the corresponding key on your keyboard:<br><br>\n          <b>A</b> - NO (you did not see this image before)<br>\n          <b>L</b> - YES (you saw this image before)<br><br>\n        The test will proceed at your own pace. You will receive feedback after each response.  \n        Please try to respond <b>as accurately as possible</b>.\n      </p>\n      <p>\n        <b>Reminder:</b> If your computer has multiple language settings (e.g., English and another language),\n        please ensure it is set to English during the test phase.\n      </p>\n      <p>\n        You can track your progress using the <b>completion bar</b> at the top of the screen.  \n        Note that it has been refreshed to reflect your progress during this final phase.\n      </p>\n      <p>\n        Press the button below when you are ready to continue.\n      </p>\n    </div>","response":0,"trial_type":"html-button-response","trial_index":106,"plugin_version":"2.1.0","time_elapsed":202450,"subject_id":"92220","group":"Group1","condition":"1_Rep","full_date":"2026-02-04T16:41:55.530Z","date":"2026-02-04","time":"16:41:55"},{"correct_response":"a","task":"test_phase","broad_category":"M","image_png":"M_Phyllite_05.png","image_id":261,"category_name":"Phyllite","category":17,"distinct_rating":2.14,"distinct_type":"Bottom","item_type":"Foil","rt":2942,"stimulus":"Stimuli_Rocks480/M_Phyllite_05.png","response":"l","trial_type":"image-keyboard-response","trial_index":107,"plugin_version":"2.1.0","time_elapsed":205394,"subject_id":"92220","group":"Group1","condition":"1_Rep","full_date":"2026-02-04T16:41:55.530Z","date":"2026-02-04","time":"16:41:55","cor_ans":false},{"trial_type":"html-keyboard-response","rt":null,"stimulus":"<p style=\"color: red; font-size: 50px; font-weight: bold;\">Incorrect</p>","response":null,"trial_index":108,"plugin_version":"2.1.0","time_elapsed":205896,"subject_id":"92220","group":"Group1","condition":"1_Rep","full_date":"2026-02-04T16:41:55.530Z","date":"2026-02-04","time":"16:41:55"},{"correct_response":"l","task":"test_phase","broad_category":"M","image_png":"M_Phyllite_03.png","image_id":259,"category_name":"Phyllite","category":17,"distinct_rating":2.5,"distinct_type":"Bottom","item_type":"Target","rt":5664,"stimulus":"Stimuli_Rocks480/M_Phyllite_03.png","response":"l","trial_type":"image-keyboard-response","trial_index":109,"plugin_version":"2.1.0","time_elapsed":211562,"subject_id":"92220","group":"Group1","condition":"1_Rep","full_date":"2026-02-04T16:41:55.530Z","date":"2026-02-04","time":"16:41:55","cor_ans":true},{"trial_type":"html-keyboard-response","rt":null,"stimulus":"<p style=\"color: green; font-size: 50px; font-weight: bold;\">Correct</p>","response":null,"trial_index":110,"plugin_version":"2.1.0","time_elapsed":212063,"subject_id":"92220","group":"Group1","condition":"1_Rep","full_date":"2026-02-04T16:41:55.530Z","date":"2026-02-04","time":"16:41:55"},{"correct_response":"a","task":"test_phase","broad_category":"I","image_png":"I_Andesite_03.png","image_id":3,"category_name":"Andesite","category":1,"distinct_rating":3.17,"distinct_type":"Bottom","item_type":"Foil","rt":1622,"stimulus":"Stimuli_Rocks480/I_Andesite_03.png","response":"a","trial_type":"image-keyboard-response","trial_index":111,"plugin_version":"2.1.0","time_elapsed":213688,"subject_id":"92220","group":"Group1","condition":"1_Rep","full_date":"2026-02-04T16:41:55.530Z","date":"2026-02-04","time":"16:41:55","cor_ans":true},{"trial_type":"html-keyboard-response","rt":null,"stimulus":"<p style=\"color: green; font-size: 50px; font-weight: bold;\">Correct</p>","response":null,"trial_index":112,"plugin_version":"2.1.0","time_elapsed":214189,"subject_id":"92220","group":"Group1","condition":"1_Rep","full_date":"2026-02-04T16:41:55.530Z","date":"2026-02-04","time":"16:41:55"},{"correct_response":"a","task":"test_phase","broad_category":"M","image_png":"M_Marble_14.png","image_id":238,"category_name":"Marble","category":15,"distinct_rating":3.31,"distinct_type":"Bottom","item_type":"Foil","rt":980,"stimulus":"Stimuli_Rocks480/M_Marble_14.png","response":"l","trial_type":"image-keyboard-response","trial_index":113,"plugin_version":"2.1.0","time_elapsed":215171,"subject_id":"92220","group":"Group1","condition":"1_Rep","full_date":"2026-02-04T16:41:55.530Z","date":"2026-02-04","time":"16:41:55","cor_ans":false},{"trial_type":"html-keyboard-response","rt":null,"stimulus":"<p style=\"color: red; font-size: 50px; font-weight: bold;\">Incorrect</p>","response":null,"trial_index":114,"plugin_version":"2.1.0","time_elapsed":215672,"subject_id":"92220","group":"Group1","condition":"1_Rep","full_date":"2026-02-04T16:41:55.530Z","date":"2026-02-04","time":"16:41:55"},{"correct_response":"l","task":"test_phase","broad_category":"M","image_png":"M_Gneiss_06.png","image_id":198,"category_name":"Gneiss","category":13,"distinct_rating":2.65,"distinct_type":"Bottom","item_type":"Target","rt":1585,"stimulus":"Stimuli_Rocks480/M_Gneiss_06.png","response":"l","trial_type":"image-keyboard-response","trial_index":115,"plugin_version":"2.1.0","time_elapsed":217259,"subject_id":"92220","group":"Group1","condition":"1_Rep","full_date":"2026-02-04T16:41:55.530Z","date":"2026-02-04","time":"16:41:55","cor_ans":true},{"trial_type":"html-keyboard-response","rt":null,"stimulus":"<p style=\"color: green; font-size: 50px; font-weight: bold;\">Correct</p>","response":null,"trial_index":116,"plugin_version":"2.1.0","time_elapsed":217761,"subject_id":"92220","group":"Group1","condition":"1_Rep","full_date":"2026-02-04T16:41:55.530Z","date":"2026-02-04","time":"16:41:55"},{"correct_response":"a","task":"test_phase","broad_category":"S","image_png":"S_Sandstone_04.png","image_id":452,"category_name":"Sandstone","category":29,"distinct_rating":1.8,"distinct_type":"Bottom","item_type":"Foil","rt":1307,"stimulus":"Stimuli_Rocks480/S_Sandstone_04.png","response":"a","trial_type":"image-keyboard-response","trial_index":117,"plugin_version":"2.1.0","time_elapsed":219070,"subject_id":"92220","group":"Group1","condition":"1_Rep","full_date":"2026-02-04T16:41:55.530Z","date":"2026-02-04","time":"16:41:55","cor_ans":true},{"trial_type":"html-keyboard-response","rt":null,"stimulus":"<p style=\"color: green; font-size: 50px; font-weight: bold;\">Correct</p>","response":null,"trial_index":118,"plugin_version":"2.1.0","time_elapsed":219572,"subject_id":"92220","group":"Group1","condition":"1_Rep","full_date":"2026-02-04T16:41:55.530Z","date":"2026-02-04","time":"16:41:55"},{"correct_response":"l","task":"test_phase","broad_category":"I","image_png":"I_Pumice_12.png","image_id":140,"category_name":"Pumice","category":9,"distinct_rating":2.97,"distinct_type":"Bottom","item_type":"Target","rt":3370,"stimulus":"Stimuli_Rocks480/I_Pumice_12.png","response":"a","trial_type":"image-keyboard-response","trial_index":119,"plugin_version":"2.1.0","time_elapsed":222944,"subject_id":"92220","group":"Group1","condition":"1_Rep","full_date":"2026-02-04T16:41:55.530Z","date":"2026-02-04","time":"16:41:55","cor_ans":false},{"trial_type":"html-keyboard-response","rt":null,"stimulus":"<p style=\"color: red; font-size: 50px; font-weight: bold;\">Incorrect</p>","response":null,"trial_index":120,"plugin_version":"2.1.0","time_elapsed":223446,"subject_id":"92220","group":"Group1","condition":"1_Rep","full_date":"2026-02-04T16:41:55.530Z","date":"2026-02-04","time":"16:41:55"},{"correct_response":"l","task":"test_phase","broad_category":"M","image_png":"M_Phyllite_07.png","image_id":263,"category_name":"Phyllite","category":17,"distinct_rating":2.59,"distinct_type":"Bottom","item_type":"Target","rt":2513,"stimulus":"Stimuli_Rocks480/M_Phyllite_07.png","response":"l","trial_type":"image-keyboard-response","trial_index":121,"plugin_version":"2.1.0","time_elapsed":225960,"subject_id":"92220","group":"Group1","condition":"1_Rep","full_date":"2026-02-04T16:41:55.530Z","date":"2026-02-04","time":"16:41:55","cor_ans":true},{"trial_type":"html-keyboard-response","rt":null,"stimulus":"<p style=\"color: green; font-size: 50px; font-weight: bold;\">Correct</p>","response":null,"trial_index":122,"plugin_version":"2.1.0","time_elapsed":226462,"subject_id":"92220","group":"Group1","condition":"1_Rep","full_date":"2026-02-04T16:41:55.530Z","date":"2026-02-04","time":"16:41:55"},{"correct_response":"a","task":"test_phase","broad_category":"M","image_png":"M_Gneiss_10.png","image_id":202,"category_name":"Gneiss","category":13,"distinct_rating":3.09,"distinct_type":"Bottom","item_type":"Foil","rt":2761,"stimulus":"Stimuli_Rocks480/M_Gneiss_10.png","response":"a","trial_type":"image-keyboard-response","trial_index":123,"plugin_version":"2.1.0","time_elapsed":229225,"subject_id":"92220","group":"Group1","condition":"1_Rep","full_date":"2026-02-04T16:41:55.530Z","date":"2026-02-04","time":"16:41:55","cor_ans":true},{"trial_type":"html-keyboard-response","rt":null,"stimulus":"<p style=\"color: green; font-size: 50px; font-weight: bold;\">Correct</p>","response":null,"trial_index":124,"plugin_version":"2.1.0","time_elapsed":229726,"subject_id":"92220","group":"Group1","condition":"1_Rep","full_date":"2026-02-04T16:41:55.530Z","date":"2026-02-04","time":"16:41:55"},{"correct_response":"l","task":"test_phase","broad_category":"M","image_png":"M_Gneiss_05.png","image_id":197,"category_name":"Gneiss","category":13,"distinct_rating":2.97,"distinct_type":"Bottom","item_type":"Target","rt":1346,"stimulus":"Stimuli_Rocks480/M_Gneiss_05.png","response":"l","trial_type":"image-keyboard-response","trial_index":125,"plugin_version":"2.1.0","time_elapsed":231073,"subject_id":"92220","group":"Group1","condition":"1_Rep","full_date":"2026-02-04T16:41:55.530Z","date":"2026-02-04","time":"16:41:55","cor_ans":true},{"trial_type":"html-keyboard-response","rt":null,"stimulus":"<p style=\"color: green; font-size: 50px; font-weight: bold;\">Correct</p>","response":null,"trial_index":126,"plugin_version":"2.1.0","time_elapsed":231575,"subject_id":"92220","group":"Group1","condition":"1_Rep","full_date":"2026-02-04T16:41:55.530Z","date":"2026-02-04","time":"16:41:55"},{"correct_response":"l","task":"test_phase","broad_category":"S","image_png":"S_Shale_12.png","image_id":476,"category_name":"Shale","category":30,"distinct_rating":2.48,"distinct_type":"Bottom","item_type":"Target","rt":1706,"stimulus":"Stimuli_Rocks480/S_Shale_12.png","response":"a","trial_type":"image-keyboard-response","trial_index":127,"plugin_version":"2.1.0","time_elapsed":233282,"subject_id":"92220","group":"Group1","condition":"1_Rep","full_date":"2026-02-04T16:41:55.530Z","date":"2026-02-04","time":"16:41:55","cor_ans":false},{"trial_type":"html-keyboard-response","rt":null,"stimulus":"<p style=\"color: red; font-size: 50px; font-weight: bold;\">Incorrect</p>","response":null,"trial_index":128,"plugin_version":"2.1.0","time_elapsed":233783,"subject_id":"92220","group":"Group1","condition":"1_Rep","full_date":"2026-02-04T16:41:55.530Z","date":"2026-02-04","time":"16:41:55"},{"correct_response":"l","task":"test_phase","broad_category":"S","image_png":"S_Rock Gypsum_04.png","image_id":420,"category_name":"Rock Gypsum","category":27,"distinct_rating":7.61,"distinct_type":"Top","item_type":"Target","rt":713,"stimulus":"Stimuli_Rocks480/S_Rock Gypsum_04.png","response":"l","trial_type":"image-keyboard-response","trial_index":129,"plugin_version":"2.1.0","time_elapsed":234499,"subject_id":"92220","group":"Group1","condition":"1_Rep","full_date":"2026-02-04T16:41:55.530Z","date":"2026-02-04","time":"16:41:55","cor_ans":true},{"trial_type":"html-keyboard-response","rt":null,"stimulus":"<p style=\"color: green; font-size: 50px; font-weight: bold;\">Correct</p>","response":null,"trial_index":130,"plugin_version":"2.1.0","time_elapsed":235001,"subject_id":"92220","group":"Group1","condition":"1_Rep","full_date":"2026-02-04T16:41:55.530Z","date":"2026-02-04","time":"16:41:55"},{"correct_response":"a","task":"test_phase","broad_category":"I","image_png":"I_Gabbro_14.png","image_id":62,"category_name":"Gabbro","category":4,"distinct_rating":2.95,"distinct_type":"Bottom","item_type":"Foil","rt":1536,"stimulus":"Stimuli_Rocks480/I_Gabbro_14.png","response":"l","trial_type":"image-keyboard-response","trial_index":131,"plugin_version":"2.1.0","time_elapsed":236538,"subject_id":"92220","group":"Group1","condition":"1_Rep","full_date":"2026-02-04T16:41:55.530Z","date":"2026-02-04","time":"16:41:55","cor_ans":false},{"trial_type":"html-keyboard-response","rt":null,"stimulus":"<p style=\"color: red; font-size: 50px; font-weight: bold;\">Incorrect</p>","response":null,"trial_index":132,"plugin_version":"2.1.0","time_elapsed":237039,"subject_id":"92220","group":"Group1","condition":"1_Rep","full_date":"2026-02-04T16:41:55.530Z","date":"2026-02-04","time":"16:41:55"},{"correct_response":"a","task":"test_phase","broad_category":"I","image_png":"I_Basalt_08.png","image_id":24,"category_name":"Basalt","category":2,"distinct_rating":2.31,"distinct_type":"Bottom","item_type":"Foil","rt":1073,"stimulus":"Stimuli_Rocks480/I_Basalt_08.png","response":"a","trial_type":"image-keyboard-response","trial_index":133,"plugin_version":"2.1.0","time_elapsed":238114,"subject_id":"92220","group":"Group1","condition":"1_Rep","full_date":"2026-02-04T16:41:55.530Z","date":"2026-02-04","time":"16:41:55","cor_ans":true},{"trial_type":"html-keyboard-response","rt":null,"stimulus":"<p style=\"color: green; font-size: 50px; font-weight: bold;\">Correct</p>","response":null,"trial_index":134,"plugin_version":"2.1.0","time_elapsed":238615,"subject_id":"92220","group":"Group1","condition":"1_Rep","full_date":"2026-02-04T16:41:55.530Z","date":"2026-02-04","time":"16:41:55"},{"correct_response":"a","task":"test_phase","broad_category":"S","image_png":"S_Dolomite_16.png","image_id":400,"category_name":"Dolomite","category":25,"distinct_rating":1.71,"distinct_type":"Bottom","item_type":"Foil","rt":1401,"stimulus":"Stimuli_Rocks480/S_Dolomite_16.png","response":"a","trial_type":"image-keyboard-response","trial_index":135,"plugin_version":"2.1.0","time_elapsed":240018,"subject_id":"92220","group":"Group1","condition":"1_Rep","full_date":"2026-02-04T16:41:55.530Z","date":"2026-02-04","time":"16:41:55","cor_ans":true},{"trial_type":"html-keyboard-response","rt":null,"stimulus":"<p style=\"color: green; font-size: 50px; font-weight: bold;\">Correct</p>","response":null,"trial_index":136,"plugin_version":"2.1.0","time_elapsed":240519,"subject_id":"92220","group":"Group1","condition":"1_Rep","full_date":"2026-02-04T16:41:55.530Z","date":"2026-02-04","time":"16:41:55"},{"correct_response":"a","task":"test_phase","broad_category":"I","image_png":"I_Pegmatite_11.png","image_id":107,"category_name":"Pegmatite","category":7,"distinct_rating":7.11,"distinct_type":"Top","item_type":"Foil","rt":867,"stimulus":"Stimuli_Rocks480/I_Pegmatite_11.png","response":"l","trial_type":"image-keyboard-response","trial_index":137,"plugin_version":"2.1.0","time_elapsed":241388,"subject_id":"92220","group":"Group1","condition":"1_Rep","full_date":"2026-02-04T16:41:55.530Z","date":"2026-02-04","time":"16:41:55","cor_ans":false},{"trial_type":"html-keyboard-response","rt":null,"stimulus":"<p style=\"color: red; font-size: 50px; font-weight: bold;\">Incorrect</p>","response":null,"trial_index":138,"plugin_version":"2.1.0","time_elapsed":241890,"subject_id":"92220","group":"Group1","condition":"1_Rep","full_date":"2026-02-04T16:41:55.530Z","date":"2026-02-04","time":"16:41:55"},{"correct_response":"a","task":"test_phase","broad_category":"S","image_png":"S_Shale_07.png","image_id":471,"category_name":"Shale","category":30,"distinct_rating":2.73,"distinct_type":"Bottom","item_type":"Foil","rt":946,"stimulus":"Stimuli_Rocks480/S_Shale_07.png","response":"a","trial_type":"image-keyboard-response","trial_index":139,"plugin_version":"2.1.0","time_elapsed":242838,"subject_id":"92220","group":"Group1","condition":"1_Rep","full_date":"2026-02-04T16:41:55.530Z","date":"2026-02-04","time":"16:41:55","cor_ans":true},{"trial_type":"html-keyboard-response","rt":null,"stimulus":"<p style=\"color: green; font-size: 50px; font-weight: bold;\">Correct</p>","response":null,"trial_index":140,"plugin_version":"2.1.0","time_elapsed":243339,"subject_id":"92220","group":"Group1","condition":"1_Rep","full_date":"2026-02-04T16:41:55.530Z","date":"2026-02-04","time":"16:41:55"},{"correct_response":"a","task":"test_phase","broad_category":"I","image_png":"I_Rhyolite_10.png","image_id":154,"category_name":"Rhyolite","category":10,"distinct_rating":2.88,"distinct_type":"Bottom","item_type":"Foil","rt":1035,"stimulus":"Stimuli_Rocks480/I_Rhyolite_10.png","response":"l","trial_type":"image-keyboard-response","trial_index":141,"plugin_version":"2.1.0","time_elapsed":244376,"subject_id":"92220","group":"Group1","condition":"1_Rep","full_date":"2026-02-04T16:41:55.530Z","date":"2026-02-04","time":"16:41:55","cor_ans":false},{"trial_type":"html-keyboard-response","rt":null,"stimulus":"<p style=\"color: red; font-size: 50px; font-weight: bold;\">Incorrect</p>","response":null,"trial_index":142,"plugin_version":"2.1.0","time_elapsed":244878,"subject_id":"92220","group":"Group1","condition":"1_Rep","full_date":"2026-02-04T16:41:55.530Z","date":"2026-02-04","time":"16:41:55"},{"correct_response":"a","task":"test_phase","broad_category":"I","image_png":"I_Obsidian_06.png","image_id":86,"category_name":"Obsidian","category":6,"distinct_rating":8.01,"distinct_type":"Top","item_type":"Foil","rt":1089,"stimulus":"Stimuli_Rocks480/I_Obsidian_06.png","response":"a","trial_type":"image-keyboard-response","trial_index":143,"plugin_version":"2.1.0","time_elapsed":245968,"subject_id":"92220","group":"Group1","condition":"1_Rep","full_date":"2026-02-04T16:41:55.530Z","date":"2026-02-04","time":"16:41:55","cor_ans":true},{"trial_type":"html-keyboard-response","rt":null,"stimulus":"<p style=\"color: green; font-size: 50px; font-weight: bold;\">Correct</p>","response":null,"trial_index":144,"plugin_version":"2.1.0","time_elapsed":246469,"subject_id":"92220","group":"Group1","condition":"1_Rep","full_date":"2026-02-04T16:41:55.530Z","date":"2026-02-04","time":"16:41:55"},{"correct_response":"l","task":"test_phase","broad_category":"I","image_png":"I_Diorite_05.png","image_id":37,"category_name":"Diorite","category":3,"distinct_rating":3.08,"distinct_type":"Bottom","item_type":"Target","rt":1080,"stimulus":"Stimuli_Rocks480/I_Diorite_05.png","response":"l","trial_type":"image-keyboard-response","trial_index":145,"plugin_version":"2.1.0","time_elapsed":247551,"subject_id":"92220","group":"Group1","condition":"1_Rep","full_date":"2026-02-04T16:41:55.530Z","date":"2026-02-04","time":"16:41:55","cor_ans":true},{"trial_type":"html-keyboard-response","rt":null,"stimulus":"<p style=\"color: green; font-size: 50px; font-weight: bold;\">Correct</p>","response":null,"trial_index":146,"plugin_version":"2.1.0","time_elapsed":248053,"subject_id":"92220","group":"Group1","condition":"1_Rep","full_date":"2026-02-04T16:41:55.530Z","date":"2026-02-04","time":"16:41:55"},{"correct_response":"l","task":"test_phase","broad_category":"I","image_png":"I_Pumice_08.png","image_id":136,"category_name":"Pumice","category":9,"distinct_rating":3.1,"distinct_type":"Bottom","item_type":"Target","rt":921,"stimulus":"Stimuli_Rocks480/I_Pumice_08.png","response":"l","trial_type":"image-keyboard-response","trial_index":147,"plugin_version":"2.1.0","time_elapsed":248975,"subject_id":"92220","group":"Group1","condition":"1_Rep","full_date":"2026-02-04T16:41:55.530Z","date":"2026-02-04","time":"16:41:55","cor_ans":true},{"trial_type":"html-keyboard-response","rt":null,"stimulus":"<p style=\"color: green; font-size: 50px; font-weight: bold;\">Correct</p>","response":null,"trial_index":148,"plugin_version":"2.1.0","time_elapsed":249476,"subject_id":"92220","group":"Group1","condition":"1_Rep","full_date":"2026-02-04T16:41:55.530Z","date":"2026-02-04","time":"16:41:55"},{"correct_response":"l","task":"test_phase","broad_category":"I","image_png":"I_Gabbro_16.png","image_id":64,"category_name":"Gabbro","category":4,"distinct_rating":2.52,"distinct_type":"Bottom","item_type":"Target","rt":983,"stimulus":"Stimuli_Rocks480/I_Gabbro_16.png","response":"l","trial_type":"image-keyboard-response","trial_index":149,"plugin_version":"2.1.0","time_elapsed":250461,"subject_id":"92220","group":"Group1","condition":"1_Rep","full_date":"2026-02-04T16:41:55.530Z","date":"2026-02-04","time":"16:41:55","cor_ans":true},{"trial_type":"html-keyboard-response","rt":null,"stimulus":"<p style=\"color: green; font-size: 50px; font-weight: bold;\">Correct</p>","response":null,"trial_index":150,"plugin_version":"2.1.0","time_elapsed":250962,"subject_id":"92220","group":"Group1","condition":"1_Rep","full_date":"2026-02-04T16:41:55.530Z","date":"2026-02-04","time":"16:41:55"},{"correct_response":"l","task":"test_phase","broad_category":"S","image_png":"S_Rock Salt_01.png","image_id":433,"category_name":"Rock Salt","category":28,"distinct_rating":7.18,"distinct_type":"Top","item_type":"Target","rt":1036,"stimulus":"Stimuli_Rocks480/S_Rock Salt_01.png","response":"a","trial_type":"image-keyboard-response","trial_index":151,"plugin_version":"2.1.0","time_elapsed":252000,"subject_id":"92220","group":"Group1","condition":"1_Rep","full_date":"2026-02-04T16:41:55.530Z","date":"2026-02-04","time":"16:41:55","cor_ans":false},{"trial_type":"html-keyboard-response","rt":null,"stimulus":"<p style=\"color: red; font-size: 50px; font-weight: bold;\">Incorrect</p>","response":null,"trial_index":152,"plugin_version":"2.1.0","time_elapsed":252502,"subject_id":"92220","group":"Group1","condition":"1_Rep","full_date":"2026-02-04T16:41:55.530Z","date":"2026-02-04","time":"16:41:55"},{"correct_response":"a","task":"test_phase","broad_category":"S","image_png":"S_Shale_03.png","image_id":467,"category_name":"Shale","category":30,"distinct_rating":1.95,"distinct_type":"Bottom","item_type":"Foil","rt":1544,"stimulus":"Stimuli_Rocks480/S_Shale_03.png","response":"l","trial_type":"image-keyboard-response","trial_index":153,"plugin_version":"2.1.0","time_elapsed":254047,"subject_id":"92220","group":"Group1","condition":"1_Rep","full_date":"2026-02-04T16:41:55.530Z","date":"2026-02-04","time":"16:41:55","cor_ans":false},{"trial_type":"html-keyboard-response","rt":null,"stimulus":"<p style=\"color: red; font-size: 50px; font-weight: bold;\">Incorrect</p>","response":null,"trial_index":154,"plugin_version":"2.1.0","time_elapsed":254549,"subject_id":"92220","group":"Group1","condition":"1_Rep","full_date":"2026-02-04T16:41:55.530Z","date":"2026-02-04","time":"16:41:55"},{"correct_response":"l","task":"test_phase","broad_category":"I","image_png":"I_Gabbro_11.png","image_id":59,"category_name":"Gabbro","category":4,"distinct_rating":1.99,"distinct_type":"Bottom","item_type":"Target","rt":1029,"stimulus":"Stimuli_Rocks480/I_Gabbro_11.png","response":"l","trial_type":"image-keyboard-response","trial_index":155,"plugin_version":"2.1.0","time_elapsed":255579,"subject_id":"92220","group":"Group1","condition":"1_Rep","full_date":"2026-02-04T16:41:55.530Z","date":"2026-02-04","time":"16:41:55","cor_ans":true},{"trial_type":"html-keyboard-response","rt":null,"stimulus":"<p style=\"color: green; font-size: 50px; font-weight: bold;\">Correct</p>","response":null,"trial_index":156,"plugin_version":"2.1.0","time_elapsed":256081,"subject_id":"92220","group":"Group1","condition":"1_Rep","full_date":"2026-02-04T16:41:55.530Z","date":"2026-02-04","time":"16:41:55"},{"correct_response":"l","task":"test_phase","broad_category":"M","image_png":"M_Slate_03.png","image_id":307,"category_name":"Slate","category":20,"distinct_rating":1.87,"distinct_type":"Bottom","item_type":"Target","rt":1019,"stimulus":"Stimuli_Rocks480/M_Slate_03.png","response":"l","trial_type":"image-keyboard-response","trial_index":157,"plugin_version":"2.1.0","time_elapsed":257101,"subject_id":"92220","group":"Group1","condition":"1_Rep","full_date":"2026-02-04T16:41:55.530Z","date":"2026-02-04","time":"16:41:55","cor_ans":true},{"trial_type":"html-keyboard-response","rt":null,"stimulus":"<p style=\"color: green; font-size: 50px; font-weight: bold;\">Correct</p>","response":null,"trial_index":158,"plugin_version":"2.1.0","time_elapsed":257603,"subject_id":"92220","group":"Group1","condition":"1_Rep","full_date":"2026-02-04T16:41:55.530Z","date":"2026-02-04","time":"16:41:55"},{"correct_response":"l","task":"test_phase","broad_category":"M","image_png":"M_Marble_06.png","image_id":230,"category_name":"Marble","category":15,"distinct_rating":3.4,"distinct_type":"Bottom","item_type":"Target","rt":889,"stimulus":"Stimuli_Rocks480/M_Marble_06.png","response":"l","trial_type":"image-keyboard-response","trial_index":159,"plugin_version":"2.1.0","time_elapsed":258493,"subject_id":"92220","group":"Group1","condition":"1_Rep","full_date":"2026-02-04T16:41:55.530Z","date":"2026-02-04","time":"16:41:55","cor_ans":true},{"trial_type":"html-keyboard-response","rt":null,"stimulus":"<p style=\"color: green; font-size: 50px; font-weight: bold;\">Correct</p>","response":null,"trial_index":160,"plugin_version":"2.1.0","time_elapsed":258994,"subject_id":"92220","group":"Group1","condition":"1_Rep","full_date":"2026-02-04T16:41:55.530Z","date":"2026-02-04","time":"16:41:55"},{"correct_response":"l","task":"test_phase","broad_category":"S","image_png":"S_Breccia_11.png","image_id":347,"category_name":"Breccia","category":22,"distinct_rating":6.7,"distinct_type":"Top","item_type":"Target","rt":1398,"stimulus":"Stimuli_Rocks480/S_Breccia_11.png","response":"a","trial_type":"image-keyboard-response","trial_index":161,"plugin_version":"2.1.0","time_elapsed":260394,"subject_id":"92220","group":"Group1","condition":"1_Rep","full_date":"2026-02-04T16:41:55.530Z","date":"2026-02-04","time":"16:41:55","cor_ans":false},{"trial_type":"html-keyboard-response","rt":null,"stimulus":"<p style=\"color: red; font-size: 50px; font-weight: bold;\">Incorrect</p>","response":null,"trial_index":162,"plugin_version":"2.1.0","time_elapsed":260896,"subject_id":"92220","group":"Group1","condition":"1_Rep","full_date":"2026-02-04T16:41:55.530Z","date":"2026-02-04","time":"16:41:55"},{"correct_response":"a","task":"test_phase","broad_category":"I","image_png":"I_Basalt_10.png","image_id":26,"category_name":"Basalt","category":2,"distinct_rating":2.76,"distinct_type":"Bottom","item_type":"Foil","rt":3133,"stimulus":"Stimuli_Rocks480/I_Basalt_10.png","response":"a","trial_type":"image-keyboard-response","trial_index":163,"plugin_version":"2.1.0","time_elapsed":264031,"subject_id":"92220","group":"Group1","condition":"1_Rep","full_date":"2026-02-04T16:41:55.530Z","date":"2026-02-04","time":"16:41:55","cor_ans":true},{"trial_type":"html-keyboard-response","rt":null,"stimulus":"<p style=\"color: green; font-size: 50px; font-weight: bold;\">Correct</p>","response":null,"trial_index":164,"plugin_version":"2.1.0","time_elapsed":264532,"subject_id":"92220","group":"Group1","condition":"1_Rep","full_date":"2026-02-04T16:41:55.530Z","date":"2026-02-04","time":"16:41:55"},{"correct_response":"a","task":"test_phase","broad_category":"M","image_png":"M_Marble_03.png","image_id":227,"category_name":"Marble","category":15,"distinct_rating":2.67,"distinct_type":"Bottom","item_type":"Foil","rt":1710,"stimulus":"Stimuli_Rocks480/M_Marble_03.png","response":"a","trial_type":"image-keyboard-response","trial_index":165,"plugin_version":"2.1.0","time_elapsed":266244,"subject_id":"92220","group":"Group1","condition":"1_Rep","full_date":"2026-02-04T16:41:55.530Z","date":"2026-02-04","time":"16:41:55","cor_ans":true},{"trial_type":"html-keyboard-response","rt":null,"stimulus":"<p style=\"color: green; font-size: 50px; font-weight: bold;\">Correct</p>","response":null,"trial_index":166,"plugin_version":"2.1.0","time_elapsed":266745,"subject_id":"92220","group":"Group1","condition":"1_Rep","full_date":"2026-02-04T16:41:55.530Z","date":"2026-02-04","time":"16:41:55"},{"correct_response":"l","task":"test_phase","broad_category":"I","image_png":"I_Andesite_08.png","image_id":8,"category_name":"Andesite","category":1,"distinct_rating":1.95,"distinct_type":"Bottom","item_type":"Target","rt":762,"stimulus":"Stimuli_Rocks480/I_Andesite_08.png","response":"l","trial_type":"image-keyboard-response","trial_index":167,"plugin_version":"2.1.0","time_elapsed":267509,"subject_id":"92220","group":"Group1","condition":"1_Rep","full_date":"2026-02-04T16:41:55.530Z","date":"2026-02-04","time":"16:41:55","cor_ans":true},{"trial_type":"html-keyboard-response","rt":null,"stimulus":"<p style=\"color: green; font-size: 50px; font-weight: bold;\">Correct</p>","response":null,"trial_index":168,"plugin_version":"2.1.0","time_elapsed":268010,"subject_id":"92220","group":"Group1","condition":"1_Rep","full_date":"2026-02-04T16:41:55.530Z","date":"2026-02-04","time":"16:41:55"},{"correct_response":"l","task":"test_phase","broad_category":"M","image_png":"M_Quartzite_13.png","image_id":285,"category_name":"Quartzite","category":18,"distinct_rating":2.27,"distinct_type":"Bottom","item_type":"Target","rt":816,"stimulus":"Stimuli_Rocks480/M_Quartzite_13.png","response":"l","trial_type":"image-keyboard-response","trial_index":169,"plugin_version":"2.1.0","time_elapsed":268828,"subject_id":"92220","group":"Group1","condition":"1_Rep","full_date":"2026-02-04T16:41:55.530Z","date":"2026-02-04","time":"16:41:55","cor_ans":true},{"trial_type":"html-keyboard-response","rt":null,"stimulus":"<p style=\"color: green; font-size: 50px; font-weight: bold;\">Correct</p>","response":null,"trial_index":170,"plugin_version":"2.1.0","time_elapsed":269330,"subject_id":"92220","group":"Group1","condition":"1_Rep","full_date":"2026-02-04T16:41:55.530Z","date":"2026-02-04","time":"16:41:55"},{"correct_response":"l","task":"test_phase","broad_category":"I","image_png":"I_Obsidian_05.png","image_id":85,"category_name":"Obsidian","category":6,"distinct_rating":7.32,"distinct_type":"Top","item_type":"Target","rt":784,"stimulus":"Stimuli_Rocks480/I_Obsidian_05.png","response":"l","trial_type":"image-keyboard-response","trial_index":171,"plugin_version":"2.1.0","time_elapsed":270116,"subject_id":"92220","group":"Group1","condition":"1_Rep","full_date":"2026-02-04T16:41:55.530Z","date":"2026-02-04","time":"16:41:55","cor_ans":true},{"trial_type":"html-keyboard-response","rt":null,"stimulus":"<p style=\"color: green; font-size: 50px; font-weight: bold;\">Correct</p>","response":null,"trial_index":172,"plugin_version":"2.1.0","time_elapsed":270617,"subject_id":"92220","group":"Group1","condition":"1_Rep","full_date":"2026-02-04T16:41:55.530Z","date":"2026-02-04","time":"16:41:55"},{"correct_response":"l","task":"test_phase","broad_category":"S","image_png":"S_Sandstone_16.png","image_id":464,"category_name":"Sandstone","category":29,"distinct_rating":1.93,"distinct_type":"Bottom","item_type":"Target","rt":749,"stimulus":"Stimuli_Rocks480/S_Sandstone_16.png","response":"l","trial_type":"image-keyboard-response","trial_index":173,"plugin_version":"2.1.0","time_elapsed":271368,"subject_id":"92220","group":"Group1","condition":"1_Rep","full_date":"2026-02-04T16:41:55.530Z","date":"2026-02-04","time":"16:41:55","cor_ans":true},{"trial_type":"html-keyboard-response","rt":null,"stimulus":"<p style=\"color: green; font-size: 50px; font-weight: bold;\">Correct</p>","response":null,"trial_index":174,"plugin_version":"2.1.0","time_elapsed":271870,"subject_id":"92220","group":"Group1","condition":"1_Rep","full_date":"2026-02-04T16:41:55.530Z","date":"2026-02-04","time":"16:41:55"},{"correct_response":"l","task":"test_phase","broad_category":"I","image_png":"I_Rhyolite_11.png","image_id":155,"category_name":"Rhyolite","category":10,"distinct_rating":1.73,"distinct_type":"Bottom","item_type":"Target","rt":882,"stimulus":"Stimuli_Rocks480/I_Rhyolite_11.png","response":"l","trial_type":"image-keyboard-response","trial_index":175,"plugin_version":"2.1.0","time_elapsed":272754,"subject_id":"92220","group":"Group1","condition":"1_Rep","full_date":"2026-02-04T16:41:55.530Z","date":"2026-02-04","time":"16:41:55","cor_ans":true},{"trial_type":"html-keyboard-response","rt":null,"stimulus":"<p style=\"color: green; font-size: 50px; font-weight: bold;\">Correct</p>","response":null,"trial_index":176,"plugin_version":"2.1.0","time_elapsed":273255,"subject_id":"92220","group":"Group1","condition":"1_Rep","full_date":"2026-02-04T16:41:55.530Z","date":"2026-02-04","time":"16:41:55"},{"correct_response":"l","task":"test_phase","broad_category":"S","image_png":"S_Dolomite_13.png","image_id":397,"category_name":"Dolomite","category":25,"distinct_rating":1.77,"distinct_type":"Bottom","item_type":"Target","rt":770,"stimulus":"Stimuli_Rocks480/S_Dolomite_13.png","response":"l","trial_type":"image-keyboard-response","trial_index":177,"plugin_version":"2.1.0","time_elapsed":274027,"subject_id":"92220","group":"Group1","condition":"1_Rep","full_date":"2026-02-04T16:41:55.530Z","date":"2026-02-04","time":"16:41:55","cor_ans":true},{"trial_type":"html-keyboard-response","rt":null,"stimulus":"<p style=\"color: green; font-size: 50px; font-weight: bold;\">Correct</p>","response":null,"trial_index":178,"plugin_version":"2.1.0","time_elapsed":274529,"subject_id":"92220","group":"Group1","condition":"1_Rep","full_date":"2026-02-04T16:41:55.530Z","date":"2026-02-04","time":"16:41:55"},{"correct_response":"a","task":"test_phase","broad_category":"M","image_png":"M_Quartzite_07.png","image_id":279,"category_name":"Quartzite","category":18,"distinct_rating":1.97,"distinct_type":"Bottom","item_type":"Foil","rt":813,"stimulus":"Stimuli_Rocks480/M_Quartzite_07.png","response":"l","trial_type":"image-keyboard-response","trial_index":179,"plugin_version":"2.1.0","time_elapsed":275344,"subject_id":"92220","group":"Group1","condition":"1_Rep","full_date":"2026-02-04T16:41:55.530Z","date":"2026-02-04","time":"16:41:55","cor_ans":false},{"trial_type":"html-keyboard-response","rt":null,"stimulus":"<p style=\"color: red; font-size: 50px; font-weight: bold;\">Incorrect</p>","response":null,"trial_index":180,"plugin_version":"2.1.0","time_elapsed":275845,"subject_id":"92220","group":"Group1","condition":"1_Rep","full_date":"2026-02-04T16:41:55.530Z","date":"2026-02-04","time":"16:41:55"},{"correct_response":"a","task":"test_phase","broad_category":"I","image_png":"I_Andesite_09.png","image_id":9,"category_name":"Andesite","category":1,"distinct_rating":2.49,"distinct_type":"Bottom","item_type":"Foil","rt":937,"stimulus":"Stimuli_Rocks480/I_Andesite_09.png","response":"a","trial_type":"image-keyboard-response","trial_index":181,"plugin_version":"2.1.0","time_elapsed":276785,"subject_id":"92220","group":"Group1","condition":"1_Rep","full_date":"2026-02-04T16:41:55.530Z","date":"2026-02-04","time":"16:41:55","cor_ans":true},{"trial_type":"html-keyboard-response","rt":null,"stimulus":"<p style=\"color: green; font-size: 50px; font-weight: bold;\">Correct</p>","response":null,"trial_index":182,"plugin_version":"2.1.0","time_elapsed":277286,"subject_id":"92220","group":"Group1","condition":"1_Rep","full_date":"2026-02-04T16:41:55.530Z","date":"2026-02-04","time":"16:41:55"},{"correct_response":"l","task":"test_phase","broad_category":"M","image_png":"M_Phyllite_10.png","image_id":266,"category_name":"Phyllite","category":17,"distinct_rating":2.6,"distinct_type":"Bottom","item_type":"Target","rt":745,"stimulus":"Stimuli_Rocks480/M_Phyllite_10.png","response":"a","trial_type":"image-keyboard-response","trial_index":183,"plugin_version":"2.1.0","time_elapsed":278033,"subject_id":"92220","group":"Group1","condition":"1_Rep","full_date":"2026-02-04T16:41:55.530Z","date":"2026-02-04","time":"16:41:55","cor_ans":false},{"trial_type":"html-keyboard-response","rt":null,"stimulus":"<p style=\"color: red; font-size: 50px; font-weight: bold;\">Incorrect</p>","response":null,"trial_index":184,"plugin_version":"2.1.0","time_elapsed":278534,"subject_id":"92220","group":"Group1","condition":"1_Rep","full_date":"2026-02-04T16:41:55.530Z","date":"2026-02-04","time":"16:41:55"},{"correct_response":"l","task":"test_phase","broad_category":"I","image_png":"I_Andesite_06.png","image_id":6,"category_name":"Andesite","category":1,"distinct_rating":3.17,"distinct_type":"Bottom","item_type":"Target","rt":725,"stimulus":"Stimuli_Rocks480/I_Andesite_06.png","response":"l","trial_type":"image-keyboard-response","trial_index":185,"plugin_version":"2.1.0","time_elapsed":279261,"subject_id":"92220","group":"Group1","condition":"1_Rep","full_date":"2026-02-04T16:41:55.530Z","date":"2026-02-04","time":"16:41:55","cor_ans":true},{"trial_type":"html-keyboard-response","rt":null,"stimulus":"<p style=\"color: green; font-size: 50px; font-weight: bold;\">Correct</p>","response":null,"trial_index":186,"plugin_version":"2.1.0","time_elapsed":279762,"subject_id":"92220","group":"Group1","condition":"1_Rep","full_date":"2026-02-04T16:41:55.530Z","date":"2026-02-04","time":"16:41:55"},{"correct_response":"l","task":"test_phase","broad_category":"I","image_png":"I_Pumice_11.png","image_id":139,"category_name":"Pumice","category":9,"distinct_rating":1.74,"distinct_type":"Bottom","item_type":"Target","rt":658,"stimulus":"Stimuli_Rocks480/I_Pumice_11.png","response":"l","trial_type":"image-keyboard-response","trial_index":187,"plugin_version":"2.1.0","time_elapsed":280421,"subject_id":"92220","group":"Group1","condition":"1_Rep","full_date":"2026-02-04T16:41:55.530Z","date":"2026-02-04","time":"16:41:55","cor_ans":true},{"trial_type":"html-keyboard-response","rt":null,"stimulus":"<p style=\"color: green; font-size: 50px; font-weight: bold;\">Correct</p>","response":null,"trial_index":188,"plugin_version":"2.1.0","time_elapsed":280923,"subject_id":"92220","group":"Group1","condition":"1_Rep","full_date":"2026-02-04T16:41:55.530Z","date":"2026-02-04","time":"16:41:55"},{"correct_response":"a","task":"test_phase","broad_category":"I","image_png":"I_Diorite_15.png","image_id":47,"category_name":"Diorite","category":3,"distinct_rating":3.05,"distinct_type":"Bottom","item_type":"Foil","rt":700,"stimulus":"Stimuli_Rocks480/I_Diorite_15.png","response":"l","trial_type":"image-keyboard-response","trial_index":189,"plugin_version":"2.1.0","time_elapsed":281625,"subject_id":"92220","group":"Group1","condition":"1_Rep","full_date":"2026-02-04T16:41:55.530Z","date":"2026-02-04","time":"16:41:55","cor_ans":false},{"trial_type":"html-keyboard-response","rt":null,"stimulus":"<p style=\"color: red; font-size: 50px; font-weight: bold;\">Incorrect</p>","response":null,"trial_index":190,"plugin_version":"2.1.0","time_elapsed":282126,"subject_id":"92220","group":"Group1","condition":"1_Rep","full_date":"2026-02-04T16:41:55.530Z","date":"2026-02-04","time":"16:41:55"},{"correct_response":"l","task":"test_phase","broad_category":"M","image_png":"M_Gneiss_13.png","image_id":205,"category_name":"Gneiss","category":13,"distinct_rating":3.26,"distinct_type":"Bottom","item_type":"Target","rt":972,"stimulus":"Stimuli_Rocks480/M_Gneiss_13.png","response":"a","trial_type":"image-keyboard-response","trial_index":191,"plugin_version":"2.1.0","time_elapsed":283101,"subject_id":"92220","group":"Group1","condition":"1_Rep","full_date":"2026-02-04T16:41:55.530Z","date":"2026-02-04","time":"16:41:55","cor_ans":false},{"trial_type":"html-keyboard-response","rt":null,"stimulus":"<p style=\"color: red; font-size: 50px; font-weight: bold;\">Incorrect</p>","response":null,"trial_index":192,"plugin_version":"2.1.0","time_elapsed":283603,"subject_id":"92220","group":"Group1","condition":"1_Rep","full_date":"2026-02-04T16:41:55.530Z","date":"2026-02-04","time":"16:41:55"},{"correct_response":"a","task":"test_phase","broad_category":"M","image_png":"M_Quartzite_15.png","image_id":287,"category_name":"Quartzite","category":18,"distinct_rating":2.19,"distinct_type":"Bottom","item_type":"Foil","rt":827,"stimulus":"Stimuli_Rocks480/M_Quartzite_15.png","response":"l","trial_type":"image-keyboard-response","trial_index":193,"plugin_version":"2.1.0","time_elapsed":284431,"subject_id":"92220","group":"Group1","condition":"1_Rep","full_date":"2026-02-04T16:41:55.530Z","date":"2026-02-04","time":"16:41:55","cor_ans":false},{"trial_type":"html-keyboard-response","rt":null,"stimulus":"<p style=\"color: red; font-size: 50px; font-weight: bold;\">Incorrect</p>","response":null,"trial_index":194,"plugin_version":"2.1.0","time_elapsed":284933,"subject_id":"92220","group":"Group1","condition":"1_Rep","full_date":"2026-02-04T16:41:55.530Z","date":"2026-02-04","time":"16:41:55"},{"correct_response":"l","task":"test_phase","broad_category":"I","image_png":"I_Andesite_10.png","image_id":10,"category_name":"Andesite","category":1,"distinct_rating":3.15,"distinct_type":"Bottom","item_type":"Target","rt":853,"stimulus":"Stimuli_Rocks480/I_Andesite_10.png","response":"a","trial_type":"image-keyboard-response","trial_index":195,"plugin_version":"2.1.0","time_elapsed":285787,"subject_id":"92220","group":"Group1","condition":"1_Rep","full_date":"2026-02-04T16:41:55.530Z","date":"2026-02-04","time":"16:41:55","cor_ans":false},{"trial_type":"html-keyboard-response","rt":null,"stimulus":"<p style=\"color: red; font-size: 50px; font-weight: bold;\">Incorrect</p>","response":null,"trial_index":196,"plugin_version":"2.1.0","time_elapsed":286289,"subject_id":"92220","group":"Group1","condition":"1_Rep","full_date":"2026-02-04T16:41:55.530Z","date":"2026-02-04","time":"16:41:55"},{"correct_response":"l","task":"test_phase","broad_category":"S","image_png":"S_Dolomite_14.png","image_id":398,"category_name":"Dolomite","category":25,"distinct_rating":1.43,"distinct_type":"Bottom","item_type":"Target","rt":756,"stimulus":"Stimuli_Rocks480/S_Dolomite_14.png","response":"l","trial_type":"image-keyboard-response","trial_index":197,"plugin_version":"2.1.0","time_elapsed":287046,"subject_id":"92220","group":"Group1","condition":"1_Rep","full_date":"2026-02-04T16:41:55.530Z","date":"2026-02-04","time":"16:41:55","cor_ans":true},{"trial_type":"html-keyboard-response","rt":null,"stimulus":"<p style=\"color: green; font-size: 50px; font-weight: bold;\">Correct</p>","response":null,"trial_index":198,"plugin_version":"2.1.0","time_elapsed":287548,"subject_id":"92220","group":"Group1","condition":"1_Rep","full_date":"2026-02-04T16:41:55.530Z","date":"2026-02-04","time":"16:41:55"},{"correct_response":"l","task":"test_phase","broad_category":"I","image_png":"I_Rhyolite_14.png","image_id":158,"category_name":"Rhyolite","category":10,"distinct_rating":2.59,"distinct_type":"Bottom","item_type":"Target","rt":700,"stimulus":"Stimuli_Rocks480/I_Rhyolite_14.png","response":"l","trial_type":"image-keyboard-response","trial_index":199,"plugin_version":"2.1.0","time_elapsed":288249,"subject_id":"92220","group":"Group1","condition":"1_Rep","full_date":"2026-02-04T16:41:55.530Z","date":"2026-02-04","time":"16:41:55","cor_ans":true},{"trial_type":"html-keyboard-response","rt":null,"stimulus":"<p style=\"color: green; font-size: 50px; font-weight: bold;\">Correct</p>","response":null,"trial_index":200,"plugin_version":"2.1.0","time_elapsed":288750,"subject_id":"92220","group":"Group1","condition":"1_Rep","full_date":"2026-02-04T16:41:55.530Z","date":"2026-02-04","time":"16:41:55"},{"correct_response":"l","task":"test_phase","broad_category":"I","image_png":"I_Diorite_04.png","image_id":36,"category_name":"Diorite","category":3,"distinct_rating":2.98,"distinct_type":"Bottom","item_type":"Target","rt":1770,"stimulus":"Stimuli_Rocks480/I_Diorite_04.png","response":"l","trial_type":"image-keyboard-response","trial_index":201,"plugin_version":"2.1.0","time_elapsed":290522,"subject_id":"92220","group":"Group1","condition":"1_Rep","full_date":"2026-02-04T16:41:55.530Z","date":"2026-02-04","time":"16:41:55","cor_ans":true},{"trial_type":"html-keyboard-response","rt":null,"stimulus":"<p style=\"color: green; font-size: 50px; font-weight: bold;\">Correct</p>","response":null,"trial_index":202,"plugin_version":"2.1.0","time_elapsed":291023,"subject_id":"92220","group":"Group1","condition":"1_Rep","full_date":"2026-02-04T16:41:55.530Z","date":"2026-02-04","time":"16:41:55"},{"correct_response":"a","task":"test_phase","broad_category":"I","image_png":"I_Peridotite_13.png","image_id":125,"category_name":"Peridotite","category":8,"distinct_rating":7.28,"distinct_type":"Top","item_type":"Foil","rt":1042,"stimulus":"Stimuli_Rocks480/I_Peridotite_13.png","response":"a","trial_type":"image-keyboard-response","trial_index":203,"plugin_version":"2.1.0","time_elapsed":292067,"subject_id":"92220","group":"Group1","condition":"1_Rep","full_date":"2026-02-04T16:41:55.530Z","date":"2026-02-04","time":"16:41:55","cor_ans":true},{"trial_type":"html-keyboard-response","rt":null,"stimulus":"<p style=\"color: green; font-size: 50px; font-weight: bold;\">Correct</p>","response":null,"trial_index":204,"plugin_version":"2.1.0","time_elapsed":292568,"subject_id":"92220","group":"Group1","condition":"1_Rep","full_date":"2026-02-04T16:41:55.530Z","date":"2026-02-04","time":"16:41:55"},{"correct_response":"l","task":"test_phase","broad_category":"S","image_png":"S_Shale_08.png","image_id":472,"category_name":"Shale","category":30,"distinct_rating":2.55,"distinct_type":"Bottom","item_type":"Target","rt":1183,"stimulus":"Stimuli_Rocks480/S_Shale_08.png","response":"a","trial_type":"image-keyboard-response","trial_index":205,"plugin_version":"2.1.0","time_elapsed":293753,"subject_id":"92220","group":"Group1","condition":"1_Rep","full_date":"2026-02-04T16:41:55.530Z","date":"2026-02-04","time":"16:41:55","cor_ans":false},{"trial_type":"html-keyboard-response","rt":null,"stimulus":"<p style=\"color: red; font-size: 50px; font-weight: bold;\">Incorrect</p>","response":null,"trial_index":206,"plugin_version":"2.1.0","time_elapsed":294255,"subject_id":"92220","group":"Group1","condition":"1_Rep","full_date":"2026-02-04T16:41:55.530Z","date":"2026-02-04","time":"16:41:55"},{"correct_response":"l","task":"test_phase","broad_category":"I","image_png":"I_Pegmatite_10.png","image_id":106,"category_name":"Pegmatite","category":7,"distinct_rating":7.66,"distinct_type":"Top","item_type":"Target","rt":826,"stimulus":"Stimuli_Rocks480/I_Pegmatite_10.png","response":"l","trial_type":"image-keyboard-response","trial_index":207,"plugin_version":"2.1.0","time_elapsed":295083,"subject_id":"92220","group":"Group1","condition":"1_Rep","full_date":"2026-02-04T16:41:55.530Z","date":"2026-02-04","time":"16:41:55","cor_ans":true},{"trial_type":"html-keyboard-response","rt":null,"stimulus":"<p style=\"color: green; font-size: 50px; font-weight: bold;\">Correct</p>","response":null,"trial_index":208,"plugin_version":"2.1.0","time_elapsed":295584,"subject_id":"92220","group":"Group1","condition":"1_Rep","full_date":"2026-02-04T16:41:55.530Z","date":"2026-02-04","time":"16:41:55"},{"correct_response":"l","task":"test_phase","broad_category":"I","image_png":"I_Diorite_03.png","image_id":35,"category_name":"Diorite","category":3,"distinct_rating":3.14,"distinct_type":"Bottom","item_type":"Target","rt":1586,"stimulus":"Stimuli_Rocks480/I_Diorite_03.png","response":"l","trial_type":"image-keyboard-response","trial_index":209,"plugin_version":"2.1.0","time_elapsed":297172,"subject_id":"92220","group":"Group1","condition":"1_Rep","full_date":"2026-02-04T16:41:55.530Z","date":"2026-02-04","time":"16:41:55","cor_ans":true},{"trial_type":"html-keyboard-response","rt":null,"stimulus":"<p style=\"color: green; font-size: 50px; font-weight: bold;\">Correct</p>","response":null,"trial_index":210,"plugin_version":"2.1.0","time_elapsed":297674,"subject_id":"92220","group":"Group1","condition":"1_Rep","full_date":"2026-02-04T16:41:55.530Z","date":"2026-02-04","time":"16:41:55"},{"correct_response":"a","task":"test_phase","broad_category":"I","image_png":"I_Pumice_01.png","image_id":129,"category_name":"Pumice","category":9,"distinct_rating":3.25,"distinct_type":"Bottom","item_type":"Foil","rt":1770,"stimulus":"Stimuli_Rocks480/I_Pumice_01.png","response":"a","trial_type":"image-keyboard-response","trial_index":211,"plugin_version":"2.1.0","time_elapsed":299446,"subject_id":"92220","group":"Group1","condition":"1_Rep","full_date":"2026-02-04T16:41:55.530Z","date":"2026-02-04","time":"16:41:55","cor_ans":true},{"trial_type":"html-keyboard-response","rt":null,"stimulus":"<p style=\"color: green; font-size: 50px; font-weight: bold;\">Correct</p>","response":null,"trial_index":212,"plugin_version":"2.1.0","time_elapsed":299947,"subject_id":"92220","group":"Group1","condition":"1_Rep","full_date":"2026-02-04T16:41:55.530Z","date":"2026-02-04","time":"16:41:55"},{"correct_response":"a","task":"test_phase","broad_category":"S","image_png":"S_Conglomerate_14.png","image_id":382,"category_name":"Conglomerate","category":24,"distinct_rating":6.86,"distinct_type":"Top","item_type":"Foil","rt":1271,"stimulus":"Stimuli_Rocks480/S_Conglomerate_14.png","response":"l","trial_type":"image-keyboard-response","trial_index":213,"plugin_version":"2.1.0","time_elapsed":301220,"subject_id":"92220","group":"Group1","condition":"1_Rep","full_date":"2026-02-04T16:41:55.530Z","date":"2026-02-04","time":"16:41:55","cor_ans":false},{"trial_type":"html-keyboard-response","rt":null,"stimulus":"<p style=\"color: red; font-size: 50px; font-weight: bold;\">Incorrect</p>","response":null,"trial_index":214,"plugin_version":"2.1.0","time_elapsed":301721,"subject_id":"92220","group":"Group1","condition":"1_Rep","full_date":"2026-02-04T16:41:55.530Z","date":"2026-02-04","time":"16:41:55"},{"correct_response":"a","task":"test_phase","broad_category":"M","image_png":"M_Marble_02.png","image_id":226,"category_name":"Marble","category":15,"distinct_rating":3.2,"distinct_type":"Bottom","item_type":"Foil","rt":780,"stimulus":"Stimuli_Rocks480/M_Marble_02.png","response":"l","trial_type":"image-keyboard-response","trial_index":215,"plugin_version":"2.1.0","time_elapsed":302503,"subject_id":"92220","group":"Group1","condition":"1_Rep","full_date":"2026-02-04T16:41:55.530Z","date":"2026-02-04","time":"16:41:55","cor_ans":false},{"trial_type":"html-keyboard-response","rt":null,"stimulus":"<p style=\"color: red; font-size: 50px; font-weight: bold;\">Incorrect</p>","response":null,"trial_index":216,"plugin_version":"2.1.0","time_elapsed":303005,"subject_id":"92220","group":"Group1","condition":"1_Rep","full_date":"2026-02-04T16:41:55.530Z","date":"2026-02-04","time":"16:41:55"},{"correct_response":"l","task":"test_phase","broad_category":"I","image_png":"I_Basalt_01.png","image_id":17,"category_name":"Basalt","category":2,"distinct_rating":1.92,"distinct_type":"Bottom","item_type":"Target","rt":1004,"stimulus":"Stimuli_Rocks480/I_Basalt_01.png","response":"l","trial_type":"image-keyboard-response","trial_index":217,"plugin_version":"2.1.0","time_elapsed":304011,"subject_id":"92220","group":"Group1","condition":"1_Rep","full_date":"2026-02-04T16:41:55.530Z","date":"2026-02-04","time":"16:41:55","cor_ans":true},{"trial_type":"html-keyboard-response","rt":null,"stimulus":"<p style=\"color: green; font-size: 50px; font-weight: bold;\">Correct</p>","response":null,"trial_index":218,"plugin_version":"2.1.0","time_elapsed":304512,"subject_id":"92220","group":"Group1","condition":"1_Rep","full_date":"2026-02-04T16:41:55.530Z","date":"2026-02-04","time":"16:41:55"},{"correct_response":"a","task":"test_phase","broad_category":"S","image_png":"S_Sandstone_08.png","image_id":456,"category_name":"Sandstone","category":29,"distinct_rating":1.5,"distinct_type":"Bottom","item_type":"Foil","rt":751,"stimulus":"Stimuli_Rocks480/S_Sandstone_08.png","response":"a","trial_type":"image-keyboard-response","trial_index":219,"plugin_version":"2.1.0","time_elapsed":305265,"subject_id":"92220","group":"Group1","condition":"1_Rep","full_date":"2026-02-04T16:41:55.530Z","date":"2026-02-04","time":"16:41:55","cor_ans":true},{"trial_type":"html-keyboard-response","rt":null,"stimulus":"<p style=\"color: green; font-size: 50px; font-weight: bold;\">Correct</p>","response":null,"trial_index":220,"plugin_version":"2.1.0","time_elapsed":305767,"subject_id":"92220","group":"Group1","condition":"1_Rep","full_date":"2026-02-04T16:41:55.530Z","date":"2026-02-04","time":"16:41:55"},{"correct_response":"a","task":"test_phase","broad_category":"I","image_png":"I_Diorite_10.png","image_id":42,"category_name":"Diorite","category":3,"distinct_rating":2.84,"distinct_type":"Bottom","item_type":"Foil","rt":688,"stimulus":"Stimuli_Rocks480/I_Diorite_10.png","response":"l","trial_type":"image-keyboard-response","trial_index":221,"plugin_version":"2.1.0","time_elapsed":306456,"subject_id":"92220","group":"Group1","condition":"1_Rep","full_date":"2026-02-04T16:41:55.530Z","date":"2026-02-04","time":"16:41:55","cor_ans":false},{"trial_type":"html-keyboard-response","rt":null,"stimulus":"<p style=\"color: red; font-size: 50px; font-weight: bold;\">Incorrect</p>","response":null,"trial_index":222,"plugin_version":"2.1.0","time_elapsed":306957,"subject_id":"92220","group":"Group1","condition":"1_Rep","full_date":"2026-02-04T16:41:55.530Z","date":"2026-02-04","time":"16:41:55"},{"correct_response":"a","task":"test_phase","broad_category":"M","image_png":"M_Slate_04.png","image_id":308,"category_name":"Slate","category":20,"distinct_rating":2.2,"distinct_type":"Bottom","item_type":"Foil","rt":819,"stimulus":"Stimuli_Rocks480/M_Slate_04.png","response":"l","trial_type":"image-keyboard-response","trial_index":223,"plugin_version":"2.1.0","time_elapsed":307778,"subject_id":"92220","group":"Group1","condition":"1_Rep","full_date":"2026-02-04T16:41:55.530Z","date":"2026-02-04","time":"16:41:55","cor_ans":false},{"trial_type":"html-keyboard-response","rt":null,"stimulus":"<p style=\"color: red; font-size: 50px; font-weight: bold;\">Incorrect</p>","response":null,"trial_index":224,"plugin_version":"2.1.0","time_elapsed":308280,"subject_id":"92220","group":"Group1","condition":"1_Rep","full_date":"2026-02-04T16:41:55.530Z","date":"2026-02-04","time":"16:41:55"},{"correct_response":"a","task":"test_phase","broad_category":"M","image_png":"M_Quar