[{"width":1272,"height":668,"webaudio":true,"browser":"edge-chromium","browser_version":"144.0.0","mobile":false,"os":"Windows 10","fullscreen":true,"vsync_rate":60.33,"webcam":true,"microphone":true,"trial_type":"browser-check","trial_index":0,"plugin_version":"2.1.0","time_elapsed":1014,"subject_id":"91379","group":"Group2","condition":"1_Rep","full_date":"2026-02-09T20:00:48.483Z","date":"2026-02-09","time":"20:00:48"},{"success":true,"timeout":false,"failed_images":[],"failed_audio":[],"failed_video":[],"trial_type":"preload","trial_index":1,"plugin_version":"2.1.0","time_elapsed":5889,"subject_id":"91379","group":"Group2","condition":"1_Rep","full_date":"2026-02-09T20:00:48.483Z","date":"2026-02-09","time":"20:00:48"},{"rt":24608,"url":"SONA_consent_memorability.html","trial_type":"external-html","trial_index":2,"plugin_version":"2.1.0","time_elapsed":30548,"subject_id":"91379","group":"Group2","condition":"1_Rep","full_date":"2026-02-09T20:00:48.483Z","date":"2026-02-09","time":"20:00:48"},{"success":true,"rt":1116,"trial_type":"fullscreen","trial_index":3,"plugin_version":"2.1.0","time_elapsed":32677,"subject_id":"91379","group":"Group2","condition":"1_Rep","full_date":"2026-02-09T20:00:48.483Z","date":"2026-02-09","time":"20:00:48"},{"rt":3132,"stimulus":"<div style=\"max-width: 760px; margin: auto; font-size: 20px; line-height: 1.5;\">\n      <h1 style=\"text-align:center; font-size: 30px;\">Instructions</h1>\n      <p>\n        Welcome to the study on <b>visual memory</b>. This experiment consists of <b>two phases</b>: \n        a <b>study phase</b> and a <b>test phase</b>.\n      </p>\n      <p>\n        In the study phase, you will see a series of rock images along with their category labels.\n        The images will appear one at a time.\n        <b>Your task</b> is to learn the categories to which the rock images belong \n        and to remember each image as accurately as possible.\n      </p> \n      <p>\n        Note that you will see each image only <b>once</b> during the study phase. \n          So, please pay close attention and try to remember each image carefully.\n      </p>\n      <p>\n        After the study phase, <b>your memory will be tested</b>. \n        Additional instructions for the test phase will be provided at that time.\n      </p>\n      <p>\n        If your computer has multiple <b>language settings</b> (e.g., English and another language),\n        please make sure it is set to English before starting.\n      </p>\n      <p>\n        You can track your progress using the <b>completion bar</b> at the top of the screen. \n        Please note that the bar will refresh when the test phase begins \n        to give you an accurate sense of your progress in both phases.\n      </p> \n      <p>\n        Press the button below when you are ready to begin.\n      </p>\n    </div>","response":0,"trial_type":"html-button-response","trial_index":4,"plugin_version":"2.1.0","time_elapsed":35810,"subject_id":"91379","group":"Group2","condition":"1_Rep","full_date":"2026-02-09T20:00:48.483Z","date":"2026-02-09","time":"20:00:48"},{"rt":null,"stimulus":"<p style=\"font-size: 50px; margin: 0; text-align: center;\">+</p>","response":null,"trial_type":"html-keyboard-response","trial_index":5,"plugin_version":"2.1.0","time_elapsed":36812,"subject_id":"91379","group":"Group2","condition":"1_Rep","full_date":"2026-02-09T20:00:48.483Z","date":"2026-02-09","time":"20:00:48"},{"task":"memory_phase","broad_category":"M","image_png":"M_Quartzite_07.png","image_id":279,"category_name":"Quartzite","category":18,"distinct_rating":1.97,"distinct_type":"Bottom","rt":null,"stimulus":"Stimuli_Rocks480/M_Quartzite_07.png","response":null,"trial_type":"image-keyboard-response","trial_index":6,"plugin_version":"2.1.0","time_elapsed":39330,"subject_id":"91379","group":"Group2","condition":"1_Rep","full_date":"2026-02-09T20:00:48.483Z","date":"2026-02-09","time":"20:00:48"},{"rt":null,"stimulus":"<p style=\"font-size: 50px; margin: 0; text-align: center;\">+</p>","response":null,"trial_type":"html-keyboard-response","trial_index":7,"plugin_version":"2.1.0","time_elapsed":40343,"subject_id":"91379","group":"Group2","condition":"1_Rep","full_date":"2026-02-09T20:00:48.483Z","date":"2026-02-09","time":"20:00:48"},{"task":"memory_phase","broad_category":"I","image_png":"I_Peridotite_13.png","image_id":125,"category_name":"Peridotite","category":8,"distinct_rating":7.28,"distinct_type":"Top","rt":null,"stimulus":"Stimuli_Rocks480/I_Peridotite_13.png","response":null,"trial_type":"image-keyboard-response","trial_index":8,"plugin_version":"2.1.0","time_elapsed":42849,"subject_id":"91379","group":"Group2","condition":"1_Rep","full_date":"2026-02-09T20:00:48.483Z","date":"2026-02-09","time":"20:00:48"},{"rt":null,"stimulus":"<p style=\"font-size: 50px; margin: 0; text-align: center;\">+</p>","response":null,"trial_type":"html-keyboard-response","trial_index":9,"plugin_version":"2.1.0","time_elapsed":43858,"subject_id":"91379","group":"Group2","condition":"1_Rep","full_date":"2026-02-09T20:00:48.483Z","date":"2026-02-09","time":"20:00:48"},{"task":"memory_phase","broad_category":"S","image_png":"S_Dolomite_16.png","image_id":400,"category_name":"Dolomite","category":25,"distinct_rating":1.71,"distinct_type":"Bottom","rt":null,"stimulus":"Stimuli_Rocks480/S_Dolomite_16.png","response":null,"trial_type":"image-keyboard-response","trial_index":10,"plugin_version":"2.1.0","time_elapsed":46370,"subject_id":"91379","group":"Group2","condition":"1_Rep","full_date":"2026-02-09T20:00:48.483Z","date":"2026-02-09","time":"20:00:48"},{"rt":null,"stimulus":"<p style=\"font-size: 50px; margin: 0; text-align: center;\">+</p>","response":null,"trial_type":"html-keyboard-response","trial_index":11,"plugin_version":"2.1.0","time_elapsed":47378,"subject_id":"91379","group":"Group2","condition":"1_Rep","full_date":"2026-02-09T20:00:48.483Z","date":"2026-02-09","time":"20:00:48"},{"task":"memory_phase","broad_category":"I","image_png":"I_Pumice_13.png","image_id":141,"category_name":"Pumice","category":9,"distinct_rating":3.12,"distinct_type":"Bottom","rt":null,"stimulus":"Stimuli_Rocks480/I_Pumice_13.png","response":null,"trial_type":"image-keyboard-response","trial_index":12,"plugin_version":"2.1.0","time_elapsed":49883,"subject_id":"91379","group":"Group2","condition":"1_Rep","full_date":"2026-02-09T20:00:48.483Z","date":"2026-02-09","time":"20:00:48"},{"rt":null,"stimulus":"<p style=\"font-size: 50px; margin: 0; text-align: center;\">+</p>","response":null,"trial_type":"html-keyboard-response","trial_index":13,"plugin_version":"2.1.0","time_elapsed":50893,"subject_id":"91379","group":"Group2","condition":"1_Rep","full_date":"2026-02-09T20:00:48.483Z","date":"2026-02-09","time":"20:00:48"},{"task":"memory_phase","broad_category":"S","image_png":"S_Sandstone_11.png","image_id":459,"category_name":"Sandstone","category":29,"distinct_rating":1.82,"distinct_type":"Bottom","rt":null,"stimulus":"Stimuli_Rocks480/S_Sandstone_11.png","response":null,"trial_type":"image-keyboard-response","trial_index":14,"plugin_version":"2.1.0","time_elapsed":53407,"subject_id":"91379","group":"Group2","condition":"1_Rep","full_date":"2026-02-09T20:00:48.483Z","date":"2026-02-09","time":"20:00:48"},{"rt":null,"stimulus":"<p style=\"font-size: 50px; margin: 0; text-align: center;\">+</p>","response":null,"trial_type":"html-keyboard-response","trial_index":15,"plugin_version":"2.1.0","time_elapsed":54418,"subject_id":"91379","group":"Group2","condition":"1_Rep","full_date":"2026-02-09T20:00:48.483Z","date":"2026-02-09","time":"20:00:48"},{"task":"memory_phase","broad_category":"I","image_png":"I_Basalt_08.png","image_id":24,"category_name":"Basalt","category":2,"distinct_rating":2.31,"distinct_type":"Bottom","rt":null,"stimulus":"Stimuli_Rocks480/I_Basalt_08.png","response":null,"trial_type":"image-keyboard-response","trial_index":16,"plugin_version":"2.1.0","time_elapsed":56932,"subject_id":"91379","group":"Group2","condition":"1_Rep","full_date":"2026-02-09T20:00:48.483Z","date":"2026-02-09","time":"20:00:48"},{"rt":null,"stimulus":"<p style=\"font-size: 50px; margin: 0; text-align: center;\">+</p>","response":null,"trial_type":"html-keyboard-response","trial_index":17,"plugin_version":"2.1.0","time_elapsed":57943,"subject_id":"91379","group":"Group2","condition":"1_Rep","full_date":"2026-02-09T20:00:48.483Z","date":"2026-02-09","time":"20:00:48"},{"task":"memory_phase","broad_category":"I","image_png":"I_Gabbro_02.png","image_id":50,"category_name":"Gabbro","category":4,"distinct_rating":2.73,"distinct_type":"Bottom","rt":null,"stimulus":"Stimuli_Rocks480/I_Gabbro_02.png","response":null,"trial_type":"image-keyboard-response","trial_index":18,"plugin_version":"2.1.0","time_elapsed":60456,"subject_id":"91379","group":"Group2","condition":"1_Rep","full_date":"2026-02-09T20:00:48.483Z","date":"2026-02-09","time":"20:00:48"},{"rt":null,"stimulus":"<p style=\"font-size: 50px; margin: 0; text-align: center;\">+</p>","response":null,"trial_type":"html-keyboard-response","trial_index":19,"plugin_version":"2.1.0","time_elapsed":61462,"subject_id":"91379","group":"Group2","condition":"1_Rep","full_date":"2026-02-09T20:00:48.483Z","date":"2026-02-09","time":"20:00:48"},{"task":"memory_phase","broad_category":"M","image_png":"M_Slate_14.png","image_id":318,"category_name":"Slate","category":20,"distinct_rating":2.58,"distinct_type":"Bottom","rt":null,"stimulus":"Stimuli_Rocks480/M_Slate_14.png","response":null,"trial_type":"image-keyboard-response","trial_index":20,"plugin_version":"2.1.0","time_elapsed":63969,"subject_id":"91379","group":"Group2","condition":"1_Rep","full_date":"2026-02-09T20:00:48.483Z","date":"2026-02-09","time":"20:00:48"},{"rt":null,"stimulus":"<p style=\"font-size: 50px; margin: 0; text-align: center;\">+</p>","response":null,"trial_type":"html-keyboard-response","trial_index":21,"plugin_version":"2.1.0","time_elapsed":64973,"subject_id":"91379","group":"Group2","condition":"1_Rep","full_date":"2026-02-09T20:00:48.483Z","date":"2026-02-09","time":"20:00:48"},{"task":"memory_phase","broad_category":"M","image_png":"M_Phyllite_13.png","image_id":269,"category_name":"Phyllite","category":17,"distinct_rating":2.8,"distinct_type":"Bottom","rt":null,"stimulus":"Stimuli_Rocks480/M_Phyllite_13.png","response":null,"trial_type":"image-keyboard-response","trial_index":22,"plugin_version":"2.1.0","time_elapsed":67486,"subject_id":"91379","group":"Group2","condition":"1_Rep","full_date":"2026-02-09T20:00:48.483Z","date":"2026-02-09","time":"20:00:48"},{"rt":null,"stimulus":"<p style=\"font-size: 50px; margin: 0; text-align: center;\">+</p>","response":null,"trial_type":"html-keyboard-response","trial_index":23,"plugin_version":"2.1.0","time_elapsed":68495,"subject_id":"91379","group":"Group2","condition":"1_Rep","full_date":"2026-02-09T20:00:48.483Z","date":"2026-02-09","time":"20:00:48"},{"task":"memory_phase","broad_category":"M","image_png":"M_Slate_04.png","image_id":308,"category_name":"Slate","category":20,"distinct_rating":2.2,"distinct_type":"Bottom","rt":null,"stimulus":"Stimuli_Rocks480/M_Slate_04.png","response":null,"trial_type":"image-keyboard-response","trial_index":24,"plugin_version":"2.1.0","time_elapsed":70998,"subject_id":"91379","group":"Group2","condition":"1_Rep","full_date":"2026-02-09T20:00:48.483Z","date":"2026-02-09","time":"20:00:48"},{"rt":null,"stimulus":"<p style=\"font-size: 50px; margin: 0; text-align: center;\">+</p>","response":null,"trial_type":"html-keyboard-response","trial_index":25,"plugin_version":"2.1.0","time_elapsed":72009,"subject_id":"91379","group":"Group2","condition":"1_Rep","full_date":"2026-02-09T20:00:48.483Z","date":"2026-02-09","time":"20:00:48"},{"task":"memory_phase","broad_category":"M","image_png":"M_Gneiss_14.png","image_id":206,"category_name":"Gneiss","category":13,"distinct_rating":3.41,"distinct_type":"Bottom","rt":null,"stimulus":"Stimuli_Rocks480/M_Gneiss_14.png","response":null,"trial_type":"image-keyboard-response","trial_index":26,"plugin_version":"2.1.0","time_elapsed":74522,"subject_id":"91379","group":"Group2","condition":"1_Rep","full_date":"2026-02-09T20:00:48.483Z","date":"2026-02-09","time":"20:00:48"},{"rt":null,"stimulus":"<p style=\"font-size: 50px; margin: 0; text-align: center;\">+</p>","response":null,"trial_type":"html-keyboard-response","trial_index":27,"plugin_version":"2.1.0","time_elapsed":75534,"subject_id":"91379","group":"Group2","condition":"1_Rep","full_date":"2026-02-09T20:00:48.483Z","date":"2026-02-09","time":"20:00:48"},{"task":"memory_phase","broad_category":"S","image_png":"S_Conglomerate_14.png","image_id":382,"category_name":"Conglomerate","category":24,"distinct_rating":6.86,"distinct_type":"Top","rt":null,"stimulus":"Stimuli_Rocks480/S_Conglomerate_14.png","response":null,"trial_type":"image-keyboard-response","trial_index":28,"plugin_version":"2.1.0","time_elapsed":78046,"subject_id":"91379","group":"Group2","condition":"1_Rep","full_date":"2026-02-09T20:00:48.483Z","date":"2026-02-09","time":"20:00:48"},{"rt":null,"stimulus":"<p style=\"font-size: 50px; margin: 0; text-align: center;\">+</p>","response":null,"trial_type":"html-keyboard-response","trial_index":29,"plugin_version":"2.1.0","time_elapsed":79057,"subject_id":"91379","group":"Group2","condition":"1_Rep","full_date":"2026-02-09T20:00:48.483Z","date":"2026-02-09","time":"20:00:48"},{"task":"memory_phase","broad_category":"M","image_png":"M_Quartzite_12.png","image_id":284,"category_name":"Quartzite","category":18,"distinct_rating":1.92,"distinct_type":"Bottom","rt":null,"stimulus":"Stimuli_Rocks480/M_Quartzite_12.png","response":null,"trial_type":"image-keyboard-response","trial_index":30,"plugin_version":"2.1.0","time_elapsed":81568,"subject_id":"91379","group":"Group2","condition":"1_Rep","full_date":"2026-02-09T20:00:48.483Z","date":"2026-02-09","time":"20:00:48"},{"rt":null,"stimulus":"<p style=\"font-size: 50px; margin: 0; text-align: center;\">+</p>","response":null,"trial_type":"html-keyboard-response","trial_index":31,"plugin_version":"2.1.0","time_elapsed":82570,"subject_id":"91379","group":"Group2","condition":"1_Rep","full_date":"2026-02-09T20:00:48.483Z","date":"2026-02-09","time":"20:00:48"},{"task":"memory_phase","broad_category":"S","image_png":"S_Shale_07.png","image_id":471,"category_name":"Shale","category":30,"distinct_rating":2.73,"distinct_type":"Bottom","rt":null,"stimulus":"Stimuli_Rocks480/S_Shale_07.png","response":null,"trial_type":"image-keyboard-response","trial_index":32,"plugin_version":"2.1.0","time_elapsed":85087,"subject_id":"91379","group":"Group2","condition":"1_Rep","full_date":"2026-02-09T20:00:48.483Z","date":"2026-02-09","time":"20:00:48"},{"rt":null,"stimulus":"<p style=\"font-size: 50px; margin: 0; text-align: center;\">+</p>","response":null,"trial_type":"html-keyboard-response","trial_index":33,"plugin_version":"2.1.0","time_elapsed":86101,"subject_id":"91379","group":"Group2","condition":"1_Rep","full_date":"2026-02-09T20:00:48.483Z","date":"2026-02-09","time":"20:00:48"},{"task":"memory_phase","broad_category":"I","image_png":"I_Basalt_10.png","image_id":26,"category_name":"Basalt","category":2,"distinct_rating":2.76,"distinct_type":"Bottom","rt":null,"stimulus":"Stimuli_Rocks480/I_Basalt_10.png","response":null,"trial_type":"image-keyboard-response","trial_index":34,"plugin_version":"2.1.0","time_elapsed":88607,"subject_id":"91379","group":"Group2","condition":"1_Rep","full_date":"2026-02-09T20:00:48.483Z","date":"2026-02-09","time":"20:00:48"},{"rt":null,"stimulus":"<p style=\"font-size: 50px; margin: 0; text-align: center;\">+</p>","response":null,"trial_type":"html-keyboard-response","trial_index":35,"plugin_version":"2.1.0","time_elapsed":89618,"subject_id":"91379","group":"Group2","condition":"1_Rep","full_date":"2026-02-09T20:00:48.483Z","date":"2026-02-09","time":"20:00:48"},{"task":"memory_phase","broad_category":"I","image_png":"I_Basalt_13.png","image_id":29,"category_name":"Basalt","category":2,"distinct_rating":2.68,"distinct_type":"Bottom","rt":null,"stimulus":"Stimuli_Rocks480/I_Basalt_13.png","response":null,"trial_type":"image-keyboard-response","trial_index":36,"plugin_version":"2.1.0","time_elapsed":92132,"subject_id":"91379","group":"Group2","condition":"1_Rep","full_date":"2026-02-09T20:00:48.483Z","date":"2026-02-09","time":"20:00:48"},{"rt":null,"stimulus":"<p style=\"font-size: 50px; margin: 0; text-align: center;\">+</p>","response":null,"trial_type":"html-keyboard-response","trial_index":37,"plugin_version":"2.1.0","time_elapsed":93141,"subject_id":"91379","group":"Group2","condition":"1_Rep","full_date":"2026-02-09T20:00:48.483Z","date":"2026-02-09","time":"20:00:48"},{"task":"memory_phase","broad_category":"M","image_png":"M_Gneiss_15.png","image_id":207,"category_name":"Gneiss","category":13,"distinct_rating":3.11,"distinct_type":"Bottom","rt":null,"stimulus":"Stimuli_Rocks480/M_Gneiss_15.png","response":null,"trial_type":"image-keyboard-response","trial_index":38,"plugin_version":"2.1.0","time_elapsed":95653,"subject_id":"91379","group":"Group2","condition":"1_Rep","full_date":"2026-02-09T20:00:48.483Z","date":"2026-02-09","time":"20:00:48"},{"rt":null,"stimulus":"<p style=\"font-size: 50px; margin: 0; text-align: center;\">+</p>","response":null,"trial_type":"html-keyboard-response","trial_index":39,"plugin_version":"2.1.0","time_elapsed":96659,"subject_id":"91379","group":"Group2","condition":"1_Rep","full_date":"2026-02-09T20:00:48.483Z","date":"2026-02-09","time":"20:00:48"},{"task":"memory_phase","broad_category":"M","image_png":"M_Phyllite_05.png","image_id":261,"category_name":"Phyllite","category":17,"distinct_rating":2.14,"distinct_type":"Bottom","rt":null,"stimulus":"Stimuli_Rocks480/M_Phyllite_05.png","response":null,"trial_type":"image-keyboard-response","trial_index":40,"plugin_version":"2.1.0","time_elapsed":99169,"subject_id":"91379","group":"Group2","condition":"1_Rep","full_date":"2026-02-09T20:00:48.483Z","date":"2026-02-09","time":"20:00:48"},{"rt":null,"stimulus":"<p style=\"font-size: 50px; margin: 0; text-align: center;\">+</p>","response":null,"trial_type":"html-keyboard-response","trial_index":41,"plugin_version":"2.1.0","time_elapsed":100173,"subject_id":"91379","group":"Group2","condition":"1_Rep","full_date":"2026-02-09T20:00:48.483Z","date":"2026-02-09","time":"20:00:48"},{"task":"memory_phase","broad_category":"I","image_png":"I_Rhyolite_05.png","image_id":149,"category_name":"Rhyolite","category":10,"distinct_rating":3.02,"distinct_type":"Bottom","rt":null,"stimulus":"Stimuli_Rocks480/I_Rhyolite_05.png","response":null,"trial_type":"image-keyboard-response","trial_index":42,"plugin_version":"2.1.0","time_elapsed":102685,"subject_id":"91379","group":"Group2","condition":"1_Rep","full_date":"2026-02-09T20:00:48.483Z","date":"2026-02-09","time":"20:00:48"},{"rt":null,"stimulus":"<p style=\"font-size: 50px; margin: 0; text-align: center;\">+</p>","response":null,"trial_type":"html-keyboard-response","trial_index":43,"plugin_version":"2.1.0","time_elapsed":103700,"subject_id":"91379","group":"Group2","condition":"1_Rep","full_date":"2026-02-09T20:00:48.483Z","date":"2026-02-09","time":"20:00:48"},{"task":"memory_phase","broad_category":"I","image_png":"I_Diorite_15.png","image_id":47,"category_name":"Diorite","category":3,"distinct_rating":3.05,"distinct_type":"Bottom","rt":null,"stimulus":"Stimuli_Rocks480/I_Diorite_15.png","response":null,"trial_type":"image-keyboard-response","trial_index":44,"plugin_version":"2.1.0","time_elapsed":106211,"subject_id":"91379","group":"Group2","condition":"1_Rep","full_date":"2026-02-09T20:00:48.483Z","date":"2026-02-09","time":"20:00:48"},{"rt":null,"stimulus":"<p style=\"font-size: 50px; margin: 0; text-align: center;\">+</p>","response":null,"trial_type":"html-keyboard-response","trial_index":45,"plugin_version":"2.1.0","time_elapsed":107225,"subject_id":"91379","group":"Group2","condition":"1_Rep","full_date":"2026-02-09T20:00:48.483Z","date":"2026-02-09","time":"20:00:48"},{"task":"memory_phase","broad_category":"I","image_png":"I_Gabbro_14.png","image_id":62,"category_name":"Gabbro","category":4,"distinct_rating":2.95,"distinct_type":"Bottom","rt":null,"stimulus":"Stimuli_Rocks480/I_Gabbro_14.png","response":null,"trial_type":"image-keyboard-response","trial_index":46,"plugin_version":"2.1.0","time_elapsed":109733,"subject_id":"91379","group":"Group2","condition":"1_Rep","full_date":"2026-02-09T20:00:48.483Z","date":"2026-02-09","time":"20:00:48"},{"rt":null,"stimulus":"<p style=\"font-size: 50px; margin: 0; text-align: center;\">+</p>","response":null,"trial_type":"html-keyboard-response","trial_index":47,"plugin_version":"2.1.0","time_elapsed":110735,"subject_id":"91379","group":"Group2","condition":"1_Rep","full_date":"2026-02-09T20:00:48.483Z","date":"2026-02-09","time":"20:00:48"},{"task":"memory_phase","broad_category":"S","image_png":"S_Rock Salt_15.png","image_id":447,"category_name":"Rock Salt","category":28,"distinct_rating":7.79,"distinct_type":"Top","rt":null,"stimulus":"Stimuli_Rocks480/S_Rock Salt_15.png","response":null,"trial_type":"image-keyboard-response","trial_index":48,"plugin_version":"2.1.0","time_elapsed":113248,"subject_id":"91379","group":"Group2","condition":"1_Rep","full_date":"2026-02-09T20:00:48.483Z","date":"2026-02-09","time":"20:00:48"},{"rt":null,"stimulus":"<p style=\"font-size: 50px; margin: 0; text-align: center;\">+</p>","response":null,"trial_type":"html-keyboard-response","trial_index":49,"plugin_version":"2.1.0","time_elapsed":114251,"subject_id":"91379","group":"Group2","condition":"1_Rep","full_date":"2026-02-09T20:00:48.483Z","date":"2026-02-09","time":"20:00:48"},{"task":"memory_phase","broad_category":"I","image_png":"I_Diorite_01.png","image_id":33,"category_name":"Diorite","category":3,"distinct_rating":2.97,"distinct_type":"Bottom","rt":null,"stimulus":"Stimuli_Rocks480/I_Diorite_01.png","response":null,"trial_type":"image-keyboard-response","trial_index":50,"plugin_version":"2.1.0","time_elapsed":116754,"subject_id":"91379","group":"Group2","condition":"1_Rep","full_date":"2026-02-09T20:00:48.483Z","date":"2026-02-09","time":"20:00:48"},{"rt":null,"stimulus":"<p style=\"font-size: 50px; margin: 0; text-align: center;\">+</p>","response":null,"trial_type":"html-keyboard-response","trial_index":51,"plugin_version":"2.1.0","time_elapsed":117755,"subject_id":"91379","group":"Group2","condition":"1_Rep","full_date":"2026-02-09T20:00:48.483Z","date":"2026-02-09","time":"20:00:48"},{"task":"memory_phase","broad_category":"M","image_png":"M_Marble_03.png","image_id":227,"category_name":"Marble","category":15,"distinct_rating":2.67,"distinct_type":"Bottom","rt":null,"stimulus":"Stimuli_Rocks480/M_Marble_03.png","response":null,"trial_type":"image-keyboard-response","trial_index":52,"plugin_version":"2.1.0","time_elapsed":120264,"subject_id":"91379","group":"Group2","condition":"1_Rep","full_date":"2026-02-09T20:00:48.483Z","date":"2026-02-09","time":"20:00:48"},{"rt":null,"stimulus":"<p style=\"font-size: 50px; margin: 0; text-align: center;\">+</p>","response":null,"trial_type":"html-keyboard-response","trial_index":53,"plugin_version":"2.1.0","time_elapsed":121267,"subject_id":"91379","group":"Group2","condition":"1_Rep","full_date":"2026-02-09T20:00:48.483Z","date":"2026-02-09","time":"20:00:48"},{"task":"memory_phase","broad_category":"I","image_png":"I_Pumice_01.png","image_id":129,"category_name":"Pumice","category":9,"distinct_rating":3.25,"distinct_type":"Bottom","rt":null,"stimulus":"Stimuli_Rocks480/I_Pumice_01.png","response":null,"trial_type":"image-keyboard-response","trial_index":54,"plugin_version":"2.1.0","time_elapsed":123769,"subject_id":"91379","group":"Group2","condition":"1_Rep","full_date":"2026-02-09T20:00:48.483Z","date":"2026-02-09","time":"20:00:48"},{"rt":2308,"stimulus":"<p style=\"max-width: 760px; margin: auto; font-size: 35px; line-height: 1.5;\">\n                Press SPACE to continue study phase\n              </p>","response":" ","trial_type":"html-keyboard-response","trial_index":55,"plugin_version":"2.1.0","time_elapsed":126079,"subject_id":"91379","group":"Group2","condition":"1_Rep","full_date":"2026-02-09T20:00:48.483Z","date":"2026-02-09","time":"20:00:48"},{"rt":null,"stimulus":"<p style=\"font-size: 50px; margin: 0; text-align: center;\">+</p>","response":null,"trial_type":"html-keyboard-response","trial_index":56,"plugin_version":"2.1.0","time_elapsed":127092,"subject_id":"91379","group":"Group2","condition":"1_Rep","full_date":"2026-02-09T20:00:48.483Z","date":"2026-02-09","time":"20:00:48"},{"task":"memory_phase","broad_category":"S","image_png":"S_Sandstone_04.png","image_id":452,"category_name":"Sandstone","category":29,"distinct_rating":1.8,"distinct_type":"Bottom","rt":null,"stimulus":"Stimuli_Rocks480/S_Sandstone_04.png","response":null,"trial_type":"image-keyboard-response","trial_index":57,"plugin_version":"2.1.0","time_elapsed":129604,"subject_id":"91379","group":"Group2","condition":"1_Rep","full_date":"2026-02-09T20:00:48.483Z","date":"2026-02-09","time":"20:00:48"},{"rt":null,"stimulus":"<p style=\"font-size: 50px; margin: 0; text-align: center;\">+</p>","response":null,"trial_type":"html-keyboard-response","trial_index":58,"plugin_version":"2.1.0","time_elapsed":130622,"subject_id":"91379","group":"Group2","condition":"1_Rep","full_date":"2026-02-09T20:00:48.483Z","date":"2026-02-09","time":"20:00:48"},{"task":"memory_phase","broad_category":"I","image_png":"I_Andesite_09.png","image_id":9,"category_name":"Andesite","category":1,"distinct_rating":2.49,"distinct_type":"Bottom","rt":null,"stimulus":"Stimuli_Rocks480/I_Andesite_09.png","response":null,"trial_type":"image-keyboard-response","trial_index":59,"plugin_version":"2.1.0","time_elapsed":133135,"subject_id":"91379","group":"Group2","condition":"1_Rep","full_date":"2026-02-09T20:00:48.483Z","date":"2026-02-09","time":"20:00:48"},{"rt":null,"stimulus":"<p style=\"font-size: 50px; margin: 0; text-align: center;\">+</p>","response":null,"trial_type":"html-keyboard-response","trial_index":60,"plugin_version":"2.1.0","time_elapsed":134150,"subject_id":"91379","group":"Group2","condition":"1_Rep","full_date":"2026-02-09T20:00:48.483Z","date":"2026-02-09","time":"20:00:48"},{"task":"memory_phase","broad_category":"I","image_png":"I_Rhyolite_10.png","image_id":154,"category_name":"Rhyolite","category":10,"distinct_rating":2.88,"distinct_type":"Bottom","rt":null,"stimulus":"Stimuli_Rocks480/I_Rhyolite_10.png","response":null,"trial_type":"image-keyboard-response","trial_index":61,"plugin_version":"2.1.0","time_elapsed":136656,"subject_id":"91379","group":"Group2","condition":"1_Rep","full_date":"2026-02-09T20:00:48.483Z","date":"2026-02-09","time":"20:00:48"},{"rt":null,"stimulus":"<p style=\"font-size: 50px; margin: 0; text-align: center;\">+</p>","response":null,"trial_type":"html-keyboard-response","trial_index":62,"plugin_version":"2.1.0","time_elapsed":137662,"subject_id":"91379","group":"Group2","condition":"1_Rep","full_date":"2026-02-09T20:00:48.483Z","date":"2026-02-09","time":"20:00:48"},{"task":"memory_phase","broad_category":"I","image_png":"I_Andesite_04.png","image_id":4,"category_name":"Andesite","category":1,"distinct_rating":3.18,"distinct_type":"Bottom","rt":null,"stimulus":"Stimuli_Rocks480/I_Andesite_04.png","response":null,"trial_type":"image-keyboard-response","trial_index":63,"plugin_version":"2.1.0","time_elapsed":140180,"subject_id":"91379","group":"Group2","condition":"1_Rep","full_date":"2026-02-09T20:00:48.483Z","date":"2026-02-09","time":"20:00:48"},{"rt":null,"stimulus":"<p style=\"font-size: 50px; margin: 0; text-align: center;\">+</p>","response":null,"trial_type":"html-keyboard-response","trial_index":64,"plugin_version":"2.1.0","time_elapsed":141183,"subject_id":"91379","group":"Group2","condition":"1_Rep","full_date":"2026-02-09T20:00:48.483Z","date":"2026-02-09","time":"20:00:48"},{"task":"memory_phase","broad_category":"M","image_png":"M_Marble_14.png","image_id":238,"category_name":"Marble","category":15,"distinct_rating":3.31,"distinct_type":"Bottom","rt":null,"stimulus":"Stimuli_Rocks480/M_Marble_14.png","response":null,"trial_type":"image-keyboard-response","trial_index":65,"plugin_version":"2.1.0","time_elapsed":143689,"subject_id":"91379","group":"Group2","condition":"1_Rep","full_date":"2026-02-09T20:00:48.483Z","date":"2026-02-09","time":"20:00:48"},{"rt":null,"stimulus":"<p style=\"font-size: 50px; margin: 0; text-align: center;\">+</p>","response":null,"trial_type":"html-keyboard-response","trial_index":66,"plugin_version":"2.1.0","time_elapsed":144694,"subject_id":"91379","group":"Group2","condition":"1_Rep","full_date":"2026-02-09T20:00:48.483Z","date":"2026-02-09","time":"20:00:48"},{"task":"memory_phase","broad_category":"S","image_png":"S_Chert_13.png","image_id":365,"category_name":"Chert","category":23,"distinct_rating":6.57,"distinct_type":"Top","rt":null,"stimulus":"Stimuli_Rocks480/S_Chert_13.png","response":null,"trial_type":"image-keyboard-response","trial_index":67,"plugin_version":"2.1.0","time_elapsed":147197,"subject_id":"91379","group":"Group2","condition":"1_Rep","full_date":"2026-02-09T20:00:48.483Z","date":"2026-02-09","time":"20:00:48"},{"rt":null,"stimulus":"<p style=\"font-size: 50px; margin: 0; text-align: center;\">+</p>","response":null,"trial_type":"html-keyboard-response","trial_index":68,"plugin_version":"2.1.0","time_elapsed":148203,"subject_id":"91379","group":"Group2","condition":"1_Rep","full_date":"2026-02-09T20:00:48.483Z","date":"2026-02-09","time":"20:00:48"},{"task":"memory_phase","broad_category":"M","image_png":"M_Marble_02.png","image_id":226,"category_name":"Marble","category":15,"distinct_rating":3.2,"distinct_type":"Bottom","rt":null,"stimulus":"Stimuli_Rocks480/M_Marble_02.png","response":null,"trial_type":"image-keyboard-response","trial_index":69,"plugin_version":"2.1.0","time_elapsed":150712,"subject_id":"91379","group":"Group2","condition":"1_Rep","full_date":"2026-02-09T20:00:48.483Z","date":"2026-02-09","time":"20:00:48"},{"rt":null,"stimulus":"<p style=\"font-size: 50px; margin: 0; text-align: center;\">+</p>","response":null,"trial_type":"html-keyboard-response","trial_index":70,"plugin_version":"2.1.0","time_elapsed":151725,"subject_id":"91379","group":"Group2","condition":"1_Rep","full_date":"2026-02-09T20:00:48.483Z","date":"2026-02-09","time":"20:00:48"},{"task":"memory_phase","broad_category":"M","image_png":"M_Phyllite_02.png","image_id":258,"category_name":"Phyllite","category":17,"distinct_rating":2.89,"distinct_type":"Bottom","rt":null,"stimulus":"Stimuli_Rocks480/M_Phyllite_02.png","response":null,"trial_type":"image-keyboard-response","trial_index":71,"plugin_version":"2.1.0","time_elapsed":154229,"subject_id":"91379","group":"Group2","condition":"1_Rep","full_date":"2026-02-09T20:00:48.483Z","date":"2026-02-09","time":"20:00:48"},{"rt":null,"stimulus":"<p style=\"font-size: 50px; margin: 0; text-align: center;\">+</p>","response":null,"trial_type":"html-keyboard-response","trial_index":72,"plugin_version":"2.1.0","time_elapsed":155240,"subject_id":"91379","group":"Group2","condition":"1_Rep","full_date":"2026-02-09T20:00:48.483Z","date":"2026-02-09","time":"20:00:48"},{"task":"memory_phase","broad_category":"I","image_png":"I_Andesite_03.png","image_id":3,"category_name":"Andesite","category":1,"distinct_rating":3.17,"distinct_type":"Bottom","rt":null,"stimulus":"Stimuli_Rocks480/I_Andesite_03.png","response":null,"trial_type":"image-keyboard-response","trial_index":73,"plugin_version":"2.1.0","time_elapsed":157754,"subject_id":"91379","group":"Group2","condition":"1_Rep","full_date":"2026-02-09T20:00:48.483Z","date":"2026-02-09","time":"20:00:48"},{"rt":null,"stimulus":"<p style=\"font-size: 50px; margin: 0; text-align: center;\">+</p>","response":null,"trial_type":"html-keyboard-response","trial_index":74,"plugin_version":"2.1.0","time_elapsed":158758,"subject_id":"91379","group":"Group2","condition":"1_Rep","full_date":"2026-02-09T20:00:48.483Z","date":"2026-02-09","time":"20:00:48"},{"task":"memory_phase","broad_category":"M","image_png":"M_Gneiss_10.png","image_id":202,"category_name":"Gneiss","category":13,"distinct_rating":3.09,"distinct_type":"Bottom","rt":null,"stimulus":"Stimuli_Rocks480/M_Gneiss_10.png","response":null,"trial_type":"image-keyboard-response","trial_index":75,"plugin_version":"2.1.0","time_elapsed":161267,"subject_id":"91379","group":"Group2","condition":"1_Rep","full_date":"2026-02-09T20:00:48.483Z","date":"2026-02-09","time":"20:00:48"},{"rt":null,"stimulus":"<p style=\"font-size: 50px; margin: 0; text-align: center;\">+</p>","response":null,"trial_type":"html-keyboard-response","trial_index":76,"plugin_version":"2.1.0","time_elapsed":162270,"subject_id":"91379","group":"Group2","condition":"1_Rep","full_date":"2026-02-09T20:00:48.483Z","date":"2026-02-09","time":"20:00:48"},{"task":"memory_phase","broad_category":"S","image_png":"S_Sandstone_08.png","image_id":456,"category_name":"Sandstone","category":29,"distinct_rating":1.5,"distinct_type":"Bottom","rt":null,"stimulus":"Stimuli_Rocks480/S_Sandstone_08.png","response":null,"trial_type":"image-keyboard-response","trial_index":77,"plugin_version":"2.1.0","time_elapsed":164778,"subject_id":"91379","group":"Group2","condition":"1_Rep","full_date":"2026-02-09T20:00:48.483Z","date":"2026-02-09","time":"20:00:48"},{"rt":null,"stimulus":"<p style=\"font-size: 50px; margin: 0; text-align: center;\">+</p>","response":null,"trial_type":"html-keyboard-response","trial_index":78,"plugin_version":"2.1.0","time_elapsed":165796,"subject_id":"91379","group":"Group2","condition":"1_Rep","full_date":"2026-02-09T20:00:48.483Z","date":"2026-02-09","time":"20:00:48"},{"task":"memory_phase","broad_category":"I","image_png":"I_Pumice_14.png","image_id":142,"category_name":"Pumice","category":9,"distinct_rating":3.22,"distinct_type":"Bottom","rt":null,"stimulus":"Stimuli_Rocks480/I_Pumice_14.png","response":null,"trial_type":"image-keyboard-response","trial_index":79,"plugin_version":"2.1.0","time_elapsed":168312,"subject_id":"91379","group":"Group2","condition":"1_Rep","full_date":"2026-02-09T20:00:48.483Z","date":"2026-02-09","time":"20:00:48"},{"rt":null,"stimulus":"<p style=\"font-size: 50px; margin: 0; text-align: center;\">+</p>","response":null,"trial_type":"html-keyboard-response","trial_index":80,"plugin_version":"2.1.0","time_elapsed":169326,"subject_id":"91379","group":"Group2","condition":"1_Rep","full_date":"2026-02-09T20:00:48.483Z","date":"2026-02-09","time":"20:00:48"},{"task":"memory_phase","broad_category":"I","image_png":"I_Pegmatite_11.png","image_id":107,"category_name":"Pegmatite","category":7,"distinct_rating":7.11,"distinct_type":"Top","rt":null,"stimulus":"Stimuli_Rocks480/I_Pegmatite_11.png","response":null,"trial_type":"image-keyboard-response","trial_index":81,"plugin_version":"2.1.0","time_elapsed":171841,"subject_id":"91379","group":"Group2","condition":"1_Rep","full_date":"2026-02-09T20:00:48.483Z","date":"2026-02-09","time":"20:00:48"},{"rt":null,"stimulus":"<p style=\"font-size: 50px; margin: 0; text-align: center;\">+</p>","response":null,"trial_type":"html-keyboard-response","trial_index":82,"plugin_version":"2.1.0","time_elapsed":172851,"subject_id":"91379","group":"Group2","condition":"1_Rep","full_date":"2026-02-09T20:00:48.483Z","date":"2026-02-09","time":"20:00:48"},{"task":"memory_phase","broad_category":"I","image_png":"I_Obsidian_06.png","image_id":86,"category_name":"Obsidian","category":6,"distinct_rating":8.01,"distinct_type":"Top","rt":null,"stimulus":"Stimuli_Rocks480/I_Obsidian_06.png","response":null,"trial_type":"image-keyboard-response","trial_index":83,"plugin_version":"2.1.0","time_elapsed":175369,"subject_id":"91379","group":"Group2","condition":"1_Rep","full_date":"2026-02-09T20:00:48.483Z","date":"2026-02-09","time":"20:00:48"},{"rt":null,"stimulus":"<p style=\"font-size: 50px; margin: 0; text-align: center;\">+</p>","response":null,"trial_type":"html-keyboard-response","trial_index":84,"plugin_version":"2.1.0","time_elapsed":176373,"subject_id":"91379","group":"Group2","condition":"1_Rep","full_date":"2026-02-09T20:00:48.483Z","date":"2026-02-09","time":"20:00:48"},{"task":"memory_phase","broad_category":"S","image_png":"S_Shale_03.png","image_id":467,"category_name":"Shale","category":30,"distinct_rating":1.95,"distinct_type":"Bottom","rt":null,"stimulus":"Stimuli_Rocks480/S_Shale_03.png","response":null,"trial_type":"image-keyboard-response","trial_index":85,"plugin_version":"2.1.0","time_elapsed":178891,"subject_id":"91379","group":"Group2","condition":"1_Rep","full_date":"2026-02-09T20:00:48.483Z","date":"2026-02-09","time":"20:00:48"},{"rt":null,"stimulus":"<p style=\"font-size: 50px; margin: 0; text-align: center;\">+</p>","response":null,"trial_type":"html-keyboard-response","trial_index":86,"plugin_version":"2.1.0","time_elapsed":179904,"subject_id":"91379","group":"Group2","condition":"1_Rep","full_date":"2026-02-09T20:00:48.483Z","date":"2026-02-09","time":"20:00:48"},{"task":"memory_phase","broad_category":"I","image_png":"I_Rhyolite_08.png","image_id":152,"category_name":"Rhyolite","category":10,"distinct_rating":1.38,"distinct_type":"Bottom","rt":null,"stimulus":"Stimuli_Rocks480/I_Rhyolite_08.png","response":null,"trial_type":"image-keyboard-response","trial_index":87,"plugin_version":"2.1.0","time_elapsed":182420,"subject_id":"91379","group":"Group2","condition":"1_Rep","full_date":"2026-02-09T20:00:48.483Z","date":"2026-02-09","time":"20:00:48"},{"rt":null,"stimulus":"<p style=\"font-size: 50px; margin: 0; text-align: center;\">+</p>","response":null,"trial_type":"html-keyboard-response","trial_index":88,"plugin_version":"2.1.0","time_elapsed":183427,"subject_id":"91379","group":"Group2","condition":"1_Rep","full_date":"2026-02-09T20:00:48.483Z","date":"2026-02-09","time":"20:00:48"},{"task":"memory_phase","broad_category":"I","image_png":"I_Diorite_10.png","image_id":42,"category_name":"Diorite","category":3,"distinct_rating":2.84,"distinct_type":"Bottom","rt":null,"stimulus":"Stimuli_Rocks480/I_Diorite_10.png","response":null,"trial_type":"image-keyboard-response","trial_index":89,"plugin_version":"2.1.0","time_elapsed":185938,"subject_id":"91379","group":"Group2","condition":"1_Rep","full_date":"2026-02-09T20:00:48.483Z","date":"2026-02-09","time":"20:00:48"},{"rt":null,"stimulus":"<p style=\"font-size: 50px; margin: 0; text-align: center;\">+</p>","response":null,"trial_type":"html-keyboard-response","trial_index":90,"plugin_version":"2.1.0","time_elapsed":186945,"subject_id":"91379","group":"Group2","condition":"1_Rep","full_date":"2026-02-09T20:00:48.483Z","date":"2026-02-09","time":"20:00:48"},{"task":"memory_phase","broad_category":"S","image_png":"S_Dolomite_07.png","image_id":391,"category_name":"Dolomite","category":25,"distinct_rating":1.73,"distinct_type":"Bottom","rt":null,"stimulus":"Stimuli_Rocks480/S_Dolomite_07.png","response":null,"trial_type":"image-keyboard-response","trial_index":91,"plugin_version":"2.1.0","time_elapsed":189450,"subject_id":"91379","group":"Group2","condition":"1_Rep","full_date":"2026-02-09T20:00:48.483Z","date":"2026-02-09","time":"20:00:48"},{"rt":null,"stimulus":"<p style=\"font-size: 50px; margin: 0; text-align: center;\">+</p>","response":null,"trial_type":"html-keyboard-response","trial_index":92,"plugin_version":"2.1.0","time_elapsed":190462,"subject_id":"91379","group":"Group2","condition":"1_Rep","full_date":"2026-02-09T20:00:48.483Z","date":"2026-02-09","time":"20:00:48"},{"task":"memory_phase","broad_category":"S","image_png":"S_Shale_02.png","image_id":466,"category_name":"Shale","category":30,"distinct_rating":2.9,"distinct_type":"Bottom","rt":null,"stimulus":"Stimuli_Rocks480/S_Shale_02.png","response":null,"trial_type":"image-keyboard-response","trial_index":93,"plugin_version":"2.1.0","time_elapsed":192978,"subject_id":"91379","group":"Group2","condition":"1_Rep","full_date":"2026-02-09T20:00:48.483Z","date":"2026-02-09","time":"20:00:48"},{"rt":null,"stimulus":"<p style=\"font-size: 50px; margin: 0; text-align: center;\">+</p>","response":null,"trial_type":"html-keyboard-response","trial_index":94,"plugin_version":"2.1.0","time_elapsed":193990,"subject_id":"91379","group":"Group2","condition":"1_Rep","full_date":"2026-02-09T20:00:48.483Z","date":"2026-02-09","time":"20:00:48"},{"task":"memory_phase","broad_category":"M","image_png":"M_Quartzite_15.png","image_id":287,"category_name":"Quartzite","category":18,"distinct_rating":2.19,"distinct_type":"Bottom","rt":null,"stimulus":"Stimuli_Rocks480/M_Quartzite_15.png","response":null,"trial_type":"image-keyboard-response","trial_index":95,"plugin_version":"2.1.0","time_elapsed":196506,"subject_id":"91379","group":"Group2","condition":"1_Rep","full_date":"2026-02-09T20:00:48.483Z","date":"2026-02-09","time":"20:00:48"},{"rt":null,"stimulus":"<p style=\"font-size: 50px; margin: 0; text-align: center;\">+</p>","response":null,"trial_type":"html-keyboard-response","trial_index":96,"plugin_version":"2.1.0","time_elapsed":197510,"subject_id":"91379","group":"Group2","condition":"1_Rep","full_date":"2026-02-09T20:00:48.483Z","date":"2026-02-09","time":"20:00:48"},{"task":"memory_phase","broad_category":"M","image_png":"M_Slate_10.png","image_id":314,"category_name":"Slate","category":20,"distinct_rating":1.94,"distinct_type":"Bottom","rt":null,"stimulus":"Stimuli_Rocks480/M_Slate_10.png","response":null,"trial_type":"image-keyboard-response","trial_index":97,"plugin_version":"2.1.0","time_elapsed":200024,"subject_id":"91379","group":"Group2","condition":"1_Rep","full_date":"2026-02-09T20:00:48.483Z","date":"2026-02-09","time":"20:00:48"},{"rt":null,"stimulus":"<p style=\"font-size: 50px; margin: 0; text-align: center;\">+</p>","response":null,"trial_type":"html-keyboard-response","trial_index":98,"plugin_version":"2.1.0","time_elapsed":201030,"subject_id":"91379","group":"Group2","condition":"1_Rep","full_date":"2026-02-09T20:00:48.483Z","date":"2026-02-09","time":"20:00:48"},{"task":"memory_phase","broad_category":"I","image_png":"I_Pegmatite_03.png","image_id":99,"category_name":"Pegmatite","category":7,"distinct_rating":7.24,"distinct_type":"Top","rt":null,"stimulus":"Stimuli_Rocks480/I_Pegmatite_03.png","response":null,"trial_type":"image-keyboard-response","trial_index":99,"plugin_version":"2.1.0","time_elapsed":203539,"subject_id":"91379","group":"Group2","condition":"1_Rep","full_date":"2026-02-09T20:00:48.483Z","date":"2026-02-09","time":"20:00:48"},{"rt":null,"stimulus":"<p style=\"font-size: 50px; margin: 0; text-align: center;\">+</p>","response":null,"trial_type":"html-keyboard-response","trial_index":100,"plugin_version":"2.1.0","time_elapsed":204550,"subject_id":"91379","group":"Group2","condition":"1_Rep","full_date":"2026-02-09T20:00:48.483Z","date":"2026-02-09","time":"20:00:48"},{"task":"memory_phase","broad_category":"S","image_png":"S_Rock Salt_13.png","image_id":445,"category_name":"Rock Salt","category":28,"distinct_rating":7.58,"distinct_type":"Top","rt":null,"stimulus":"Stimuli_Rocks480/S_Rock Salt_13.png","response":null,"trial_type":"image-keyboard-response","trial_index":101,"plugin_version":"2.1.0","time_elapsed":207063,"subject_id":"91379","group":"Group2","condition":"1_Rep","full_date":"2026-02-09T20:00:48.483Z","date":"2026-02-09","time":"20:00:48"},{"rt":null,"stimulus":"<p style=\"font-size: 50px; margin: 0; text-align: center;\">+</p>","response":null,"trial_type":"html-keyboard-response","trial_index":102,"plugin_version":"2.1.0","time_elapsed":208078,"subject_id":"91379","group":"Group2","condition":"1_Rep","full_date":"2026-02-09T20:00:48.483Z","date":"2026-02-09","time":"20:00:48"},{"task":"memory_phase","broad_category":"I","image_png":"I_Gabbro_12.png","image_id":60,"category_name":"Gabbro","category":4,"distinct_rating":2.6,"distinct_type":"Bottom","rt":null,"stimulus":"Stimuli_Rocks480/I_Gabbro_12.png","response":null,"trial_type":"image-keyboard-response","trial_index":103,"plugin_version":"2.1.0","time_elapsed":210594,"subject_id":"91379","group":"Group2","condition":"1_Rep","full_date":"2026-02-09T20:00:48.483Z","date":"2026-02-09","time":"20:00:48"},{"rt":null,"stimulus":"<p style=\"font-size: 50px; margin: 0; text-align: center;\">+</p>","response":null,"trial_type":"html-keyboard-response","trial_index":104,"plugin_version":"2.1.0","time_elapsed":211609,"subject_id":"91379","group":"Group2","condition":"1_Rep","full_date":"2026-02-09T20:00:48.483Z","date":"2026-02-09","time":"20:00:48"},{"task":"memory_phase","broad_category":"S","image_png":"S_Dolomite_01.png","image_id":385,"category_name":"Dolomite","category":25,"distinct_rating":1.43,"distinct_type":"Bottom","rt":null,"stimulus":"Stimuli_Rocks480/S_Dolomite_01.png","response":null,"trial_type":"image-keyboard-response","trial_index":105,"plugin_version":"2.1.0","time_elapsed":214121,"subject_id":"91379","group":"Group2","condition":"1_Rep","full_date":"2026-02-09T20:00:48.483Z","date":"2026-02-09","time":"20:00:48"},{"rt":34235,"stimulus":"<div style=\"max-width: 760px; margin: auto; font-size: 20px; line-height: 1.5;\">\n      <h1 style=\"text-align:center; font-size: 30px;\">Instructions for the Test Phase</h1>\n      <p>\n        The study phase is now complete.\n      </p>\n      <p>\n        In the test phase, you will again see a series of rock images. \n        Some will be ones you saw before - during the study phase, while others will be new.  \n        <b>Your task</b> is to decide whether you have seen each image before by pressing the corresponding key on your keyboard:<br><br>\n          <b>A</b> - NO (you did not see this image before)<br>\n          <b>L</b> - YES (you saw this image before)<br><br>\n        The test will proceed at your own pace. You will receive feedback after each response.  \n        Please try to respond <b>as accurately as possible</b>.\n      </p>\n      <p>\n        <b>Reminder:</b> If your computer has multiple language settings (e.g., English and another language),\n        please ensure it is set to English during the test phase.\n      </p>\n      <p>\n        You can track your progress using the <b>completion bar</b> at the top of the screen.  \n        Note that it has been refreshed to reflect your progress during this final phase.\n      </p>\n      <p>\n        Press the button below when you are ready to continue.\n      </p>\n    </div>","response":0,"trial_type":"html-button-response","trial_index":106,"plugin_version":"2.1.0","time_elapsed":248358,"subject_id":"91379","group":"Group2","condition":"1_Rep","full_date":"2026-02-09T20:00:48.483Z","date":"2026-02-09","time":"20:00:48"},{"correct_response":"a","task":"test_phase","broad_category":"M","image_png":"M_Gneiss_05.png","image_id":197,"category_name":"Gneiss","category":13,"distinct_rating":2.97,"distinct_type":"Bottom","item_type":"Foil","rt":5125,"stimulus":"Stimuli_Rocks480/M_Gneiss_05.png","response":"l","trial_type":"image-keyboard-response","trial_index":107,"plugin_version":"2.1.0","time_elapsed":253487,"subject_id":"91379","group":"Group2","condition":"1_Rep","full_date":"2026-02-09T20:00:48.483Z","date":"2026-02-09","time":"20:00:48","cor_ans":false},{"trial_type":"html-keyboard-response","rt":null,"stimulus":"<p style=\"color: red; font-size: 50px; font-weight: bold;\">Incorrect</p>","response":null,"trial_index":108,"plugin_version":"2.1.0","time_elapsed":254000,"subject_id":"91379","group":"Group2","condition":"1_Rep","full_date":"2026-02-09T20:00:48.483Z","date":"2026-02-09","time":"20:00:48"},{"correct_response":"l","task":"test_phase","broad_category":"I","image_png":"I_Diorite_01.png","image_id":33,"category_name":"Diorite","category":3,"distinct_rating":2.97,"distinct_type":"Bottom","item_type":"Target","rt":1582,"stimulus":"Stimuli_Rocks480/I_Diorite_01.png","response":"l","trial_type":"image-keyboard-response","trial_index":109,"plugin_version":"2.1.0","time_elapsed":255584,"subject_id":"91379","group":"Group2","condition":"1_Rep","full_date":"2026-02-09T20:00:48.483Z","date":"2026-02-09","time":"20:00:48","cor_ans":true},{"trial_type":"html-keyboard-response","rt":null,"stimulus":"<p style=\"color: green; font-size: 50px; font-weight: bold;\">Correct</p>","response":null,"trial_index":110,"plugin_version":"2.1.0","time_elapsed":256087,"subject_id":"91379","group":"Group2","condition":"1_Rep","full_date":"2026-02-09T20:00:48.483Z","date":"2026-02-09","time":"20:00:48"},{"correct_response":"a","task":"test_phase","broad_category":"M","image_png":"M_Marble_16.png","image_id":240,"category_name":"Marble","category":15,"distinct_rating":2.57,"distinct_type":"Bottom","item_type":"Foil","rt":922,"stimulus":"Stimuli_Rocks480/M_Marble_16.png","response":"l","trial_type":"image-keyboard-response","trial_index":111,"plugin_version":"2.1.0","time_elapsed":257011,"subject_id":"91379","group":"Group2","condition":"1_Rep","full_date":"2026-02-09T20:00:48.483Z","date":"2026-02-09","time":"20:00:48","cor_ans":false},{"trial_type":"html-keyboard-response","rt":null,"stimulus":"<p style=\"color: red; font-size: 50px; font-weight: bold;\">Incorrect</p>","response":null,"trial_index":112,"plugin_version":"2.1.0","time_elapsed":257519,"subject_id":"91379","group":"Group2","condition":"1_Rep","full_date":"2026-02-09T20:00:48.483Z","date":"2026-02-09","time":"20:00:48"},{"correct_response":"l","task":"test_phase","broad_category":"I","image_png":"I_Rhyolite_05.png","image_id":149,"category_name":"Rhyolite","category":10,"distinct_rating":3.02,"distinct_type":"Bottom","item_type":"Target","rt":1855,"stimulus":"Stimuli_Rocks480/I_Rhyolite_05.png","response":"a","trial_type":"image-keyboard-response","trial_index":113,"plugin_version":"2.1.0","time_elapsed":259376,"subject_id":"91379","group":"Group2","condition":"1_Rep","full_date":"2026-02-09T20:00:48.483Z","date":"2026-02-09","time":"20:00:48","cor_ans":false},{"trial_type":"html-keyboard-response","rt":null,"stimulus":"<p style=\"color: red; font-size: 50px; font-weight: bold;\">Incorrect</p>","response":null,"trial_index":114,"plugin_version":"2.1.0","time_elapsed":259888,"subject_id":"91379","group":"Group2","condition":"1_Rep","full_date":"2026-02-09T20:00:48.483Z","date":"2026-02-09","time":"20:00:48"},{"correct_response":"a","task":"test_phase","broad_category":"S","image_png":"S_Sandstone_03.png","image_id":451,"category_name":"Sandstone","category":29,"distinct_rating":1.86,"distinct_type":"Bottom","item_type":"Foil","rt":1378,"stimulus":"Stimuli_Rocks480/S_Sandstone_03.png","response":"l","trial_type":"image-keyboard-response","trial_index":115,"plugin_version":"2.1.0","time_elapsed":261268,"subject_id":"91379","group":"Group2","condition":"1_Rep","full_date":"2026-02-09T20:00:48.483Z","date":"2026-02-09","time":"20:00:48","cor_ans":false},{"trial_type":"html-keyboard-response","rt":null,"stimulus":"<p style=\"color: red; font-size: 50px; font-weight: bold;\">Incorrect</p>","response":null,"trial_index":116,"plugin_version":"2.1.0","time_elapsed":261785,"subject_id":"91379","group":"Group2","condition":"1_Rep","full_date":"2026-02-09T20:00:48.483Z","date":"2026-02-09","time":"20:00:48"},{"correct_response":"a","task":"test_phase","broad_category":"S","image_png":"S_Shale_01.png","image_id":465,"category_name":"Shale","category":30,"distinct_rating":2.7,"distinct_type":"Bottom","item_type":"Foil","rt":1314,"stimulus":"Stimuli_Rocks480/S_Shale_01.png","response":"l","trial_type":"image-keyboard-response","trial_index":117,"plugin_version":"2.1.0","time_elapsed":263101,"subject_id":"91379","group":"Group2","condition":"1_Rep","full_date":"2026-02-09T20:00:48.483Z","date":"2026-02-09","time":"20:00:48","cor_ans":false},{"trial_type":"html-keyboard-response","rt":null,"stimulus":"<p style=\"color: red; font-size: 50px; font-weight: bold;\">Incorrect</p>","response":null,"trial_index":118,"plugin_version":"2.1.0","time_elapsed":263603,"subject_id":"91379","group":"Group2","condition":"1_Rep","full_date":"2026-02-09T20:00:48.483Z","date":"2026-02-09","time":"20:00:48"},{"correct_response":"l","task":"test_phase","broad_category":"M","image_png":"M_Quartzite_12.png","image_id":284,"category_name":"Quartzite","category":18,"distinct_rating":1.92,"distinct_type":"Bottom","item_type":"Target","rt":1071,"stimulus":"Stimuli_Rocks480/M_Quartzite_12.png","response":"l","trial_type":"image-keyboard-response","trial_index":119,"plugin_version":"2.1.0","time_elapsed":264676,"subject_id":"91379","group":"Group2","condition":"1_Rep","full_date":"2026-02-09T20:00:48.483Z","date":"2026-02-09","time":"20:00:48","cor_ans":true},{"trial_type":"html-keyboard-response","rt":null,"stimulus":"<p style=\"color: green; font-size: 50px; font-weight: bold;\">Correct</p>","response":null,"trial_index":120,"plugin_version":"2.1.0","time_elapsed":265184,"subject_id":"91379","group":"Group2","condition":"1_Rep","full_date":"2026-02-09T20:00:48.483Z","date":"2026-02-09","time":"20:00:48"},{"correct_response":"a","task":"test_phase","broad_category":"I","image_png":"I_Andesite_06.png","image_id":6,"category_name":"Andesite","category":1,"distinct_rating":3.17,"distinct_type":"Bottom","item_type":"Foil","rt":865,"stimulus":"Stimuli_Rocks480/I_Andesite_06.png","response":"l","trial_type":"image-keyboard-response","trial_index":121,"plugin_version":"2.1.0","time_elapsed":266051,"subject_id":"91379","group":"Group2","condition":"1_Rep","full_date":"2026-02-09T20:00:48.483Z","date":"2026-02-09","time":"20:00:48","cor_ans":false},{"trial_type":"html-keyboard-response","rt":null,"stimulus":"<p style=\"color: red; font-size: 50px; font-weight: bold;\">Incorrect</p>","response":null,"trial_index":122,"plugin_version":"2.1.0","time_elapsed":266553,"subject_id":"91379","group":"Group2","condition":"1_Rep","full_date":"2026-02-09T20:00:48.483Z","date":"2026-02-09","time":"20:00:48"},{"correct_response":"a","task":"test_phase","broad_category":"M","image_png":"M_Slate_03.png","image_id":307,"category_name":"Slate","category":20,"distinct_rating":1.87,"distinct_type":"Bottom","item_type":"Foil","rt":2399,"stimulus":"Stimuli_Rocks480/M_Slate_03.png","response":"l","trial_type":"image-keyboard-response","trial_index":123,"plugin_version":"2.1.0","time_elapsed":268954,"subject_id":"91379","group":"Group2","condition":"1_Rep","full_date":"2026-02-09T20:00:48.483Z","date":"2026-02-09","time":"20:00:48","cor_ans":false},{"trial_type":"html-keyboard-response","rt":null,"stimulus":"<p style=\"color: red; font-size: 50px; font-weight: bold;\">Incorrect</p>","response":null,"trial_index":124,"plugin_version":"2.1.0","time_elapsed":269468,"subject_id":"91379","group":"Group2","condition":"1_Rep","full_date":"2026-02-09T20:00:48.483Z","date":"2026-02-09","time":"20:00:48"},{"correct_response":"a","task":"test_phase","broad_category":"M","image_png":"M_Quartzite_08.png","image_id":280,"category_name":"Quartzite","category":18,"distinct_rating":2.15,"distinct_type":"Bottom","item_type":"Foil","rt":2048,"stimulus":"Stimuli_Rocks480/M_Quartzite_08.png","response":"l","trial_type":"image-keyboard-response","trial_index":125,"plugin_version":"2.1.0","time_elapsed":271518,"subject_id":"91379","group":"Group2","condition":"1_Rep","full_date":"2026-02-09T20:00:48.483Z","date":"2026-02-09","time":"20:00:48","cor_ans":false},{"trial_type":"html-keyboard-response","rt":null,"stimulus":"<p style=\"color: red; font-size: 50px; font-weight: bold;\">Incorrect</p>","response":null,"trial_index":126,"plugin_version":"2.1.0","time_elapsed":272021,"subject_id":"91379","group":"Group2","condition":"1_Rep","full_date":"2026-02-09T20:00:48.483Z","date":"2026-02-09","time":"20:00:48"},{"correct_response":"a","task":"test_phase","broad_category":"S","image_png":"S_Conglomerate_05.png","image_id":373,"category_name":"Conglomerate","category":24,"distinct_rating":7.32,"distinct_type":"Top","item_type":"Foil","rt":1026,"stimulus":"Stimuli_Rocks480/S_Conglomerate_05.png","response":"a","trial_type":"image-keyboard-response","trial_index":127,"plugin_version":"2.1.0","time_elapsed":273049,"subject_id":"91379","group":"Group2","condition":"1_Rep","full_date":"2026-02-09T20:00:48.483Z","date":"2026-02-09","time":"20:00:48","cor_ans":true},{"trial_type":"html-keyboard-response","rt":null,"stimulus":"<p style=\"color: green; font-size: 50px; font-weight: bold;\">Correct</p>","response":null,"trial_index":128,"plugin_version":"2.1.0","time_elapsed":273564,"subject_id":"91379","group":"Group2","condition":"1_Rep","full_date":"2026-02-09T20:00:48.483Z","date":"2026-02-09","time":"20:00:48"},{"correct_response":"a","task":"test_phase","broad_category":"I","image_png":"I_Andesite_08.png","image_id":8,"category_name":"Andesite","category":1,"distinct_rating":1.95,"distinct_type":"Bottom","item_type":"Foil","rt":1446,"stimulus":"Stimuli_Rocks480/I_Andesite_08.png","response":"l","trial_type":"image-keyboard-response","trial_index":129,"plugin_version":"2.1.0","time_elapsed":275011,"subject_id":"91379","group":"Group2","condition":"1_Rep","full_date":"2026-02-09T20:00:48.483Z","date":"2026-02-09","time":"20:00:48","cor_ans":false},{"trial_type":"html-keyboard-response","rt":null,"stimulus":"<p style=\"color: red; font-size: 50px; font-weight: bold;\">Incorrect</p>","response":null,"trial_index":130,"plugin_version":"2.1.0","time_elapsed":275518,"subject_id":"91379","group":"Group2","condition":"1_Rep","full_date":"2026-02-09T20:00:48.483Z","date":"2026-02-09","time":"20:00:48"},{"correct_response":"a","task":"test_phase","broad_category":"S","image_png":"S_Rock Gypsum_04.png","image_id":420,"category_name":"Rock Gypsum","category":27,"distinct_rating":7.61,"distinct_type":"Top","item_type":"Foil","rt":1199,"stimulus":"Stimuli_Rocks480/S_Rock Gypsum_04.png","response":"a","trial_type":"image-keyboard-response","trial_index":131,"plugin_version":"2.1.0","time_elapsed":276719,"subject_id":"91379","group":"Group2","condition":"1_Rep","full_date":"2026-02-09T20:00:48.483Z","date":"2026-02-09","time":"20:00:48","cor_ans":true},{"trial_type":"html-keyboard-response","rt":null,"stimulus":"<p style=\"color: green; font-size: 50px; font-weight: bold;\">Correct</p>","response":null,"trial_index":132,"plugin_version":"2.1.0","time_elapsed":277234,"subject_id":"91379","group":"Group2","condition":"1_Rep","full_date":"2026-02-09T20:00:48.483Z","date":"2026-02-09","time":"20:00:48"},{"correct_response":"a","task":"test_phase","broad_category":"M","image_png":"M_Slate_15.png","image_id":319,"category_name":"Slate","category":20,"distinct_rating":2.13,"distinct_type":"Bottom","item_type":"Foil","rt":1039,"stimulus":"Stimuli_Rocks480/M_Slate_15.png","response":"l","trial_type":"image-keyboard-response","trial_index":133,"plugin_version":"2.1.0","time_elapsed":278274,"subject_id":"91379","group":"Group2","condition":"1_Rep","full_date":"2026-02-09T20:00:48.483Z","date":"2026-02-09","time":"20:00:48","cor_ans":false},{"trial_type":"html-keyboard-response","rt":null,"stimulus":"<p style=\"color: red; font-size: 50px; font-weight: bold;\">Incorrect</p>","response":null,"trial_index":134,"plugin_version":"2.1.0","time_elapsed":278783,"subject_id":"91379","group":"Group2","condition":"1_Rep","full_date":"2026-02-09T20:00:48.483Z","date":"2026-02-09","time":"20:00:48"},{"correct_response":"l","task":"test_phase","broad_category":"I","image_png":"I_Basalt_13.png","image_id":29,"category_name":"Basalt","category":2,"distinct_rating":2.68,"distinct_type":"Bottom","item_type":"Target","rt":948,"stimulus":"Stimuli_Rocks480/I_Basalt_13.png","response":"l","trial_type":"image-keyboard-response","trial_index":135,"plugin_version":"2.1.0","time_elapsed":279734,"subject_id":"91379","group":"Group2","condition":"1_Rep","full_date":"2026-02-09T20:00:48.483Z","date":"2026-02-09","time":"20:00:48","cor_ans":true},{"trial_type":"html-keyboard-response","rt":null,"stimulus":"<p style=\"color: green; font-size: 50px; font-weight: bold;\">Correct</p>","response":null,"trial_index":136,"plugin_version":"2.1.0","time_elapsed":280251,"subject_id":"91379","group":"Group2","condition":"1_Rep","full_date":"2026-02-09T20:00:48.483Z","date":"2026-02-09","time":"20:00:48"},{"correct_response":"a","task":"test_phase","broad_category":"S","image_png":"S_Sandstone_16.png","image_id":464,"category_name":"Sandstone","category":29,"distinct_rating":1.93,"distinct_type":"Bottom","item_type":"Foil","rt":1442,"stimulus":"Stimuli_Rocks480/S_Sandstone_16.png","response":"l","trial_type":"image-keyboard-response","trial_index":137,"plugin_version":"2.1.0","time_elapsed":281694,"subject_id":"91379","group":"Group2","condition":"1_Rep","full_date":"2026-02-09T20:00:48.483Z","date":"2026-02-09","time":"20:00:48","cor_ans":false},{"trial_type":"html-keyboard-response","rt":null,"stimulus":"<p style=\"color: red; font-size: 50px; font-weight: bold;\">Incorrect</p>","response":null,"trial_index":138,"plugin_version":"2.1.0","time_elapsed":282206,"subject_id":"91379","group":"Group2","condition":"1_Rep","full_date":"2026-02-09T20:00:48.483Z","date":"2026-02-09","time":"20:00:48"},{"correct_response":"a","task":"test_phase","broad_category":"I","image_png":"I_Diorite_04.png","image_id":36,"category_name":"Diorite","category":3,"distinct_rating":2.98,"distinct_type":"Bottom","item_type":"Foil","rt":767,"stimulus":"Stimuli_Rocks480/I_Diorite_04.png","response":"l","trial_type":"image-keyboard-response","trial_index":139,"plugin_version":"2.1.0","time_elapsed":282973,"subject_id":"91379","group":"Group2","condition":"1_Rep","full_date":"2026-02-09T20:00:48.483Z","date":"2026-02-09","time":"20:00:48","cor_ans":false},{"trial_type":"html-keyboard-response","rt":null,"stimulus":"<p style=\"color: red; font-size: 50px; font-weight: bold;\">Incorrect</p>","response":null,"trial_index":140,"plugin_version":"2.1.0","time_elapsed":283482,"subject_id":"91379","group":"Group2","condition":"1_Rep","full_date":"2026-02-09T20:00:48.483Z","date":"2026-02-09","time":"20:00:48"},{"correct_response":"l","task":"test_phase","broad_category":"M","image_png":"M_Gneiss_14.png","image_id":206,"category_name":"Gneiss","category":13,"distinct_rating":3.41,"distinct_type":"Bottom","item_type":"Target","rt":924,"stimulus":"Stimuli_Rocks480/M_Gneiss_14.png","response":"l","trial_type":"image-keyboard-response","trial_index":141,"plugin_version":"2.1.0","time_elapsed":284407,"subject_id":"91379","group":"Group2","condition":"1_Rep","full_date":"2026-02-09T20:00:48.483Z","date":"2026-02-09","time":"20:00:48","cor_ans":true},{"trial_type":"html-keyboard-response","rt":null,"stimulus":"<p style=\"color: green; font-size: 50px; font-weight: bold;\">Correct</p>","response":null,"trial_index":142,"plugin_version":"2.1.0","time_elapsed":284922,"subject_id":"91379","group":"Group2","condition":"1_Rep","full_date":"2026-02-09T20:00:48.483Z","date":"2026-02-09","time":"20:00:48"},{"correct_response":"l","task":"test_phase","broad_category":"S","image_png":"S_Conglomerate_14.png","image_id":382,"category_name":"Conglomerate","category":24,"distinct_rating":6.86,"distinct_type":"Top","item_type":"Target","rt":863,"stimulus":"Stimuli_Rocks480/S_Conglomerate_14.png","response":"l","trial_type":"image-keyboard-response","trial_index":143,"plugin_version":"2.1.0","time_elapsed":285787,"subject_id":"91379","group":"Group2","condition":"1_Rep","full_date":"2026-02-09T20:00:48.483Z","date":"2026-02-09","time":"20:00:48","cor_ans":true},{"trial_type":"html-keyboard-response","rt":null,"stimulus":"<p style=\"color: green; font-size: 50px; font-weight: bold;\">Correct</p>","response":null,"trial_index":144,"plugin_version":"2.1.0","time_elapsed":286297,"subject_id":"91379","group":"Group2","condition":"1_Rep","full_date":"2026-02-09T20:00:48.483Z","date":"2026-02-09","time":"20:00:48"},{"correct_response":"a","task":"test_phase","broad_category":"I","image_png":"I_Obsidian_05.png","image_id":85,"category_name":"Obsidian","category":6,"distinct_rating":7.32,"distinct_type":"Top","item_type":"Foil","rt":1841,"stimulus":"Stimuli_Rocks480/I_Obsidian_05.png","response":"a","trial_type":"image-keyboard-response","trial_index":145,"plugin_version":"2.1.0","time_elapsed":288140,"subject_id":"91379","group":"Group2","condition":"1_Rep","full_date":"2026-02-09T20:00:48.483Z","date":"2026-02-09","time":"20:00:48","cor_ans":true},{"trial_type":"html-keyboard-response","rt":null,"stimulus":"<p style=\"color: green; font-size: 50px; font-weight: bold;\">Correct</p>","response":null,"trial_index":146,"plugin_version":"2.1.0","time_elapsed":288654,"subject_id":"91379","group":"Group2","condition":"1_Rep","full_date":"2026-02-09T20:00:48.483Z","date":"2026-02-09","time":"20:00:48"},{"correct_response":"a","task":"test_phase","broad_category":"I","image_png":"I_Gabbro_11.png","image_id":59,"category_name":"Gabbro","category":4,"distinct_rating":1.99,"distinct_type":"Bottom","item_type":"Foil","rt":1293,"stimulus":"Stimuli_Rocks480/I_Gabbro_11.png","response":"l","trial_type":"image-keyboard-response","trial_index":147,"plugin_version":"2.1.0","time_elapsed":289949,"subject_id":"91379","group":"Group2","condition":"1_Rep","full_date":"2026-02-09T20:00:48.483Z","date":"2026-02-09","time":"20:00:48","cor_ans":false},{"trial_type":"html-keyboard-response","rt":null,"stimulus":"<p style=\"color: red; font-size: 50px; font-weight: bold;\">Incorrect</p>","response":null,"trial_index":148,"plugin_version":"2.1.0","time_elapsed":290453,"subject_id":"91379","group":"Group2","condition":"1_Rep","full_date":"2026-02-09T20:00:48.483Z","date":"2026-02-09","time":"20:00:48"},{"correct_response":"a","task":"test_phase","broad_category":"S","image_png":"S_Chert_10.png","image_id":362,"category_name":"Chert","category":23,"distinct_rating":7.17,"distinct_type":"Top","item_type":"Foil","rt":1402,"stimulus":"Stimuli_Rocks480/S_Chert_10.png","response":"a","trial_type":"image-keyboard-response","trial_index":149,"plugin_version":"2.1.0","time_elapsed":291856,"subject_id":"91379","group":"Group2","condition":"1_Rep","full_date":"2026-02-09T20:00:48.483Z","date":"2026-02-09","time":"20:00:48","cor_ans":true},{"trial_type":"html-keyboard-response","rt":null,"stimulus":"<p style=\"color: green; font-size: 50px; font-weight: bold;\">Correct</p>","response":null,"trial_index":150,"plugin_version":"2.1.0","time_elapsed":292371,"subject_id":"91379","group":"Group2","condition":"1_Rep","full_date":"2026-02-09T20:00:48.483Z","date":"2026-02-09","time":"20:00:48"},{"correct_response":"l","task":"test_phase","broad_category":"S","image_png":"S_Dolomite_07.png","image_id":391,"category_name":"Dolomite","category":25,"distinct_rating":1.73,"distinct_type":"Bottom","item_type":"Target","rt":1233,"stimulus":"Stimuli_Rocks480/S_Dolomite_07.png","response":"l","trial_type":"image-keyboard-response","trial_index":151,"plugin_version":"2.1.0","time_elapsed":293606,"subject_id":"91379","group":"Group2","condition":"1_Rep","full_date":"2026-02-09T20:00:48.483Z","date":"2026-02-09","time":"20:00:48","cor_ans":true},{"trial_type":"html-keyboard-response","rt":null,"stimulus":"<p style=\"color: green; font-size: 50px; font-weight: bold;\">Correct</p>","response":null,"trial_index":152,"plugin_version":"2.1.0","time_elapsed":294117,"subject_id":"91379","group":"Group2","condition":"1_Rep","full_date":"2026-02-09T20:00:48.483Z","date":"2026-02-09","time":"20:00:48"},{"correct_response":"a","task":"test_phase","broad_category":"I","image_png":"I_Pumice_08.png","image_id":136,"category_name":"Pumice","category":9,"distinct_rating":3.1,"distinct_type":"Bottom","item_type":"Foil","rt":892,"stimulus":"Stimuli_Rocks480/I_Pumice_08.png","response":"l","trial_type":"image-keyboard-response","trial_index":153,"plugin_version":"2.1.0","time_elapsed":295011,"subject_id":"91379","group":"Group2","condition":"1_Rep","full_date":"2026-02-09T20:00:48.483Z","date":"2026-02-09","time":"20:00:48","cor_ans":false},{"trial_type":"html-keyboard-response","rt":null,"stimulus":"<p style=\"color: red; font-size: 50px; font-weight: bold;\">Incorrect</p>","response":null,"trial_index":154,"plugin_version":"2.1.0","time_elapsed":295512,"subject_id":"91379","group":"Group2","condition":"1_Rep","full_date":"2026-02-09T20:00:48.483Z","date":"2026-02-09","time":"20:00:48"},{"correct_response":"a","task":"test_phase","broad_category":"I","image_png":"I_Rhyolite_16.png","image_id":160,"category_name":"Rhyolite","category":10,"distinct_rating":2.19,"distinct_type":"Bottom","item_type":"Foil","rt":5391,"stimulus":"Stimuli_Rocks480/I_Rhyolite_16.png","response":"a","trial_type":"image-keyboard-response","trial_index":155,"plugin_version":"2.1.0","time_elapsed":300904,"subject_id":"91379","group":"Group2","condition":"1_Rep","full_date":"2026-02-09T20:00:48.483Z","date":"2026-02-09","time":"20:00:48","cor_ans":true},{"trial_type":"html-keyboard-response","rt":null,"stimulus":"<p style=\"color: green; font-size: 50px; font-weight: bold;\">Correct</p>","response":null,"trial_index":156,"plugin_version":"2.1.0","time_elapsed":301407,"subject_id":"91379","group":"Group2","condition":"1_Rep","full_date":"2026-02-09T20:00:48.483Z","date":"2026-02-09","time":"20:00:48"},{"correct_response":"a","task":"test_phase","broad_category":"I","image_png":"I_Basalt_02.png","image_id":18,"category_name":"Basalt","category":2,"distinct_rating":1.84,"distinct_type":"Bottom","item_type":"Foil","rt":1128,"stimulus":"Stimuli_Rocks480/I_Basalt_02.png","response":"l","trial_type":"image-keyboard-response","trial_index":157,"plugin_version":"2.1.0","time_elapsed":302537,"subject_id":"91379","group":"Group2","condition":"1_Rep","full_date":"2026-02-09T20:00:48.483Z","date":"2026-02-09","time":"20:00:48","cor_ans":false},{"trial_type":"html-keyboard-response","rt":null,"stimulus":"<p style=\"color: red; font-size: 50px; font-weight: bold;\">Incorrect</p>","response":null,"trial_index":158,"plugin_version":"2.1.0","time_elapsed":303051,"subject_id":"91379","group":"Group2","condition":"1_Rep","full_date":"2026-02-09T20:00:48.483Z","date":"2026-02-09","time":"20:00:48"},{"correct_response":"a","task":"test_phase","broad_category":"M","image_png":"M_Marble_04.png","image_id":228,"category_name":"Marble","category":15,"distinct_rating":3.15,"distinct_type":"Bottom","item_type":"Foil","rt":1414,"stimulus":"Stimuli_Rocks480/M_Marble_04.png","response":"a","trial_type":"image-keyboard-response","trial_index":159,"plugin_version":"2.1.0","time_elapsed":304467,"subject_id":"91379","group":"Group2","condition":"1_Rep","full_date":"2026-02-09T20:00:48.483Z","date":"2026-02-09","time":"20:00:48","cor_ans":true},{"trial_type":"html-keyboard-response","rt":null,"stimulus":"<p style=\"color: green; font-size: 50px; font-weight: bold;\">Correct</p>","response":null,"trial_index":160,"plugin_version":"2.1.0","time_elapsed":304977,"subject_id":"91379","group":"Group2","condition":"1_Rep","full_date":"2026-02-09T20:00:48.483Z","date":"2026-02-09","time":"20:00:48"},{"correct_response":"a","task":"test_phase","broad_category":"M","image_png":"M_Phyllite_03.png","image_id":259,"category_name":"Phyllite","category":17,"distinct_rating":2.5,"distinct_type":"Bottom","item_type":"Foil","rt":926,"stimulus":"Stimuli_Rocks480/M_Phyllite_03.png","response":"a","trial_type":"image-keyboard-response","trial_index":161,"plugin_version":"2.1.0","time_elapsed":305905,"subject_id":"91379","group":"Group2","condition":"1_Rep","full_date":"2026-02-09T20:00:48.483Z","date":"2026-02-09","time":"20:00:48","cor_ans":true},{"trial_type":"html-keyboard-response","rt":null,"stimulus":"<p style=\"color: green; font-size: 50px; font-weight: bold;\">Correct</p>","response":null,"trial_index":162,"plugin_version":"2.1.0","time_elapsed":306416,"subject_id":"91379","group":"Group2","condition":"1_Rep","full_date":"2026-02-09T20:00:48.483Z","date":"2026-02-09","time":"20:00:48"},{"correct_response":"l","task":"test_phase","broad_category":"I","image_png":"I_Andesite_03.png","image_id":3,"category_name":"Andesite","category":1,"distinct_rating":3.17,"distinct_type":"Bottom","item_type":"Target","rt":4202,"stimulus":"Stimuli_Rocks480/I_Andesite_03.png","response":"a","trial_type":"image-keyboard-response","trial_index":163,"plugin_version":"2.1.0","time_elapsed":310621,"subject_id":"91379","group":"Group2","condition":"1_Rep","full_date":"2026-02-09T20:00:48.483Z","date":"2026-02-09","time":"20:00:48","cor_ans":false},{"trial_type":"html-keyboard-response","rt":null,"stimulus":"<p style=\"color: red; font-size: 50px; font-weight: bold;\">Incorrect</p>","response":null,"trial_index":164,"plugin_version":"2.1.0","time_elapsed":311137,"subject_id":"91379","group":"Group2","condition":"1_Rep","full_date":"2026-02-09T20:00:48.483Z","date":"2026-02-09","time":"20:00:48"},{"correct_response":"l","task":"test_phase","broad_category":"S","image_png":"S_Shale_03.png","image_id":467,"category_name":"Shale","category":30,"distinct_rating":1.95,"distinct_type":"Bottom","item_type":"Target","rt":993,"stimulus":"Stimuli_Rocks480/S_Shale_03.png","response":"a","trial_type":"image-keyboard-response","trial_index":165,"plugin_version":"2.1.0","time_elapsed":312132,"subject_id":"91379","group":"Group2","condition":"1_Rep","full_date":"2026-02-09T20:00:48.483Z","date":"2026-02-09","time":"20:00:48","cor_ans":false},{"trial_type":"html-keyboard-response","rt":null,"stimulus":"<p style=\"color: red; font-size: 50px; font-weight: bold;\">Incorrect</p>","response":null,"trial_index":166,"plugin_version":"2.1.0","time_elapsed":312634,"subject_id":"91379","group":"Group2","condition":"1_Rep","full_date":"2026-02-09T20:00:48.483Z","date":"2026-02-09","time":"20:00:48"},{"correct_response":"l","task":"test_phase","broad_category":"I","image_png":"I_Pumice_14.png","image_id":142,"category_name":"Pumice","category":9,"distinct_rating":3.22,"distinct_type":"Bottom","item_type":"Target","rt":885,"stimulus":"Stimuli_Rocks480/I_Pumice_14.png","response":"l","trial_type":"image-keyboard-response","trial_index":167,"plugin_version":"2.1.0","time_elapsed":313520,"subject_id":"91379","group":"Group2","condition":"1_Rep","full_date":"2026-02-09T20:00:48.483Z","date":"2026-02-09","time":"20:00:48","cor_ans":true},{"trial_type":"html-keyboard-response","rt":null,"stimulus":"<p style=\"color: green; font-size: 50px; font-weight: bold;\">Correct</p>","response":null,"trial_index":168,"plugin_version":"2.1.0","time_elapsed":314027,"subject_id":"91379","group":"Group2","condition":"1_Rep","full_date":"2026-02-09T20:00:48.483Z","date":"2026-02-09","time":"20:00:48"},{"correct_response":"l","task":"test_phase","broad_category":"I","image_png":"I_Pumice_01.png","image_id":129,"category_name":"Pumice","category":9,"distinct_rating":3.25,"distinct_type":"Bottom","item_type":"Target","rt":702,"stimulus":"Stimuli_Rocks480/I_Pumice_01.png","response":"l","trial_type":"image-keyboard-response","trial_index":169,"plugin_version":"2.1.0","time_elapsed":314732,"subject_id":"91379","group":"Group2","condition":"1_Rep","full_date":"2026-02-09T20:00:48.483Z","date":"2026-02-09","time":"20:00:48","cor_ans":true},{"trial_type":"html-keyboard-response","rt":null,"stimulus":"<p style=\"color: green; font-size: 50px; font-weight: bold;\">Correct</p>","response":null,"trial_index":170,"plugin_version":"2.1.0","time_elapsed":315237,"subject_id":"91379","group":"Group2","condition":"1_Rep","full_date":"2026-02-09T20:00:48.483Z","date":"2026-02-09","time":"20:00:48"},{"correct_response":"a","task":"test_phase","broad_category":"I","image_png":"I_Pumice_11.png","image_id":139,"category_name":"Pumice","category":9,"distinct_rating":1.74,"distinct_type":"Bottom","item_type":"Foil","rt":1742,"stimulus":"Stimuli_Rocks480/I_Pumice_11.png","response":"a","trial_type":"image-keyboard-response","trial_index":171,"plugin_version":"2.1.0","time_elapsed":316981,"subject_id":"91379","group":"Group2","condition":"1_Rep","full_date":"2026-02-09T20:00:48.483Z","date":"2026-02-09","time":"20:00:48","cor_ans":true},{"trial_type":"html-keyboard-response","rt":null,"stimulus":"<p style=\"color: green; font-size: 50px; font-weight: bold;\">Correct</p>","response":null,"trial_index":172,"plugin_version":"2.1.0","time_elapsed":317497,"subject_id":"91379","group":"Group2","condition":"1_Rep","full_date":"2026-02-09T20:00:48.483Z","date":"2026-02-09","time":"20:00:48"},{"correct_response":"a","task":"test_phase","broad_category":"I","image_png":"I_Pegmatite_10.png","image_id":106,"category_name":"Pegmatite","category":7,"distinct_rating":7.66,"distinct_type":"Top","item_type":"Foil","rt":95150,"stimulus":"Stimuli_Rocks480/I_Pegmatite_10.png","response":"a","trial_type":"image-keyboard-response","trial_index":173,"plugin_version":"2.1.0","time_elapsed":412649,"subject_id":"91379","group":"Group2","condition":"1_Rep","full_date":"2026-02-09T20:00:48.483Z","date":"2026-02-09","time":"20:00:48","cor_ans":true},{"trial_type":"html-keyboard-response","rt":null,"stimulus":"<p style=\"color: green; font-size: 50px; font-weight: bold;\">Correct</p>","response":null,"trial_index":174,"plugin_version":"2.1.0","time_elapsed":413158,"subject_id":"91379","group":"Group2","condition":"1_Rep","full_date":"2026-02-09T20:00:48.483Z","date":"2026-02-09","time":"20:00:48"},{"correct_response":"l","task":"test_phase","broad_category":"M","image_png":"M_Phyllite_05.png","image_id":261,"category_name":"Phyllite","category":17,"distinct_rating":2.14,"distinct_type":"Bottom","item_type":"Target","rt":1229,"stimulus":"Stimuli_Rocks480/M_Phyllite_05.png","response":"l","trial_type":"image-keyboard-response","trial_index":175,"plugin_version":"2.1.0","time_elapsed":414389,"subject_id":"91379","group":"Group2","condition":"1_Rep","full_date":"2026-02-09T20:00:48.483Z","date":"2026-02-09","time":"20:00:48","cor_ans":true},{"trial_type":"html-keyboard-response","rt":null,"stimulus":"<p style=\"color: green; font-size: 50px; font-weight: bold;\">Correct</p>","response":null,"trial_index":176,"plugin_version":"2.1.0","time_elapsed":414895,"subject_id":"91379","group":"Group2","condition":"1_Rep","full_date":"2026-02-09T20:00:48.483Z","date":"2026-02-09","time":"20:00:48"},{"correct_response":"a","task":"test_phase","broad_category":"I","image_png":"I_Rhyolite_14.png","image_id":158,"category_name":"Rhyolite","category":10,"distinct_rating":2.59,"distinct_type":"Bottom","item_type":"Foil","rt":1370,"stimulus":"Stimuli_Rocks480/I_Rhyolite_14.png","response":"l","trial_type":"image-keyboard-response","trial_index":177,"plugin_version":"2.1.0","time_elapsed":416267,"subject_id":"91379","group":"Group2","condition":"1_Rep","full_date":"2026-02-09T20:00:48.483Z","date":"2026-02-09","time":"20:00:48","cor_ans":false},{"trial_type":"html-keyboard-response","rt":null,"stimulus":"<p style=\"color: red; font-size: 50px; font-weight: bold;\">Incorrect</p>","response":null,"trial_index":178,"plugin_version":"2.1.0","time_elapsed":416782,"subject_id":"91379","group":"Group2","condition":"1_Rep","full_date":"2026-02-09T20:00:48.483Z","date":"2026-02-09","time":"20:00:48"},{"correct_response":"l","task":"test_phase","broad_category":"S","image_png":"S_Shale_07.png","image_id":471,"category_name":"Shale","category":30,"distinct_rating":2.73,"distinct_type":"Bottom","item_type":"Target","rt":1621,"stimulus":"Stimuli_Rocks480/S_Shale_07.png","response":"l","trial_type":"image-keyboard-response","trial_index":179,"plugin_version":"2.1.0","time_elapsed":418405,"subject_id":"91379","group":"Group2","condition":"1_Rep","full_date":"2026-02-09T20:00:48.483Z","date":"2026-02-09","time":"20:00:48","cor_ans":true},{"trial_type":"html-keyboard-response","rt":null,"stimulus":"<p style=\"color: green; font-size: 50px; font-weight: bold;\">Correct</p>","response":null,"trial_index":180,"plugin_version":"2.1.0","time_elapsed":418911,"subject_id":"91379","group":"Group2","condition":"1_Rep","full_date":"2026-02-09T20:00:48.483Z","date":"2026-02-09","time":"20:00:48"},{"correct_response":"a","task":"test_phase","broad_category":"S","image_png":"S_Dolomite_14.png","image_id":398,"category_name":"Dolomite","category":25,"distinct_rating":1.43,"distinct_type":"Bottom","item_type":"Foil","rt":1477,"stimulus":"Stimuli_Rocks480/S_Dolomite_14.png","response":"a","trial_type":"image-keyboard-response","trial_index":181,"plugin_version":"2.1.0","time_elapsed":420390,"subject_id":"91379","group":"Group2","condition":"1_Rep","full_date":"2026-02-09T20:00:48.483Z","date":"2026-02-09","time":"20:00:48","cor_ans":true},{"trial_type":"html-keyboard-response","rt":null,"stimulus":"<p style=\"color: green; font-size: 50px; font-weight: bold;\">Correct</p>","response":null,"trial_index":182,"plugin_version":"2.1.0","time_elapsed":420898,"subject_id":"91379","group":"Group2","condition":"1_Rep","full_date":"2026-02-09T20:00:48.483Z","date":"2026-02-09","time":"20:00:48"},{"correct_response":"l","task":"test_phase","broad_category":"M","image_png":"M_Marble_03.png","image_id":227,"category_name":"Marble","category":15,"distinct_rating":2.67,"distinct_type":"Bottom","item_type":"Target","rt":1970,"stimulus":"Stimuli_Rocks480/M_Marble_03.png","response":"l","trial_type":"image-keyboard-response","trial_index":183,"plugin_version":"2.1.0","time_elapsed":422870,"subject_id":"91379","group":"Group2","condition":"1_Rep","full_date":"2026-02-09T20:00:48.483Z","date":"2026-02-09","time":"20:00:48","cor_ans":true},{"trial_type":"html-keyboard-response","rt":null,"stimulus":"<p style=\"color: green; font-size: 50px; font-weight: bold;\">Correct</p>","response":null,"trial_index":184,"plugin_version":"2.1.0","time_elapsed":423382,"subject_id":"91379","group":"Group2","condition":"1_Rep","full_date":"2026-02-09T20:00:48.483Z","date":"2026-02-09","time":"20:00:48"},{"correct_response":"a","task":"test_phase","broad_category":"M","image_png":"M_Quartzite_05.png","image_id":277,"category_name":"Quartzite","category":18,"distinct_rating":2.23,"distinct_type":"Bottom","item_type":"Foil","rt":3401,"stimulus":"Stimuli_Rocks480/M_Quartzite_05.png","response":"a","trial_type":"image-keyboard-response","trial_index":185,"plugin_version":"2.1.0","time_elapsed":426785,"subject_id":"91379","group":"Group2","condition":"1_Rep","full_date":"2026-02-09T20:00:48.483Z","date":"2026-02-09","time":"20:00:48","cor_ans":true},{"trial_type":"html-keyboard-response","rt":null,"stimulus":"<p style=\"color: green; font-size: 50px; font-weight: bold;\">Correct</p>","response":null,"trial_index":186,"plugin_version":"2.1.0","time_elapsed":427297,"subject_id":"91379","group":"Group2","condition":"1_Rep","full_date":"2026-02-09T20:00:48.483Z","date":"2026-02-09","time":"20:00:48"},{"correct_response":"l","task":"test_phase","broad_category":"M","image_png":"M_Gneiss_15.png","image_id":207,"category_name":"Gneiss","category":13,"distinct_rating":3.11,"distinct_type":"Bottom","item_type":"Target","rt":6818,"stimulus":"Stimuli_Rocks480/M_Gneiss_15.png","response":"a","trial_type":"image-keyboard-response","trial_index":187,"plugin_version":"2.1.0","time_elapsed":434117,"subject_id":"91379","group":"Group2","condition":"1_Rep","full_date":"2026-02-09T20:00:48.483Z","date":"2026-02-09","time":"20:00:48","cor_ans":false},{"trial_type":"html-keyboard-response","rt":null,"stimulus":"<p style=\"color: red; font-size: 50px; font-weight: bold;\">Incorrect</p>","response":null,"trial_index":188,"plugin_version":"2.1.0","time_elapsed":434631,"subject_id":"91379","group":"Group2","condition":"1_Rep","full_date":"2026-02-09T20:00:48.483Z","date":"2026-02-09","time":"20:00:48"},{"correct_response":"a","task":"test_phase","broad_category":"I","image_png":"I_Gabbro_16.png","image_id":64,"category_name":"Gabbro","category":4,"distinct_rating":2.52,"distinct_type":"Bottom","item_type":"Foil","rt":2298,"stimulus":"Stimuli_Rocks480/I_Gabbro_16.png","response":"l","trial_type":"image-keyboard-response","trial_index":189,"plugin_version":"2.1.0","time_elapsed":436931,"subject_id":"91379","group":"Group2","condition":"1_Rep","full_date":"2026-02-09T20:00:48.483Z","date":"2026-02-09","time":"20:00:48","cor_ans":false},{"trial_type":"html-keyboard-response","rt":null,"stimulus":"<p style=\"color: red; font-size: 50px; font-weight: bold;\">Incorrect</p>","response":null,"trial_index":190,"plugin_version":"2.1.0","time_elapsed":437445,"subject_id":"91379","group":"Group2","condition":"1_Rep","full_date":"2026-02-09T20:00:48.483Z","date":"2026-02-09","time":"20:00:48"},{"correct_response":"a","task":"test_phase","broad_category":"I","image_png":"I_Rhyolite_11.png","image_id":155,"category_name":"Rhyolite","category":10,"distinct_rating":1.73,"distinct_type":"Bottom","item_type":"Foil","rt":1247,"stimulus":"Stimuli_Rocks480/I_Rhyolite_11.png","response":"l","trial_type":"image-keyboard-response","trial_index":191,"plugin_version":"2.1.0","time_elapsed":438694,"subject_id":"91379","group":"Group2","condition":"1_Rep","full_date":"2026-02-09T20:00:48.483Z","date":"2026-02-09","time":"20:00:48","cor_ans":false},{"trial_type":"html-keyboard-response","rt":null,"stimulus":"<p style=\"color: red; font-size: 50px; font-weight: bold;\">Incorrect</p>","response":null,"trial_index":192,"plugin_version":"2.1.0","time_elapsed":439210,"subject_id":"91379","group":"Group2","condition":"1_Rep","full_date":"2026-02-09T20:00:48.483Z","date":"2026-02-09","time":"20:00:48"},{"correct_response":"l","task":"test_phase","broad_category":"I","image_png":"I_Diorite_10.png","image_id":42,"category_name":"Diorite","category":3,"distinct_rating":2.84,"distinct_type":"Bottom","item_type":"Target","rt":1256,"stimulus":"Stimuli_Rocks480/I_Diorite_10.png","response":"l","trial_type":"image-keyboard-response","trial_index":193,"plugin_version":"2.1.0","time_elapsed":440469,"subject_id":"91379","group":"Group2","condition":"1_Rep","full_date":"2026-02-09T20:00:48.483Z","date":"2026-02-09","time":"20:00:48","cor_ans":true},{"trial_type":"html-keyboard-response","rt":null,"stimulus":"<p style=\"color: green; font-size: 50px; font-weight: bold;\">Correct</p>","response":null,"trial_index":194,"plugin_version":"2.1.0","time_elapsed":440979,"subject_id":"91379","group":"Group2","condition":"1_Rep","full_date":"2026-02-09T20:00:48.483Z","date":"2026-02-09","time":"20:00:48"},{"correct_response":"l","task":"test_phase","broad_category":"M","image_png":"M_Quartzite_07.png","image_id":279,"category_name":"Quartzite","category":18,"distinct_rating":1.97,"distinct_type":"Bottom","item_type":"Target","rt":1969,"stimulus":"Stimuli_Rocks480/M_Quartzite_07.png","response":"l","trial_type":"image-keyboard-response","trial_index":195,"plugin_version":"2.1.0","time_elapsed":442950,"subject_id":"91379","group":"Group2","condition":"1_Rep","full_date":"2026-02-09T20:00:48.483Z","date":"2026-02-09","time":"20:00:48","cor_ans":true},{"trial_type":"html-keyboard-response","rt":null,"stimulus":"<p style=\"color: green; font-size: 50px; font-weight: bold;\">Correct</p>","response":null,"trial_index":196,"plugin_version":"2.1.0","time_elapsed":443462,"subject_id":"91379","group":"Group2","condition":"1_Rep","full_date":"2026-02-09T20:00:48.483Z","date":"2026-02-09","time":"20:00:48"},{"correct_response":"a","task":"test_phase","broad_category":"S","image_png":"S_Rock Salt_01.png","image_id":433,"category_name":"Rock Salt","category":28,"distinct_rating":7.18,"distinct_type":"Top","item_type":"Foil","rt":914,"stimulus":"Stimuli_Rocks480/S_Rock Salt_01.png","response":"a","trial_type":"image-keyboard-response","trial_index":197,"plugin_version":"2.1.0","time_elapsed":444378,"subject_id":"91379","group":"Group2","condition":"1_Rep","full_date":"2026-02-09T20:00:48.483Z","date":"2026-02-09","time":"20:00:48","cor_ans":true},{"trial_type":"html-keyboard-response","rt":null,"stimulus":"<p style=\"color: green; font-size: 50px; font-weight: bold;\">Correct</p>","response":null,"trial_index":198,"plugin_version":"2.1.0","time_elapsed":444895,"subject_id":"91379","group":"Group2","condition":"1_Rep","full_date":"2026-02-09T20:00:48.483Z","date":"2026-02-09","time":"20:00:48"},{"correct_response":"l","task":"test_phase","broad_category":"I","image_png":"I_Gabbro_12.png","image_id":60,"category_name":"Gabbro","category":4,"distinct_rating":2.6,"distinct_type":"Bottom","item_type":"Target","rt":3362,"stimulus":"Stimuli_Rocks480/I_Gabbro_12.png","response":"a","trial_type":"image-keyboard-response","trial_index":199,"plugin_version":"2.1.0","time_elapsed":448259,"subject_id":"91379","group":"Group2","condition":"1_Rep","full_date":"2026-02-09T20:00:48.483Z","date":"2026-02-09","time":"20:00:48","cor_ans":false},{"trial_type":"html-keyboard-response","rt":null,"stimulus":"<p style=\"color: red; font-size: 50px; font-weight: bold;\">Incorrect</p>","response":null,"trial_index":200,"plugin_version":"2.1.0","time_elapsed":448763,"subject_id":"91379","group":"Group2","condition":"1_Rep","full_date":"2026-02-09T20:00:48.483Z","date":"2026-02-09","time":"20:00:48"},{"correct_response":"a","task":"test_phase","broad_category":"I","image_png":"I_Basalt_01.png","image_id":17,"category_name":"Basalt","category":2,"distinct_rating":1.92,"distinct_type":"Bottom","item_type":"Foil","rt":1049,"stimulus":"Stimuli_Rocks480/I_Basalt_01.png","response":"l","trial_type":"image-keyboard-response","trial_index":201,"plugin_version":"2.1.0","time_elapsed":449814,"subject_id":"91379","group":"Group2","condition":"1_Rep","full_date":"2026-02-09T20:00:48.483Z","date":"2026-02-09","time":"20:00:48","cor_ans":false},{"trial_type":"html-keyboard-response","rt":null,"stimulus":"<p style=\"color: red; font-size: 50px; font-weight: bold;\">Incorrect</p>","response":null,"trial_index":202,"plugin_version":"2.1.0","time_elapsed":450318,"subject_id":"91379","group":"Group2","condition":"1_Rep","full_date":"2026-02-09T20:00:48.483Z","date":"2026-02-09","time":"20:00:48"},{"correct_response":"l","task":"test_phase","broad_category":"S","image_png":"S_Shale_02.png","image_id":466,"category_name":"Shale","category":30,"distinct_rating":2.9,"distinct_type":"Bottom","item_type":"Target","rt":1007,"stimulus":"Stimuli_Rocks480/S_Shale_02.png","response":"l","trial_type":"image-keyboard-response","trial_index":203,"plugin_version":"2.1.0","time_elapsed":451327,"subject_id":"91379","group":"Group2","condition":"1_Rep","full_date":"2026-02-09T20:00:48.483Z","date":"2026-02-09","time":"20:00:48","cor_ans":true},{"trial_type":"html-keyboard-response","rt":null,"stimulus":"<p style=\"color: green; font-size: 50px; font-weight: bold;\">Correct</p>","response":null,"trial_index":204,"plugin_version":"2.1.0","time_elapsed":451828,"subject_id":"91379","group":"Group2","condition":"1_Rep","full_date":"2026-02-09T20:00:48.483Z","date":"2026-02-09","time":"20:00:48"},{"correct_response":"a","task":"test_phase","broad_category":"I","image_png":"I_Pegmatite_16.png","image_id":112,"category_name":"Pegmatite","category":7,"distinct_rating":7.03,"distinct_type":"Top","item_type":"Foil","rt":703,"stimulus":"Stimuli_Rocks480/I_Pegmatite_16.png","response":"a","trial_type":"image-keyboard-response","trial_index":205,"plugin_version":"2.1.0","time_elapsed":452533,"subject_id":"91379","group":"Group2","condition":"1_Rep","full_date":"2026-02-09T20:00:48.483Z","date":"2026-02-09","time":"20:00:48","cor_ans":true},{"trial_type":"html-keyboard-response","rt":null,"stimulus":"<p style=\"color: green; font-size: 50px; font-weight: bold;\">Correct</p>","response":null,"trial_index":206,"plugin_version":"2.1.0","time_elapsed":453037,"subject_id":"91379","group":"Group2","condition":"1_Rep","full_date":"2026-02-09T20:00:48.483Z","date":"2026-02-09","time":"20:00:48"},{"correct_response":"a","task":"test_phase","broad_category":"M","image_png":"M_Quartzite_13.png","image_id":285,"category_name":"Quartzite","category":18,"distinct_rating":2.27,"distinct_type":"Bottom","item_type":"Foil","rt":8734,"stimulus":"Stimuli_Rocks480/M_Quartzite_13.png","response":"l","trial_type":"image-keyboard-response","trial_index":207,"plugin_version":"2.1.0","time_elapsed":461773,"subject_id":"91379","group":"Group2","condition":"1_Rep","full_date":"2026-02-09T20:00:48.483Z","date":"2026-02-09","time":"20:00:48","cor_ans":false},{"trial_type":"html-keyboard-response","rt":null,"stimulus":"<p style=\"color: red; font-size: 50px; font-weight: bold;\">Incorrect</p>","response":null,"trial_index":208,"plugin_version":"2.1.0","time_elapsed":462290,"subject_id":"91379","group":"Group2","condition":"1_Rep","full_date":"2026-02-09T20:00:48.483Z","date":"2026-02-09","time":"20:00:48"},{"correct_response":"a","task":"test_phase","broad_category":"M","image_png":"M_Phyllite_10.png","image_id":266,"category_name":"Phyllite","category":17,"distinct_rating":2.6,"distinct_type":"Bottom","item_type":"Foil","rt":882,"stimulus":"Stimuli_Rocks480/M_Phyllite_10.png","response":"a","trial_type":"image-keyboard-response","trial_index":209,"plugin_version":"2.1.0","time_elapsed":463173,"subject_id":"91379","group":"Group2","condition":"1_Rep","full_date":"2026-02-09T20:00:48.483Z","date":"2026-02-09","time":"20:00:48","cor_ans":true},{"trial_type":"html-keyboard-response","rt":null,"stimulus":"<p style=\"color: green; font-size: 50px; font-weight: bold;\">Correct</p>","response":null,"trial_index":210,"plugin_version":"2.1.0","time_elapsed":463675,"subject_id":"91379","group":"Group2","condition":"1_Rep","full_date":"2026-02-09T20:00:48.483Z","date":"2026-02-09","time":"20:00:48"},{"correct_response":"l","task":"test_phase","broad_category":"I","image_png":"I_Obsidian_06.png","image_id":86,"category_name":"Obsidian","category":6,"distinct_rating":8.01,"distinct_type":"Top","item_type":"Target","rt":749,"stimulus":"Stimuli_Rocks480/I_Obsidian_06.png","response":"l","trial_type":"image-keyboard-response","trial_index":211,"plugin_version":"2.1.0","time_elapsed":464425,"subject_id":"91379","group":"Group2","condition":"1_Rep","full_date":"2026-02-09T20:00:48.483Z","date":"2026-02-09","time":"20:00:48","cor_ans":true},{"trial_type":"html-keyboard-response","rt":null,"stimulus":"<p style=\"color: green; font-size: 50px; font-weight: bold;\">Correct</p>","response":null,"trial_index":212,"plugin_version":"2.1.0","time_elapsed":464929,"subject_id":"91379","group":"Group2","condition":"1_Rep","full_date":"2026-02-09T20:00:48.483Z","date":"2026-02-09","time":"20:00:48"},{"correct_response":"l","task":"test_phase","broad_category":"M","image_png":"M_Quartzite_15.png","image_id":287,"category_name":"Quartzite","category":18,"distinct_rating":2.19,"distinct_type":"Bottom","item_type":"Target","rt":2467,"stimulus":"Stimuli_Rocks480/M_Quartzite_15.png","response":"a","trial_type":"image-keyboard-response","trial_index":213,"plugin_version":"2.1.0","time_elapsed":467397,"subject_id":"91379","group":"Group2","condition":"1_Rep","full_date":"2026-02-09T20:00:48.483Z","date":"2026-02-09","time":"20:00:48","cor_ans":false},{"trial_type":"html-keyboard-response","rt":null,"stimulus":"<p style=\"color: red; font-size: 50px; font-weight: bold;\">Incorrect</p>","response":null,"trial_index":214,"plugin_version":"2.1.0","time_elapsed":467909,"subject_id":"91379","group":"Group2","condition":"1_Rep","full_date":"2026-02-09T20:00:48.483Z","date":"2026-02-09","time":"20:00:48"},{"correct_response":"l","task":"test_phase","broad_category":"I","image_png":"I_Rhyolite_10.png","image_id":154,"category_name":"Rhyolite","category":10,"distinct_rating":2.88,"distinct_type":"Bottom","item_type":"Target","rt":1858,"stimulus":"Stimuli_Rocks480/I_Rhyolite_10.png","response":"a","trial_type":"image-keyboard-response","trial_index":215,"plugin_version":"2.1.0","time_elapsed":469769,"subject_id":"91379","group":"Group2","condition":"1_Rep","full_date":"2026-02-09T20:00:48.483Z","date":"2026-02-09","time":"20:00:48","cor_ans":false},{"trial_type":"html-keyboard-response","rt":null,"stimulus":"<p style=\"color: red; font-size: 50px; font-weight: bold;\">Incorrect</p>","response":null,"trial_index":216,"plugin_version":"2.1.0","time_elapsed":470277,"subject_id":"91379","group":"Group2","condition":"1_Rep","full_date":"2026-02-09T20:00:48.483Z","date":"2026-02-09","time":"20:00:48"},{"correct_response":"a","task":"test_phase","broad_category":"M","image_png":"M_Marble_06.png","image_id":230,"category_name":"Marble","category":15,"distinct_rating":3.4,"distinct_type":"Bottom","item_type":"Foil","rt":1111,"stimulus":"Stimuli_Rocks480/M_Marble_06.png","response":"a","trial_type":"image-keyboard-response","trial_index":217,"plugin_version":"2.1.0","time_elapsed":471390,"subject_id":"91379","group":"Group2","condition":"1_Rep","full_date":"2026-02-09T20:00:48.483Z","date":"2026-02-09","time":"20:00:48","cor_ans":true},{"trial_type":"html-keyboard-response","rt":null,"stimulus":"<p style=\"color: green; font-size: 50px; font-weight: bold;\">Correct</p>","response":null,"trial_index":218,"plugin_version":"2.1.0","time_elapsed":471895,"subject_id":"91379","group":"Group2","condition":"1_Rep","full_date":"2026-02-09T20:00:48.483Z","date":"2026-02-09","time":"20:00:48"},{"correct_response":"a","task":"test_phase","broad_category":"S","image_png":"S_Breccia_11.png","image_id":347,"category_name":"Breccia","category":22,"distinct_rating":6.7,"distinct_type":"Top","item_type":"Foil","rt":739,"stimulus":"Stimuli_Rocks480/S_Breccia_11.png","response":"a","trial_type":"image-keyboard-response","trial_index":219,"plugin_version":"2.1.0","time_elapsed":472636,"subject_id":"91379","group":"Group2","condition":"1_Rep","full_date":"2026-02-09T20:00:48.483Z","date":"2026-02-09","time":"20:00:48","cor_ans":true},{"trial_type":"html-keyboard-response","rt":null,"stimulus":"<p style=\"color: green; font-size: 50px; font-weight: bold;\">Correct</p>","response":null,"trial_index":220,"plugin_version":"2.1.0","time_elapsed":473144,"subject_id":"91379","group":"Group2","condition":"1_Rep","full_date":"2026-02-09T20:00:48.483Z","date":"2026-02-09","time":"20:00:48"},{"correct_response":"a","task":"test_phase","broad_category":"S","image_png":"S_Sandstone_15.png","image_id":463,"category_name":"Sandstone","category":29,"distinct_rating":2,"distinct_type":"Bottom","item_type":"Foil","rt":1021,"stimulus":"Stimuli_Rocks480/S_Sandstone_15.png","response":"a","trial_type":"image-keyboard-response","trial_index":221,"plugin_version":"2.1.0","time_elapsed":474168,"subject_id":"91379","group":"Group2","condition":"1_Rep","full_date":"2026-02-09T20:00:48.483Z","date":"2026-02-09","time":"20:00:48","cor_ans":true},{"trial_type":"html-keyboard-response","rt":null,"stimulus":"<p style=\"color: green; font-size: 50px; font-weight: bold;\">Correct</p>","response":null,"trial_index":222,"plugin_version":"2.1.0","time_elapsed":474676,"subject_id":"91379","group":"Group2","condition":"1_Rep","full_date":"2026-02-09T20:00:48.483Z","date":"2026-02-09","time":"20:00:48"},{"correct_response":"l","task":"test_phase","broad_category":"I","image_png":"I_Basalt_10.png","image_id":26,"category_name":"Basalt","category":2,"distinct_rating":2.76,"distinct_type":"Bottom","item_type":"Target","rt":2312,"stimulus":"Stimuli_Rocks480/I_Basalt_10.png","response":"l","trial_type":"image-keyboard-response","trial_index":223,"plugin_version":"2.1.0","time_elapsed":476990,"subject_id":"91379","group":"Group2","condition":"1_Rep","full_date":"2026-02-09T20:00:48.483Z","date":"2026-02-09","time":"20:00:48","cor_ans":true},{"trial_type":"html-keyboard-response","rt":null,"stimulus":"<p style=\"color: green; font-size: 50px; font-weight: bold;\">Correct</p>","response":null,"trial_index":224,"plugin_version":"2.1.0","time_elapsed":477495,"subject_id":"91379","group":"Group2","condition":"1_Rep","full_date":"2026-02-09T20:00:48.483Z","date":"2026-02-09","time":"20:00:48"},{"correct_response":"l","task":"test_phase","