[{"width":1440,"height":812,"webaudio":true,"browser":"chrome","browser_version":"131.0.0","mobile":false,"os":"Mac OS","fullscreen":true,"vsync_rate":61.14,"webcam":true,"microphone":true,"trial_type":"browser-check","trial_index":0,"plugin_version":"2.1.0","time_elapsed":1003,"subject_id":"92513","group":"Group1","condition":"1_Rep","full_date":"2026-02-23T19:54:05.383Z","date":"2026-02-23","time":"19:54:05"},{"success":true,"timeout":false,"failed_images":[],"failed_audio":[],"failed_video":[],"trial_type":"preload","trial_index":1,"plugin_version":"2.1.0","time_elapsed":2700,"subject_id":"92513","group":"Group1","condition":"1_Rep","full_date":"2026-02-23T19:54:05.383Z","date":"2026-02-23","time":"19:54:05"},{"rt":48415,"url":"SONA_consent_memorability.html","trial_type":"external-html","trial_index":2,"plugin_version":"2.1.0","time_elapsed":51167,"subject_id":"92513","group":"Group1","condition":"1_Rep","full_date":"2026-02-23T19:54:05.383Z","date":"2026-02-23","time":"19:54:05"},{"success":true,"rt":1103,"trial_type":"fullscreen","trial_index":3,"plugin_version":"2.1.0","time_elapsed":53273,"subject_id":"92513","group":"Group1","condition":"1_Rep","full_date":"2026-02-23T19:54:05.383Z","date":"2026-02-23","time":"19:54:05"},{"rt":67767,"stimulus":"<div style=\"max-width: 760px; margin: auto; font-size: 20px; line-height: 1.5;\">\n      <h1 style=\"text-align:center; font-size: 30px;\">Instructions</h1>\n      <p>\n        Welcome to the study on <b>visual memory</b>. This experiment consists of <b>two phases</b>: \n        a <b>study phase</b> and a <b>test phase</b>.\n      </p>\n      <p>\n        In the study phase, you will see a series of rock images along with their category labels.\n        The images will appear one at a time.\n        <b>Your task</b> is to learn the categories to which the rock images belong \n        and to remember each image as accurately as possible.\n      </p> \n      <p>\n        Note that you will see each image only <b>once</b> during the study phase. \n          So, please pay close attention and try to remember each image carefully.\n      </p>\n      <p>\n        After the study phase, <b>your memory will be tested</b>. \n        Additional instructions for the test phase will be provided at that time.\n      </p>\n      <p>\n        If your computer has multiple <b>language settings</b> (e.g., English and another language),\n        please make sure it is set to English before starting.\n      </p>\n      <p>\n        You can track your progress using the <b>completion bar</b> at the top of the screen. \n        Please note that the bar will refresh when the test phase begins \n        to give you an accurate sense of your progress in both phases.\n      </p> \n      <p>\n        Press the button below when you are ready to begin.\n      </p>\n    </div>","response":0,"trial_type":"html-button-response","trial_index":4,"plugin_version":"2.1.0","time_elapsed":121041,"subject_id":"92513","group":"Group1","condition":"1_Rep","full_date":"2026-02-23T19:54:05.383Z","date":"2026-02-23","time":"19:54:05"},{"rt":null,"stimulus":"<p style=\"font-size: 50px; margin: 0; text-align: center;\">+</p>","response":null,"trial_type":"html-keyboard-response","trial_index":5,"plugin_version":"2.1.0","time_elapsed":122044,"subject_id":"92513","group":"Group1","condition":"1_Rep","full_date":"2026-02-23T19:54:05.383Z","date":"2026-02-23","time":"19:54:05"},{"task":"memory_phase","broad_category":"M","image_png":"M_Slate_15.png","image_id":319,"category_name":"Slate","category":20,"distinct_rating":2.13,"distinct_type":"Bottom","rt":null,"stimulus":"Stimuli_Rocks480/M_Slate_15.png","response":null,"trial_type":"image-keyboard-response","trial_index":6,"plugin_version":"2.1.0","time_elapsed":124550,"subject_id":"92513","group":"Group1","condition":"1_Rep","full_date":"2026-02-23T19:54:05.383Z","date":"2026-02-23","time":"19:54:05"},{"rt":null,"stimulus":"<p style=\"font-size: 50px; margin: 0; text-align: center;\">+</p>","response":null,"trial_type":"html-keyboard-response","trial_index":7,"plugin_version":"2.1.0","time_elapsed":125553,"subject_id":"92513","group":"Group1","condition":"1_Rep","full_date":"2026-02-23T19:54:05.383Z","date":"2026-02-23","time":"19:54:05"},{"task":"memory_phase","broad_category":"S","image_png":"S_Shale_12.png","image_id":476,"category_name":"Shale","category":30,"distinct_rating":2.48,"distinct_type":"Bottom","rt":null,"stimulus":"Stimuli_Rocks480/S_Shale_12.png","response":null,"trial_type":"image-keyboard-response","trial_index":8,"plugin_version":"2.1.0","time_elapsed":128058,"subject_id":"92513","group":"Group1","condition":"1_Rep","full_date":"2026-02-23T19:54:05.383Z","date":"2026-02-23","time":"19:54:05"},{"rt":null,"stimulus":"<p style=\"font-size: 50px; margin: 0; text-align: center;\">+</p>","response":null,"trial_type":"html-keyboard-response","trial_index":9,"plugin_version":"2.1.0","time_elapsed":129061,"subject_id":"92513","group":"Group1","condition":"1_Rep","full_date":"2026-02-23T19:54:05.383Z","date":"2026-02-23","time":"19:54:05"},{"task":"memory_phase","broad_category":"I","image_png":"I_Basalt_09.png","image_id":25,"category_name":"Basalt","category":2,"distinct_rating":1.89,"distinct_type":"Bottom","rt":null,"stimulus":"Stimuli_Rocks480/I_Basalt_09.png","response":null,"trial_type":"image-keyboard-response","trial_index":10,"plugin_version":"2.1.0","time_elapsed":131564,"subject_id":"92513","group":"Group1","condition":"1_Rep","full_date":"2026-02-23T19:54:05.383Z","date":"2026-02-23","time":"19:54:05"},{"rt":null,"stimulus":"<p style=\"font-size: 50px; margin: 0; text-align: center;\">+</p>","response":null,"trial_type":"html-keyboard-response","trial_index":11,"plugin_version":"2.1.0","time_elapsed":132568,"subject_id":"92513","group":"Group1","condition":"1_Rep","full_date":"2026-02-23T19:54:05.383Z","date":"2026-02-23","time":"19:54:05"},{"task":"memory_phase","broad_category":"I","image_png":"I_Gabbro_16.png","image_id":64,"category_name":"Gabbro","category":4,"distinct_rating":2.52,"distinct_type":"Bottom","rt":null,"stimulus":"Stimuli_Rocks480/I_Gabbro_16.png","response":null,"trial_type":"image-keyboard-response","trial_index":12,"plugin_version":"2.1.0","time_elapsed":135072,"subject_id":"92513","group":"Group1","condition":"1_Rep","full_date":"2026-02-23T19:54:05.383Z","date":"2026-02-23","time":"19:54:05"},{"rt":null,"stimulus":"<p style=\"font-size: 50px; margin: 0; text-align: center;\">+</p>","response":null,"trial_type":"html-keyboard-response","trial_index":13,"plugin_version":"2.1.0","time_elapsed":136075,"subject_id":"92513","group":"Group1","condition":"1_Rep","full_date":"2026-02-23T19:54:05.383Z","date":"2026-02-23","time":"19:54:05"},{"task":"memory_phase","broad_category":"M","image_png":"M_Quartzite_08.png","image_id":280,"category_name":"Quartzite","category":18,"distinct_rating":2.15,"distinct_type":"Bottom","rt":null,"stimulus":"Stimuli_Rocks480/M_Quartzite_08.png","response":null,"trial_type":"image-keyboard-response","trial_index":14,"plugin_version":"2.1.0","time_elapsed":138579,"subject_id":"92513","group":"Group1","condition":"1_Rep","full_date":"2026-02-23T19:54:05.383Z","date":"2026-02-23","time":"19:54:05"},{"rt":null,"stimulus":"<p style=\"font-size: 50px; margin: 0; text-align: center;\">+</p>","response":null,"trial_type":"html-keyboard-response","trial_index":15,"plugin_version":"2.1.0","time_elapsed":139582,"subject_id":"92513","group":"Group1","condition":"1_Rep","full_date":"2026-02-23T19:54:05.383Z","date":"2026-02-23","time":"19:54:05"},{"task":"memory_phase","broad_category":"I","image_png":"I_Obsidian_05.png","image_id":85,"category_name":"Obsidian","category":6,"distinct_rating":7.32,"distinct_type":"Top","rt":null,"stimulus":"Stimuli_Rocks480/I_Obsidian_05.png","response":null,"trial_type":"image-keyboard-response","trial_index":16,"plugin_version":"2.1.0","time_elapsed":142086,"subject_id":"92513","group":"Group1","condition":"1_Rep","full_date":"2026-02-23T19:54:05.383Z","date":"2026-02-23","time":"19:54:05"},{"rt":null,"stimulus":"<p style=\"font-size: 50px; margin: 0; text-align: center;\">+</p>","response":null,"trial_type":"html-keyboard-response","trial_index":17,"plugin_version":"2.1.0","time_elapsed":143088,"subject_id":"92513","group":"Group1","condition":"1_Rep","full_date":"2026-02-23T19:54:05.383Z","date":"2026-02-23","time":"19:54:05"},{"task":"memory_phase","broad_category":"I","image_png":"I_Pegmatite_10.png","image_id":106,"category_name":"Pegmatite","category":7,"distinct_rating":7.66,"distinct_type":"Top","rt":null,"stimulus":"Stimuli_Rocks480/I_Pegmatite_10.png","response":null,"trial_type":"image-keyboard-response","trial_index":18,"plugin_version":"2.1.0","time_elapsed":145593,"subject_id":"92513","group":"Group1","condition":"1_Rep","full_date":"2026-02-23T19:54:05.383Z","date":"2026-02-23","time":"19:54:05"},{"rt":null,"stimulus":"<p style=\"font-size: 50px; margin: 0; text-align: center;\">+</p>","response":null,"trial_type":"html-keyboard-response","trial_index":19,"plugin_version":"2.1.0","time_elapsed":146596,"subject_id":"92513","group":"Group1","condition":"1_Rep","full_date":"2026-02-23T19:54:05.383Z","date":"2026-02-23","time":"19:54:05"},{"task":"memory_phase","broad_category":"I","image_png":"I_Pumice_12.png","image_id":140,"category_name":"Pumice","category":9,"distinct_rating":2.97,"distinct_type":"Bottom","rt":null,"stimulus":"Stimuli_Rocks480/I_Pumice_12.png","response":null,"trial_type":"image-keyboard-response","trial_index":20,"plugin_version":"2.1.0","time_elapsed":149101,"subject_id":"92513","group":"Group1","condition":"1_Rep","full_date":"2026-02-23T19:54:05.383Z","date":"2026-02-23","time":"19:54:05"},{"rt":null,"stimulus":"<p style=\"font-size: 50px; margin: 0; text-align: center;\">+</p>","response":null,"trial_type":"html-keyboard-response","trial_index":21,"plugin_version":"2.1.0","time_elapsed":150103,"subject_id":"92513","group":"Group1","condition":"1_Rep","full_date":"2026-02-23T19:54:05.383Z","date":"2026-02-23","time":"19:54:05"},{"task":"memory_phase","broad_category":"S","image_png":"S_Chert_10.png","image_id":362,"category_name":"Chert","category":23,"distinct_rating":7.17,"distinct_type":"Top","rt":null,"stimulus":"Stimuli_Rocks480/S_Chert_10.png","response":null,"trial_type":"image-keyboard-response","trial_index":22,"plugin_version":"2.1.0","time_elapsed":152608,"subject_id":"92513","group":"Group1","condition":"1_Rep","full_date":"2026-02-23T19:54:05.383Z","date":"2026-02-23","time":"19:54:05"},{"rt":null,"stimulus":"<p style=\"font-size: 50px; margin: 0; text-align: center;\">+</p>","response":null,"trial_type":"html-keyboard-response","trial_index":23,"plugin_version":"2.1.0","time_elapsed":153611,"subject_id":"92513","group":"Group1","condition":"1_Rep","full_date":"2026-02-23T19:54:05.383Z","date":"2026-02-23","time":"19:54:05"},{"task":"memory_phase","broad_category":"I","image_png":"I_Gabbro_11.png","image_id":59,"category_name":"Gabbro","category":4,"distinct_rating":1.99,"distinct_type":"Bottom","rt":null,"stimulus":"Stimuli_Rocks480/I_Gabbro_11.png","response":null,"trial_type":"image-keyboard-response","trial_index":24,"plugin_version":"2.1.0","time_elapsed":156115,"subject_id":"92513","group":"Group1","condition":"1_Rep","full_date":"2026-02-23T19:54:05.383Z","date":"2026-02-23","time":"19:54:05"},{"rt":null,"stimulus":"<p style=\"font-size: 50px; margin: 0; text-align: center;\">+</p>","response":null,"trial_type":"html-keyboard-response","trial_index":25,"plugin_version":"2.1.0","time_elapsed":157117,"subject_id":"92513","group":"Group1","condition":"1_Rep","full_date":"2026-02-23T19:54:05.383Z","date":"2026-02-23","time":"19:54:05"},{"task":"memory_phase","broad_category":"S","image_png":"S_Rock Salt_01.png","image_id":433,"category_name":"Rock Salt","category":28,"distinct_rating":7.18,"distinct_type":"Top","rt":null,"stimulus":"Stimuli_Rocks480/S_Rock Salt_01.png","response":null,"trial_type":"image-keyboard-response","trial_index":26,"plugin_version":"2.1.0","time_elapsed":159622,"subject_id":"92513","group":"Group1","condition":"1_Rep","full_date":"2026-02-23T19:54:05.383Z","date":"2026-02-23","time":"19:54:05"},{"rt":null,"stimulus":"<p style=\"font-size: 50px; margin: 0; text-align: center;\">+</p>","response":null,"trial_type":"html-keyboard-response","trial_index":27,"plugin_version":"2.1.0","time_elapsed":160624,"subject_id":"92513","group":"Group1","condition":"1_Rep","full_date":"2026-02-23T19:54:05.383Z","date":"2026-02-23","time":"19:54:05"},{"task":"memory_phase","broad_category":"S","image_png":"S_Dolomite_14.png","image_id":398,"category_name":"Dolomite","category":25,"distinct_rating":1.43,"distinct_type":"Bottom","rt":null,"stimulus":"Stimuli_Rocks480/S_Dolomite_14.png","response":null,"trial_type":"image-keyboard-response","trial_index":28,"plugin_version":"2.1.0","time_elapsed":163128,"subject_id":"92513","group":"Group1","condition":"1_Rep","full_date":"2026-02-23T19:54:05.383Z","date":"2026-02-23","time":"19:54:05"},{"rt":null,"stimulus":"<p style=\"font-size: 50px; margin: 0; text-align: center;\">+</p>","response":null,"trial_type":"html-keyboard-response","trial_index":29,"plugin_version":"2.1.0","time_elapsed":164131,"subject_id":"92513","group":"Group1","condition":"1_Rep","full_date":"2026-02-23T19:54:05.383Z","date":"2026-02-23","time":"19:54:05"},{"task":"memory_phase","broad_category":"M","image_png":"M_Gneiss_05.png","image_id":197,"category_name":"Gneiss","category":13,"distinct_rating":2.97,"distinct_type":"Bottom","rt":null,"stimulus":"Stimuli_Rocks480/M_Gneiss_05.png","response":null,"trial_type":"image-keyboard-response","trial_index":30,"plugin_version":"2.1.0","time_elapsed":166634,"subject_id":"92513","group":"Group1","condition":"1_Rep","full_date":"2026-02-23T19:54:05.383Z","date":"2026-02-23","time":"19:54:05"},{"rt":null,"stimulus":"<p style=\"font-size: 50px; margin: 0; text-align: center;\">+</p>","response":null,"trial_type":"html-keyboard-response","trial_index":31,"plugin_version":"2.1.0","time_elapsed":167637,"subject_id":"92513","group":"Group1","condition":"1_Rep","full_date":"2026-02-23T19:54:05.383Z","date":"2026-02-23","time":"19:54:05"},{"task":"memory_phase","broad_category":"I","image_png":"I_Andesite_10.png","image_id":10,"category_name":"Andesite","category":1,"distinct_rating":3.15,"distinct_type":"Bottom","rt":null,"stimulus":"Stimuli_Rocks480/I_Andesite_10.png","response":null,"trial_type":"image-keyboard-response","trial_index":32,"plugin_version":"2.1.0","time_elapsed":170140,"subject_id":"92513","group":"Group1","condition":"1_Rep","full_date":"2026-02-23T19:54:05.383Z","date":"2026-02-23","time":"19:54:05"},{"rt":null,"stimulus":"<p style=\"font-size: 50px; margin: 0; text-align: center;\">+</p>","response":null,"trial_type":"html-keyboard-response","trial_index":33,"plugin_version":"2.1.0","time_elapsed":171144,"subject_id":"92513","group":"Group1","condition":"1_Rep","full_date":"2026-02-23T19:54:05.383Z","date":"2026-02-23","time":"19:54:05"},{"task":"memory_phase","broad_category":"M","image_png":"M_Slate_03.png","image_id":307,"category_name":"Slate","category":20,"distinct_rating":1.87,"distinct_type":"Bottom","rt":null,"stimulus":"Stimuli_Rocks480/M_Slate_03.png","response":null,"trial_type":"image-keyboard-response","trial_index":34,"plugin_version":"2.1.0","time_elapsed":173647,"subject_id":"92513","group":"Group1","condition":"1_Rep","full_date":"2026-02-23T19:54:05.383Z","date":"2026-02-23","time":"19:54:05"},{"rt":null,"stimulus":"<p style=\"font-size: 50px; margin: 0; text-align: center;\">+</p>","response":null,"trial_type":"html-keyboard-response","trial_index":35,"plugin_version":"2.1.0","time_elapsed":174650,"subject_id":"92513","group":"Group1","condition":"1_Rep","full_date":"2026-02-23T19:54:05.383Z","date":"2026-02-23","time":"19:54:05"},{"task":"memory_phase","broad_category":"S","image_png":"S_Shale_08.png","image_id":472,"category_name":"Shale","category":30,"distinct_rating":2.55,"distinct_type":"Bottom","rt":null,"stimulus":"Stimuli_Rocks480/S_Shale_08.png","response":null,"trial_type":"image-keyboard-response","trial_index":36,"plugin_version":"2.1.0","time_elapsed":177154,"subject_id":"92513","group":"Group1","condition":"1_Rep","full_date":"2026-02-23T19:54:05.383Z","date":"2026-02-23","time":"19:54:05"},{"rt":null,"stimulus":"<p style=\"font-size: 50px; margin: 0; text-align: center;\">+</p>","response":null,"trial_type":"html-keyboard-response","trial_index":37,"plugin_version":"2.1.0","time_elapsed":178158,"subject_id":"92513","group":"Group1","condition":"1_Rep","full_date":"2026-02-23T19:54:05.383Z","date":"2026-02-23","time":"19:54:05"},{"task":"memory_phase","broad_category":"I","image_png":"I_Andesite_06.png","image_id":6,"category_name":"Andesite","category":1,"distinct_rating":3.17,"distinct_type":"Bottom","rt":null,"stimulus":"Stimuli_Rocks480/I_Andesite_06.png","response":null,"trial_type":"image-keyboard-response","trial_index":38,"plugin_version":"2.1.0","time_elapsed":180670,"subject_id":"92513","group":"Group1","condition":"1_Rep","full_date":"2026-02-23T19:54:05.383Z","date":"2026-02-23","time":"19:54:05"},{"rt":null,"stimulus":"<p style=\"font-size: 50px; margin: 0; text-align: center;\">+</p>","response":null,"trial_type":"html-keyboard-response","trial_index":39,"plugin_version":"2.1.0","time_elapsed":181672,"subject_id":"92513","group":"Group1","condition":"1_Rep","full_date":"2026-02-23T19:54:05.383Z","date":"2026-02-23","time":"19:54:05"},{"task":"memory_phase","broad_category":"S","image_png":"S_Rock Gypsum_04.png","image_id":420,"category_name":"Rock Gypsum","category":27,"distinct_rating":7.61,"distinct_type":"Top","rt":null,"stimulus":"Stimuli_Rocks480/S_Rock Gypsum_04.png","response":null,"trial_type":"image-keyboard-response","trial_index":40,"plugin_version":"2.1.0","time_elapsed":184177,"subject_id":"92513","group":"Group1","condition":"1_Rep","full_date":"2026-02-23T19:54:05.383Z","date":"2026-02-23","time":"19:54:05"},{"rt":null,"stimulus":"<p style=\"font-size: 50px; margin: 0; text-align: center;\">+</p>","response":null,"trial_type":"html-keyboard-response","trial_index":41,"plugin_version":"2.1.0","time_elapsed":185180,"subject_id":"92513","group":"Group1","condition":"1_Rep","full_date":"2026-02-23T19:54:05.383Z","date":"2026-02-23","time":"19:54:05"},{"task":"memory_phase","broad_category":"I","image_png":"I_Gabbro_08.png","image_id":56,"category_name":"Gabbro","category":4,"distinct_rating":3.02,"distinct_type":"Bottom","rt":null,"stimulus":"Stimuli_Rocks480/I_Gabbro_08.png","response":null,"trial_type":"image-keyboard-response","trial_index":42,"plugin_version":"2.1.0","time_elapsed":187684,"subject_id":"92513","group":"Group1","condition":"1_Rep","full_date":"2026-02-23T19:54:05.383Z","date":"2026-02-23","time":"19:54:05"},{"rt":null,"stimulus":"<p style=\"font-size: 50px; margin: 0; text-align: center;\">+</p>","response":null,"trial_type":"html-keyboard-response","trial_index":43,"plugin_version":"2.1.0","time_elapsed":188687,"subject_id":"92513","group":"Group1","condition":"1_Rep","full_date":"2026-02-23T19:54:05.383Z","date":"2026-02-23","time":"19:54:05"},{"task":"memory_phase","broad_category":"I","image_png":"I_Basalt_02.png","image_id":18,"category_name":"Basalt","category":2,"distinct_rating":1.84,"distinct_type":"Bottom","rt":null,"stimulus":"Stimuli_Rocks480/I_Basalt_02.png","response":null,"trial_type":"image-keyboard-response","trial_index":44,"plugin_version":"2.1.0","time_elapsed":191190,"subject_id":"92513","group":"Group1","condition":"1_Rep","full_date":"2026-02-23T19:54:05.383Z","date":"2026-02-23","time":"19:54:05"},{"rt":null,"stimulus":"<p style=\"font-size: 50px; margin: 0; text-align: center;\">+</p>","response":null,"trial_type":"html-keyboard-response","trial_index":45,"plugin_version":"2.1.0","time_elapsed":192193,"subject_id":"92513","group":"Group1","condition":"1_Rep","full_date":"2026-02-23T19:54:05.383Z","date":"2026-02-23","time":"19:54:05"},{"task":"memory_phase","broad_category":"I","image_png":"I_Diorite_05.png","image_id":37,"category_name":"Diorite","category":3,"distinct_rating":3.08,"distinct_type":"Bottom","rt":null,"stimulus":"Stimuli_Rocks480/I_Diorite_05.png","response":null,"trial_type":"image-keyboard-response","trial_index":46,"plugin_version":"2.1.0","time_elapsed":194698,"subject_id":"92513","group":"Group1","condition":"1_Rep","full_date":"2026-02-23T19:54:05.383Z","date":"2026-02-23","time":"19:54:05"},{"rt":null,"stimulus":"<p style=\"font-size: 50px; margin: 0; text-align: center;\">+</p>","response":null,"trial_type":"html-keyboard-response","trial_index":47,"plugin_version":"2.1.0","time_elapsed":195701,"subject_id":"92513","group":"Group1","condition":"1_Rep","full_date":"2026-02-23T19:54:05.383Z","date":"2026-02-23","time":"19:54:05"},{"task":"memory_phase","broad_category":"M","image_png":"M_Phyllite_10.png","image_id":266,"category_name":"Phyllite","category":17,"distinct_rating":2.6,"distinct_type":"Bottom","rt":null,"stimulus":"Stimuli_Rocks480/M_Phyllite_10.png","response":null,"trial_type":"image-keyboard-response","trial_index":48,"plugin_version":"2.1.0","time_elapsed":198205,"subject_id":"92513","group":"Group1","condition":"1_Rep","full_date":"2026-02-23T19:54:05.383Z","date":"2026-02-23","time":"19:54:05"},{"rt":null,"stimulus":"<p style=\"font-size: 50px; margin: 0; text-align: center;\">+</p>","response":null,"trial_type":"html-keyboard-response","trial_index":49,"plugin_version":"2.1.0","time_elapsed":199208,"subject_id":"92513","group":"Group1","condition":"1_Rep","full_date":"2026-02-23T19:54:05.383Z","date":"2026-02-23","time":"19:54:05"},{"task":"memory_phase","broad_category":"S","image_png":"S_Sandstone_03.png","image_id":451,"category_name":"Sandstone","category":29,"distinct_rating":1.86,"distinct_type":"Bottom","rt":null,"stimulus":"Stimuli_Rocks480/S_Sandstone_03.png","response":null,"trial_type":"image-keyboard-response","trial_index":50,"plugin_version":"2.1.0","time_elapsed":201712,"subject_id":"92513","group":"Group1","condition":"1_Rep","full_date":"2026-02-23T19:54:05.383Z","date":"2026-02-23","time":"19:54:05"},{"rt":null,"stimulus":"<p style=\"font-size: 50px; margin: 0; text-align: center;\">+</p>","response":null,"trial_type":"html-keyboard-response","trial_index":51,"plugin_version":"2.1.0","time_elapsed":202715,"subject_id":"92513","group":"Group1","condition":"1_Rep","full_date":"2026-02-23T19:54:05.383Z","date":"2026-02-23","time":"19:54:05"},{"task":"memory_phase","broad_category":"S","image_png":"S_Sandstone_15.png","image_id":463,"category_name":"Sandstone","category":29,"distinct_rating":2,"distinct_type":"Bottom","rt":null,"stimulus":"Stimuli_Rocks480/S_Sandstone_15.png","response":null,"trial_type":"image-keyboard-response","trial_index":52,"plugin_version":"2.1.0","time_elapsed":205219,"subject_id":"92513","group":"Group1","condition":"1_Rep","full_date":"2026-02-23T19:54:05.383Z","date":"2026-02-23","time":"19:54:05"},{"rt":null,"stimulus":"<p style=\"font-size: 50px; margin: 0; text-align: center;\">+</p>","response":null,"trial_type":"html-keyboard-response","trial_index":53,"plugin_version":"2.1.0","time_elapsed":206222,"subject_id":"92513","group":"Group1","condition":"1_Rep","full_date":"2026-02-23T19:54:05.383Z","date":"2026-02-23","time":"19:54:05"},{"task":"memory_phase","broad_category":"I","image_png":"I_Diorite_04.png","image_id":36,"category_name":"Diorite","category":3,"distinct_rating":2.98,"distinct_type":"Bottom","rt":null,"stimulus":"Stimuli_Rocks480/I_Diorite_04.png","response":null,"trial_type":"image-keyboard-response","trial_index":54,"plugin_version":"2.1.0","time_elapsed":208727,"subject_id":"92513","group":"Group1","condition":"1_Rep","full_date":"2026-02-23T19:54:05.383Z","date":"2026-02-23","time":"19:54:05"},{"rt":1982,"stimulus":"<p style=\"max-width: 760px; margin: auto; font-size: 35px; line-height: 1.5;\">\n                Press SPACE to continue study phase\n              </p>","response":" ","trial_type":"html-keyboard-response","trial_index":55,"plugin_version":"2.1.0","time_elapsed":210711,"subject_id":"92513","group":"Group1","condition":"1_Rep","full_date":"2026-02-23T19:54:05.383Z","date":"2026-02-23","time":"19:54:05"},{"rt":null,"stimulus":"<p style=\"font-size: 50px; margin: 0; text-align: center;\">+</p>","response":null,"trial_type":"html-keyboard-response","trial_index":56,"plugin_version":"2.1.0","time_elapsed":211713,"subject_id":"92513","group":"Group1","condition":"1_Rep","full_date":"2026-02-23T19:54:05.383Z","date":"2026-02-23","time":"19:54:05"},{"task":"memory_phase","broad_category":"I","image_png":"I_Rhyolite_11.png","image_id":155,"category_name":"Rhyolite","category":10,"distinct_rating":1.73,"distinct_type":"Bottom","rt":null,"stimulus":"Stimuli_Rocks480/I_Rhyolite_11.png","response":null,"trial_type":"image-keyboard-response","trial_index":57,"plugin_version":"2.1.0","time_elapsed":214218,"subject_id":"92513","group":"Group1","condition":"1_Rep","full_date":"2026-02-23T19:54:05.383Z","date":"2026-02-23","time":"19:54:05"},{"rt":null,"stimulus":"<p style=\"font-size: 50px; margin: 0; text-align: center;\">+</p>","response":null,"trial_type":"html-keyboard-response","trial_index":58,"plugin_version":"2.1.0","time_elapsed":215221,"subject_id":"92513","group":"Group1","condition":"1_Rep","full_date":"2026-02-23T19:54:05.383Z","date":"2026-02-23","time":"19:54:05"},{"task":"memory_phase","broad_category":"I","image_png":"I_Basalt_01.png","image_id":17,"category_name":"Basalt","category":2,"distinct_rating":1.92,"distinct_type":"Bottom","rt":null,"stimulus":"Stimuli_Rocks480/I_Basalt_01.png","response":null,"trial_type":"image-keyboard-response","trial_index":59,"plugin_version":"2.1.0","time_elapsed":217725,"subject_id":"92513","group":"Group1","condition":"1_Rep","full_date":"2026-02-23T19:54:05.383Z","date":"2026-02-23","time":"19:54:05"},{"rt":null,"stimulus":"<p style=\"font-size: 50px; margin: 0; text-align: center;\">+</p>","response":null,"trial_type":"html-keyboard-response","trial_index":60,"plugin_version":"2.1.0","time_elapsed":218728,"subject_id":"92513","group":"Group1","condition":"1_Rep","full_date":"2026-02-23T19:54:05.383Z","date":"2026-02-23","time":"19:54:05"},{"task":"memory_phase","broad_category":"S","image_png":"S_Dolomite_13.png","image_id":397,"category_name":"Dolomite","category":25,"distinct_rating":1.77,"distinct_type":"Bottom","rt":null,"stimulus":"Stimuli_Rocks480/S_Dolomite_13.png","response":null,"trial_type":"image-keyboard-response","trial_index":61,"plugin_version":"2.1.0","time_elapsed":221232,"subject_id":"92513","group":"Group1","condition":"1_Rep","full_date":"2026-02-23T19:54:05.383Z","date":"2026-02-23","time":"19:54:05"},{"rt":null,"stimulus":"<p style=\"font-size: 50px; margin: 0; text-align: center;\">+</p>","response":null,"trial_type":"html-keyboard-response","trial_index":62,"plugin_version":"2.1.0","time_elapsed":222235,"subject_id":"92513","group":"Group1","condition":"1_Rep","full_date":"2026-02-23T19:54:05.383Z","date":"2026-02-23","time":"19:54:05"},{"task":"memory_phase","broad_category":"M","image_png":"M_Gneiss_13.png","image_id":205,"category_name":"Gneiss","category":13,"distinct_rating":3.26,"distinct_type":"Bottom","rt":null,"stimulus":"Stimuli_Rocks480/M_Gneiss_13.png","response":null,"trial_type":"image-keyboard-response","trial_index":63,"plugin_version":"2.1.0","time_elapsed":224739,"subject_id":"92513","group":"Group1","condition":"1_Rep","full_date":"2026-02-23T19:54:05.383Z","date":"2026-02-23","time":"19:54:05"},{"rt":null,"stimulus":"<p style=\"font-size: 50px; margin: 0; text-align: center;\">+</p>","response":null,"trial_type":"html-keyboard-response","trial_index":64,"plugin_version":"2.1.0","time_elapsed":225742,"subject_id":"92513","group":"Group1","condition":"1_Rep","full_date":"2026-02-23T19:54:05.383Z","date":"2026-02-23","time":"19:54:05"},{"task":"memory_phase","broad_category":"I","image_png":"I_Andesite_08.png","image_id":8,"category_name":"Andesite","category":1,"distinct_rating":1.95,"distinct_type":"Bottom","rt":null,"stimulus":"Stimuli_Rocks480/I_Andesite_08.png","response":null,"trial_type":"image-keyboard-response","trial_index":65,"plugin_version":"2.1.0","time_elapsed":228246,"subject_id":"92513","group":"Group1","condition":"1_Rep","full_date":"2026-02-23T19:54:05.383Z","date":"2026-02-23","time":"19:54:05"},{"rt":null,"stimulus":"<p style=\"font-size: 50px; margin: 0; text-align: center;\">+</p>","response":null,"trial_type":"html-keyboard-response","trial_index":66,"plugin_version":"2.1.0","time_elapsed":229249,"subject_id":"92513","group":"Group1","condition":"1_Rep","full_date":"2026-02-23T19:54:05.383Z","date":"2026-02-23","time":"19:54:05"},{"task":"memory_phase","broad_category":"M","image_png":"M_Phyllite_07.png","image_id":263,"category_name":"Phyllite","category":17,"distinct_rating":2.59,"distinct_type":"Bottom","rt":null,"stimulus":"Stimuli_Rocks480/M_Phyllite_07.png","response":null,"trial_type":"image-keyboard-response","trial_index":67,"plugin_version":"2.1.0","time_elapsed":231753,"subject_id":"92513","group":"Group1","condition":"1_Rep","full_date":"2026-02-23T19:54:05.383Z","date":"2026-02-23","time":"19:54:05"},{"rt":null,"stimulus":"<p style=\"font-size: 50px; margin: 0; text-align: center;\">+</p>","response":null,"trial_type":"html-keyboard-response","trial_index":68,"plugin_version":"2.1.0","time_elapsed":232755,"subject_id":"92513","group":"Group1","condition":"1_Rep","full_date":"2026-02-23T19:54:05.383Z","date":"2026-02-23","time":"19:54:05"},{"task":"memory_phase","broad_category":"I","image_png":"I_Diorite_03.png","image_id":35,"category_name":"Diorite","category":3,"distinct_rating":3.14,"distinct_type":"Bottom","rt":null,"stimulus":"Stimuli_Rocks480/I_Diorite_03.png","response":null,"trial_type":"image-keyboard-response","trial_index":69,"plugin_version":"2.1.0","time_elapsed":235259,"subject_id":"92513","group":"Group1","condition":"1_Rep","full_date":"2026-02-23T19:54:05.383Z","date":"2026-02-23","time":"19:54:05"},{"rt":null,"stimulus":"<p style=\"font-size: 50px; margin: 0; text-align: center;\">+</p>","response":null,"trial_type":"html-keyboard-response","trial_index":70,"plugin_version":"2.1.0","time_elapsed":236262,"subject_id":"92513","group":"Group1","condition":"1_Rep","full_date":"2026-02-23T19:54:05.383Z","date":"2026-02-23","time":"19:54:05"},{"task":"memory_phase","broad_category":"M","image_png":"M_Marble_04.png","image_id":228,"category_name":"Marble","category":15,"distinct_rating":3.15,"distinct_type":"Bottom","rt":null,"stimulus":"Stimuli_Rocks480/M_Marble_04.png","response":null,"trial_type":"image-keyboard-response","trial_index":71,"plugin_version":"2.1.0","time_elapsed":238766,"subject_id":"92513","group":"Group1","condition":"1_Rep","full_date":"2026-02-23T19:54:05.383Z","date":"2026-02-23","time":"19:54:05"},{"rt":null,"stimulus":"<p style=\"font-size: 50px; margin: 0; text-align: center;\">+</p>","response":null,"trial_type":"html-keyboard-response","trial_index":72,"plugin_version":"2.1.0","time_elapsed":239769,"subject_id":"92513","group":"Group1","condition":"1_Rep","full_date":"2026-02-23T19:54:05.383Z","date":"2026-02-23","time":"19:54:05"},{"task":"memory_phase","broad_category":"M","image_png":"M_Quartzite_13.png","image_id":285,"category_name":"Quartzite","category":18,"distinct_rating":2.27,"distinct_type":"Bottom","rt":null,"stimulus":"Stimuli_Rocks480/M_Quartzite_13.png","response":null,"trial_type":"image-keyboard-response","trial_index":73,"plugin_version":"2.1.0","time_elapsed":242272,"subject_id":"92513","group":"Group1","condition":"1_Rep","full_date":"2026-02-23T19:54:05.383Z","date":"2026-02-23","time":"19:54:05"},{"rt":null,"stimulus":"<p style=\"font-size: 50px; margin: 0; text-align: center;\">+</p>","response":null,"trial_type":"html-keyboard-response","trial_index":74,"plugin_version":"2.1.0","time_elapsed":243275,"subject_id":"92513","group":"Group1","condition":"1_Rep","full_date":"2026-02-23T19:54:05.383Z","date":"2026-02-23","time":"19:54:05"},{"task":"memory_phase","broad_category":"S","image_png":"S_Sandstone_16.png","image_id":464,"category_name":"Sandstone","category":29,"distinct_rating":1.93,"distinct_type":"Bottom","rt":null,"stimulus":"Stimuli_Rocks480/S_Sandstone_16.png","response":null,"trial_type":"image-keyboard-response","trial_index":75,"plugin_version":"2.1.0","time_elapsed":245779,"subject_id":"92513","group":"Group1","condition":"1_Rep","full_date":"2026-02-23T19:54:05.383Z","date":"2026-02-23","time":"19:54:05"},{"rt":null,"stimulus":"<p style=\"font-size: 50px; margin: 0; text-align: center;\">+</p>","response":null,"trial_type":"html-keyboard-response","trial_index":76,"plugin_version":"2.1.0","time_elapsed":246782,"subject_id":"92513","group":"Group1","condition":"1_Rep","full_date":"2026-02-23T19:54:05.383Z","date":"2026-02-23","time":"19:54:05"},{"task":"memory_phase","broad_category":"M","image_png":"M_Phyllite_03.png","image_id":259,"category_name":"Phyllite","category":17,"distinct_rating":2.5,"distinct_type":"Bottom","rt":null,"stimulus":"Stimuli_Rocks480/M_Phyllite_03.png","response":null,"trial_type":"image-keyboard-response","trial_index":77,"plugin_version":"2.1.0","time_elapsed":249286,"subject_id":"92513","group":"Group1","condition":"1_Rep","full_date":"2026-02-23T19:54:05.383Z","date":"2026-02-23","time":"19:54:05"},{"rt":null,"stimulus":"<p style=\"font-size: 50px; margin: 0; text-align: center;\">+</p>","response":null,"trial_type":"html-keyboard-response","trial_index":78,"plugin_version":"2.1.0","time_elapsed":250289,"subject_id":"92513","group":"Group1","condition":"1_Rep","full_date":"2026-02-23T19:54:05.383Z","date":"2026-02-23","time":"19:54:05"},{"task":"memory_phase","broad_category":"M","image_png":"M_Marble_16.png","image_id":240,"category_name":"Marble","category":15,"distinct_rating":2.57,"distinct_type":"Bottom","rt":null,"stimulus":"Stimuli_Rocks480/M_Marble_16.png","response":null,"trial_type":"image-keyboard-response","trial_index":79,"plugin_version":"2.1.0","time_elapsed":252794,"subject_id":"92513","group":"Group1","condition":"1_Rep","full_date":"2026-02-23T19:54:05.383Z","date":"2026-02-23","time":"19:54:05"},{"rt":null,"stimulus":"<p style=\"font-size: 50px; margin: 0; text-align: center;\">+</p>","response":null,"trial_type":"html-keyboard-response","trial_index":80,"plugin_version":"2.1.0","time_elapsed":253797,"subject_id":"92513","group":"Group1","condition":"1_Rep","full_date":"2026-02-23T19:54:05.383Z","date":"2026-02-23","time":"19:54:05"},{"task":"memory_phase","broad_category":"I","image_png":"I_Pumice_11.png","image_id":139,"category_name":"Pumice","category":9,"distinct_rating":1.74,"distinct_type":"Bottom","rt":null,"stimulus":"Stimuli_Rocks480/I_Pumice_11.png","response":null,"trial_type":"image-keyboard-response","trial_index":81,"plugin_version":"2.1.0","time_elapsed":256300,"subject_id":"92513","group":"Group1","condition":"1_Rep","full_date":"2026-02-23T19:54:05.383Z","date":"2026-02-23","time":"19:54:05"},{"rt":null,"stimulus":"<p style=\"font-size: 50px; margin: 0; text-align: center;\">+</p>","response":null,"trial_type":"html-keyboard-response","trial_index":82,"plugin_version":"2.1.0","time_elapsed":257303,"subject_id":"92513","group":"Group1","condition":"1_Rep","full_date":"2026-02-23T19:54:05.383Z","date":"2026-02-23","time":"19:54:05"},{"task":"memory_phase","broad_category":"S","image_png":"S_Shale_01.png","image_id":465,"category_name":"Shale","category":30,"distinct_rating":2.7,"distinct_type":"Bottom","rt":null,"stimulus":"Stimuli_Rocks480/S_Shale_01.png","response":null,"trial_type":"image-keyboard-response","trial_index":83,"plugin_version":"2.1.0","time_elapsed":259807,"subject_id":"92513","group":"Group1","condition":"1_Rep","full_date":"2026-02-23T19:54:05.383Z","date":"2026-02-23","time":"19:54:05"},{"rt":null,"stimulus":"<p style=\"font-size: 50px; margin: 0; text-align: center;\">+</p>","response":null,"trial_type":"html-keyboard-response","trial_index":84,"plugin_version":"2.1.0","time_elapsed":260810,"subject_id":"92513","group":"Group1","condition":"1_Rep","full_date":"2026-02-23T19:54:05.383Z","date":"2026-02-23","time":"19:54:05"},{"task":"memory_phase","broad_category":"I","image_png":"I_Pumice_08.png","image_id":136,"category_name":"Pumice","category":9,"distinct_rating":3.1,"distinct_type":"Bottom","rt":null,"stimulus":"Stimuli_Rocks480/I_Pumice_08.png","response":null,"trial_type":"image-keyboard-response","trial_index":85,"plugin_version":"2.1.0","time_elapsed":263314,"subject_id":"92513","group":"Group1","condition":"1_Rep","full_date":"2026-02-23T19:54:05.383Z","date":"2026-02-23","time":"19:54:05"},{"rt":null,"stimulus":"<p style=\"font-size: 50px; margin: 0; text-align: center;\">+</p>","response":null,"trial_type":"html-keyboard-response","trial_index":86,"plugin_version":"2.1.0","time_elapsed":264317,"subject_id":"92513","group":"Group1","condition":"1_Rep","full_date":"2026-02-23T19:54:05.383Z","date":"2026-02-23","time":"19:54:05"},{"task":"memory_phase","broad_category":"M","image_png":"M_Slate_11.png","image_id":315,"category_name":"Slate","category":20,"distinct_rating":2.75,"distinct_type":"Bottom","rt":null,"stimulus":"Stimuli_Rocks480/M_Slate_11.png","response":null,"trial_type":"image-keyboard-response","trial_index":87,"plugin_version":"2.1.0","time_elapsed":266821,"subject_id":"92513","group":"Group1","condition":"1_Rep","full_date":"2026-02-23T19:54:05.383Z","date":"2026-02-23","time":"19:54:05"},{"rt":null,"stimulus":"<p style=\"font-size: 50px; margin: 0; text-align: center;\">+</p>","response":null,"trial_type":"html-keyboard-response","trial_index":88,"plugin_version":"2.1.0","time_elapsed":267824,"subject_id":"92513","group":"Group1","condition":"1_Rep","full_date":"2026-02-23T19:54:05.383Z","date":"2026-02-23","time":"19:54:05"},{"task":"memory_phase","broad_category":"S","image_png":"S_Conglomerate_05.png","image_id":373,"category_name":"Conglomerate","category":24,"distinct_rating":7.32,"distinct_type":"Top","rt":null,"stimulus":"Stimuli_Rocks480/S_Conglomerate_05.png","response":null,"trial_type":"image-keyboard-response","trial_index":89,"plugin_version":"2.1.0","time_elapsed":270328,"subject_id":"92513","group":"Group1","condition":"1_Rep","full_date":"2026-02-23T19:54:05.383Z","date":"2026-02-23","time":"19:54:05"},{"rt":null,"stimulus":"<p style=\"font-size: 50px; margin: 0; text-align: center;\">+</p>","response":null,"trial_type":"html-keyboard-response","trial_index":90,"plugin_version":"2.1.0","time_elapsed":271331,"subject_id":"92513","group":"Group1","condition":"1_Rep","full_date":"2026-02-23T19:54:05.383Z","date":"2026-02-23","time":"19:54:05"},{"task":"memory_phase","broad_category":"M","image_png":"M_Quartzite_05.png","image_id":277,"category_name":"Quartzite","category":18,"distinct_rating":2.23,"distinct_type":"Bottom","rt":null,"stimulus":"Stimuli_Rocks480/M_Quartzite_05.png","response":null,"trial_type":"image-keyboard-response","trial_index":91,"plugin_version":"2.1.0","time_elapsed":273835,"subject_id":"92513","group":"Group1","condition":"1_Rep","full_date":"2026-02-23T19:54:05.383Z","date":"2026-02-23","time":"19:54:05"},{"rt":null,"stimulus":"<p style=\"font-size: 50px; margin: 0; text-align: center;\">+</p>","response":null,"trial_type":"html-keyboard-response","trial_index":92,"plugin_version":"2.1.0","time_elapsed":274838,"subject_id":"92513","group":"Group1","condition":"1_Rep","full_date":"2026-02-23T19:54:05.383Z","date":"2026-02-23","time":"19:54:05"},{"task":"memory_phase","broad_category":"I","image_png":"I_Rhyolite_16.png","image_id":160,"category_name":"Rhyolite","category":10,"distinct_rating":2.19,"distinct_type":"Bottom","rt":null,"stimulus":"Stimuli_Rocks480/I_Rhyolite_16.png","response":null,"trial_type":"image-keyboard-response","trial_index":93,"plugin_version":"2.1.0","time_elapsed":277342,"subject_id":"92513","group":"Group1","condition":"1_Rep","full_date":"2026-02-23T19:54:05.383Z","date":"2026-02-23","time":"19:54:05"},{"rt":null,"stimulus":"<p style=\"font-size: 50px; margin: 0; text-align: center;\">+</p>","response":null,"trial_type":"html-keyboard-response","trial_index":94,"plugin_version":"2.1.0","time_elapsed":278344,"subject_id":"92513","group":"Group1","condition":"1_Rep","full_date":"2026-02-23T19:54:05.383Z","date":"2026-02-23","time":"19:54:05"},{"task":"memory_phase","broad_category":"I","image_png":"I_Rhyolite_14.png","image_id":158,"category_name":"Rhyolite","category":10,"distinct_rating":2.59,"distinct_type":"Bottom","rt":null,"stimulus":"Stimuli_Rocks480/I_Rhyolite_14.png","response":null,"trial_type":"image-keyboard-response","trial_index":95,"plugin_version":"2.1.0","time_elapsed":280849,"subject_id":"92513","group":"Group1","condition":"1_Rep","full_date":"2026-02-23T19:54:05.383Z","date":"2026-02-23","time":"19:54:05"},{"rt":null,"stimulus":"<p style=\"font-size: 50px; margin: 0; text-align: center;\">+</p>","response":null,"trial_type":"html-keyboard-response","trial_index":96,"plugin_version":"2.1.0","time_elapsed":281851,"subject_id":"92513","group":"Group1","condition":"1_Rep","full_date":"2026-02-23T19:54:05.383Z","date":"2026-02-23","time":"19:54:05"},{"task":"memory_phase","broad_category":"S","image_png":"S_Breccia_11.png","image_id":347,"category_name":"Breccia","category":22,"distinct_rating":6.7,"distinct_type":"Top","rt":null,"stimulus":"Stimuli_Rocks480/S_Breccia_11.png","response":null,"trial_type":"image-keyboard-response","trial_index":97,"plugin_version":"2.1.0","time_elapsed":284355,"subject_id":"92513","group":"Group1","condition":"1_Rep","full_date":"2026-02-23T19:54:05.383Z","date":"2026-02-23","time":"19:54:05"},{"rt":null,"stimulus":"<p style=\"font-size: 50px; margin: 0; text-align: center;\">+</p>","response":null,"trial_type":"html-keyboard-response","trial_index":98,"plugin_version":"2.1.0","time_elapsed":285358,"subject_id":"92513","group":"Group1","condition":"1_Rep","full_date":"2026-02-23T19:54:05.383Z","date":"2026-02-23","time":"19:54:05"},{"task":"memory_phase","broad_category":"I","image_png":"I_Pegmatite_16.png","image_id":112,"category_name":"Pegmatite","category":7,"distinct_rating":7.03,"distinct_type":"Top","rt":null,"stimulus":"Stimuli_Rocks480/I_Pegmatite_16.png","response":null,"trial_type":"image-keyboard-response","trial_index":99,"plugin_version":"2.1.0","time_elapsed":287862,"subject_id":"92513","group":"Group1","condition":"1_Rep","full_date":"2026-02-23T19:54:05.383Z","date":"2026-02-23","time":"19:54:05"},{"rt":null,"stimulus":"<p style=\"font-size: 50px; margin: 0; text-align: center;\">+</p>","response":null,"trial_type":"html-keyboard-response","trial_index":100,"plugin_version":"2.1.0","time_elapsed":288865,"subject_id":"92513","group":"Group1","condition":"1_Rep","full_date":"2026-02-23T19:54:05.383Z","date":"2026-02-23","time":"19:54:05"},{"task":"memory_phase","broad_category":"S","image_png":"S_Dolomite_12.png","image_id":396,"category_name":"Dolomite","category":25,"distinct_rating":1.85,"distinct_type":"Bottom","rt":null,"stimulus":"Stimuli_Rocks480/S_Dolomite_12.png","response":null,"trial_type":"image-keyboard-response","trial_index":101,"plugin_version":"2.1.0","time_elapsed":291369,"subject_id":"92513","group":"Group1","condition":"1_Rep","full_date":"2026-02-23T19:54:05.383Z","date":"2026-02-23","time":"19:54:05"},{"rt":null,"stimulus":"<p style=\"font-size: 50px; margin: 0; text-align: center;\">+</p>","response":null,"trial_type":"html-keyboard-response","trial_index":102,"plugin_version":"2.1.0","time_elapsed":292372,"subject_id":"92513","group":"Group1","condition":"1_Rep","full_date":"2026-02-23T19:54:05.383Z","date":"2026-02-23","time":"19:54:05"},{"task":"memory_phase","broad_category":"M","image_png":"M_Gneiss_06.png","image_id":198,"category_name":"Gneiss","category":13,"distinct_rating":2.65,"distinct_type":"Bottom","rt":null,"stimulus":"Stimuli_Rocks480/M_Gneiss_06.png","response":null,"trial_type":"image-keyboard-response","trial_index":103,"plugin_version":"2.1.0","time_elapsed":294876,"subject_id":"92513","group":"Group1","condition":"1_Rep","full_date":"2026-02-23T19:54:05.383Z","date":"2026-02-23","time":"19:54:05"},{"rt":null,"stimulus":"<p style=\"font-size: 50px; margin: 0; text-align: center;\">+</p>","response":null,"trial_type":"html-keyboard-response","trial_index":104,"plugin_version":"2.1.0","time_elapsed":295879,"subject_id":"92513","group":"Group1","condition":"1_Rep","full_date":"2026-02-23T19:54:05.383Z","date":"2026-02-23","time":"19:54:05"},{"task":"memory_phase","broad_category":"M","image_png":"M_Marble_06.png","image_id":230,"category_name":"Marble","category":15,"distinct_rating":3.4,"distinct_type":"Bottom","rt":null,"stimulus":"Stimuli_Rocks480/M_Marble_06.png","response":null,"trial_type":"image-keyboard-response","trial_index":105,"plugin_version":"2.1.0","time_elapsed":298384,"subject_id":"92513","group":"Group1","condition":"1_Rep","full_date":"2026-02-23T19:54:05.383Z","date":"2026-02-23","time":"19:54:05"},{"rt":3312,"stimulus":"<div style=\"max-width: 760px; margin: auto; font-size: 20px; line-height: 1.5;\">\n      <h1 style=\"text-align:center; font-size: 30px;\">Instructions for the Test Phase</h1>\n      <p>\n        The study phase is now complete.\n      </p>\n      <p>\n        In the test phase, you will again see a series of rock images. \n        Some will be ones you saw before - during the study phase, while others will be new.  \n        <b>Your task</b> is to decide whether you have seen each image before by pressing the corresponding key on your keyboard:<br><br>\n          <b>A</b> - NO (you did not see this image before)<br>\n          <b>L</b> - YES (you saw this image before)<br><br>\n        The test will proceed at your own pace. You will receive feedback after each response.  \n        Please try to respond <b>as accurately as possible</b>.\n      </p>\n      <p>\n        <b>Reminder:</b> If your computer has multiple language settings (e.g., English and another language),\n        please ensure it is set to English during the test phase.\n      </p>\n      <p>\n        You can track your progress using the <b>completion bar</b> at the top of the screen.  \n        Note that it has been refreshed to reflect your progress during this final phase.\n      </p>\n      <p>\n        Press the button below when you are ready to continue.\n      </p>\n    </div>","response":0,"trial_type":"html-button-response","trial_index":106,"plugin_version":"2.1.0","time_elapsed":301699,"subject_id":"92513","group":"Group1","condition":"1_Rep","full_date":"2026-02-23T19:54:05.383Z","date":"2026-02-23","time":"19:54:05"},{"correct_response":"l","task":"test_phase","broad_category":"I","image_png":"I_Andesite_10.png","image_id":10,"category_name":"Andesite","category":1,"distinct_rating":3.15,"distinct_type":"Bottom","item_type":"Target","rt":6876,"stimulus":"Stimuli_Rocks480/I_Andesite_10.png","response":"a","trial_type":"image-keyboard-response","trial_index":107,"plugin_version":"2.1.0","time_elapsed":308577,"subject_id":"92513","group":"Group1","condition":"1_Rep","full_date":"2026-02-23T19:54:05.383Z","date":"2026-02-23","time":"19:54:05","cor_ans":false},{"trial_type":"html-keyboard-response","rt":null,"stimulus":"<p style=\"color: red; font-size: 50px; font-weight: bold;\">Incorrect</p>","response":null,"trial_index":108,"plugin_version":"2.1.0","time_elapsed":309079,"subject_id":"92513","group":"Group1","condition":"1_Rep","full_date":"2026-02-23T19:54:05.383Z","date":"2026-02-23","time":"19:54:05"},{"correct_response":"a","task":"test_phase","broad_category":"S","image_png":"S_Conglomerate_14.png","image_id":382,"category_name":"Conglomerate","category":24,"distinct_rating":6.86,"distinct_type":"Top","item_type":"Foil","rt":2973,"stimulus":"Stimuli_Rocks480/S_Conglomerate_14.png","response":"a","trial_type":"image-keyboard-response","trial_index":109,"plugin_version":"2.1.0","time_elapsed":312055,"subject_id":"92513","group":"Group1","condition":"1_Rep","full_date":"2026-02-23T19:54:05.383Z","date":"2026-02-23","time":"19:54:05","cor_ans":true},{"trial_type":"html-keyboard-response","rt":null,"stimulus":"<p style=\"color: green; font-size: 50px; font-weight: bold;\">Correct</p>","response":null,"trial_index":110,"plugin_version":"2.1.0","time_elapsed":312557,"subject_id":"92513","group":"Group1","condition":"1_Rep","full_date":"2026-02-23T19:54:05.383Z","date":"2026-02-23","time":"19:54:05"},{"correct_response":"l","task":"test_phase","broad_category":"I","image_png":"I_Gabbro_16.png","image_id":64,"category_name":"Gabbro","category":4,"distinct_rating":2.52,"distinct_type":"Bottom","item_type":"Target","rt":2552,"stimulus":"Stimuli_Rocks480/I_Gabbro_16.png","response":"l","trial_type":"image-keyboard-response","trial_index":111,"plugin_version":"2.1.0","time_elapsed":315112,"subject_id":"92513","group":"Group1","condition":"1_Rep","full_date":"2026-02-23T19:54:05.383Z","date":"2026-02-23","time":"19:54:05","cor_ans":true},{"trial_type":"html-keyboard-response","rt":null,"stimulus":"<p style=\"color: green; font-size: 50px; font-weight: bold;\">Correct</p>","response":null,"trial_index":112,"plugin_version":"2.1.0","time_elapsed":315614,"subject_id":"92513","group":"Group1","condition":"1_Rep","full_date":"2026-02-23T19:54:05.383Z","date":"2026-02-23","time":"19:54:05"},{"correct_response":"a","task":"test_phase","broad_category":"S","image_png":"S_Dolomite_16.png","image_id":400,"category_name":"Dolomite","category":25,"distinct_rating":1.71,"distinct_type":"Bottom","item_type":"Foil","rt":3041,"stimulus":"Stimuli_Rocks480/S_Dolomite_16.png","response":"a","trial_type":"image-keyboard-response","trial_index":113,"plugin_version":"2.1.0","time_elapsed":318658,"subject_id":"92513","group":"Group1","condition":"1_Rep","full_date":"2026-02-23T19:54:05.383Z","date":"2026-02-23","time":"19:54:05","cor_ans":true},{"trial_type":"html-keyboard-response","rt":null,"stimulus":"<p style=\"color: green; font-size: 50px; font-weight: bold;\">Correct</p>","response":null,"trial_index":114,"plugin_version":"2.1.0","time_elapsed":319160,"subject_id":"92513","group":"Group1","condition":"1_Rep","full_date":"2026-02-23T19:54:05.383Z","date":"2026-02-23","time":"19:54:05"},{"correct_response":"l","task":"test_phase","broad_category":"S","image_png":"S_Shale_01.png","image_id":465,"category_name":"Shale","category":30,"distinct_rating":2.7,"distinct_type":"Bottom","item_type":"Target","rt":2002,"stimulus":"Stimuli_Rocks480/S_Shale_01.png","response":"l","trial_type":"image-keyboard-response","trial_index":115,"plugin_version":"2.1.0","time_elapsed":321165,"subject_id":"92513","group":"Group1","condition":"1_Rep","full_date":"2026-02-23T19:54:05.383Z","date":"2026-02-23","time":"19:54:05","cor_ans":true},{"trial_type":"html-keyboard-response","rt":null,"stimulus":"<p style=\"color: green; font-size: 50px; font-weight: bold;\">Correct</p>","response":null,"trial_index":116,"plugin_version":"2.1.0","time_elapsed":321666,"subject_id":"92513","group":"Group1","condition":"1_Rep","full_date":"2026-02-23T19:54:05.383Z","date":"2026-02-23","time":"19:54:05"},{"correct_response":"l","task":"test_phase","broad_category":"I","image_png":"I_Basalt_02.png","image_id":18,"category_name":"Basalt","category":2,"distinct_rating":1.84,"distinct_type":"Bottom","item_type":"Target","rt":1842,"stimulus":"Stimuli_Rocks480/I_Basalt_02.png","response":"l","trial_type":"image-keyboard-response","trial_index":117,"plugin_version":"2.1.0","time_elapsed":323510,"subject_id":"92513","group":"Group1","condition":"1_Rep","full_date":"2026-02-23T19:54:05.383Z","date":"2026-02-23","time":"19:54:05","cor_ans":true},{"trial_type":"html-keyboard-response","rt":null,"stimulus":"<p style=\"color: green; font-size: 50px; font-weight: bold;\">Correct</p>","response":null,"trial_index":118,"plugin_version":"2.1.0","time_elapsed":324012,"subject_id":"92513","group":"Group1","condition":"1_Rep","full_date":"2026-02-23T19:54:05.383Z","date":"2026-02-23","time":"19:54:05"},{"correct_response":"l","task":"test_phase","broad_category":"I","image_png":"I_Pumice_12.png","image_id":140,"category_name":"Pumice","category":9,"distinct_rating":2.97,"distinct_type":"Bottom","item_type":"Target","rt":1383,"stimulus":"Stimuli_Rocks480/I_Pumice_12.png","response":"l","trial_type":"image-keyboard-response","trial_index":119,"plugin_version":"2.1.0","time_elapsed":325398,"subject_id":"92513","group":"Group1","condition":"1_Rep","full_date":"2026-02-23T19:54:05.383Z","date":"2026-02-23","time":"19:54:05","cor_ans":true},{"trial_type":"html-keyboard-response","rt":null,"stimulus":"<p style=\"color: green; font-size: 50px; font-weight: bold;\">Correct</p>","response":null,"trial_index":120,"plugin_version":"2.1.0","time_elapsed":325900,"subject_id":"92513","group":"Group1","condition":"1_Rep","full_date":"2026-02-23T19:54:05.383Z","date":"2026-02-23","time":"19:54:05"},{"correct_response":"a","task":"test_phase","broad_category":"S","image_png":"S_Shale_07.png","image_id":471,"category_name":"Shale","category":30,"distinct_rating":2.73,"distinct_type":"Bottom","item_type":"Foil","rt":1371,"stimulus":"Stimuli_Rocks480/S_Shale_07.png","response":"a","trial_type":"image-keyboard-response","trial_index":121,"plugin_version":"2.1.0","time_elapsed":327273,"subject_id":"92513","group":"Group1","condition":"1_Rep","full_date":"2026-02-23T19:54:05.383Z","date":"2026-02-23","time":"19:54:05","cor_ans":true},{"trial_type":"html-keyboard-response","rt":null,"stimulus":"<p style=\"color: green; font-size: 50px; font-weight: bold;\">Correct</p>","response":null,"trial_index":122,"plugin_version":"2.1.0","time_elapsed":327775,"subject_id":"92513","group":"Group1","condition":"1_Rep","full_date":"2026-02-23T19:54:05.383Z","date":"2026-02-23","time":"19:54:05"},{"correct_response":"l","task":"test_phase","broad_category":"I","image_png":"I_Diorite_04.png","image_id":36,"category_name":"Diorite","category":3,"distinct_rating":2.98,"distinct_type":"Bottom","item_type":"Target","rt":1381,"stimulus":"Stimuli_Rocks480/I_Diorite_04.png","response":"l","trial_type":"image-keyboard-response","trial_index":123,"plugin_version":"2.1.0","time_elapsed":329159,"subject_id":"92513","group":"Group1","condition":"1_Rep","full_date":"2026-02-23T19:54:05.383Z","date":"2026-02-23","time":"19:54:05","cor_ans":true},{"trial_type":"html-keyboard-response","rt":null,"stimulus":"<p style=\"color: green; font-size: 50px; font-weight: bold;\">Correct</p>","response":null,"trial_index":124,"plugin_version":"2.1.0","time_elapsed":329660,"subject_id":"92513","group":"Group1","condition":"1_Rep","full_date":"2026-02-23T19:54:05.383Z","date":"2026-02-23","time":"19:54:05"},{"correct_response":"l","task":"test_phase","broad_category":"M","image_png":"M_Gneiss_13.png","image_id":205,"category_name":"Gneiss","category":13,"distinct_rating":3.26,"distinct_type":"Bottom","item_type":"Target","rt":1278,"stimulus":"Stimuli_Rocks480/M_Gneiss_13.png","response":"l","trial_type":"image-keyboard-response","trial_index":125,"plugin_version":"2.1.0","time_elapsed":330941,"subject_id":"92513","group":"Group1","condition":"1_Rep","full_date":"2026-02-23T19:54:05.383Z","date":"2026-02-23","time":"19:54:05","cor_ans":true},{"trial_type":"html-keyboard-response","rt":null,"stimulus":"<p style=\"color: green; font-size: 50px; font-weight: bold;\">Correct</p>","response":null,"trial_index":126,"plugin_version":"2.1.0","time_elapsed":331442,"subject_id":"92513","group":"Group1","condition":"1_Rep","full_date":"2026-02-23T19:54:05.383Z","date":"2026-02-23","time":"19:54:05"},{"correct_response":"l","task":"test_phase","broad_category":"S","image_png":"S_Rock Salt_01.png","image_id":433,"category_name":"Rock Salt","category":28,"distinct_rating":7.18,"distinct_type":"Top","item_type":"Target","rt":953,"stimulus":"Stimuli_Rocks480/S_Rock Salt_01.png","response":"l","trial_type":"image-keyboard-response","trial_index":127,"plugin_version":"2.1.0","time_elapsed":332398,"subject_id":"92513","group":"Group1","condition":"1_Rep","full_date":"2026-02-23T19:54:05.383Z","date":"2026-02-23","time":"19:54:05","cor_ans":true},{"trial_type":"html-keyboard-response","rt":null,"stimulus":"<p style=\"color: green; font-size: 50px; font-weight: bold;\">Correct</p>","response":null,"trial_index":128,"plugin_version":"2.1.0","time_elapsed":332900,"subject_id":"92513","group":"Group1","condition":"1_Rep","full_date":"2026-02-23T19:54:05.383Z","date":"2026-02-23","time":"19:54:05"},{"correct_response":"a","task":"test_phase","broad_category":"M","image_png":"M_Marble_03.png","image_id":227,"category_name":"Marble","category":15,"distinct_rating":2.67,"distinct_type":"Bottom","item_type":"Foil","rt":851,"stimulus":"Stimuli_Rocks480/M_Marble_03.png","response":"l","trial_type":"image-keyboard-response","trial_index":129,"plugin_version":"2.1.0","time_elapsed":333753,"subject_id":"92513","group":"Group1","condition":"1_Rep","full_date":"2026-02-23T19:54:05.383Z","date":"2026-02-23","time":"19:54:05","cor_ans":false},{"trial_type":"html-keyboard-response","rt":null,"stimulus":"<p style=\"color: red; font-size: 50px; font-weight: bold;\">Incorrect</p>","response":null,"trial_index":130,"plugin_version":"2.1.0","time_elapsed":334255,"subject_id":"92513","group":"Group1","condition":"1_Rep","full_date":"2026-02-23T19:54:05.383Z","date":"2026-02-23","time":"19:54:05"},{"correct_response":"a","task":"test_phase","broad_category":"S","image_png":"S_Sandstone_11.png","image_id":459,"category_name":"Sandstone","category":29,"distinct_rating":1.82,"distinct_type":"Bottom","item_type":"Foil","rt":882,"stimulus":"Stimuli_Rocks480/S_Sandstone_11.png","response":"l","trial_type":"image-keyboard-response","trial_index":131,"plugin_version":"2.1.0","time_elapsed":335148,"subject_id":"92513","group":"Group1","condition":"1_Rep","full_date":"2026-02-23T19:54:05.383Z","date":"2026-02-23","time":"19:54:05","cor_ans":false},{"trial_type":"html-keyboard-response","rt":null,"stimulus":"<p style=\"color: red; font-size: 50px; font-weight: bold;\">Incorrect</p>","response":null,"trial_index":132,"plugin_version":"2.1.0","time_elapsed":335650,"subject_id":"92513","group":"Group1","condition":"1_Rep","full_date":"2026-02-23T19:54:05.383Z","date":"2026-02-23","time":"19:54:05"},{"correct_response":"l","task":"test_phase","broad_category":"S","image_png":"S_Sandstone_03.png","image_id":451,"category_name":"Sandstone","category":29,"distinct_rating":1.86,"distinct_type":"Bottom","item_type":"Target","rt":1229,"stimulus":"Stimuli_Rocks480/S_Sandstone_03.png","response":"l","trial_type":"image-keyboard-response","trial_index":133,"plugin_version":"2.1.0","time_elapsed":336882,"subject_id":"92513","group":"Group1","condition":"1_Rep","full_date":"2026-02-23T19:54:05.383Z","date":"2026-02-23","time":"19:54:05","cor_ans":true},{"trial_type":"html-keyboard-response","rt":null,"stimulus":"<p style=\"color: green; font-size: 50px; font-weight: bold;\">Correct</p>","response":null,"trial_index":134,"plugin_version":"2.1.0","time_elapsed":337383,"subject_id":"92513","group":"Group1","condition":"1_Rep","full_date":"2026-02-23T19:54:05.383Z","date":"2026-02-23","time":"19:54:05"},{"correct_response":"l","task":"test_phase","broad_category":"M","image_png":"M_Gneiss_05.png","image_id":197,"category_name":"Gneiss","category":13,"distinct_rating":2.97,"distinct_type":"Bottom","item_type":"Target","rt":1174,"stimulus":"Stimuli_Rocks480/M_Gneiss_05.png","response":"l","trial_type":"image-keyboard-response","trial_index":135,"plugin_version":"2.1.0","time_elapsed":338559,"subject_id":"92513","group":"Group1","condition":"1_Rep","full_date":"2026-02-23T19:54:05.383Z","date":"2026-02-23","time":"19:54:05","cor_ans":true},{"trial_type":"html-keyboard-response","rt":null,"stimulus":"<p style=\"color: green; font-size: 50px; font-weight: bold;\">Correct</p>","response":null,"trial_index":136,"plugin_version":"2.1.0","time_elapsed":339061,"subject_id":"92513","group":"Group1","condition":"1_Rep","full_date":"2026-02-23T19:54:05.383Z","date":"2026-02-23","time":"19:54:05"},{"correct_response":"a","task":"test_phase","broad_category":"M","image_png":"M_Phyllite_02.png","image_id":258,"category_name":"Phyllite","category":17,"distinct_rating":2.89,"distinct_type":"Bottom","item_type":"Foil","rt":1030,"stimulus":"Stimuli_Rocks480/M_Phyllite_02.png","response":"l","trial_type":"image-keyboard-response","trial_index":137,"plugin_version":"2.1.0","time_elapsed":340093,"subject_id":"92513","group":"Group1","condition":"1_Rep","full_date":"2026-02-23T19:54:05.383Z","date":"2026-02-23","time":"19:54:05","cor_ans":false},{"trial_type":"html-keyboard-response","rt":null,"stimulus":"<p style=\"color: red; font-size: 50px; font-weight: bold;\">Incorrect</p>","response":null,"trial_index":138,"plugin_version":"2.1.0","time_elapsed":340595,"subject_id":"92513","group":"Group1","condition":"1_Rep","full_date":"2026-02-23T19:54:05.383Z","date":"2026-02-23","time":"19:54:05"},{"correct_response":"a","task":"test_phase","broad_category":"M","image_png":"M_Marble_02.png","image_id":226,"category_name":"Marble","category":15,"distinct_rating":3.2,"distinct_type":"Bottom","item_type":"Foil","rt":768,"stimulus":"Stimuli_Rocks480/M_Marble_02.png","response":"l","trial_type":"image-keyboard-response","trial_index":139,"plugin_version":"2.1.0","time_elapsed":341366,"subject_id":"92513","group":"Group1","condition":"1_Rep","full_date":"2026-02-23T19:54:05.383Z","date":"2026-02-23","time":"19:54:05","cor_ans":false},{"trial_type":"html-keyboard-response","rt":null,"stimulus":"<p style=\"color: red; font-size: 50px; font-weight: bold;\">Incorrect</p>","response":null,"trial_index":140,"plugin_version":"2.1.0","time_elapsed":341868,"subject_id":"92513","group":"Group1","condition":"1_Rep","full_date":"2026-02-23T19:54:05.383Z","date":"2026-02-23","time":"19:54:05"},{"correct_response":"l","task":"test_phase","broad_category":"I","image_png":"I_Basalt_01.png","image_id":17,"category_name":"Basalt","category":2,"distinct_rating":1.92,"distinct_type":"Bottom","item_type":"Target","rt":761,"stimulus":"Stimuli_Rocks480/I_Basalt_01.png","response":"l","trial_type":"image-keyboard-response","trial_index":141,"plugin_version":"2.1.0","time_elapsed":342631,"subject_id":"92513","group":"Group1","condition":"1_Rep","full_date":"2026-02-23T19:54:05.383Z","date":"2026-02-23","time":"19:54:05","cor_ans":true},{"trial_type":"html-keyboard-response","rt":null,"stimulus":"<p style=\"color: green; font-size: 50px; font-weight: bold;\">Correct</p>","response":null,"trial_index":142,"plugin_version":"2.1.0","time_elapsed":343132,"subject_id":"92513","group":"Group1","condition":"1_Rep","full_date":"2026-02-23T19:54:05.383Z","date":"2026-02-23","time":"19:54:05"},{"correct_response":"a","task":"test_phase","broad_category":"S","image_png":"S_Dolomite_01.png","image_id":385,"category_name":"Dolomite","category":25,"distinct_rating":1.43,"distinct_type":"Bottom","item_type":"Foil","rt":1056,"stimulus":"Stimuli_Rocks480/S_Dolomite_01.png","response":"l","trial_type":"image-keyboard-response","trial_index":143,"plugin_version":"2.1.0","time_elapsed":344191,"subject_id":"92513","group":"Group1","condition":"1_Rep","full_date":"2026-02-23T19:54:05.383Z","date":"2026-02-23","time":"19:54:05","cor_ans":false},{"trial_type":"html-keyboard-response","rt":null,"stimulus":"<p style=\"color: red; font-size: 50px; font-weight: bold;\">Incorrect</p>","response":null,"trial_index":144,"plugin_version":"2.1.0","time_elapsed":344693,"subject_id":"92513","group":"Group1","condition":"1_Rep","full_date":"2026-02-23T19:54:05.383Z","date":"2026-02-23","time":"19:54:05"},{"correct_response":"a","task":"test_phase","broad_category":"I","image_png":"I_Pegmatite_03.png","image_id":99,"category_name":"Pegmatite","category":7,"distinct_rating":7.24,"distinct_type":"Top","item_type":"Foil","rt":1233,"stimulus":"Stimuli_Rocks480/I_Pegmatite_03.png","response":"a","trial_type":"image-keyboard-response","trial_index":145,"plugin_version":"2.1.0","time_elapsed":345929,"subject_id":"92513","group":"Group1","condition":"1_Rep","full_date":"2026-02-23T19:54:05.383Z","date":"2026-02-23","time":"19:54:05","cor_ans":true},{"trial_type":"html-keyboard-response","rt":null,"stimulus":"<p style=\"color: green; font-size: 50px; font-weight: bold;\">Correct</p>","response":null,"trial_index":146,"plugin_version":"2.1.0","time_elapsed":346430,"subject_id":"92513","group":"Group1","condition":"1_Rep","full_date":"2026-02-23T19:54:05.383Z","date":"2026-02-23","time":"19:54:05"},{"correct_response":"l","task":"test_phase","broad_category":"I","image_png":"I_Andesite_06.png","image_id":6,"category_name":"Andesite","category":1,"distinct_rating":3.17,"distinct_type":"Bottom","item_type":"Target","rt":2136,"stimulus":"Stimuli_Rocks480/I_Andesite_06.png","response":"l","trial_type":"image-keyboard-response","trial_index":147,"plugin_version":"2.1.0","time_elapsed":348569,"subject_id":"92513","group":"Group1","condition":"1_Rep","full_date":"2026-02-23T19:54:05.383Z","date":"2026-02-23","time":"19:54:05","cor_ans":true},{"trial_type":"html-keyboard-response","rt":null,"stimulus":"<p style=\"color: green; font-size: 50px; font-weight: bold;\">Correct</p>","response":null,"trial_index":148,"plugin_version":"2.1.0","time_elapsed":349071,"subject_id":"92513","group":"Group1","condition":"1_Rep","full_date":"2026-02-23T19:54:05.383Z","date":"2026-02-23","time":"19:54:05"},{"correct_response":"a","task":"test_phase","broad_category":"I","image_png":"I_Obsidian_06.png","image_id":86,"category_name":"Obsidian","category":6,"distinct_rating":8.01,"distinct_type":"Top","item_type":"Foil","rt":1154,"stimulus":"Stimuli_Rocks480/I_Obsidian_06.png","response":"a","trial_type":"image-keyboard-response","trial_index":149,"plugin_version":"2.1.0","time_elapsed":350227,"subject_id":"92513","group":"Group1","condition":"1_Rep","full_date":"2026-02-23T19:54:05.383Z","date":"2026-02-23","time":"19:54:05","cor_ans":true},{"trial_type":"html-keyboard-response","rt":null,"stimulus":"<p style=\"color: green; font-size: 50px; font-weight: bold;\">Correct</p>","response":null,"trial_index":150,"plugin_version":"2.1.0","time_elapsed":350729,"subject_id":"92513","group":"Group1","condition":"1_Rep","full_date":"2026-02-23T19:54:05.383Z","date":"2026-02-23","time":"19:54:05"},{"correct_response":"a","task":"test_phase","broad_category":"M","image_png":"M_Gneiss_15.png","image_id":207,"category_name":"Gneiss","category":13,"distinct_rating":3.11,"distinct_type":"Bottom","item_type":"Foil","rt":1646,"stimulus":"Stimuli_Rocks480/M_Gneiss_15.png","response":"a","trial_type":"image-keyboard-response","trial_index":151,"plugin_version":"2.1.0","time_elapsed":352378,"subject_id":"92513","group":"Group1","condition":"1_Rep","full_date":"2026-02-23T19:54:05.383Z","date":"2026-02-23","time":"19:54:05","cor_ans":true},{"trial_type":"html-keyboard-response","rt":null,"stimulus":"<p style=\"color: green; font-size: 50px; font-weight: bold;\">Correct</p>","response":null,"trial_index":152,"plugin_version":"2.1.0","time_elapsed":352879,"subject_id":"92513","group":"Group1","condition":"1_Rep","full_date":"2026-02-23T19:54:05.383Z","date":"2026-02-23","time":"19:54:05"},{"correct_response":"l","task":"test_phase","broad_category":"S","image_png":"S_Shale_08.png","image_id":472,"category_name":"Shale","category":30,"distinct_rating":2.55,"distinct_type":"Bottom","item_type":"Target","rt":1311,"stimulus":"Stimuli_Rocks480/S_Shale_08.png","response":"a","trial_type":"image-keyboard-response","trial_index":153,"plugin_version":"2.1.0","time_elapsed":354193,"subject_id":"92513","group":"Group1","condition":"1_Rep","full_date":"2026-02-23T19:54:05.383Z","date":"2026-02-23","time":"19:54:05","cor_ans":false},{"trial_type":"html-keyboard-response","rt":null,"stimulus":"<p style=\"color: red; font-size: 50px; font-weight: bold;\">Incorrect</p>","response":null,"trial_index":154,"plugin_version":"2.1.0","time_elapsed":354694,"subject_id":"92513","group":"Group1","condition":"1_Rep","full_date":"2026-02-23T19:54:05.383Z","date":"2026-02-23","time":"19:54:05"},{"correct_response":"l","task":"test_phase","broad_category":"M","image_png":"M_Quartzite_08.png","image_id":280,"category_name":"Quartzite","category":18,"distinct_rating":2.15,"distinct_type":"Bottom","item_type":"Target","rt":1180,"stimulus":"Stimuli_Rocks480/M_Quartzite_08.png","response":"l","trial_type":"image-keyboard-response","trial_index":155,"plugin_version":"2.1.0","time_elapsed":355877,"subject_id":"92513","group":"Group1","condition":"1_Rep","full_date":"2026-02-23T19:54:05.383Z","date":"2026-02-23","time":"19:54:05","cor_ans":true},{"trial_type":"html-keyboard-response","rt":null,"stimulus":"<p style=\"color: green; font-size: 50px; font-weight: bold;\">Correct</p>","response":null,"trial_index":156,"plugin_version":"2.1.0","time_elapsed":356379,"subject_id":"92513","group":"Group1","condition":"1_Rep","full_date":"2026-02-23T19:54:05.383Z","date":"2026-02-23","time":"19:54:05"},{"correct_response":"l","task":"test_phase","broad_category":"I","image_png":"I_Gabbro_11.png","image_id":59,"category_name":"Gabbro","category":4,"distinct_rating":1.99,"distinct_type":"Bottom","item_type":"Target","rt":780,"stimulus":"Stimuli_Rocks480/I_Gabbro_11.png","response":"l","trial_type":"image-keyboard-response","trial_index":157,"plugin_version":"2.1.0","time_elapsed":357161,"subject_id":"92513","group":"Group1","condition":"1_Rep","full_date":"2026-02-23T19:54:05.383Z","date":"2026-02-23","time":"19:54:05","cor_ans":true},{"trial_type":"html-keyboard-response","rt":null,"stimulus":"<p style=\"color: green; font-size: 50px; font-weight: bold;\">Correct</p>","response":null,"trial_index":158,"plugin_version":"2.1.0","time_elapsed":357663,"subject_id":"92513","group":"Group1","condition":"1_Rep","full_date":"2026-02-23T19:54:05.383Z","date":"2026-02-23","time":"19:54:05"},{"correct_response":"a","task":"test_phase","broad_category":"S","image_png":"S_Rock Salt_13.png","image_id":445,"category_name":"Rock Salt","category":28,"distinct_rating":7.58,"distinct_type":"Top","item_type":"Foil","rt":1030,"stimulus":"Stimuli_Rocks480/S_Rock Salt_13.png","response":"a","trial_type":"image-keyboard-response","trial_index":159,"plugin_version":"2.1.0","time_elapsed":358696,"subject_id":"92513","group":"Group1","condition":"1_Rep","full_date":"2026-02-23T19:54:05.383Z","date":"2026-02-23","time":"19:54:05","cor_ans":true},{"trial_type":"html-keyboard-response","rt":null,"stimulus":"<p style=\"color: green; font-size: 50px; font-weight: bold;\">Correct</p>","response":null,"trial_index":160,"plugin_version":"2.1.0","time_elapsed":359198,"subject_id":"92513","group":"Group1","condition":"1_Rep","full_date":"2026-02-23T19:54:05.383Z","date":"2026-02-23","time":"19:54:05"},{"correct_response":"l","task":"test_phase","broad_category":"I","image_png":"I_Diorite_05.png","image_id":37,"category_name":"Diorite","category":3,"distinct_rating":3.08,"distinct_type":"Bottom","item_type":"Target","rt":1097,"stimulus":"Stimuli_Rocks480/I_Diorite_05.png","response":"l","trial_type":"image-keyboard-response","trial_index":161,"plugin_version":"2.1.0","time_elapsed":360298,"subject_id":"92513","group":"Group1","condition":"1_Rep","full_date":"2026-02-23T19:54:05.383Z","date":"2026-02-23","time":"19:54:05","cor_ans":true},{"trial_type":"html-keyboard-response","rt":null,"stimulus":"<p style=\"color: green; font-size: 50px; font-weight: bold;\">Correct</p>","response":null,"trial_index":162,"plugin_version":"2.1.0","time_elapsed":360800,"subject_id":"92513","group":"Group1","condition":"1_Rep","full_date":"2026-02-23T19:54:05.383Z","date":"2026-02-23","time":"19:54:05"},{"correct_response":"a","task":"test_phase","broad_category":"S","image_png":"S_Sandstone_08.png","image_id":456,"category_name":"Sandstone","category":29,"distinct_rating":1.5,"distinct_type":"Bottom","item_type":"Foil","rt":1042,"stimulus":"Stimuli_Rocks480/S_Sandstone_08.png","response":"l","trial_type":"image-keyboard-response","trial_index":163,"plugin_version":"2.1.0","time_elapsed":361844,"subject_id":"92513","group":"Group1","condition":"1_Rep","full_date":"2026-02-23T19:54:05.383Z","date":"2026-02-23","time":"19:54:05","cor_ans":false},{"trial_type":"html-keyboard-response","rt":null,"stimulus":"<p style=\"color: red; font-size: 50px; font-weight: bold;\">Incorrect</p>","response":null,"trial_index":164,"plugin_version":"2.1.0","time_elapsed":362346,"subject_id":"92513","group":"Group1","condition":"1_Rep","full_date":"2026-02-23T19:54:05.383Z","date":"2026-02-23","time":"19:54:05"},{"correct_response":"a","task":"test_phase","broad_category":"I","image_png":"I_Andesite_04.png","image_id":4,"category_name":"Andesite","category":1,"distinct_rating":3.18,"distinct_type":"Bottom","item_type":"Foil","rt":916,"stimulus":"Stimuli_Rocks480/I_Andesite_04.png","response":"l","trial_type":"image-keyboard-response","trial_index":165,"plugin_version":"2.1.0","time_elapsed":363264,"subject_id":"92513","group":"Group1","condition":"1_Rep","full_date":"2026-02-23T19:54:05.383Z","date":"2026-02-23","time":"19:54:05","cor_ans":false},{"trial_type":"html-keyboard-response","rt":null,"stimulus":"<p style=\"color: red; font-size: 50px; font-weight: bold;\">Incorrect</p>","response":null,"trial_index":166,"plugin_version":"2.1.0","time_elapsed":363766,"subject_id":"92513","group":"Group1","condition":"1_Rep","full_date":"2026-02-23T19:54:05.383Z","date":"2026-02-23","time":"19:54:05"},{"correct_response":"a","task":"test_phase","broad_category":"M","image_png":"M_Gneiss_10.png","image_id":202,"category_name":"Gneiss","category":13,"distinct_rating":3.09,"distinct_type":"Bottom","item_type":"Foil","rt":827,"stimulus":"Stimuli_Rocks480/M_Gneiss_10.png","response":"l","trial_type":"image-keyboard-response","trial_index":167,"plugin_version":"2.1.0","time_elapsed":364595,"subject_id":"92513","group":"Group1","condition":"1_Rep","full_date":"2026-02-23T19:54:05.383Z","date":"2026-02-23","time":"19:54:05","cor_ans":false},{"trial_type":"html-keyboard-response","rt":null,"stimulus":"<p style=\"color: red; font-size: 50px; font-weight: bold;\">Incorrect</p>","response":null,"trial_index":168,"plugin_version":"2.1.0","time_elapsed":365097,"subject_id":"92513","group":"Group1","condition":"1_Rep","full_date":"2026-02-23T19:54:05.383Z","date":"2026-02-23","time":"19:54:05"},{"correct_response":"a","task":"test_phase","broad_category":"S","image_png":"S_Sandstone_04.png","image_id":452,"category_name":"Sandstone","category":29,"distinct_rating":1.8,"distinct_type":"Bottom","item_type":"Foil","rt":669,"stimulus":"Stimuli_Rocks480/S_Sandstone_04.png","response":"l","trial_type":"image-keyboard-response","trial_index":169,"plugin_version":"2.1.0","time_elapsed":365768,"subject_id":"92513","group":"Group1","condition":"1_Rep","full_date":"2026-02-23T19:54:05.383Z","date":"2026-02-23","time":"19:54:05","cor_ans":false},{"trial_type":"html-keyboard-response","rt":null,"stimulus":"<p style=\"color: red; font-size: 50px; font-weight: bold;\">Incorrect</p>","response":null,"trial_index":170,"plugin_version":"2.1.0","time_elapsed":366270,"subject_id":"92513","group":"Group1","condition":"1_Rep","full_date":"2026-02-23T19:54:05.383Z","date":"2026-02-23","time":"19:54:05"},{"correct_response":"a","task":"test_phase","broad_category":"M","image_png":"M_Quartzite_15.png","image_id":287,"category_name":"Quartzite","category":18,"distinct_rating":2.19,"distinct_type":"Bottom","item_type":"Foil","rt":666,"stimulus":"Stimuli_Rocks480/M_Quartzite_15.png","response":"l","trial_type":"image-keyboard-response","trial_index":171,"plugin_version":"2.1.0","time_elapsed":366939,"subject_id":"92513","group":"Group1","condition":"1_Rep","full_date":"2026-02-23T19:54:05.383Z","date":"2026-02-23","time":"19:54:05","cor_ans":false},{"trial_type":"html-keyboard-response","rt":null,"stimulus":"<p style=\"color: red; font-size: 50px; font-weight: bold;\">Incorrect</p>","response":null,"trial_index":172,"plugin_version":"2.1.0","time_elapsed":367440,"subject_id":"92513","group":"Group1","condition":"1_Rep","full_date":"2026-02-23T19:54:05.383Z","date":"2026-02-23","time":"19:54:05"},{"correct_response":"l","task":"test_phase","broad_category":"I","image_png":"I_Andesite_08.png","image_id":8,"category_name":"Andesite","category":1,"distinct_rating":1.95,"distinct_type":"Bottom","item_type":"Target","rt":1103,"stimulus":"Stimuli_Rocks480/I_Andesite_08.png","response":"a","trial_type":"image-keyboard-response","trial_index":173,"plugin_version":"2.1.0","time_elapsed":368546,"subject_id":"92513","group":"Group1","condition":"1_Rep","full_date":"2026-02-23T19:54:05.383Z","date":"2026-02-23","time":"19:54:05","cor_ans":false},{"trial_type":"html-keyboard-response","rt":null,"stimulus":"<p style=\"color: red; font-size: 50px; font-weight: bold;\">Incorrect</p>","response":null,"trial_index":174,"plugin_version":"2.1.0","time_elapsed":369048,"subject_id":"92513","group":"Group1","condition":"1_Rep","full_date":"2026-02-23T19:54:05.383Z","date":"2026-02-23","time":"19:54:05"},{"correct_response":"l","task":"test_phase","broad_category":"I","image_png":"I_Pumice_08.png","image_id":136,"category_name":"Pumice","category":9,"distinct_rating":3.1,"distinct_type":"Bottom","item_type":"Target","rt":772,"stimulus":"Stimuli_Rocks480/I_Pumice_08.png","response":"l","trial_type":"image-keyboard-response","trial_index":175,"plugin_version":"2.1.0","time_elapsed":369822,"subject_id":"92513","group":"Group1","condition":"1_Rep","full_date":"2026-02-23T19:54:05.383Z","date":"2026-02-23","time":"19:54:05","cor_ans":true},{"trial_type":"html-keyboard-response","rt":null,"stimulus":"<p style=\"color: green; font-size: 50px; font-weight: bold;\">Correct</p>","response":null,"trial_index":176,"plugin_version":"2.1.0","time_elapsed":370324,"subject_id":"92513","group":"Group1","condition":"1_Rep","full_date":"2026-02-23T19:54:05.383Z","date":"2026-02-23","time":"19:54:05"},{"correct_response":"l","task":"test_phase","broad_category":"I","image_png":"I_Pegmatite_16.png","image_id":112,"category_name":"Pegmatite","category":7,"distinct_rating":7.03,"distinct_type":"Top","item_type":"Target","rt":1117,"stimulus":"Stimuli_Rocks480/I_Pegmatite_16.png","response":"l","trial_type":"image-keyboard-response","trial_index":177,"plugin_version":"2.1.0","time_elapsed":371443,"subject_id":"92513","group":"Group1","condition":"1_Rep","full_date":"2026-02-23T19:54:05.383Z","date":"2026-02-23","time":"19:54:05","cor_ans":true},{"trial_type":"html-keyboard-response","rt":null,"stimulus":"<p style=\"color: green; font-size: 50px; font-weight: bold;\">Correct</p>","response":null,"trial_index":178,"plugin_version":"2.1.0","time_elapsed":371945,"subject_id":"92513","group":"Group1","condition":"1_Rep","full_date":"2026-02-23T19:54:05.383Z","date":"2026-02-23","time":"19:54:05"},{"correct_response":"a","task":"test_phase","broad_category":"I","image_png":"I_Diorite_15.png","image_id":47,"category_name":"Diorite","category":3,"distinct_rating":3.05,"distinct_type":"Bottom","item_type":"Foil","rt":764,"stimulus":"Stimuli_Rocks480/I_Diorite_15.png","response":"l","trial_type":"image-keyboard-response","trial_index":179,"plugin_version":"2.1.0","time_elapsed":372711,"subject_id":"92513","group":"Group1","condition":"1_Rep","full_date":"2026-02-23T19:54:05.383Z","date":"2026-02-23","time":"19:54:05","cor_ans":false},{"trial_type":"html-keyboard-response","rt":null,"stimulus":"<p style=\"color: red; font-size: 50px; font-weight: bold;\">Incorrect</p>","response":null,"trial_index":180,"plugin_version":"2.1.0","time_elapsed":373214,"subject_id":"92513","group":"Group1","condition":"1_Rep","full_date":"2026-02-23T19:54:05.383Z","date":"2026-02-23","time":"19:54:05"},{"correct_response":"a","task":"test_phase","broad_category":"I","image_png":"I_Basalt_10.png","image_id":26,"category_name":"Basalt","category":2,"distinct_rating":2.76,"distinct_type":"Bottom","item_type":"Foil","rt":828,"stimulus":"Stimuli_Rocks480/I_Basalt_10.png","response":"l","trial_type":"image-keyboard-response","trial_index":181,"plugin_version":"2.1.0","time_elapsed":374044,"subject_id":"92513","group":"Group1","condition":"1_Rep","full_date":"2026-02-23T19:54:05.383Z","date":"2026-02-23","time":"19:54:05","cor_ans":false},{"trial_type":"html-keyboard-response","rt":null,"stimulus":"<p style=\"color: red; font-size: 50px; font-weight: bold;\">Incorrect</p>","response":null,"trial_index":182,"plugin_version":"2.1.0","time_elapsed":374546,"subject_id":"92513","group":"Group1","condition":"1_Rep","full_date":"2026-02-23T19:54:05.383Z","date":"2026-02-23","time":"19:54:05"},{"correct_response":"a","task":"test_phase","broad_category":"I","image_png":"I_Rhyolite_10.png","image_id":154,"category_name":"Rhyolite","category":10,"distinct_rating":2.88,"distinct_type":"Bottom","item_type":"Foil","rt":867,"stimulus":"Stimuli_Rocks480/I_Rhyolite_10.png","response":"l","trial_type":"image-keyboard-response","trial_index":183,"plugin_version":"2.1.0","time_elapsed":375415,"subject_id":"92513","group":"Group1","condition":"1_Rep","full_date":"2026-02-23T19:54:05.383Z","date":"2026-02-23","time":"19:54:05","cor_ans":false},{"trial_type":"html-keyboard-response","rt":null,"stimulus":"<p style=\"color: red; font-size: 50px; font-weight: bold;\">Incorrect</p>","response":null,"trial_index":184,"plugin_version":"2.1.0","time_elapsed":375916,"subject_id":"92513","group":"Group1","condition":"1_Rep","full_date":"2026-02-23T19:54:05.383Z","date":"2026-02-23","time":"19:54:05"},{"correct_response":"l","task":"test_phase","broad_category":"M","image_png":"M_Phyllite_10.png","image_id":266,"category_name":"Phyllite","category":17,"distinct_rating":2.6,"distinct_type":"Bottom","item_type":"Target","rt":1387,"stimulus":"Stimuli_Rocks480/M_Phyllite_10.png","response":"a","trial_type":"image-keyboard-response","trial_index":185,"plugin_version":"2.1.0","time_elapsed":377306,"subject_id":"92513","group":"Group1","condition":"1_Rep","full_date":"2026-02-23T19:54:05.383Z","date":"2026-02-23","time":"19:54:05","cor_ans":false},{"trial_type":"html-keyboard-response","rt":null,"stimulus":"<p style=\"color: red; font-size: 50px; font-weight: bold;\">Incorrect</p>","response":null,"trial_index":186,"plugin_version":"2.1.0","time_elapsed":377807,"subject_id":"92513","group":"Group1","condition":"1_Rep","full_date":"2026-02-23T19:54:05.383Z","date":"2026-02-23","time":"19:54:05"},{"correct_response":"a","task":"test_phase","broad_category":"M","image_png":"M_Phyllite_05.png","image_id":261,"category_name":"Phyllite","category":17,"distinct_rating":2.14,"distinct_type":"Bottom","item_type":"Foil","rt":1268,"stimulus":"Stimuli_Rocks480/M_Phyllite_05.png","response":"l","trial_type":"image-keyboard-response","trial_index":187,"plugin_version":"2.1.0","time_elapsed":379078,"subject_id":"92513","group":"Group1","condition":"1_Rep","full_date":"2026-02-23T19:54:05.383Z","date":"2026-02-23","time":"19:54:05","cor_ans":false},{"trial_type":"html-keyboard-response","rt":null,"stimulus":"<p style=\"color: red; font-size: 50px; font-weight: bold;\">Incorrect</p>","response":null,"trial_index":188,"plugin_version":"2.1.0","time_elapsed":379579,"subject_id":"92513","group":"Group1","condition":"1_Rep","full_date":"2026-02-23T19:54:05.383Z","date":"2026-02-23","time":"19:54:05"},{"correct_response":"l","task":"test_phase","broad_category":"S","image_png":"S_Conglomerate_05.png","image_id":373,"category_name":"Conglomerate","category":24,"distinct_rating":7.32,"distinct_type":"Top","item_type":"Target","rt":994,"stimulus":"Stimuli_Rocks480/S_Conglomerate_05.png","response":"l","trial_type":"image-keyboard-response","trial_index":189,"plugin_version":"2.1.0","time_elapsed":380576,"subject_id":"92513","group":"Group1","condition":"1_Rep","full_date":"2026-02-23T19:54:05.383Z","date":"2026-02-23","time":"19:54:05","cor_ans":true},{"trial_type":"html-keyboard-response","rt":null,"stimulus":"<p style=\"color: green; font-size: 50px; font-weight: bold;\">Correct</p>","response":null,"trial_index":190,"plugin_version":"2.1.0","time_elapsed":381078,"subject_id":"92513","group":"Group1","condition":"1_Rep","full_date":"2026-02-23T19:54:05.383Z","date":"2026-02-23","time":"19:54:05"},{"correct_response":"l","task":"test_phase","broad_category":"M","image_png":"M_Slate_11.png","image_id":315,"category_name":"Slate","category":20,"distinct_rating":2.75,"distinct_type":"Bottom","item_type":"Target","rt":840,"stimulus":"Stimuli_Rocks480/M_Slate_11.png","response":"l","trial_type":"image-keyboard-response","trial_index":191,"plugin_version":"2.1.0","time_elapsed":381921,"subject_id":"92513","group":"Group1","condition":"1_Rep","full_date":"2026-02-23T19:54:05.383Z","date":"2026-02-23","time":"19:54:05","cor_ans":true},{"trial_type":"html-keyboard-response","rt":null,"stimulus":"<p style=\"color: green; font-size: 50px; font-weight: bold;\">Correct</p>","response":null,"trial_index":192,"plugin_version":"2.1.0","time_elapsed":382422,"subject_id":"92513","group":"Group1","condition":"1_Rep","full_date":"2026-02-23T19:54:05.383Z","date":"2026-02-23","time":"19:54:05"},{"correct_response":"a","task":"test_phase","broad_category":"I","image_png":"I_Gabbro_14.png","image_id":62,"category_name":"Gabbro","category":4,"distinct_rating":2.95,"distinct_type":"Bottom","item_type":"Foil","rt":1527,"stimulus":"Stimuli_Rocks480/I_Gabbro_14.png","response":"l","trial_type":"image-keyboard-response","trial_index":193,"plugin_version":"2.1.0","time_elapsed":383952,"subject_id":"92513","group":"Group1","condition":"1_Rep","full_date":"2026-02-23T19:54:05.383Z","date":"2026-02-23","time":"19:54:05","cor_ans":false},{"trial_type":"html-keyboard-response","rt":null,"stimulus":"<p style=\"color: red; font-size: 50px; font-weight: bold;\">Incorrect</p>","response":null,"trial_index":194,"plugin_version":"2.1.0","time_elapsed":384453,"subject_id":"92513","group":"Group1","condition":"1_Rep","full_date":"2026-02-23T19:54:05.383Z","date":"2026-02-23","time":"19:54:05"},{"correct_response":"a","task":"test_phase","broad_category":"M","image_png":"M_Gneiss_14.png","image_id":206,"category_name":"Gneiss","category":13,"distinct_rating":3.41,"distinct_type":"Bottom","item_type":"Foil","rt":661,"stimulus":"Stimuli_Rocks480/M_Gneiss_14.png","response":"l","trial_type":"image-keyboard-response","trial_index":195,"plugin_version":"2.1.0","time_elapsed":385117,"subject_id":"92513","group":"Group1","condition":"1_Rep","full_date":"2026-02-23T19:54:05.383Z","date":"2026-02-23","time":"19:54:05","cor_ans":false},{"trial_type":"html-keyboard-response","rt":null,"stimulus":"<p style=\"color: red; font-size: 50px; font-weight: bold;\">Incorrect</p>","response":null,"trial_index":196,"plugin_version":"2.1.0","time_elapsed":385619,"subject_id":"92513","group":"Group1","condition":"1_Rep","full_date":"2026-02-23T19:54:05.383Z","date":"2026-02-23","time":"19:54:05"},{"correct_response":"l","task":"test_phase","broad_category":"S","image_png":"S_Sandstone_16.png","image_id":464,"category_name":"Sandstone","category":29,"distinct_rating":1.93,"distinct_type":"Bottom","item_type":"Target","rt":860,"stimulus":"Stimuli_Rocks480/S_Sandstone_16.png","response":"l","trial_type":"image-keyboard-response","trial_index":197,"plugin_version":"2.1.0","time_elapsed":386481,"subject_id":"92513","group":"Group1","condition":"1_Rep","full_date":"2026-02-23T19:54:05.383Z","date":"2026-02-23","time":"19:54:05","cor_ans":true},{"trial_type":"html-keyboard-response","rt":null,"stimulus":"<p style=\"color: green; font-size: 50px; font-weight: bold;\">Correct</p>","response":null,"trial_index":198,"plugin_version":"2.1.0","time_elapsed":386983,"subject_id":"92513","group":"Group1","condition":"1_Rep","full_date":"2026-02-23T19:54:05.383Z","date":"2026-02-23","time":"19:54:05"},{"correct_response":"a","task":"test_phase","broad_category":"I","image_png":"I_Rhyolite_08.png","image_id":152,"category_name":"Rhyolite","category":10,"distinct_rating":1.38,"distinct_type":"Bottom","item_type":"Foil","rt":1151,"stimulus":"Stimuli_Rocks480/I_Rhyolite_08.png","response":"a","trial_type":"image-keyboard-response","trial_index":199,"plugin_version":"2.1.0","time_elapsed":388135,"subject_id":"92513","group":"Group1","condition":"1_Rep","full_date":"2026-02-23T19:54:05.383Z","date":"2026-02-23","time":"19:54:05","cor_ans":true},{"trial_type":"html-keyboard-response","rt":null,"stimulus":"<p style=\"color: green; font-size: 50px; font-weight: bold;\">Correct</p>","response":null,"trial_index":200,"plugin_version":"2.1.0","time_elapsed":388637,"subject_id":"92513","group":"Group1","condition":"1_Rep","full_date":"2026-02-23T19:54:05.383Z","date":"2026-02-23","time":"19:54:05"},{"correct_response":"a","task":"test_phase","broad_category":"M","image_png":"M_Marble_14.png","image_id":238,"category_name":"Marble","category":15,"distinct_rating":3.31,"distinct_type":"Bottom","item_type":"Foil","rt":2047,"stimulus":"Stimuli_Rocks480/M_Marble_14.png","response":"a","trial_type":"image-keyboard-response","trial_index":201,"plugin_version":"2.1.0","time_elapsed":390687,"subject_id":"92513","group":"Group1","condition":"1_Rep","full_date":"2026-02-23T19:54:05.383Z","date":"2026-02-23","time":"19:54:05","cor_ans":true},{"trial_type":"html-keyboard-response","rt":null,"stimulus":"<p style=\"color: green; font-size: 50px; font-weight: bold;\">Correct</p>","response":null,"trial_index":202,"plugin_version":"2.1.0","time_elapsed":391188,"subject_id":"92513","group":"Group1","condition":"1_Rep","full_date":"2026-02-23T19:54:05.383Z","date":"2026-02-23","time":"19:54:05"},{"correct_response":"a","task":"test_phase","broad_category":"S","image_png":"S_Chert_13.png","image_id":365,"category_name":"Chert","category":23,"distinct_rating":6.57,"distinct_type":"Top","item_type":"Foil","rt":993,"stimulus":"Stimuli_Rocks480/S_Chert_13.png","response":"a","trial_type":"image-keyboard-response","trial_index":203,"plugin_version":"2.1.0","time_elapsed":392184,"subject_id":"92513","group":"Group1","condition":"1_Rep","full_date":"2026-02-23T19:54:05.383Z","date":"2026-02-23","time":"19:54:05","cor_ans":true},{"trial_type":"html-keyboard-response","rt":null,"stimulus":"<p style=\"color: green; font-size: 50px; font-weight: bold;\">Correct</p>","response":null,"trial_index":204,"plugin_version":"2.1.0","time_elapsed":392685,"subject_id":"92513","group":"Group1","condition":"1_Rep","full_date":"2026-02-23T19:54:05.383Z","date":"2026-02-23","time":"19:54:05"},{"correct_response":"l","task":"test_phase","broad_category":"I","image_png":"I_Rhyolite_11.png","image_id":155,"category_name":"Rhyolite","category":10,"distinct_rating":1.73,"distinct_type":"Bottom","item_type":"Target","rt":908,"stimulus":"Stimuli_Rocks480/I_Rhyolite_11.png","response":"l","trial_type":"image-keyboard-response","trial_index":205,"plugin_version":"2.1.0","time_elapsed":393596,"subject_id":"92513","group":"Group1","condition":"1_Rep","full_date":"2026-02-23T19:54:05.383Z","date":"2026-02-23","time":"19:54:05","cor_ans":true},{"trial_type":"html-keyboard-response","rt":null,"stimulus":"<p style=\"color: green; font-size: 50px; font-weight: bold;\">Correct</p>","response":null,"trial_index":206,"plugin_version":"2.1.0","time_elapsed":394097,"subject_id":"92513","group":"Group1","condition":"1_Rep","full_date":"2026-02-23T19:54:05.383Z","date":"2026-02-23","time":"19:54:05"},{"correct_response":"a","task":"test_phase","broad_category":"M","image_png":"M_Phyllite_13.png","image_id":269,"category_name":"Phyllite","category":17,"distinct_rating":2.8,"distinct_type":"Bottom","item_type":"Foil","rt":1189,"stimulus":"Stimuli_Rocks480/M_Phyllite_13.png","response":"a","trial_type":"image-keyboard-response","trial_index":207,"plugin_version":"2.1.0","time_elapsed":395288,"subject_id":"92513","group":"Group1","condition":"1_Rep","full_date":"2026-02-23T19:54:05.383Z","date":"2026-02-23","time":"19:54:05","cor_ans":true},{"trial_type":"html-keyboard-response","rt":null,"stimulus":"<p style=\"color: green; font-size: 50px; font-weight: bold;\">Correct</p>","response":null,"trial_index":208,"plugin_version":"2.1.0","time_elapsed":395789,"subject_id":"92513","group":"Group1","condition":"1_Rep","full_date":"2026-02-23T19:54:05.383Z","date":"2026-02-23","time":"19:54:05"},{"correct_response":"l","task":"test_phase","broad_category":"I","image_png":"I_Diorite_03.png","image_id":35,"category_name":"Diorite","category":3,"distinct_rating":3.14,"distinct_type":"Bottom","item_type":"Target","rt":911,"stimulus":"Stimuli_Rocks480/I_Diorite_03.png","response":"l","trial_type":"image-keyboard-response","trial_index":209,"plugin_version":"2.1.0","time_elapsed":396703,"subject_id":"92513","group":"Group1","condition":"1_Rep","full_date":"2026-02-23T19:54:05.383Z","date":"2026-02-23","time":"19:54:05","cor_ans":true},{"trial_type":"html-keyboard-response","rt":null,"stimulus":"<p style=\"color: green; font-size: 50px; font-weight: bold;\">Correct</p>","response":null,"trial_index":210,"plugin_version":"2.1.0","time_elapsed":397205,"subject_id":"92513","group":"Group1","condition":"1_Rep","full_date":"2026-02-23T19:54:05.383Z","date":"2026-02-23","time":"19:54:05"},{"correct_response":"a","task":"test_phase","broad_category":"I","image_png":"I_Gabbro_02.png","image_id":50,"category_name":"Gabbro","category":4,"distinct_rating":2.73,"distinct_type":"Bottom","item_type":"Foil","rt":1767,"stimulus":"Stimuli_Rocks480/I_Gabbro_02.png","response":"l","trial_type":"image-keyboard-response","trial_index":211,"plugin_version":"2.1.0","time_elapsed":398975,"subject_id":"92513","group":"Group1","condition":"1_Rep","full_date":"2026-02-23T19:54:05.383Z","date":"2026-02-23","time":"19:54:05","cor_ans":false},{"trial_type":"html-keyboard-response","rt":null,"stimulus":"<p style=\"color: red; font-size: 50px; font-weight: bold;\">Incorrect</p>","response":null,"trial_index":212,"plugin_version":"2.1.0","time_elapsed":399477,"subject_id":"92513","group":"Group1","condition":"1_Rep","full_date":"2026-02-23T19:54:05.383Z","date":"2026-02-23","time":"19:54:05"},{"correct_response":"l","task":"test_phase","broad_category":"M","image_png":"M_Marble_16.png","image_id":240,"category_name":"Marble","category":15,"distinct_rating":2.57,"distinct_type":"Bottom","item_type":"Target","rt":1417,"stimulus":"Stimuli_Rocks480/M_Marble_16.png","response":"a","trial_type":"image-keyboard-response","trial_index":213,"plugin_version":"2.1.0","time_elapsed":400896,"subject_id":"92513","group":"Group1","condition":"1_Rep","full_date":"2026-02-23T19:54:05.383Z","date":"2026-02-23","time":"19:54:05","cor_ans":false},{"trial_type":"html-keyboard-response","rt":null,"stimulus":"<p style=\"color: red; font-size: 50px; font-weight: bold;\">Incorrect</p>","response":null,"trial_index":214,"plugin_version":"2.1.0","time_elapsed":401397,"subject_id":"92513","group":"Group1","condition":"1_Rep","full_date":"2026-02-23T19:54:05.383Z","date":"2026-02-23","time":"19:54:05"},{"correct_response":"l","task":"test_phase","broad_category":"S","image_png":"S_Dolomite_13.png","image_id":397,"category_name":"Dolomite","category":25,"distinct_rating":1.77,"distinct_type":"Bottom","item_type":"Target","rt":868,"stimulus":"Stimuli_Rocks480/S_Dolomite_13.png","response":"a","trial_type":"image-keyboard-response","trial_index":215,"plugin_version":"2.1.0","time_elapsed":402268,"subject_id":"92513","group":"Group1","condition":"1_Rep","full_date":"2026-02-23T19:54:05.383Z","date":"2026-02-23","time":"19:54:05","cor_ans":false},{"trial_type":"html-keyboard-response","rt":null,"stimulus":"<p style=\"color: red; font-size: 50px; font-weight: bold;\">Incorrect</p>","response":null,"trial_index":216,"plugin_version":"2.1.0","time_elapsed":402769,"subject_id":"92513","group":"Group1","condition":"1_Rep","full_date":"2026-02-23T19:54:05.383Z","date":"2026-02-23","time":"19:54:05"},{"correct_response":"a","task":"test_phase","broad_category":"I","image_png":"I_Pumice_14.png","image_id":142,"category_name":"Pumice","category":9,"distinct_rating":3.22,"distinct_type":"Bottom","item_type":"Foil","rt":955,"stimulus":"Stimuli_Rocks480/I_Pumice_14.png","response":"l","trial_type":"image-keyboard-response","trial_index":217,"plugin_version":"2.1.0","time_elapsed":403727,"subject_id":"92513","group":"Group1","condition":"1_Rep","full_date":"2026-02-23T19:54:05.383Z","date":"2026-02-23","time":"19:54:05","cor_ans":false},{"trial_type":"html-keyboard-response","rt":null,"stimulus":"<p style=\"color: red; font-size: 50px; font-weight: bold;\">Incorrect</p>","response":null,"trial_index":218,"plugin_version":"2.1.0","time_elapsed":404228,"subject_id":"92513","group":"Group1","condition":"1_Rep","full_date":"2026-02-23T19:54:05.383Z","date":"2026-02-23","time":"19:54:05"},{"correct_response":"a","task":"test_phase","broad_category":"I","image_png":"I_Andesite_09.png","image_id":9,"category_name":"Andesite","category":1,"distinct_rating":2.49,"distinct_type":"Bottom","item_type":"Foil","rt":1343,"stimulus":"Stimuli_Rocks480/I_Andesite_09.png","response":"l","trial_type":"image-keyboard-response","trial_index":219,"plugin_version":"2.1.0","time_elapsed":405574,"subject_id":"92513","group":"Group1","condition":"1_Rep","full_date":"2026-02-23T19:54:05.383Z","date":"2026-02-23","time":"19:54:05","cor_ans":false},{"trial_type":"html-keyboard-response","rt":null,"stimulus":"<p style=\"color: red; font-size: 50px; font-weight: bold;\">Incorrect</p>","response":null,"trial_index":220,"plugin_version":"2.1.0","time_elapsed":406075,"subject_id":"92513","group":"Group1","condition":"1_Rep","full_date":"2026-02-23T19:54:05.383Z","date":"2026-02-23","time":"19:54:05"},{"correct_response":"a","task":"test_phase","broad_category":"I","image_png":"I_Rhyolite_05.png","image_id":149,"category_name":"Rhyolite","category":10,"distinct_rating":3.02,"distinct_type":"Bottom","item_type":"Foil","rt":743,"stimulus":"Stimuli_Rocks480/I_Rhyolite_05.png","response":"l","trial_type":"image-keyboard-response","trial_index":221,"plugin_version":"2.1.0","time_elapsed":406821,"subject_id":"92513","group":"Group1","condition":"1_Rep","full_date":"2026-02-23T19:54:05.383Z","date":"2026-02-23","time":"19:54:05","cor_ans":false},{"trial_type":"html-keyboard-response","rt":null,"stimulus":"<p style=\"color: red; font-size: 50px; font-weight: bold;\">Incorrect</p>","response":null,"trial_index":222,"plugin_version":"2.1.0","time_elapsed":407322,"subject_id":"92513","group":"Group1","condition":"1_Rep","full_date":"2026-02-23T19:54:05.383Z","date":"2026-02-23","time":"19:54:05"},{"correct_response":"a","task":"test_phase","broad_category":"M","image_png":"M_Quartzite_12.png","image_id":284,"category_name":"Quartzite","category":18,"distinct_rating":1.92,"distinct_type":"Bottom","item_type":"Foil","rt":496,"stimulus":"Stimuli_Rocks480/M_Quartzite_12.png","response":"l","trial_type":"image-keyboard-response","trial_index":223,"plugin_version":"2.1.0","time_elapsed":407821,"subject_id":"92513","group":"Group1","condition":"1_Rep","full_date":"2026-02-23T19:54:05.383Z","date":"2026-02-23","time":"19:54:05","cor_ans":false},{"trial_type":"html-keyboard-response","rt":null,"stimulus":"<p style=\"color: red; font-size: 50px; font-weight: bold;\">Incorrect</p>","response":null,"trial_index":224,"plugin_version":"2.1.0","time_elapsed":408323,"subject_id":"92513","group":"Group1","condition":"1_Rep","full_date":"2026-02-23T19:54:05.383Z","date":"2026-02-23","time":"19:54:05"},{"correct_resp