[{"width":1536,"height":695,"webaudio":true,"browser":"chrome","browser_version":"144.0.0","mobile":false,"os":"Windows 10","fullscreen":true,"vsync_rate":59.99,"webcam":true,"microphone":true,"trial_type":"browser-check","trial_index":0,"plugin_version":"2.1.0","time_elapsed":1013,"subject_id":"91632","group":"Group2","condition":"1_Rep","full_date":"2026-03-09T14:27:33.029Z","date":"2026-03-09","time":"14:27:33"},{"success":true,"timeout":false,"failed_images":[],"failed_audio":[],"failed_video":[],"trial_type":"preload","trial_index":1,"plugin_version":"2.1.0","time_elapsed":4557,"subject_id":"91632","group":"Group2","condition":"1_Rep","full_date":"2026-03-09T14:27:33.029Z","date":"2026-03-09","time":"14:27:33"},{"rt":9288,"url":"SONA_consent_memorability.html","trial_type":"external-html","trial_index":2,"plugin_version":"2.1.0","time_elapsed":13907,"subject_id":"91632","group":"Group2","condition":"1_Rep","full_date":"2026-03-09T14:27:33.029Z","date":"2026-03-09","time":"14:27:33"},{"success":true,"rt":14546,"trial_type":"fullscreen","trial_index":3,"plugin_version":"2.1.0","time_elapsed":29461,"subject_id":"91632","group":"Group2","condition":"1_Rep","full_date":"2026-03-09T14:27:33.029Z","date":"2026-03-09","time":"14:27:33"},{"rt":2631,"stimulus":"<div style=\"max-width: 760px; margin: auto; font-size: 20px; line-height: 1.5;\">\n      <h1 style=\"text-align:center; font-size: 30px;\">Instructions</h1>\n      <p>\n        Welcome to the study on <b>visual memory</b>. This experiment consists of <b>two phases</b>: \n        a <b>study phase</b> and a <b>test phase</b>.\n      </p>\n      <p>\n        In the study phase, you will see a series of rock images along with their category labels.\n        The images will appear one at a time.\n        <b>Your task</b> is to learn the categories to which the rock images belong \n        and to remember each image as accurately as possible.\n      </p> \n      <p>\n        Note that you will see each image only <b>once</b> during the study phase. \n          So, please pay close attention and try to remember each image carefully.\n      </p>\n      <p>\n        After the study phase, <b>your memory will be tested</b>. \n        Additional instructions for the test phase will be provided at that time.\n      </p>\n      <p>\n        If your computer has multiple <b>language settings</b> (e.g., English and another language),\n        please make sure it is set to English before starting.\n      </p>\n      <p>\n        You can track your progress using the <b>completion bar</b> at the top of the screen. \n        Please note that the bar will refresh when the test phase begins \n        to give you an accurate sense of your progress in both phases.\n      </p> \n      <p>\n        Press the button below when you are ready to begin.\n      </p>\n    </div>","response":0,"trial_type":"html-button-response","trial_index":4,"plugin_version":"2.1.0","time_elapsed":32094,"subject_id":"91632","group":"Group2","condition":"1_Rep","full_date":"2026-03-09T14:27:33.029Z","date":"2026-03-09","time":"14:27:33"},{"rt":null,"stimulus":"<p style=\"font-size: 50px; margin: 0; text-align: center;\">+</p>","response":null,"trial_type":"html-keyboard-response","trial_index":5,"plugin_version":"2.1.0","time_elapsed":33111,"subject_id":"91632","group":"Group2","condition":"1_Rep","full_date":"2026-03-09T14:27:33.029Z","date":"2026-03-09","time":"14:27:33"},{"task":"memory_phase","broad_category":"M","image_png":"M_Marble_02.png","image_id":226,"category_name":"Marble","category":15,"distinct_rating":3.2,"distinct_type":"Bottom","rt":null,"stimulus":"Stimuli_Rocks480/M_Marble_02.png","response":null,"trial_type":"image-keyboard-response","trial_index":6,"plugin_version":"2.1.0","time_elapsed":35623,"subject_id":"91632","group":"Group2","condition":"1_Rep","full_date":"2026-03-09T14:27:33.029Z","date":"2026-03-09","time":"14:27:33"},{"rt":null,"stimulus":"<p style=\"font-size: 50px; margin: 0; text-align: center;\">+</p>","response":null,"trial_type":"html-keyboard-response","trial_index":7,"plugin_version":"2.1.0","time_elapsed":36624,"subject_id":"91632","group":"Group2","condition":"1_Rep","full_date":"2026-03-09T14:27:33.029Z","date":"2026-03-09","time":"14:27:33"},{"task":"memory_phase","broad_category":"M","image_png":"M_Slate_14.png","image_id":318,"category_name":"Slate","category":20,"distinct_rating":2.58,"distinct_type":"Bottom","rt":null,"stimulus":"Stimuli_Rocks480/M_Slate_14.png","response":null,"trial_type":"image-keyboard-response","trial_index":8,"plugin_version":"2.1.0","time_elapsed":39136,"subject_id":"91632","group":"Group2","condition":"1_Rep","full_date":"2026-03-09T14:27:33.029Z","date":"2026-03-09","time":"14:27:33"},{"rt":null,"stimulus":"<p style=\"font-size: 50px; margin: 0; text-align: center;\">+</p>","response":null,"trial_type":"html-keyboard-response","trial_index":9,"plugin_version":"2.1.0","time_elapsed":40152,"subject_id":"91632","group":"Group2","condition":"1_Rep","full_date":"2026-03-09T14:27:33.029Z","date":"2026-03-09","time":"14:27:33"},{"task":"memory_phase","broad_category":"I","image_png":"I_Pegmatite_03.png","image_id":99,"category_name":"Pegmatite","category":7,"distinct_rating":7.24,"distinct_type":"Top","rt":null,"stimulus":"Stimuli_Rocks480/I_Pegmatite_03.png","response":null,"trial_type":"image-keyboard-response","trial_index":10,"plugin_version":"2.1.0","time_elapsed":42656,"subject_id":"91632","group":"Group2","condition":"1_Rep","full_date":"2026-03-09T14:27:33.029Z","date":"2026-03-09","time":"14:27:33"},{"rt":null,"stimulus":"<p style=\"font-size: 50px; margin: 0; text-align: center;\">+</p>","response":null,"trial_type":"html-keyboard-response","trial_index":11,"plugin_version":"2.1.0","time_elapsed":43671,"subject_id":"91632","group":"Group2","condition":"1_Rep","full_date":"2026-03-09T14:27:33.029Z","date":"2026-03-09","time":"14:27:33"},{"task":"memory_phase","broad_category":"I","image_png":"I_Pumice_01.png","image_id":129,"category_name":"Pumice","category":9,"distinct_rating":3.25,"distinct_type":"Bottom","rt":null,"stimulus":"Stimuli_Rocks480/I_Pumice_01.png","response":null,"trial_type":"image-keyboard-response","trial_index":12,"plugin_version":"2.1.0","time_elapsed":46187,"subject_id":"91632","group":"Group2","condition":"1_Rep","full_date":"2026-03-09T14:27:33.029Z","date":"2026-03-09","time":"14:27:33"},{"rt":null,"stimulus":"<p style=\"font-size: 50px; margin: 0; text-align: center;\">+</p>","response":null,"trial_type":"html-keyboard-response","trial_index":13,"plugin_version":"2.1.0","time_elapsed":47202,"subject_id":"91632","group":"Group2","condition":"1_Rep","full_date":"2026-03-09T14:27:33.029Z","date":"2026-03-09","time":"14:27:33"},{"task":"memory_phase","broad_category":"I","image_png":"I_Pegmatite_11.png","image_id":107,"category_name":"Pegmatite","category":7,"distinct_rating":7.11,"distinct_type":"Top","rt":null,"stimulus":"Stimuli_Rocks480/I_Pegmatite_11.png","response":null,"trial_type":"image-keyboard-response","trial_index":14,"plugin_version":"2.1.0","time_elapsed":49718,"subject_id":"91632","group":"Group2","condition":"1_Rep","full_date":"2026-03-09T14:27:33.029Z","date":"2026-03-09","time":"14:27:33"},{"rt":null,"stimulus":"<p style=\"font-size: 50px; margin: 0; text-align: center;\">+</p>","response":null,"trial_type":"html-keyboard-response","trial_index":15,"plugin_version":"2.1.0","time_elapsed":50732,"subject_id":"91632","group":"Group2","condition":"1_Rep","full_date":"2026-03-09T14:27:33.029Z","date":"2026-03-09","time":"14:27:33"},{"task":"memory_phase","broad_category":"I","image_png":"I_Andesite_04.png","image_id":4,"category_name":"Andesite","category":1,"distinct_rating":3.18,"distinct_type":"Bottom","rt":null,"stimulus":"Stimuli_Rocks480/I_Andesite_04.png","response":null,"trial_type":"image-keyboard-response","trial_index":16,"plugin_version":"2.1.0","time_elapsed":53234,"subject_id":"91632","group":"Group2","condition":"1_Rep","full_date":"2026-03-09T14:27:33.029Z","date":"2026-03-09","time":"14:27:33"},{"rt":null,"stimulus":"<p style=\"font-size: 50px; margin: 0; text-align: center;\">+</p>","response":null,"trial_type":"html-keyboard-response","trial_index":17,"plugin_version":"2.1.0","time_elapsed":54237,"subject_id":"91632","group":"Group2","condition":"1_Rep","full_date":"2026-03-09T14:27:33.029Z","date":"2026-03-09","time":"14:27:33"},{"task":"memory_phase","broad_category":"S","image_png":"S_Shale_02.png","image_id":466,"category_name":"Shale","category":30,"distinct_rating":2.9,"distinct_type":"Bottom","rt":null,"stimulus":"Stimuli_Rocks480/S_Shale_02.png","response":null,"trial_type":"image-keyboard-response","trial_index":18,"plugin_version":"2.1.0","time_elapsed":56742,"subject_id":"91632","group":"Group2","condition":"1_Rep","full_date":"2026-03-09T14:27:33.029Z","date":"2026-03-09","time":"14:27:33"},{"rt":null,"stimulus":"<p style=\"font-size: 50px; margin: 0; text-align: center;\">+</p>","response":null,"trial_type":"html-keyboard-response","trial_index":19,"plugin_version":"2.1.0","time_elapsed":57747,"subject_id":"91632","group":"Group2","condition":"1_Rep","full_date":"2026-03-09T14:27:33.029Z","date":"2026-03-09","time":"14:27:33"},{"task":"memory_phase","broad_category":"I","image_png":"I_Diorite_01.png","image_id":33,"category_name":"Diorite","category":3,"distinct_rating":2.97,"distinct_type":"Bottom","rt":null,"stimulus":"Stimuli_Rocks480/I_Diorite_01.png","response":null,"trial_type":"image-keyboard-response","trial_index":20,"plugin_version":"2.1.0","time_elapsed":60263,"subject_id":"91632","group":"Group2","condition":"1_Rep","full_date":"2026-03-09T14:27:33.029Z","date":"2026-03-09","time":"14:27:33"},{"rt":null,"stimulus":"<p style=\"font-size: 50px; margin: 0; text-align: center;\">+</p>","response":null,"trial_type":"html-keyboard-response","trial_index":21,"plugin_version":"2.1.0","time_elapsed":61274,"subject_id":"91632","group":"Group2","condition":"1_Rep","full_date":"2026-03-09T14:27:33.029Z","date":"2026-03-09","time":"14:27:33"},{"task":"memory_phase","broad_category":"I","image_png":"I_Rhyolite_05.png","image_id":149,"category_name":"Rhyolite","category":10,"distinct_rating":3.02,"distinct_type":"Bottom","rt":null,"stimulus":"Stimuli_Rocks480/I_Rhyolite_05.png","response":null,"trial_type":"image-keyboard-response","trial_index":22,"plugin_version":"2.1.0","time_elapsed":63792,"subject_id":"91632","group":"Group2","condition":"1_Rep","full_date":"2026-03-09T14:27:33.029Z","date":"2026-03-09","time":"14:27:33"},{"rt":null,"stimulus":"<p style=\"font-size: 50px; margin: 0; text-align: center;\">+</p>","response":null,"trial_type":"html-keyboard-response","trial_index":23,"plugin_version":"2.1.0","time_elapsed":64801,"subject_id":"91632","group":"Group2","condition":"1_Rep","full_date":"2026-03-09T14:27:33.029Z","date":"2026-03-09","time":"14:27:33"},{"task":"memory_phase","broad_category":"M","image_png":"M_Marble_03.png","image_id":227,"category_name":"Marble","category":15,"distinct_rating":2.67,"distinct_type":"Bottom","rt":null,"stimulus":"Stimuli_Rocks480/M_Marble_03.png","response":null,"trial_type":"image-keyboard-response","trial_index":24,"plugin_version":"2.1.0","time_elapsed":67305,"subject_id":"91632","group":"Group2","condition":"1_Rep","full_date":"2026-03-09T14:27:33.029Z","date":"2026-03-09","time":"14:27:33"},{"rt":null,"stimulus":"<p style=\"font-size: 50px; margin: 0; text-align: center;\">+</p>","response":null,"trial_type":"html-keyboard-response","trial_index":25,"plugin_version":"2.1.0","time_elapsed":68307,"subject_id":"91632","group":"Group2","condition":"1_Rep","full_date":"2026-03-09T14:27:33.029Z","date":"2026-03-09","time":"14:27:33"},{"task":"memory_phase","broad_category":"M","image_png":"M_Slate_04.png","image_id":308,"category_name":"Slate","category":20,"distinct_rating":2.2,"distinct_type":"Bottom","rt":null,"stimulus":"Stimuli_Rocks480/M_Slate_04.png","response":null,"trial_type":"image-keyboard-response","trial_index":26,"plugin_version":"2.1.0","time_elapsed":70819,"subject_id":"91632","group":"Group2","condition":"1_Rep","full_date":"2026-03-09T14:27:33.029Z","date":"2026-03-09","time":"14:27:33"},{"rt":null,"stimulus":"<p style=\"font-size: 50px; margin: 0; text-align: center;\">+</p>","response":null,"trial_type":"html-keyboard-response","trial_index":27,"plugin_version":"2.1.0","time_elapsed":71825,"subject_id":"91632","group":"Group2","condition":"1_Rep","full_date":"2026-03-09T14:27:33.029Z","date":"2026-03-09","time":"14:27:33"},{"task":"memory_phase","broad_category":"M","image_png":"M_Quartzite_15.png","image_id":287,"category_name":"Quartzite","category":18,"distinct_rating":2.19,"distinct_type":"Bottom","rt":null,"stimulus":"Stimuli_Rocks480/M_Quartzite_15.png","response":null,"trial_type":"image-keyboard-response","trial_index":28,"plugin_version":"2.1.0","time_elapsed":74336,"subject_id":"91632","group":"Group2","condition":"1_Rep","full_date":"2026-03-09T14:27:33.029Z","date":"2026-03-09","time":"14:27:33"},{"rt":null,"stimulus":"<p style=\"font-size: 50px; margin: 0; text-align: center;\">+</p>","response":null,"trial_type":"html-keyboard-response","trial_index":29,"plugin_version":"2.1.0","time_elapsed":75353,"subject_id":"91632","group":"Group2","condition":"1_Rep","full_date":"2026-03-09T14:27:33.029Z","date":"2026-03-09","time":"14:27:33"},{"task":"memory_phase","broad_category":"I","image_png":"I_Pumice_14.png","image_id":142,"category_name":"Pumice","category":9,"distinct_rating":3.22,"distinct_type":"Bottom","rt":null,"stimulus":"Stimuli_Rocks480/I_Pumice_14.png","response":null,"trial_type":"image-keyboard-response","trial_index":30,"plugin_version":"2.1.0","time_elapsed":77857,"subject_id":"91632","group":"Group2","condition":"1_Rep","full_date":"2026-03-09T14:27:33.029Z","date":"2026-03-09","time":"14:27:33"},{"rt":null,"stimulus":"<p style=\"font-size: 50px; margin: 0; text-align: center;\">+</p>","response":null,"trial_type":"html-keyboard-response","trial_index":31,"plugin_version":"2.1.0","time_elapsed":78866,"subject_id":"91632","group":"Group2","condition":"1_Rep","full_date":"2026-03-09T14:27:33.029Z","date":"2026-03-09","time":"14:27:33"},{"task":"memory_phase","broad_category":"S","image_png":"S_Conglomerate_14.png","image_id":382,"category_name":"Conglomerate","category":24,"distinct_rating":6.86,"distinct_type":"Top","rt":null,"stimulus":"Stimuli_Rocks480/S_Conglomerate_14.png","response":null,"trial_type":"image-keyboard-response","trial_index":32,"plugin_version":"2.1.0","time_elapsed":81371,"subject_id":"91632","group":"Group2","condition":"1_Rep","full_date":"2026-03-09T14:27:33.029Z","date":"2026-03-09","time":"14:27:33"},{"rt":null,"stimulus":"<p style=\"font-size: 50px; margin: 0; text-align: center;\">+</p>","response":null,"trial_type":"html-keyboard-response","trial_index":33,"plugin_version":"2.1.0","time_elapsed":82379,"subject_id":"91632","group":"Group2","condition":"1_Rep","full_date":"2026-03-09T14:27:33.029Z","date":"2026-03-09","time":"14:27:33"},{"task":"memory_phase","broad_category":"M","image_png":"M_Phyllite_13.png","image_id":269,"category_name":"Phyllite","category":17,"distinct_rating":2.8,"distinct_type":"Bottom","rt":null,"stimulus":"Stimuli_Rocks480/M_Phyllite_13.png","response":null,"trial_type":"image-keyboard-response","trial_index":34,"plugin_version":"2.1.0","time_elapsed":84896,"subject_id":"91632","group":"Group2","condition":"1_Rep","full_date":"2026-03-09T14:27:33.029Z","date":"2026-03-09","time":"14:27:33"},{"rt":null,"stimulus":"<p style=\"font-size: 50px; margin: 0; text-align: center;\">+</p>","response":null,"trial_type":"html-keyboard-response","trial_index":35,"plugin_version":"2.1.0","time_elapsed":85904,"subject_id":"91632","group":"Group2","condition":"1_Rep","full_date":"2026-03-09T14:27:33.029Z","date":"2026-03-09","time":"14:27:33"},{"task":"memory_phase","broad_category":"M","image_png":"M_Gneiss_15.png","image_id":207,"category_name":"Gneiss","category":13,"distinct_rating":3.11,"distinct_type":"Bottom","rt":null,"stimulus":"Stimuli_Rocks480/M_Gneiss_15.png","response":null,"trial_type":"image-keyboard-response","trial_index":36,"plugin_version":"2.1.0","time_elapsed":88413,"subject_id":"91632","group":"Group2","condition":"1_Rep","full_date":"2026-03-09T14:27:33.029Z","date":"2026-03-09","time":"14:27:33"},{"rt":null,"stimulus":"<p style=\"font-size: 50px; margin: 0; text-align: center;\">+</p>","response":null,"trial_type":"html-keyboard-response","trial_index":37,"plugin_version":"2.1.0","time_elapsed":89421,"subject_id":"91632","group":"Group2","condition":"1_Rep","full_date":"2026-03-09T14:27:33.029Z","date":"2026-03-09","time":"14:27:33"},{"task":"memory_phase","broad_category":"I","image_png":"I_Obsidian_06.png","image_id":86,"category_name":"Obsidian","category":6,"distinct_rating":8.01,"distinct_type":"Top","rt":null,"stimulus":"Stimuli_Rocks480/I_Obsidian_06.png","response":null,"trial_type":"image-keyboard-response","trial_index":38,"plugin_version":"2.1.0","time_elapsed":91928,"subject_id":"91632","group":"Group2","condition":"1_Rep","full_date":"2026-03-09T14:27:33.029Z","date":"2026-03-09","time":"14:27:33"},{"rt":null,"stimulus":"<p style=\"font-size: 50px; margin: 0; text-align: center;\">+</p>","response":null,"trial_type":"html-keyboard-response","trial_index":39,"plugin_version":"2.1.0","time_elapsed":92943,"subject_id":"91632","group":"Group2","condition":"1_Rep","full_date":"2026-03-09T14:27:33.029Z","date":"2026-03-09","time":"14:27:33"},{"task":"memory_phase","broad_category":"S","image_png":"S_Shale_07.png","image_id":471,"category_name":"Shale","category":30,"distinct_rating":2.73,"distinct_type":"Bottom","rt":null,"stimulus":"Stimuli_Rocks480/S_Shale_07.png","response":null,"trial_type":"image-keyboard-response","trial_index":40,"plugin_version":"2.1.0","time_elapsed":95454,"subject_id":"91632","group":"Group2","condition":"1_Rep","full_date":"2026-03-09T14:27:33.029Z","date":"2026-03-09","time":"14:27:33"},{"rt":null,"stimulus":"<p style=\"font-size: 50px; margin: 0; text-align: center;\">+</p>","response":null,"trial_type":"html-keyboard-response","trial_index":41,"plugin_version":"2.1.0","time_elapsed":96466,"subject_id":"91632","group":"Group2","condition":"1_Rep","full_date":"2026-03-09T14:27:33.029Z","date":"2026-03-09","time":"14:27:33"},{"task":"memory_phase","broad_category":"I","image_png":"I_Basalt_08.png","image_id":24,"category_name":"Basalt","category":2,"distinct_rating":2.31,"distinct_type":"Bottom","rt":null,"stimulus":"Stimuli_Rocks480/I_Basalt_08.png","response":null,"trial_type":"image-keyboard-response","trial_index":42,"plugin_version":"2.1.0","time_elapsed":98974,"subject_id":"91632","group":"Group2","condition":"1_Rep","full_date":"2026-03-09T14:27:33.029Z","date":"2026-03-09","time":"14:27:33"},{"rt":null,"stimulus":"<p style=\"font-size: 50px; margin: 0; text-align: center;\">+</p>","response":null,"trial_type":"html-keyboard-response","trial_index":43,"plugin_version":"2.1.0","time_elapsed":99984,"subject_id":"91632","group":"Group2","condition":"1_Rep","full_date":"2026-03-09T14:27:33.029Z","date":"2026-03-09","time":"14:27:33"},{"task":"memory_phase","broad_category":"M","image_png":"M_Gneiss_14.png","image_id":206,"category_name":"Gneiss","category":13,"distinct_rating":3.41,"distinct_type":"Bottom","rt":null,"stimulus":"Stimuli_Rocks480/M_Gneiss_14.png","response":null,"trial_type":"image-keyboard-response","trial_index":44,"plugin_version":"2.1.0","time_elapsed":102486,"subject_id":"91632","group":"Group2","condition":"1_Rep","full_date":"2026-03-09T14:27:33.029Z","date":"2026-03-09","time":"14:27:33"},{"rt":null,"stimulus":"<p style=\"font-size: 50px; margin: 0; text-align: center;\">+</p>","response":null,"trial_type":"html-keyboard-response","trial_index":45,"plugin_version":"2.1.0","time_elapsed":103502,"subject_id":"91632","group":"Group2","condition":"1_Rep","full_date":"2026-03-09T14:27:33.029Z","date":"2026-03-09","time":"14:27:33"},{"task":"memory_phase","broad_category":"I","image_png":"I_Rhyolite_10.png","image_id":154,"category_name":"Rhyolite","category":10,"distinct_rating":2.88,"distinct_type":"Bottom","rt":null,"stimulus":"Stimuli_Rocks480/I_Rhyolite_10.png","response":null,"trial_type":"image-keyboard-response","trial_index":46,"plugin_version":"2.1.0","time_elapsed":106005,"subject_id":"91632","group":"Group2","condition":"1_Rep","full_date":"2026-03-09T14:27:33.029Z","date":"2026-03-09","time":"14:27:33"},{"rt":null,"stimulus":"<p style=\"font-size: 50px; margin: 0; text-align: center;\">+</p>","response":null,"trial_type":"html-keyboard-response","trial_index":47,"plugin_version":"2.1.0","time_elapsed":107018,"subject_id":"91632","group":"Group2","condition":"1_Rep","full_date":"2026-03-09T14:27:33.029Z","date":"2026-03-09","time":"14:27:33"},{"task":"memory_phase","broad_category":"I","image_png":"I_Rhyolite_08.png","image_id":152,"category_name":"Rhyolite","category":10,"distinct_rating":1.38,"distinct_type":"Bottom","rt":null,"stimulus":"Stimuli_Rocks480/I_Rhyolite_08.png","response":null,"trial_type":"image-keyboard-response","trial_index":48,"plugin_version":"2.1.0","time_elapsed":109531,"subject_id":"91632","group":"Group2","condition":"1_Rep","full_date":"2026-03-09T14:27:33.029Z","date":"2026-03-09","time":"14:27:33"},{"rt":null,"stimulus":"<p style=\"font-size: 50px; margin: 0; text-align: center;\">+</p>","response":null,"trial_type":"html-keyboard-response","trial_index":49,"plugin_version":"2.1.0","time_elapsed":110536,"subject_id":"91632","group":"Group2","condition":"1_Rep","full_date":"2026-03-09T14:27:33.029Z","date":"2026-03-09","time":"14:27:33"},{"task":"memory_phase","broad_category":"I","image_png":"I_Basalt_10.png","image_id":26,"category_name":"Basalt","category":2,"distinct_rating":2.76,"distinct_type":"Bottom","rt":null,"stimulus":"Stimuli_Rocks480/I_Basalt_10.png","response":null,"trial_type":"image-keyboard-response","trial_index":50,"plugin_version":"2.1.0","time_elapsed":113049,"subject_id":"91632","group":"Group2","condition":"1_Rep","full_date":"2026-03-09T14:27:33.029Z","date":"2026-03-09","time":"14:27:33"},{"rt":null,"stimulus":"<p style=\"font-size: 50px; margin: 0; text-align: center;\">+</p>","response":null,"trial_type":"html-keyboard-response","trial_index":51,"plugin_version":"2.1.0","time_elapsed":114055,"subject_id":"91632","group":"Group2","condition":"1_Rep","full_date":"2026-03-09T14:27:33.029Z","date":"2026-03-09","time":"14:27:33"},{"task":"memory_phase","broad_category":"I","image_png":"I_Diorite_10.png","image_id":42,"category_name":"Diorite","category":3,"distinct_rating":2.84,"distinct_type":"Bottom","rt":null,"stimulus":"Stimuli_Rocks480/I_Diorite_10.png","response":null,"trial_type":"image-keyboard-response","trial_index":52,"plugin_version":"2.1.0","time_elapsed":116559,"subject_id":"91632","group":"Group2","condition":"1_Rep","full_date":"2026-03-09T14:27:33.029Z","date":"2026-03-09","time":"14:27:33"},{"rt":null,"stimulus":"<p style=\"font-size: 50px; margin: 0; text-align: center;\">+</p>","response":null,"trial_type":"html-keyboard-response","trial_index":53,"plugin_version":"2.1.0","time_elapsed":117573,"subject_id":"91632","group":"Group2","condition":"1_Rep","full_date":"2026-03-09T14:27:33.029Z","date":"2026-03-09","time":"14:27:33"},{"task":"memory_phase","broad_category":"M","image_png":"M_Marble_14.png","image_id":238,"category_name":"Marble","category":15,"distinct_rating":3.31,"distinct_type":"Bottom","rt":null,"stimulus":"Stimuli_Rocks480/M_Marble_14.png","response":null,"trial_type":"image-keyboard-response","trial_index":54,"plugin_version":"2.1.0","time_elapsed":120077,"subject_id":"91632","group":"Group2","condition":"1_Rep","full_date":"2026-03-09T14:27:33.029Z","date":"2026-03-09","time":"14:27:33"},{"rt":1410,"stimulus":"<p style=\"max-width: 760px; margin: auto; font-size: 35px; line-height: 1.5;\">\n                Press SPACE to continue study phase\n              </p>","response":" ","trial_type":"html-keyboard-response","trial_index":55,"plugin_version":"2.1.0","time_elapsed":121488,"subject_id":"91632","group":"Group2","condition":"1_Rep","full_date":"2026-03-09T14:27:33.029Z","date":"2026-03-09","time":"14:27:33"},{"rt":null,"stimulus":"<p style=\"font-size: 50px; margin: 0; text-align: center;\">+</p>","response":null,"trial_type":"html-keyboard-response","trial_index":56,"plugin_version":"2.1.0","time_elapsed":122499,"subject_id":"91632","group":"Group2","condition":"1_Rep","full_date":"2026-03-09T14:27:33.029Z","date":"2026-03-09","time":"14:27:33"},{"task":"memory_phase","broad_category":"I","image_png":"I_Andesite_03.png","image_id":3,"category_name":"Andesite","category":1,"distinct_rating":3.17,"distinct_type":"Bottom","rt":null,"stimulus":"Stimuli_Rocks480/I_Andesite_03.png","response":null,"trial_type":"image-keyboard-response","trial_index":57,"plugin_version":"2.1.0","time_elapsed":125015,"subject_id":"91632","group":"Group2","condition":"1_Rep","full_date":"2026-03-09T14:27:33.029Z","date":"2026-03-09","time":"14:27:33"},{"rt":null,"stimulus":"<p style=\"font-size: 50px; margin: 0; text-align: center;\">+</p>","response":null,"trial_type":"html-keyboard-response","trial_index":58,"plugin_version":"2.1.0","time_elapsed":126019,"subject_id":"91632","group":"Group2","condition":"1_Rep","full_date":"2026-03-09T14:27:33.029Z","date":"2026-03-09","time":"14:27:33"},{"task":"memory_phase","broad_category":"S","image_png":"S_Sandstone_11.png","image_id":459,"category_name":"Sandstone","category":29,"distinct_rating":1.82,"distinct_type":"Bottom","rt":null,"stimulus":"Stimuli_Rocks480/S_Sandstone_11.png","response":null,"trial_type":"image-keyboard-response","trial_index":59,"plugin_version":"2.1.0","time_elapsed":128530,"subject_id":"91632","group":"Group2","condition":"1_Rep","full_date":"2026-03-09T14:27:33.029Z","date":"2026-03-09","time":"14:27:33"},{"rt":null,"stimulus":"<p style=\"font-size: 50px; margin: 0; text-align: center;\">+</p>","response":null,"trial_type":"html-keyboard-response","trial_index":60,"plugin_version":"2.1.0","time_elapsed":129547,"subject_id":"91632","group":"Group2","condition":"1_Rep","full_date":"2026-03-09T14:27:33.029Z","date":"2026-03-09","time":"14:27:33"},{"task":"memory_phase","broad_category":"I","image_png":"I_Andesite_09.png","image_id":9,"category_name":"Andesite","category":1,"distinct_rating":2.49,"distinct_type":"Bottom","rt":null,"stimulus":"Stimuli_Rocks480/I_Andesite_09.png","response":null,"trial_type":"image-keyboard-response","trial_index":61,"plugin_version":"2.1.0","time_elapsed":132061,"subject_id":"91632","group":"Group2","condition":"1_Rep","full_date":"2026-03-09T14:27:33.029Z","date":"2026-03-09","time":"14:27:33"},{"rt":null,"stimulus":"<p style=\"font-size: 50px; margin: 0; text-align: center;\">+</p>","response":null,"trial_type":"html-keyboard-response","trial_index":62,"plugin_version":"2.1.0","time_elapsed":133064,"subject_id":"91632","group":"Group2","condition":"1_Rep","full_date":"2026-03-09T14:27:33.029Z","date":"2026-03-09","time":"14:27:33"},{"task":"memory_phase","broad_category":"S","image_png":"S_Shale_03.png","image_id":467,"category_name":"Shale","category":30,"distinct_rating":1.95,"distinct_type":"Bottom","rt":null,"stimulus":"Stimuli_Rocks480/S_Shale_03.png","response":null,"trial_type":"image-keyboard-response","trial_index":63,"plugin_version":"2.1.0","time_elapsed":135570,"subject_id":"91632","group":"Group2","condition":"1_Rep","full_date":"2026-03-09T14:27:33.029Z","date":"2026-03-09","time":"14:27:33"},{"rt":null,"stimulus":"<p style=\"font-size: 50px; margin: 0; text-align: center;\">+</p>","response":null,"trial_type":"html-keyboard-response","trial_index":64,"plugin_version":"2.1.0","time_elapsed":136572,"subject_id":"91632","group":"Group2","condition":"1_Rep","full_date":"2026-03-09T14:27:33.029Z","date":"2026-03-09","time":"14:27:33"},{"task":"memory_phase","broad_category":"M","image_png":"M_Quartzite_07.png","image_id":279,"category_name":"Quartzite","category":18,"distinct_rating":1.97,"distinct_type":"Bottom","rt":null,"stimulus":"Stimuli_Rocks480/M_Quartzite_07.png","response":null,"trial_type":"image-keyboard-response","trial_index":65,"plugin_version":"2.1.0","time_elapsed":139089,"subject_id":"91632","group":"Group2","condition":"1_Rep","full_date":"2026-03-09T14:27:33.029Z","date":"2026-03-09","time":"14:27:33"},{"rt":null,"stimulus":"<p style=\"font-size: 50px; margin: 0; text-align: center;\">+</p>","response":null,"trial_type":"html-keyboard-response","trial_index":66,"plugin_version":"2.1.0","time_elapsed":140091,"subject_id":"91632","group":"Group2","condition":"1_Rep","full_date":"2026-03-09T14:27:33.029Z","date":"2026-03-09","time":"14:27:33"},{"task":"memory_phase","broad_category":"I","image_png":"I_Gabbro_14.png","image_id":62,"category_name":"Gabbro","category":4,"distinct_rating":2.95,"distinct_type":"Bottom","rt":null,"stimulus":"Stimuli_Rocks480/I_Gabbro_14.png","response":null,"trial_type":"image-keyboard-response","trial_index":67,"plugin_version":"2.1.0","time_elapsed":142594,"subject_id":"91632","group":"Group2","condition":"1_Rep","full_date":"2026-03-09T14:27:33.029Z","date":"2026-03-09","time":"14:27:33"},{"rt":null,"stimulus":"<p style=\"font-size: 50px; margin: 0; text-align: center;\">+</p>","response":null,"trial_type":"html-keyboard-response","trial_index":68,"plugin_version":"2.1.0","time_elapsed":143609,"subject_id":"91632","group":"Group2","condition":"1_Rep","full_date":"2026-03-09T14:27:33.029Z","date":"2026-03-09","time":"14:27:33"},{"task":"memory_phase","broad_category":"I","image_png":"I_Gabbro_12.png","image_id":60,"category_name":"Gabbro","category":4,"distinct_rating":2.6,"distinct_type":"Bottom","rt":null,"stimulus":"Stimuli_Rocks480/I_Gabbro_12.png","response":null,"trial_type":"image-keyboard-response","trial_index":69,"plugin_version":"2.1.0","time_elapsed":146117,"subject_id":"91632","group":"Group2","condition":"1_Rep","full_date":"2026-03-09T14:27:33.029Z","date":"2026-03-09","time":"14:27:33"},{"rt":null,"stimulus":"<p style=\"font-size: 50px; margin: 0; text-align: center;\">+</p>","response":null,"trial_type":"html-keyboard-response","trial_index":70,"plugin_version":"2.1.0","time_elapsed":147118,"subject_id":"91632","group":"Group2","condition":"1_Rep","full_date":"2026-03-09T14:27:33.029Z","date":"2026-03-09","time":"14:27:33"},{"task":"memory_phase","broad_category":"M","image_png":"M_Phyllite_02.png","image_id":258,"category_name":"Phyllite","category":17,"distinct_rating":2.89,"distinct_type":"Bottom","rt":null,"stimulus":"Stimuli_Rocks480/M_Phyllite_02.png","response":null,"trial_type":"image-keyboard-response","trial_index":71,"plugin_version":"2.1.0","time_elapsed":149621,"subject_id":"91632","group":"Group2","condition":"1_Rep","full_date":"2026-03-09T14:27:33.029Z","date":"2026-03-09","time":"14:27:33"},{"rt":null,"stimulus":"<p style=\"font-size: 50px; margin: 0; text-align: center;\">+</p>","response":null,"trial_type":"html-keyboard-response","trial_index":72,"plugin_version":"2.1.0","time_elapsed":150637,"subject_id":"91632","group":"Group2","condition":"1_Rep","full_date":"2026-03-09T14:27:33.029Z","date":"2026-03-09","time":"14:27:33"},{"task":"memory_phase","broad_category":"S","image_png":"S_Sandstone_08.png","image_id":456,"category_name":"Sandstone","category":29,"distinct_rating":1.5,"distinct_type":"Bottom","rt":null,"stimulus":"Stimuli_Rocks480/S_Sandstone_08.png","response":null,"trial_type":"image-keyboard-response","trial_index":73,"plugin_version":"2.1.0","time_elapsed":153149,"subject_id":"91632","group":"Group2","condition":"1_Rep","full_date":"2026-03-09T14:27:33.029Z","date":"2026-03-09","time":"14:27:33"},{"rt":null,"stimulus":"<p style=\"font-size: 50px; margin: 0; text-align: center;\">+</p>","response":null,"trial_type":"html-keyboard-response","trial_index":74,"plugin_version":"2.1.0","time_elapsed":154161,"subject_id":"91632","group":"Group2","condition":"1_Rep","full_date":"2026-03-09T14:27:33.029Z","date":"2026-03-09","time":"14:27:33"},{"task":"memory_phase","broad_category":"I","image_png":"I_Pumice_13.png","image_id":141,"category_name":"Pumice","category":9,"distinct_rating":3.12,"distinct_type":"Bottom","rt":null,"stimulus":"Stimuli_Rocks480/I_Pumice_13.png","response":null,"trial_type":"image-keyboard-response","trial_index":75,"plugin_version":"2.1.0","time_elapsed":156667,"subject_id":"91632","group":"Group2","condition":"1_Rep","full_date":"2026-03-09T14:27:33.029Z","date":"2026-03-09","time":"14:27:33"},{"rt":null,"stimulus":"<p style=\"font-size: 50px; margin: 0; text-align: center;\">+</p>","response":null,"trial_type":"html-keyboard-response","trial_index":76,"plugin_version":"2.1.0","time_elapsed":157683,"subject_id":"91632","group":"Group2","condition":"1_Rep","full_date":"2026-03-09T14:27:33.029Z","date":"2026-03-09","time":"14:27:33"},{"task":"memory_phase","broad_category":"S","image_png":"S_Dolomite_16.png","image_id":400,"category_name":"Dolomite","category":25,"distinct_rating":1.71,"distinct_type":"Bottom","rt":null,"stimulus":"Stimuli_Rocks480/S_Dolomite_16.png","response":null,"trial_type":"image-keyboard-response","trial_index":77,"plugin_version":"2.1.0","time_elapsed":160194,"subject_id":"91632","group":"Group2","condition":"1_Rep","full_date":"2026-03-09T14:27:33.029Z","date":"2026-03-09","time":"14:27:33"},{"rt":null,"stimulus":"<p style=\"font-size: 50px; margin: 0; text-align: center;\">+</p>","response":null,"trial_type":"html-keyboard-response","trial_index":78,"plugin_version":"2.1.0","time_elapsed":161208,"subject_id":"91632","group":"Group2","condition":"1_Rep","full_date":"2026-03-09T14:27:33.029Z","date":"2026-03-09","time":"14:27:33"},{"task":"memory_phase","broad_category":"I","image_png":"I_Basalt_13.png","image_id":29,"category_name":"Basalt","category":2,"distinct_rating":2.68,"distinct_type":"Bottom","rt":null,"stimulus":"Stimuli_Rocks480/I_Basalt_13.png","response":null,"trial_type":"image-keyboard-response","trial_index":79,"plugin_version":"2.1.0","time_elapsed":163713,"subject_id":"91632","group":"Group2","condition":"1_Rep","full_date":"2026-03-09T14:27:33.029Z","date":"2026-03-09","time":"14:27:33"},{"rt":null,"stimulus":"<p style=\"font-size: 50px; margin: 0; text-align: center;\">+</p>","response":null,"trial_type":"html-keyboard-response","trial_index":80,"plugin_version":"2.1.0","time_elapsed":164725,"subject_id":"91632","group":"Group2","condition":"1_Rep","full_date":"2026-03-09T14:27:33.029Z","date":"2026-03-09","time":"14:27:33"},{"task":"memory_phase","broad_category":"S","image_png":"S_Dolomite_01.png","image_id":385,"category_name":"Dolomite","category":25,"distinct_rating":1.43,"distinct_type":"Bottom","rt":null,"stimulus":"Stimuli_Rocks480/S_Dolomite_01.png","response":null,"trial_type":"image-keyboard-response","trial_index":81,"plugin_version":"2.1.0","time_elapsed":167236,"subject_id":"91632","group":"Group2","condition":"1_Rep","full_date":"2026-03-09T14:27:33.029Z","date":"2026-03-09","time":"14:27:33"},{"rt":null,"stimulus":"<p style=\"font-size: 50px; margin: 0; text-align: center;\">+</p>","response":null,"trial_type":"html-keyboard-response","trial_index":82,"plugin_version":"2.1.0","time_elapsed":168238,"subject_id":"91632","group":"Group2","condition":"1_Rep","full_date":"2026-03-09T14:27:33.029Z","date":"2026-03-09","time":"14:27:33"},{"task":"memory_phase","broad_category":"I","image_png":"I_Peridotite_13.png","image_id":125,"category_name":"Peridotite","category":8,"distinct_rating":7.28,"distinct_type":"Top","rt":null,"stimulus":"Stimuli_Rocks480/I_Peridotite_13.png","response":null,"trial_type":"image-keyboard-response","trial_index":83,"plugin_version":"2.1.0","time_elapsed":170752,"subject_id":"91632","group":"Group2","condition":"1_Rep","full_date":"2026-03-09T14:27:33.029Z","date":"2026-03-09","time":"14:27:33"},{"rt":null,"stimulus":"<p style=\"font-size: 50px; margin: 0; text-align: center;\">+</p>","response":null,"trial_type":"html-keyboard-response","trial_index":84,"plugin_version":"2.1.0","time_elapsed":171760,"subject_id":"91632","group":"Group2","condition":"1_Rep","full_date":"2026-03-09T14:27:33.029Z","date":"2026-03-09","time":"14:27:33"},{"task":"memory_phase","broad_category":"S","image_png":"S_Rock Salt_15.png","image_id":447,"category_name":"Rock Salt","category":28,"distinct_rating":7.79,"distinct_type":"Top","rt":null,"stimulus":"Stimuli_Rocks480/S_Rock Salt_15.png","response":null,"trial_type":"image-keyboard-response","trial_index":85,"plugin_version":"2.1.0","time_elapsed":174271,"subject_id":"91632","group":"Group2","condition":"1_Rep","full_date":"2026-03-09T14:27:33.029Z","date":"2026-03-09","time":"14:27:33"},{"rt":null,"stimulus":"<p style=\"font-size: 50px; margin: 0; text-align: center;\">+</p>","response":null,"trial_type":"html-keyboard-response","trial_index":86,"plugin_version":"2.1.0","time_elapsed":175274,"subject_id":"91632","group":"Group2","condition":"1_Rep","full_date":"2026-03-09T14:27:33.029Z","date":"2026-03-09","time":"14:27:33"},{"task":"memory_phase","broad_category":"S","image_png":"S_Dolomite_07.png","image_id":391,"category_name":"Dolomite","category":25,"distinct_rating":1.73,"distinct_type":"Bottom","rt":null,"stimulus":"Stimuli_Rocks480/S_Dolomite_07.png","response":null,"trial_type":"image-keyboard-response","trial_index":87,"plugin_version":"2.1.0","time_elapsed":177786,"subject_id":"91632","group":"Group2","condition":"1_Rep","full_date":"2026-03-09T14:27:33.029Z","date":"2026-03-09","time":"14:27:33"},{"rt":null,"stimulus":"<p style=\"font-size: 50px; margin: 0; text-align: center;\">+</p>","response":null,"trial_type":"html-keyboard-response","trial_index":88,"plugin_version":"2.1.0","time_elapsed":178789,"subject_id":"91632","group":"Group2","condition":"1_Rep","full_date":"2026-03-09T14:27:33.029Z","date":"2026-03-09","time":"14:27:33"},{"task":"memory_phase","broad_category":"M","image_png":"M_Gneiss_10.png","image_id":202,"category_name":"Gneiss","category":13,"distinct_rating":3.09,"distinct_type":"Bottom","rt":null,"stimulus":"Stimuli_Rocks480/M_Gneiss_10.png","response":null,"trial_type":"image-keyboard-response","trial_index":89,"plugin_version":"2.1.0","time_elapsed":181293,"subject_id":"91632","group":"Group2","condition":"1_Rep","full_date":"2026-03-09T14:27:33.029Z","date":"2026-03-09","time":"14:27:33"},{"rt":null,"stimulus":"<p style=\"font-size: 50px; margin: 0; text-align: center;\">+</p>","response":null,"trial_type":"html-keyboard-response","trial_index":90,"plugin_version":"2.1.0","time_elapsed":182307,"subject_id":"91632","group":"Group2","condition":"1_Rep","full_date":"2026-03-09T14:27:33.029Z","date":"2026-03-09","time":"14:27:33"},{"task":"memory_phase","broad_category":"S","image_png":"S_Chert_13.png","image_id":365,"category_name":"Chert","category":23,"distinct_rating":6.57,"distinct_type":"Top","rt":null,"stimulus":"Stimuli_Rocks480/S_Chert_13.png","response":null,"trial_type":"image-keyboard-response","trial_index":91,"plugin_version":"2.1.0","time_elapsed":184823,"subject_id":"91632","group":"Group2","condition":"1_Rep","full_date":"2026-03-09T14:27:33.029Z","date":"2026-03-09","time":"14:27:33"},{"rt":null,"stimulus":"<p style=\"font-size: 50px; margin: 0; text-align: center;\">+</p>","response":null,"trial_type":"html-keyboard-response","trial_index":92,"plugin_version":"2.1.0","time_elapsed":185832,"subject_id":"91632","group":"Group2","condition":"1_Rep","full_date":"2026-03-09T14:27:33.029Z","date":"2026-03-09","time":"14:27:33"},{"task":"memory_phase","broad_category":"M","image_png":"M_Quartzite_12.png","image_id":284,"category_name":"Quartzite","category":18,"distinct_rating":1.92,"distinct_type":"Bottom","rt":null,"stimulus":"Stimuli_Rocks480/M_Quartzite_12.png","response":null,"trial_type":"image-keyboard-response","trial_index":93,"plugin_version":"2.1.0","time_elapsed":188334,"subject_id":"91632","group":"Group2","condition":"1_Rep","full_date":"2026-03-09T14:27:33.029Z","date":"2026-03-09","time":"14:27:33"},{"rt":null,"stimulus":"<p style=\"font-size: 50px; margin: 0; text-align: center;\">+</p>","response":null,"trial_type":"html-keyboard-response","trial_index":94,"plugin_version":"2.1.0","time_elapsed":189351,"subject_id":"91632","group":"Group2","condition":"1_Rep","full_date":"2026-03-09T14:27:33.029Z","date":"2026-03-09","time":"14:27:33"},{"task":"memory_phase","broad_category":"M","image_png":"M_Phyllite_05.png","image_id":261,"category_name":"Phyllite","category":17,"distinct_rating":2.14,"distinct_type":"Bottom","rt":null,"stimulus":"Stimuli_Rocks480/M_Phyllite_05.png","response":null,"trial_type":"image-keyboard-response","trial_index":95,"plugin_version":"2.1.0","time_elapsed":191860,"subject_id":"91632","group":"Group2","condition":"1_Rep","full_date":"2026-03-09T14:27:33.029Z","date":"2026-03-09","time":"14:27:33"},{"rt":null,"stimulus":"<p style=\"font-size: 50px; margin: 0; text-align: center;\">+</p>","response":null,"trial_type":"html-keyboard-response","trial_index":96,"plugin_version":"2.1.0","time_elapsed":192876,"subject_id":"91632","group":"Group2","condition":"1_Rep","full_date":"2026-03-09T14:27:33.029Z","date":"2026-03-09","time":"14:27:33"},{"task":"memory_phase","broad_category":"I","image_png":"I_Diorite_15.png","image_id":47,"category_name":"Diorite","category":3,"distinct_rating":3.05,"distinct_type":"Bottom","rt":null,"stimulus":"Stimuli_Rocks480/I_Diorite_15.png","response":null,"trial_type":"image-keyboard-response","trial_index":97,"plugin_version":"2.1.0","time_elapsed":195383,"subject_id":"91632","group":"Group2","condition":"1_Rep","full_date":"2026-03-09T14:27:33.029Z","date":"2026-03-09","time":"14:27:33"},{"rt":null,"stimulus":"<p style=\"font-size: 50px; margin: 0; text-align: center;\">+</p>","response":null,"trial_type":"html-keyboard-response","trial_index":98,"plugin_version":"2.1.0","time_elapsed":196393,"subject_id":"91632","group":"Group2","condition":"1_Rep","full_date":"2026-03-09T14:27:33.029Z","date":"2026-03-09","time":"14:27:33"},{"task":"memory_phase","broad_category":"S","image_png":"S_Sandstone_04.png","image_id":452,"category_name":"Sandstone","category":29,"distinct_rating":1.8,"distinct_type":"Bottom","rt":null,"stimulus":"Stimuli_Rocks480/S_Sandstone_04.png","response":null,"trial_type":"image-keyboard-response","trial_index":99,"plugin_version":"2.1.0","time_elapsed":198896,"subject_id":"91632","group":"Group2","condition":"1_Rep","full_date":"2026-03-09T14:27:33.029Z","date":"2026-03-09","time":"14:27:33"},{"rt":null,"stimulus":"<p style=\"font-size: 50px; margin: 0; text-align: center;\">+</p>","response":null,"trial_type":"html-keyboard-response","trial_index":100,"plugin_version":"2.1.0","time_elapsed":199911,"subject_id":"91632","group":"Group2","condition":"1_Rep","full_date":"2026-03-09T14:27:33.029Z","date":"2026-03-09","time":"14:27:33"},{"task":"memory_phase","broad_category":"M","image_png":"M_Slate_10.png","image_id":314,"category_name":"Slate","category":20,"distinct_rating":1.94,"distinct_type":"Bottom","rt":null,"stimulus":"Stimuli_Rocks480/M_Slate_10.png","response":null,"trial_type":"image-keyboard-response","trial_index":101,"plugin_version":"2.1.0","time_elapsed":202427,"subject_id":"91632","group":"Group2","condition":"1_Rep","full_date":"2026-03-09T14:27:33.029Z","date":"2026-03-09","time":"14:27:33"},{"rt":null,"stimulus":"<p style=\"font-size: 50px; margin: 0; text-align: center;\">+</p>","response":null,"trial_type":"html-keyboard-response","trial_index":102,"plugin_version":"2.1.0","time_elapsed":203443,"subject_id":"91632","group":"Group2","condition":"1_Rep","full_date":"2026-03-09T14:27:33.029Z","date":"2026-03-09","time":"14:27:33"},{"task":"memory_phase","broad_category":"S","image_png":"S_Rock Salt_13.png","image_id":445,"category_name":"Rock Salt","category":28,"distinct_rating":7.58,"distinct_type":"Top","rt":null,"stimulus":"Stimuli_Rocks480/S_Rock Salt_13.png","response":null,"trial_type":"image-keyboard-response","trial_index":103,"plugin_version":"2.1.0","time_elapsed":205959,"subject_id":"91632","group":"Group2","condition":"1_Rep","full_date":"2026-03-09T14:27:33.029Z","date":"2026-03-09","time":"14:27:33"},{"rt":null,"stimulus":"<p style=\"font-size: 50px; margin: 0; text-align: center;\">+</p>","response":null,"trial_type":"html-keyboard-response","trial_index":104,"plugin_version":"2.1.0","time_elapsed":206976,"subject_id":"91632","group":"Group2","condition":"1_Rep","full_date":"2026-03-09T14:27:33.029Z","date":"2026-03-09","time":"14:27:33"},{"task":"memory_phase","broad_category":"I","image_png":"I_Gabbro_02.png","image_id":50,"category_name":"Gabbro","category":4,"distinct_rating":2.73,"distinct_type":"Bottom","rt":null,"stimulus":"Stimuli_Rocks480/I_Gabbro_02.png","response":null,"trial_type":"image-keyboard-response","trial_index":105,"plugin_version":"2.1.0","time_elapsed":209485,"subject_id":"91632","group":"Group2","condition":"1_Rep","full_date":"2026-03-09T14:27:33.029Z","date":"2026-03-09","time":"14:27:33"},{"rt":34223,"stimulus":"<div style=\"max-width: 760px; margin: auto; font-size: 20px; line-height: 1.5;\">\n      <h1 style=\"text-align:center; font-size: 30px;\">Instructions for the Test Phase</h1>\n      <p>\n        The study phase is now complete.\n      </p>\n      <p>\n        In the test phase, you will again see a series of rock images. \n        Some will be ones you saw before - during the study phase, while others will be new.  \n        <b>Your task</b> is to decide whether you have seen each image before by pressing the corresponding key on your keyboard:<br><br>\n          <b>A</b> - NO (you did not see this image before)<br>\n          <b>L</b> - YES (you saw this image before)<br><br>\n        The test will proceed at your own pace. You will receive feedback after each response.  \n        Please try to respond <b>as accurately as possible</b>.\n      </p>\n      <p>\n        <b>Reminder:</b> If your computer has multiple language settings (e.g., English and another language),\n        please ensure it is set to English during the test phase.\n      </p>\n      <p>\n        You can track your progress using the <b>completion bar</b> at the top of the screen.  \n        Note that it has been refreshed to reflect your progress during this final phase.\n      </p>\n      <p>\n        Press the button below when you are ready to continue.\n      </p>\n    </div>","response":0,"trial_type":"html-button-response","trial_index":106,"plugin_version":"2.1.0","time_elapsed":243710,"subject_id":"91632","group":"Group2","condition":"1_Rep","full_date":"2026-03-09T14:27:33.029Z","date":"2026-03-09","time":"14:27:33"},{"correct_response":"a","task":"test_phase","broad_category":"S","image_png":"S_Shale_12.png","image_id":476,"category_name":"Shale","category":30,"distinct_rating":2.48,"distinct_type":"Bottom","item_type":"Foil","rt":1376,"stimulus":"Stimuli_Rocks480/S_Shale_12.png","response":"l","trial_type":"image-keyboard-response","trial_index":107,"plugin_version":"2.1.0","time_elapsed":245089,"subject_id":"91632","group":"Group2","condition":"1_Rep","full_date":"2026-03-09T14:27:33.029Z","date":"2026-03-09","time":"14:27:33","cor_ans":false},{"trial_type":"html-keyboard-response","rt":null,"stimulus":"<p style=\"color: red; font-size: 50px; font-weight: bold;\">Incorrect</p>","response":null,"trial_index":108,"plugin_version":"2.1.0","time_elapsed":245591,"subject_id":"91632","group":"Group2","condition":"1_Rep","full_date":"2026-03-09T14:27:33.029Z","date":"2026-03-09","time":"14:27:33"},{"correct_response":"a","task":"test_phase","broad_category":"I","image_png":"I_Obsidian_05.png","image_id":85,"category_name":"Obsidian","category":6,"distinct_rating":7.32,"distinct_type":"Top","item_type":"Foil","rt":910,"stimulus":"Stimuli_Rocks480/I_Obsidian_05.png","response":"l","trial_type":"image-keyboard-response","trial_index":109,"plugin_version":"2.1.0","time_elapsed":246503,"subject_id":"91632","group":"Group2","condition":"1_Rep","full_date":"2026-03-09T14:27:33.029Z","date":"2026-03-09","time":"14:27:33","cor_ans":false},{"trial_type":"html-keyboard-response","rt":null,"stimulus":"<p style=\"color: red; font-size: 50px; font-weight: bold;\">Incorrect</p>","response":null,"trial_index":110,"plugin_version":"2.1.0","time_elapsed":247016,"subject_id":"91632","group":"Group2","condition":"1_Rep","full_date":"2026-03-09T14:27:33.029Z","date":"2026-03-09","time":"14:27:33"},{"correct_response":"l","task":"test_phase","broad_category":"I","image_png":"I_Diorite_01.png","image_id":33,"category_name":"Diorite","category":3,"distinct_rating":2.97,"distinct_type":"Bottom","item_type":"Target","rt":670,"stimulus":"Stimuli_Rocks480/I_Diorite_01.png","response":"l","trial_type":"image-keyboard-response","trial_index":111,"plugin_version":"2.1.0","time_elapsed":247687,"subject_id":"91632","group":"Group2","condition":"1_Rep","full_date":"2026-03-09T14:27:33.029Z","date":"2026-03-09","time":"14:27:33","cor_ans":true},{"trial_type":"html-keyboard-response","rt":null,"stimulus":"<p style=\"color: green; font-size: 50px; font-weight: bold;\">Correct</p>","response":null,"trial_index":112,"plugin_version":"2.1.0","time_elapsed":248189,"subject_id":"91632","group":"Group2","condition":"1_Rep","full_date":"2026-03-09T14:27:33.029Z","date":"2026-03-09","time":"14:27:33"},{"correct_response":"l","task":"test_phase","broad_category":"S","image_png":"S_Shale_07.png","image_id":471,"category_name":"Shale","category":30,"distinct_rating":2.73,"distinct_type":"Bottom","item_type":"Target","rt":812,"stimulus":"Stimuli_Rocks480/S_Shale_07.png","response":"l","trial_type":"image-keyboard-response","trial_index":113,"plugin_version":"2.1.0","time_elapsed":249002,"subject_id":"91632","group":"Group2","condition":"1_Rep","full_date":"2026-03-09T14:27:33.029Z","date":"2026-03-09","time":"14:27:33","cor_ans":true},{"trial_type":"html-keyboard-response","rt":null,"stimulus":"<p style=\"color: green; font-size: 50px; font-weight: bold;\">Correct</p>","response":null,"trial_index":114,"plugin_version":"2.1.0","time_elapsed":249517,"subject_id":"91632","group":"Group2","condition":"1_Rep","full_date":"2026-03-09T14:27:33.029Z","date":"2026-03-09","time":"14:27:33"},{"correct_response":"l","task":"test_phase","broad_category":"M","image_png":"M_Marble_14.png","image_id":238,"category_name":"Marble","category":15,"distinct_rating":3.31,"distinct_type":"Bottom","item_type":"Target","rt":920,"stimulus":"Stimuli_Rocks480/M_Marble_14.png","response":"l","trial_type":"image-keyboard-response","trial_index":115,"plugin_version":"2.1.0","time_elapsed":250438,"subject_id":"91632","group":"Group2","condition":"1_Rep","full_date":"2026-03-09T14:27:33.029Z","date":"2026-03-09","time":"14:27:33","cor_ans":true},{"trial_type":"html-keyboard-response","rt":null,"stimulus":"<p style=\"color: green; font-size: 50px; font-weight: bold;\">Correct</p>","response":null,"trial_index":116,"plugin_version":"2.1.0","time_elapsed":250940,"subject_id":"91632","group":"Group2","condition":"1_Rep","full_date":"2026-03-09T14:27:33.029Z","date":"2026-03-09","time":"14:27:33"},{"correct_response":"l","task":"test_phase","broad_category":"M","image_png":"M_Quartzite_12.png","image_id":284,"category_name":"Quartzite","category":18,"distinct_rating":1.92,"distinct_type":"Bottom","item_type":"Target","rt":792,"stimulus":"Stimuli_Rocks480/M_Quartzite_12.png","response":"l","trial_type":"image-keyboard-response","trial_index":117,"plugin_version":"2.1.0","time_elapsed":251733,"subject_id":"91632","group":"Group2","condition":"1_Rep","full_date":"2026-03-09T14:27:33.029Z","date":"2026-03-09","time":"14:27:33","cor_ans":true},{"trial_type":"html-keyboard-response","rt":null,"stimulus":"<p style=\"color: green; font-size: 50px; font-weight: bold;\">Correct</p>","response":null,"trial_index":118,"plugin_version":"2.1.0","time_elapsed":252249,"subject_id":"91632","group":"Group2","condition":"1_Rep","full_date":"2026-03-09T14:27:33.029Z","date":"2026-03-09","time":"14:27:33"},{"correct_response":"a","task":"test_phase","broad_category":"M","image_png":"M_Phyllite_07.png","image_id":263,"category_name":"Phyllite","category":17,"distinct_rating":2.59,"distinct_type":"Bottom","item_type":"Foil","rt":759,"stimulus":"Stimuli_Rocks480/M_Phyllite_07.png","response":"l","trial_type":"image-keyboard-response","trial_index":119,"plugin_version":"2.1.0","time_elapsed":253009,"subject_id":"91632","group":"Group2","condition":"1_Rep","full_date":"2026-03-09T14:27:33.029Z","date":"2026-03-09","time":"14:27:33","cor_ans":false},{"trial_type":"html-keyboard-response","rt":null,"stimulus":"<p style=\"color: red; font-size: 50px; font-weight: bold;\">Incorrect</p>","response":null,"trial_index":120,"plugin_version":"2.1.0","time_elapsed":253517,"subject_id":"91632","group":"Group2","condition":"1_Rep","full_date":"2026-03-09T14:27:33.029Z","date":"2026-03-09","time":"14:27:33"},{"correct_response":"l","task":"test_phase","broad_category":"M","image_png":"M_Phyllite_13.png","image_id":269,"category_name":"Phyllite","category":17,"distinct_rating":2.8,"distinct_type":"Bottom","item_type":"Target","rt":762,"stimulus":"Stimuli_Rocks480/M_Phyllite_13.png","response":"l","trial_type":"image-keyboard-response","trial_index":121,"plugin_version":"2.1.0","time_elapsed":254281,"subject_id":"91632","group":"Group2","condition":"1_Rep","full_date":"2026-03-09T14:27:33.029Z","date":"2026-03-09","time":"14:27:33","cor_ans":true},{"trial_type":"html-keyboard-response","rt":null,"stimulus":"<p style=\"color: green; font-size: 50px; font-weight: bold;\">Correct</p>","response":null,"trial_index":122,"plugin_version":"2.1.0","time_elapsed":254796,"subject_id":"91632","group":"Group2","condition":"1_Rep","full_date":"2026-03-09T14:27:33.029Z","date":"2026-03-09","time":"14:27:33"},{"correct_response":"a","task":"test_phase","broad_category":"I","image_png":"I_Rhyolite_16.png","image_id":160,"category_name":"Rhyolite","category":10,"distinct_rating":2.19,"distinct_type":"Bottom","item_type":"Foil","rt":652,"stimulus":"Stimuli_Rocks480/I_Rhyolite_16.png","response":"a","trial_type":"image-keyboard-response","trial_index":123,"plugin_version":"2.1.0","time_elapsed":255450,"subject_id":"91632","group":"Group2","condition":"1_Rep","full_date":"2026-03-09T14:27:33.029Z","date":"2026-03-09","time":"14:27:33","cor_ans":true},{"trial_type":"html-keyboard-response","rt":null,"stimulus":"<p style=\"color: green; font-size: 50px; font-weight: bold;\">Correct</p>","response":null,"trial_index":124,"plugin_version":"2.1.0","time_elapsed":255957,"subject_id":"91632","group":"Group2","condition":"1_Rep","full_date":"2026-03-09T14:27:33.029Z","date":"2026-03-09","time":"14:27:33"},{"correct_response":"a","task":"test_phase","broad_category":"I","image_png":"I_Gabbro_16.png","image_id":64,"category_name":"Gabbro","category":4,"distinct_rating":2.52,"distinct_type":"Bottom","item_type":"Foil","rt":1937,"stimulus":"Stimuli_Rocks480/I_Gabbro_16.png","response":"a","trial_type":"image-keyboard-response","trial_index":125,"plugin_version":"2.1.0","time_elapsed":257895,"subject_id":"91632","group":"Group2","condition":"1_Rep","full_date":"2026-03-09T14:27:33.029Z","date":"2026-03-09","time":"14:27:33","cor_ans":true},{"trial_type":"html-keyboard-response","rt":null,"stimulus":"<p style=\"color: green; font-size: 50px; font-weight: bold;\">Correct</p>","response":null,"trial_index":126,"plugin_version":"2.1.0","time_elapsed":258406,"subject_id":"91632","group":"Group2","condition":"1_Rep","full_date":"2026-03-09T14:27:33.029Z","date":"2026-03-09","time":"14:27:33"},{"correct_response":"a","task":"test_phase","broad_category":"I","image_png":"I_Andesite_08.png","image_id":8,"category_name":"Andesite","category":1,"distinct_rating":1.95,"distinct_type":"Bottom","item_type":"Foil","rt":633,"stimulus":"Stimuli_Rocks480/I_Andesite_08.png","response":"l","trial_type":"image-keyboard-response","trial_index":127,"plugin_version":"2.1.0","time_elapsed":259041,"subject_id":"91632","group":"Group2","condition":"1_Rep","full_date":"2026-03-09T14:27:33.029Z","date":"2026-03-09","time":"14:27:33","cor_ans":false},{"trial_type":"html-keyboard-response","rt":null,"stimulus":"<p style=\"color: red; font-size: 50px; font-weight: bold;\">Incorrect</p>","response":null,"trial_index":128,"plugin_version":"2.1.0","time_elapsed":259550,"subject_id":"91632","group":"Group2","condition":"1_Rep","full_date":"2026-03-09T14:27:33.029Z","date":"2026-03-09","time":"14:27:33"},{"correct_response":"a","task":"test_phase","broad_category":"M","image_png":"M_Phyllite_03.png","image_id":259,"category_name":"Phyllite","category":17,"distinct_rating":2.5,"distinct_type":"Bottom","item_type":"Foil","rt":411,"stimulus":"Stimuli_Rocks480/M_Phyllite_03.png","response":"l","trial_type":"image-keyboard-response","trial_index":129,"plugin_version":"2.1.0","time_elapsed":259962,"subject_id":"91632","group":"Group2","condition":"1_Rep","full_date":"2026-03-09T14:27:33.029Z","date":"2026-03-09","time":"14:27:33","cor_ans":false},{"trial_type":"html-keyboard-response","rt":null,"stimulus":"<p style=\"color: red; font-size: 50px; font-weight: bold;\">Incorrect</p>","response":null,"trial_index":130,"plugin_version":"2.1.0","time_elapsed":260477,"subject_id":"91632","group":"Group2","condition":"1_Rep","full_date":"2026-03-09T14:27:33.029Z","date":"2026-03-09","time":"14:27:33"},{"correct_response":"a","task":"test_phase","broad_category":"I","image_png":"I_Rhyolite_11.png","image_id":155,"category_name":"Rhyolite","category":10,"distinct_rating":1.73,"distinct_type":"Bottom","item_type":"Foil","rt":509,"stimulus":"Stimuli_Rocks480/I_Rhyolite_11.png","response":"l","trial_type":"image-keyboard-response","trial_index":131,"plugin_version":"2.1.0","time_elapsed":260987,"subject_id":"91632","group":"Group2","condition":"1_Rep","full_date":"2026-03-09T14:27:33.029Z","date":"2026-03-09","time":"14:27:33","cor_ans":false},{"trial_type":"html-keyboard-response","rt":null,"stimulus":"<p style=\"color: red; font-size: 50px; font-weight: bold;\">Incorrect</p>","response":null,"trial_index":132,"plugin_version":"2.1.0","time_elapsed":261495,"subject_id":"91632","group":"Group2","condition":"1_Rep","full_date":"2026-03-09T14:27:33.029Z","date":"2026-03-09","time":"14:27:33"},{"correct_response":"a","task":"test_phase","broad_category":"I","image_png":"I_Diorite_05.png","image_id":37,"category_name":"Diorite","category":3,"distinct_rating":3.08,"distinct_type":"Bottom","item_type":"Foil","rt":306,"stimulus":"Stimuli_Rocks480/I_Diorite_05.png","response":"a","trial_type":"image-keyboard-response","trial_index":133,"plugin_version":"2.1.0","time_elapsed":261802,"subject_id":"91632","group":"Group2","condition":"1_Rep","full_date":"2026-03-09T14:27:33.029Z","date":"2026-03-09","time":"14:27:33","cor_ans":true},{"trial_type":"html-keyboard-response","rt":null,"stimulus":"<p style=\"color: green; font-size: 50px; font-weight: bold;\">Correct</p>","response":null,"trial_index":134,"plugin_version":"2.1.0","time_elapsed":262310,"subject_id":"91632","group":"Group2","condition":"1_Rep","full_date":"2026-03-09T14:27:33.029Z","date":"2026-03-09","time":"14:27:33"},{"correct_response":"l","task":"test_phase","broad_category":"I","image_png":"I_Andesite_09.png","image_id":9,"category_name":"Andesite","category":1,"distinct_rating":2.49,"distinct_type":"Bottom","item_type":"Target","rt":867,"stimulus":"Stimuli_Rocks480/I_Andesite_09.png","response":"a","trial_type":"image-keyboard-response","trial_index":135,"plugin_version":"2.1.0","time_elapsed":263178,"subject_id":"91632","group":"Group2","condition":"1_Rep","full_date":"2026-03-09T14:27:33.029Z","date":"2026-03-09","time":"14:27:33","cor_ans":false},{"trial_type":"html-keyboard-response","rt":null,"stimulus":"<p style=\"color: red; font-size: 50px; font-weight: bold;\">Incorrect</p>","response":null,"trial_index":136,"plugin_version":"2.1.0","time_elapsed":263693,"subject_id":"91632","group":"Group2","condition":"1_Rep","full_date":"2026-03-09T14:27:33.029Z","date":"2026-03-09","time":"14:27:33"},{"correct_response":"l","task":"test_phase","broad_category":"I","image_png":"I_Pegmatite_03.png","image_id":99,"category_name":"Pegmatite","category":7,"distinct_rating":7.24,"distinct_type":"Top","item_type":"Target","rt":799,"stimulus":"Stimuli_Rocks480/I_Pegmatite_03.png","response":"a","trial_type":"image-keyboard-response","trial_index":137,"plugin_version":"2.1.0","time_elapsed":264494,"subject_id":"91632","group":"Group2","condition":"1_Rep","full_date":"2026-03-09T14:27:33.029Z","date":"2026-03-09","time":"14:27:33","cor_ans":false},{"trial_type":"html-keyboard-response","rt":null,"stimulus":"<p style=\"color: red; font-size: 50px; font-weight: bold;\">Incorrect</p>","response":null,"trial_index":138,"plugin_version":"2.1.0","time_elapsed":265005,"subject_id":"91632","group":"Group2","condition":"1_Rep","full_date":"2026-03-09T14:27:33.029Z","date":"2026-03-09","time":"14:27:33"},{"correct_response":"a","task":"test_phase","broad_category":"S","image_png":"S_Shale_08.png","image_id":472,"category_name":"Shale","category":30,"distinct_rating":2.55,"distinct_type":"Bottom","item_type":"Foil","rt":2020,"stimulus":"Stimuli_Rocks480/S_Shale_08.png","response":"l","trial_type":"image-keyboard-response","trial_index":139,"plugin_version":"2.1.0","time_elapsed":267027,"subject_id":"91632","group":"Group2","condition":"1_Rep","full_date":"2026-03-09T14:27:33.029Z","date":"2026-03-09","time":"14:27:33","cor_ans":false},{"trial_type":"html-keyboard-response","rt":null,"stimulus":"<p style=\"color: red; font-size: 50px; font-weight: bold;\">Incorrect</p>","response":null,"trial_index":140,"plugin_version":"2.1.0","time_elapsed":267539,"subject_id":"91632","group":"Group2","condition":"1_Rep","full_date":"2026-03-09T14:27:33.029Z","date":"2026-03-09","time":"14:27:33"},{"correct_response":"l","task":"test_phase","broad_category":"S","image_png":"S_Shale_02.png","image_id":466,"category_name":"Shale","category":30,"distinct_rating":2.9,"distinct_type":"Bottom","item_type":"Target","rt":615,"stimulus":"Stimuli_Rocks480/S_Shale_02.png","response":"l","trial_type":"image-keyboard-response","trial_index":141,"plugin_version":"2.1.0","time_elapsed":268156,"subject_id":"91632","group":"Group2","condition":"1_Rep","full_date":"2026-03-09T14:27:33.029Z","date":"2026-03-09","time":"14:27:33","cor_ans":true},{"trial_type":"html-keyboard-response","rt":null,"stimulus":"<p style=\"color: green; font-size: 50px; font-weight: bold;\">Correct</p>","response":null,"trial_index":142,"plugin_version":"2.1.0","time_elapsed":268668,"subject_id":"91632","group":"Group2","condition":"1_Rep","full_date":"2026-03-09T14:27:33.029Z","date":"2026-03-09","time":"14:27:33"},{"correct_response":"a","task":"test_phase","broad_category":"M","image_png":"M_Quartzite_13.png","image_id":285,"category_name":"Quartzite","category":18,"distinct_rating":2.27,"distinct_type":"Bottom","item_type":"Foil","rt":851,"stimulus":"Stimuli_Rocks480/M_Quartzite_13.png","response":"a","trial_type":"image-keyboard-response","trial_index":143,"plugin_version":"2.1.0","time_elapsed":269521,"subject_id":"91632","group":"Group2","condition":"1_Rep","full_date":"2026-03-09T14:27:33.029Z","date":"2026-03-09","time":"14:27:33","cor_ans":true},{"trial_type":"html-keyboard-response","rt":null,"stimulus":"<p style=\"color: green; font-size: 50px; font-weight: bold;\">Correct</p>","response":null,"trial_index":144,"plugin_version":"2.1.0","time_elapsed":270031,"subject_id":"91632","group":"Group2","condition":"1_Rep","full_date":"2026-03-09T14:27:33.029Z","date":"2026-03-09","time":"14:27:33"},{"correct_response":"l","task":"test_phase","broad_category":"S","image_png":"S_Rock Salt_13.png","image_id":445,"category_name":"Rock Salt","category":28,"distinct_rating":7.58,"distinct_type":"Top","item_type":"Target","rt":832,"stimulus":"Stimuli_Rocks480/S_Rock Salt_13.png","response":"l","trial_type":"image-keyboard-response","trial_index":145,"plugin_version":"2.1.0","time_elapsed":270865,"subject_id":"91632","group":"Group2","condition":"1_Rep","full_date":"2026-03-09T14:27:33.029Z","date":"2026-03-09","time":"14:27:33","cor_ans":true},{"trial_type":"html-keyboard-response","rt":null,"stimulus":"<p style=\"color: green; font-size: 50px; font-weight: bold;\">Correct</p>","response":null,"trial_index":146,"plugin_version":"2.1.0","time_elapsed":271379,"subject_id":"91632","group":"Group2","condition":"1_Rep","full_date":"2026-03-09T14:27:33.029Z","date":"2026-03-09","time":"14:27:33"},{"correct_response":"l","task":"test_phase","broad_category":"I","image_png":"I_Diorite_10.png","image_id":42,"category_name":"Diorite","category":3,"distinct_rating":2.84,"distinct_type":"Bottom","item_type":"Target","rt":1219,"stimulus":"Stimuli_Rocks480/I_Diorite_10.png","response":"l","trial_type":"image-keyboard-response","trial_index":147,"plugin_version":"2.1.0","time_elapsed":272600,"subject_id":"91632","group":"Group2","condition":"1_Rep","full_date":"2026-03-09T14:27:33.029Z","date":"2026-03-09","time":"14:27:33","cor_ans":true},{"trial_type":"html-keyboard-response","rt":null,"stimulus":"<p style=\"color: green; font-size: 50px; font-weight: bold;\">Correct</p>","response":null,"trial_index":148,"plugin_version":"2.1.0","time_elapsed":273113,"subject_id":"91632","group":"Group2","condition":"1_Rep","full_date":"2026-03-09T14:27:33.029Z","date":"2026-03-09","time":"14:27:33"},{"correct_response":"a","task":"test_phase","broad_category":"S","image_png":"S_Conglomerate_05.png","image_id":373,"category_name":"Conglomerate","category":24,"distinct_rating":7.32,"distinct_type":"Top","item_type":"Foil","rt":1037,"stimulus":"Stimuli_Rocks480/S_Conglomerate_05.png","response":"a","trial_type":"image-keyboard-response","trial_index":149,"plugin_version":"2.1.0","time_elapsed":274152,"subject_id":"91632","group":"Group2","condition":"1_Rep","full_date":"2026-03-09T14:27:33.029Z","date":"2026-03-09","time":"14:27:33","cor_ans":true},{"trial_type":"html-keyboard-response","rt":null,"stimulus":"<p style=\"color: green; font-size: 50px; font-weight: bold;\">Correct</p>","response":null,"trial_index":150,"plugin_version":"2.1.0","time_elapsed":274664,"subject_id":"91632","group":"Group2","condition":"1_Rep","full_date":"2026-03-09T14:27:33.029Z","date":"2026-03-09","time":"14:27:33"},{"correct_response":"a","task":"test_phase","broad_category":"S","image_png":"S_Sandstone_16.png","image_id":464,"category_name":"Sandstone","category":29,"distinct_rating":1.93,"distinct_type":"Bottom","item_type":"Foil","rt":659,"stimulus":"Stimuli_Rocks480/S_Sandstone_16.png","response":"l","trial_type":"image-keyboard-response","trial_index":151,"plugin_version":"2.1.0","time_elapsed":275324,"subject_id":"91632","group":"Group2","condition":"1_Rep","full_date":"2026-03-09T14:27:33.029Z","date":"2026-03-09","time":"14:27:33","cor_ans":false},{"trial_type":"html-keyboard-response","rt":null,"stimulus":"<p style=\"color: red; font-size: 50px; font-weight: bold;\">Incorrect</p>","response":null,"trial_index":152,"plugin_version":"2.1.0","time_elapsed":275828,"subject_id":"91632","group":"Group2","condition":"1_Rep","full_date":"2026-03-09T14:27:33.029Z","date":"2026-03-09","time":"14:27:33"},{"correct_response":"l","task":"test_phase","broad_category":"I","image_png":"I_Andesite_03.png","image_id":3,"category_name":"Andesite","category":1,"distinct_rating":3.17,"distinct_type":"Bottom","item_type":"Target","rt":854,"stimulus":"Stimuli_Rocks480/I_Andesite_03.png","response":"a","trial_type":"image-keyboard-response","trial_index":153,"plugin_version":"2.1.0","time_elapsed":276683,"subject_id":"91632","group":"Group2","condition":"1_Rep","full_date":"2026-03-09T14:27:33.029Z","date":"2026-03-09","time":"14:27:33","cor_ans":false},{"trial_type":"html-keyboard-response","rt":null,"stimulus":"<p style=\"color: red; font-size: 50px; font-weight: bold;\">Incorrect</p>","response":null,"trial_index":154,"plugin_version":"2.1.0","time_elapsed":277193,"subject_id":"91632","group":"Group2","condition":"1_Rep","full_date":"2026-03-09T14:27:33.029Z","date":"2026-03-09","time":"14:27:33"},{"correct_response":"l","task":"test_phase","broad_category":"I","image_png":"I_Andesite_04.png","image_id":4,"category_name":"Andesite","category":1,"distinct_rating":3.18,"distinct_type":"Bottom","item_type":"Target","rt":867,"stimulus":"Stimuli_Rocks480/I_Andesite_04.png","response":"a","trial_type":"image-keyboard-response","trial_index":155,"plugin_version":"2.1.0","time_elapsed":278061,"subject_id":"91632","group":"Group2","condition":"1_Rep","full_date":"2026-03-09T14:27:33.029Z","date":"2026-03-09","time":"14:27:33","cor_ans":false},{"trial_type":"html-keyboard-response","rt":null,"stimulus":"<p style=\"color: red; font-size: 50px; font-weight: bold;\">Incorrect</p>","response":null,"trial_index":156,"plugin_version":"2.1.0","time_elapsed":278565,"subject_id":"91632","group":"Group2","condition":"1_Rep","full_date":"2026-03-09T14:27:33.029Z","date":"2026-03-09","time":"14:27:33"},{"correct_response":"l","task":"test_phase","broad_category":"M","image_png":"M_Slate_10.png","image_id":314,"category_name":"Slate","category":20,"distinct_rating":1.94,"distinct_type":"Bottom","item_type":"Target","rt":873,"stimulus":"Stimuli_Rocks480/M_Slate_10.png","response":"l","trial_type":"image-keyboard-response","trial_index":157,"plugin_version":"2.1.0","time_elapsed":279440,"subject_id":"91632","group":"Group2","condition":"1_Rep","full_date":"2026-03-09T14:27:33.029Z","date":"2026-03-09","time":"14:27:33","cor_ans":true},{"trial_type":"html-keyboard-response","rt":null,"stimulus":"<p style=\"color: green; font-size: 50px; font-weight: bold;\">Correct</p>","response":null,"trial_index":158,"plugin_version":"2.1.0","time_elapsed":279942,"subject_id":"91632","group":"Group2","condition":"1_Rep","full_date":"2026-03-09T14:27:33.029Z","date":"2026-03-09","time":"14:27:33"},{"correct_response":"a","task":"test_phase","broad_category":"S","image_png":"S_Rock Gypsum_04.png","image_id":420,"category_name":"Rock Gypsum","category":27,"distinct_rating":7.61,"distinct_type":"Top","item_type":"Foil","rt":1048,"stimulus":"Stimuli_Rocks480/S_Rock Gypsum_04.png","response":"a","trial_type":"image-keyboard-response","trial_index":159,"plugin_version":"2.1.0","time_elapsed":280992,"subject_id":"91632","group":"Group2","condition":"1_Rep","full_date":"2026-03-09T14:27:33.029Z","date":"2026-03-09","time":"14:27:33","cor_ans":true},{"trial_type":"html-keyboard-response","rt":null,"stimulus":"<p style=\"color: green; font-size: 50px; font-weight: bold;\">Correct</p>","response":null,"trial_index":160,"plugin_version":"2.1.0","time_elapsed":281502,"subject_id":"91632","group":"Group2","condition":"1_Rep","full_date":"2026-03-09T14:27:33.029Z","date":"2026-03-09","time":"14:27:33"},{"correct_response":"a","task":"test_phase","broad_category":"M","image_png":"M_Marble_06.png","image_id":230,"category_name":"Marble","category":15,"distinct_rating":3.4,"distinct_type":"Bottom","item_type":"Foil","rt":1158,"stimulus":"Stimuli_Rocks480/M_Marble_06.png","response":"l","trial_type":"image-keyboard-response","trial_index":161,"plugin_version":"2.1.0","time_elapsed":282661,"subject_id":"91632","group":"Group2","condition":"1_Rep","full_date":"2026-03-09T14:27:33.029Z","date":"2026-03-09","time":"14:27:33","cor_ans":false},{"trial_type":"html-keyboard-response","rt":null,"stimulus":"<p style=\"color: red; font-size: 50px; font-weight: bold;\">Incorrect</p>","response":null,"trial_index":162,"plugin_version":"2.1.0","time_elapsed":283174,"subject_id":"91632","group":"Group2","condition":"1_Rep","full_date":"2026-03-09T14:27:33.029Z","date":"2026-03-09","time":"14:27:33"},{"correct_response":"a","task":"test_phase","broad_category":"M","image_png":"M_Gneiss_05.png","image_id":197,"category_name":"Gneiss","category":13,"distinct_rating":2.97,"distinct_type":"Bottom","item_type":"Foil","rt":926,"stimulus":"Stimuli_Rocks480/M_Gneiss_05.png","response":"l","trial_type":"image-keyboard-response","trial_index":163,"plugin_version":"2.1.0","time_elapsed":284102,"subject_id":"91632","group":"Group2","condition":"1_Rep","full_date":"2026-03-09T14:27:33.029Z","date":"2026-03-09","time":"14:27:33","cor_ans":false},{"trial_type":"html-keyboard-response","rt":null,"stimulus":"<p style=\"color: red; font-size: 50px; font-weight: bold;\">Incorrect</p>","response":null,"trial_index":164,"plugin_version":"2.1.0","time_elapsed":284605,"subject_id":"91632","group":"Group2","condition":"1_Rep","full_date":"2026-03-09T14:27:33.029Z","date":"2026-03-09","time":"14:27:33"},{"correct_response":"l","task":"test_phase","broad_category":"M","image_png":"M_Gneiss_14.png","image_id":206,"category_name":"Gneiss","category":13,"distinct_rating":3.41,"distinct_type":"Bottom","item_type":"Target","rt":696,"stimulus":"Stimuli_Rocks480/M_Gneiss_14.png","response":"l","trial_type":"image-keyboard-response","trial_index":165,"plugin_version":"2.1.0","time_elapsed":285303,"subject_id":"91632","group":"Group2","condition":"1_Rep","full_date":"2026-03-09T14:27:33.029Z","date":"2026-03-09","time":"14:27:33","cor_ans":true},{"trial_type":"html-keyboard-response","rt":null,"stimulus":"<p style=\"color: green; font-size: 50px; font-weight: bold;\">Correct</p>","response":null,"trial_index":166,"plugin_version":"2.1.0","time_elapsed":285811,"subject_id":"91632","group":"Group2","condition":"1_Rep","full_date":"2026-03-09T14:27:33.029Z","date":"2026-03-09","time":"14:27:33"},{"correct_response":"l","task":"test_phase","broad_category":"I","image_png":"I_Gabbro_14.png","image_id":62,"category_name":"Gabbro","category":4,"distinct_rating":2.95,"distinct_type":"Bottom","item_type":"Target","rt":944,"stimulus":"Stimuli_Rocks480/I_Gabbro_14.png","response":"l","trial_type":"image-keyboard-response","trial_index":167,"plugin_version":"2.1.0","time_elapsed":286757,"subject_id":"91632","group":"Group2","condition":"1_Rep","full_date":"2026-03-09T14:27:33.029Z","date":"2026-03-09","time":"14:27:33","cor_ans":true},{"trial_type":"html-keyboard-response","rt":null,"stimulus":"<p style=\"color: green; font-size: 50px; font-weight: bold;\">Correct</p>","response":null,"trial_index":168,"plugin_version":"2.1.0","time_elapsed":287269,"subject_id":"91632","group":"Group2","condition":"1_Rep","full_date":"2026-03-09T14:27:33.029Z","date":"2026-03-09","time":"14:27:33"},{"correct_response":"a","task":"test_phase","broad_category":"M","image_png":"M_Slate_03.png","image_id":307,"category_name":"Slate","category":20,"distinct_rating":1.87,"distinct_type":"Bottom","item_type":"Foil","rt":737,"stimulus":"Stimuli_Rocks480/M_Slate_03.png","response":"a","trial_type":"image-keyboard-response","trial_index":169,"plugin_version":"2.1.0","time_elapsed":288007,"subject_id":"91632","group":"Group2","condition":"1_Rep","full_date":"2026-03-09T14:27:33.029Z","date":"2026-03-09","time":"14:27:33","cor_ans":true},{"trial_type":"html-keyboard-response","rt":null,"stimulus":"<p style=\"color: green; font-size: 50px; font-weight: bold;\">Correct</p>","response":null,"trial_index":170,"plugin_version":"2.1.0","time_elapsed":288520,"subject_id":"91632","group":"Group2","condition":"1_Rep","full_date":"2026-03-09T14:27:33.029Z","date":"2026-03-09","time":"14:27:33"},{"correct_response":"a","task":"test_phase","broad_category":"I","image_png":"I_Pegmatite_10.png","image_id":106,"category_name":"Pegmatite","category":7,"distinct_rating":7.66,"distinct_type":"Top","item_type":"Foil","rt":1149,"stimulus":"Stimuli_Rocks480/I_Pegmatite_10.png","response":"l","trial_type":"image-keyboard-response","trial_index":171,"plugin_version":"2.1.0","time_elapsed":289671,"subject_id":"91632","group":"Group2","condition":"1_Rep","full_date":"2026-03-09T14:27:33.029Z","date":"2026-03-09","time":"14:27:33","cor_ans":false},{"trial_type":"html-keyboard-response","rt":null,"stimulus":"<p style=\"color: red; font-size: 50px; font-weight: bold;\">Incorrect</p>","response":null,"trial_index":172,"plugin_version":"2.1.0","time_elapsed":290180,"subject_id":"91632","group":"Group2","condition":"1_Rep","full_date":"2026-03-09T14:27:33.029Z","date":"2026-03-09","time":"14:27:33"},{"correct_response":"l","task":"test_phase","broad_category":"M","image_png":"M_Gneiss_15.png","image_id":207,"category_name":"Gneiss","category":13,"distinct_rating":3.11,"distinct_type":"Bottom","item_type":"Target","rt":687,"stimulus":"Stimuli_Rocks480/M_Gneiss_15.png","response":"l","trial_type":"image-keyboard-response","trial_index":173,"plugin_version":"2.1.0","time_elapsed":290869,"subject_id":"91632","group":"Group2","condition":"1_Rep","full_date":"2026-03-09T14:27:33.029Z","date":"2026-03-09","time":"14:27:33","cor_ans":true},{"trial_type":"html-keyboard-response","rt":null,"stimulus":"<p style=\"color: green; font-size: 50px; font-weight: bold;\">Correct</p>","response":null,"trial_index":174,"plugin_version":"2.1.0","time_elapsed":291382,"subject_id":"91632","group":"Group2","condition":"1_Rep","full_date":"2026-03-09T14:27:33.029Z","date":"2026-03-09","time":"14:27:33"},{"correct_response":"l","task":"test_phase","broad_category":"S","image_png":"S_Rock Salt_15.png","image_id":447,"category_name":"Rock Salt","category":28,"distinct_rating":7.79,"distinct_type":"Top","item_type":"Target","rt":1092,"stimulus":"Stimuli_Rocks480/S_Rock Salt_15.png","response":"a","trial_type":"image-keyboard-response","trial_index":175,"plugin_version":"2.1.0","time_elapsed":292477,"subject_id":"91632","group":"Group2","condition":"1_Rep","full_date":"2026-03-09T14:27:33.029Z","date":"2026-03-09","time":"14:27:33","cor_ans":false},{"trial_type":"html-keyboard-response","rt":null,"stimulus":"<p style=\"color: red; font-size: 50px; font-weight: bold;\">Incorrect</p>","response":null,"trial_index":176,"plugin_version":"2.1.0","time_elapsed":292981,"subject_id":"91632","group":"Group2","condition":"1_Rep","full_date":"2026-03-09T14:27:33.029Z","date":"2026-03-09","time":"14:27:33"},{"correct_response":"a","task":"test_phase","broad_category":"S","image_png":"S_Shale_01.png","image_id":465,"category_name":"Shale","category":30,"distinct_rating":2.7,"distinct_type":"Bottom","item_type":"Foil","rt":1600,"stimulus":"Stimuli_Rocks480/S_Shale_01.png","response":"a","trial_type":"image-keyboard-response","trial_index":177,"plugin_version":"2.1.0","time_elapsed":294583,"subject_id":"91632","group":"Group2","condition":"1_Rep","full_date":"2026-03-09T14:27:33.029Z","date":"2026-03-09","time":"14:27:33","cor_ans":true},{"trial_type":"html-keyboard-response","rt":null,"stimulus":"<p style=\"color: green; font-size: 50px; font-weight: bold;\">Correct</p>","response":null,"trial_index":178,"plugin_version":"2.1.0","time_elapsed":295085,"subject_id":"91632","group":"Group2","condition":"1_Rep","full_date":"2026-03-09T14:27:33.029Z","date":"2026-03-09","time":"14:27:33"},{"correct_response":"a","task":"test_phase","broad_category":"S","image_png":"S_Sandstone_15.png","image_id":463,"category_name":"Sandstone","category":29,"distinct_rating":2,"distinct_type":"Bottom","item_type":"Foil","rt":1018,"stimulus":"Stimuli_Rocks480/S_Sandstone_15.png","response":"a","trial_type":"image-keyboard-response","trial_index":179,"plugin_version":"2.1.0","time_elapsed":296105,"subject_id":"91632","group":"Group2","condition":"1_Rep","full_date":"2026-03-09T14:27:33.029Z","date":"2026-03-09","time":"14:27:33","cor_ans":true},{"trial_type":"html-keyboard-response","rt":null,"stimulus":"<p style=\"color: green; font-size: 50px; font-weight: bold;\">Correct</p>","response":null,"trial_index":180,"plugin_version":"2.1.0","time_elapsed":296608,"subject_id":"91632","group":"Group2","condition":"1_Rep","full_date":"2026-03-09T14:27:33.029Z","date":"2026-03-09","time":"14:27:33"},{"correct_response":"l","task":"test_phase","broad_category":"S","image_png":"S_Dolomite_07.png","image_id":391,"category_name":"Dolomite","category":25,"distinct_rating":1.73,"distinct_type":"Bottom","item_type":"Target","rt":1147,"stimulus":"Stimuli_Rocks480/S_Dolomite_07.png","response":"a","trial_type":"image-keyboard-response","trial_index":181,"plugin_version":"2.1.0","time_elapsed":297756,"subject_id":"91632","group":"Group2","condition":"1_Rep","full_date":"2026-03-09T14:27:33.029Z","date":"2026-03-09","time":"14:27:33","cor_ans":false},{"trial_type":"html-keyboard-response","rt":null,"stimulus":"<p style=\"color: red; font-size: 50px; font-weight: bold;\">Incorrect</p>","response":null,"trial_index":182,"plugin_version":"2.1.0","time_elapsed":298265,"subject_id":"91632","group":"Group2","condition":"1_Rep","full_date":"2026-03-09T14:27:33.029Z","date":"2026-03-09","time":"14:27:33"},{"correct_response":"l","task":"test_phase","broad_category":"M","image_png":"M_Gneiss_10.png","image_id":202,"category_name":"Gneiss","category":13,"distinct_rating":3.09,"distinct_type":"Bottom","item_type":"Target","rt":1022,"stimulus":"Stimuli_Rocks480/M_Gneiss_10.png","response":"l","trial_type":"image-keyboard-response","trial_index":183,"plugin_version":"2.1.0","time_elapsed":299289,"subject_id":"91632","group":"Group2","condition":"1_Rep","full_date":"2026-03-09T14:27:33.029Z","date":"2026-03-09","time":"14:27:33","cor_ans":true},{"trial_type":"html-keyboard-response","rt":null,"stimulus":"<p style=\"color: green; font-size: 50px; font-weight: bold;\">Correct</p>","response":null,"trial_index":184,"plugin_version":"2.1.0","time_elapsed":299801,"subject_id":"91632","group":"Group2","condition":"1_Rep","full_date":"2026-03-09T14:27:33.029Z","date":"2026-03-09","time":"14:27:33"},{"correct_response":"l","task":"test_phase","broad_category":"S","image_png":"S_Sandstone_08.png","image_id":456,"category_name":"Sandstone","category":29,"distinct_rating":1.5,"distinct_type":"Bottom","item_type":"Target","rt":3662,"stimulus":"Stimuli_Rocks480/S_Sandstone_08.png","response":"l","trial_type":"image-keyboard-response","trial_index":185,"plugin_version":"2.1.0","time_elapsed":303465,"subject_id":"91632","group":"Group2","condition":"1_Rep","full_date":"2026-03-09T14:27:33.029Z","date":"2026-03-09","time":"14:27:33","cor_ans":true},{"trial_type":"html-keyboard-response","rt":null,"stimulus":"<p style=\"color: green; font-size: 50px; font-weight: bold;\">Correct</p>","response":null,"trial_index":186,"plugin_version":"2.1.0","time_elapsed":303969,"subject_id":"91632","group":"Group2","condition":"1_Rep","full_date":"2026-03-09T14:27:33.029Z","date":"2026-03-09","time":"14:27:33"},{"correct_response":"l","task":"test_phase","broad_category":"I","image_png":"I_Basalt_10.png","image_id":26,"category_name":"Basalt","category":2,"distinct_rating":2.76,"distinct_type":"Bottom","item_type":"Target","rt":2817,"stimulus":"Stimuli_Rocks480/I_Basalt_10.png","response":"a","trial_type":"image-keyboard-response","trial_index":187,"plugin_version":"2.1.0","time_elapsed":306788,"subject_id":"91632","group":"Group2","condition":"1_Rep","full_date":"2026-03-09T14:27:33.029Z","date":"2026-03-09","time":"14:27:33","cor_ans":false},{"trial_type":"html-keyboard-response","rt":null,"stimulus":"<p style=\"color: red; font-size: 50px; font-weight: bold;\">Incorrect</p>","response":null,"trial_index":188,"plugin_version":"2.1.0","time_elapsed":307294,"subject_id":"91632","group":"Group2","condition":"1_Rep","full_date":"2026-03-09T14:27:33.029Z","date":"2026-03-09","time":"14:27:33"},{"correct_response":"a","task":"test_phase","broad_category":"I","image_png":"I_Gabbro_11.png","image_id":59,"category_name":"Gabbro","category":4,"distinct_rating":1.99,"distinct_type":"Bottom","item_type":"Foil","rt":1441,"stimulus":"Stimuli_Rocks480/I_Gabbro_11.png","response":"a","trial_type":"image-keyboard-response","trial_index":189,"plugin_version":"2.1.0","time_elapsed":308736,"subject_id":"91632","group":"Group2","condition":"1_Rep","full_date":"2026-03-09T14:27:33.029Z","date":"2026-03-09","time":"14:27:33","cor_ans":true},{"trial_type":"html-keyboard-response","rt":null,"stimulus":"<p style=\"color: green; font-size: 50px; font-weight: bold;\">Correct</p>","response":null,"trial_index":190,"plugin_version":"2.1.0","time_elapsed":309244,"subject_id":"91632","group":"Group2","condition":"1_Rep","full_date":"2026-03-09T14:27:33.029Z","date":"2026-03-09","time":"14:27:33"},{"correct_response":"l","task":"test_phase","broad_category":"M","image_png":"M_Phyllite_05.png","image_id":261,"category_name":"Phyllite","category":17,"distinct_rating":2.14,"distinct_type":"Bottom","item_type":"Target","rt":902,"stimulus":"Stimuli_Rocks480/M_Phyllite_05.png","response":"a","trial_type":"image-keyboard-response","trial_index":191,"plugin_version":"2.1.0","time_elapsed":310147,"subject_id":"91632","group":"Group2","condition":"1_Rep","full_date":"2026-03-09T14:27:33.029Z","date":"2026-03-09","time":"14:27:33","cor_ans":false},{"trial_type":"html-keyboard-response","rt":null,"stimulus":"<p style=\"color: red; font-size: 50px; font-weight: bold;\">Incorrect</p>","response":null,"trial_index":192,"plugin_version":"2.1.0","time_elapsed":310656,"subject_id":"91632","group":"Group2","condition":"1_Rep","full_date":"2026-03-09T14:27:33.029Z","date":"2026-03-09","time":"14:27:33"},{"correct_response":"a","task":"test_phase","broad_category":"M","image_png":"M_Quartzite_05.png","image_id":277,"category_name":"Quartzite","category":18,"distinct_rating":2.23,"distinct_type":"Bottom","item_type":"Foil","rt":1705,"stimulus":"Stimuli_Rocks480/M_Quartzite_05.png","response":"l","trial_type":"image-keyboard-response","trial_index":193,"plugin_version":"2.1.0","time_elapsed":312363,"subject_id":"91632","group":"Group2","condition":"1_Rep","full_date":"2026-03-09T14:27:33.029Z","date":"2026-03-09","time":"14:27:33","cor_ans":false},{"trial_type":"html-keyboard-response","rt":null,"stimulus":"<p style=\"color: red; font-size: 50px; font-weight: bold;\">Incorrect</p>","response":null,"trial_index":194,"plugin_version":"2.1.0","time_elapsed":312869,"subject_id":"91632","group":"Group2","condition":"1_Rep","full_date":"2026-03-09T14:27:33.029Z","date":"2026-03-09","time":"14:27:33"},{"correct_response":"a","task":"test_phase","broad_category":"S","image_png":"S_Dolomite_14.png","image_id":398,"category_name":"Dolomite","category":25,"distinct_rating":1.43,"distinct_type":"Bottom","item_type":"Foil","rt":684,"stimulus":"Stimuli_Rocks480/S_Dolomite_14.png","response":"l","trial_type":"image-keyboard-response","trial_index":195,"plugin_version":"2.1.0","time_elapsed":313555,"subject_id":"91632","group":"Group2","condition":"1_Rep","full_date":"2026-03-09T14:27:33.029Z","date":"2026-03-09","time":"14:27:33","cor_ans":false},{"trial_type":"html-keyboard-response","rt":null,"stimulus":"<p style=\"color: red; font-size: 50px; font-weight: bold;\">Incorrect</p>","response":null,"trial_index":196,"plugin_version":"2.1.0","time_elapsed":314062,"subject_id":"91632","group":"Group2","condition":"1_Rep","full_date":"2026-03-09T14:27:33.029Z","date":"2026-03-09","time":"14:27:33"},{"correct_response":"a","task":"test_phase","broad_category":"I","image_png":"I_Basalt_09.png","image_id":25,"category_name":"Basalt","category":2,"distinct_rating":1.89,"distinct_type":"Bottom","item_type":"Foil","rt":563,"stimulus":"Stimuli_Rocks480/I_Basalt_09.png","response":"l","trial_type":"image-keyboard-response","trial_index":197,"plugin_version":"2.1.0","time_elapsed":314627,"subject_id":"91632","group":"Group2","condition":"1_Rep","full_date":"2026-03-09T14:27:33.029Z","date":"2026-03-09","time":"14:27:33","cor_ans":false},{"trial_type":"html-keyboard-response","rt":null,"stimulus":"<p style=\"color: red; font-size: 50px; font-weight: bold;\">Incorrect</p>","response":null,"trial_index":198,"plugin_version":"2.1.0","time_elapsed":315132,"subject_id":"91632","group":"Group2","condition":"1_Rep","full_date":"2026-03-09T14:27:33.029Z","date":"2026-03-09","time":"14:27:33"},{"correct_response":"a","task":"test_phase","broad_category":"I","image_png":"I_Gabbro_08.png","image_id":56,"category_name":"Gabbro","category":4,"distinct_rating":3.02,"distinct_type":"Bottom","item_type":"Foil","rt":359,"stimulus":"Stimuli_Rocks480/I_Gabbro_08.png","response":"l","trial_type":"image-keyboard-response","trial_index":199,"plugin_version":"2.1.0","time_elapsed":315492,"subject_id":"91632","group":"Group2","condition":"1_Rep","full_date":"2026-03-09T14:27:33.029Z","date":"2026-03-09","time":"14:27:33","cor_ans":false},{"trial_type":"html-keyboard-response","rt":null,"stimulus":"<p style=\"color: red; font-size: 50px; font-weight: bold;\">Incorrect</p>","response":null,"trial_index":200,"plugin_version":"2.1.0","time_elapsed":315994,"subject_id":"91632","group":"Group2","condition":"1_Rep","full_date":"2026-03-09T14:27:33.029Z","date":"2026-03-09","time":"14:27:33"},{"correct_response":"a","task":"test_phase","broad_category":"I","image_png":"I_Pumice_12.png","image_id":140,"category_name":"Pumice","category":9,"distinct_rating":2.97,"distinct_type":"Bottom","item_type":"Foil","rt":656,"stimulus":"Stimuli_Rocks480/I_Pumice_12.png","response":"a","trial_type":"image-keyboard-response","trial_index":201,"plugin_version":"2.1.0","time_elapsed":316651,"subject_id":"91632","group":"Group2","condition":"1_Rep","full_date":"2026-03-09T14:27:33.029Z","date":"2026-03-09","time":"14:27:33","cor_ans":true},{"trial_type":"html-keyboard-response","rt":null,"stimulus":"<p style=\"color: green; font-size: 50px; font-weight: bold;\">Correct</p>","response":null,"trial_index":202,"plugin_version":"2.1.0","time_elapsed":317154,"subject_id":"91632","group":"Group2","condition":"1_Rep","full_date":"2026-03-09T14:27:33.029Z","date":"2026-03-09","time":"14:27:33"},{"correct_response":"a","task":"test_phase","broad_category":"S","image_png":"S_Rock Salt_01.png","image_id":433,"category_name":"Rock Salt","category":28,"distinct_rating":7.18,"distinct_type":"Top","item_type":"Foil","rt":827,"stimulus":"Stimuli_Rocks480/S_Rock Salt_01.png","response":"l","trial_type":"image-keyboard-response","trial_index":203,"plugin_version":"2.1.0","time_elapsed":317983,"subject_id":"91632","group":"Group2","condition":"1_Rep","full_date":"2026-03-09T14:27:33.029Z","date":"2026-03-09","time":"14:27:33","cor_ans":false},{"trial_type":"html-keyboard-response","rt":null,"stimulus":"<p style=\"color: red; font-size: 50px; font-weight: bold;\">Incorrect</p>","response":null,"trial_index":204,"plugin_version":"2.1.0","time_elapsed":318485,"subject_id":"91632","group":"Group2","condition":"1_Rep","full_date":"2026-03-09T14:27:33.029Z","date":"2026-03-09","time":"14:27:33"},{"correct_response":"l","task":"test_phase","broad_category":"I","image_png":"I_Gabbro_12.png","image_id":60,"category_name":"Gabbro","category":4,"distinct_rating":2.6,"distinct_type":"Bottom","item_type":"Target","rt":2119,"stimulus":"Stimuli_Rocks480/I_Gabbro_12.png","response":"l","trial_type":"image-keyboard-response","trial_index":205,"plugin_version":"2.1.0","time_elapsed":320605,"subject_id":"91632","group":"Group2","condition":"1_Rep","full_date":"2026-03-09T14:27:33.029Z","date":"2026-03-09","time":"14:27:33","cor_ans":true},{"trial_type":"html-keyboard-response","rt":null,"stimulus":"<p style=\"color: green; font-size: 50px; font-weight: bold;\">Correct</p>","response":null,"trial_index":206,"plugin_version":"2.1.0","time_elapsed":321117,"subject_id":"91632","group":"Group2","condition":"1_Rep","full_date":"2026-03-09T14:27:33.029Z","date":"2026-03-09","time":"14:27:33"},{"correct_response":"a","task":"test_phase","broad_category":"M","image_png":"M_Gneiss_06.png","image_id":198,"category_name":"Gneiss","category":13,"distinct_rating":2.65,"distinct_type":"Bottom","item_type":"Foil","rt":1353,"stimulus":"Stimuli_Rocks480/M_Gneiss_06.png","response":"a","trial_type":"image-keyboard-response","trial_index":207,"plugin_version":"2.1.0","time_elapsed":322471,"subject_id":"91632","group":"Group2","condition":"1_Rep","full_date":"2026-03-09T14:27:33.029Z","date":"2026-03-09","time":"14:27:33","cor_ans":true},{"trial_type":"html-keyboard-response","rt":null,"stimulus":"<p style=\"color: green; font-size: 50px; font-weight: bold;\">Correct</p>","response":null,"trial_index":208,"plugin_version":"2.1.0","time_elapsed":322981,"subject_id":"91632","group":"Group2","condition":"1_Rep","full_date":"2026-03-09T14:27:33.029Z","date":"2026-03-09","time":"14:27:33"},{"correct_response":"l","task":"test_phase","broad_category":"I","image_png":"I_Pumice_13.png","image_id":141,"category_name":"Pumice","category":9,"distinct_rating":3.12,"distinct_type":"Bottom","item_type":"Target","rt":1144,"stimulus":"Stimuli_Rocks480/I_Pumice_13.png","response":"a","trial_type":"image-keyboard-response","trial_index":209,"plugin_version":"2.1.0","time_elapsed":324127,"subject_id":"91632","group":"Group2","condition":"1_Rep","full_date":"2026-03-09T14:27:33.029Z","date":"2026-03-09","time":"14:27:33","cor_ans":false},{"trial_type":"html-keyboard-response","rt":null,"stimulus":"<p style=\"color: red; font-size: 50px; font-weight: bold;\">Incorrect</p>","response":null,"trial_index":210,"plugin_version":"2.1.0","time_elapsed":324643,"subject_id":"91632","group":"Group2","condition":"1_Rep","full_date":"2026-03-09T14:27:33.029Z","date":"2026-03-09","time":"14:27:33"},{"correct_response":"a","task":"test_phase","broad_category":"M","image_png":"M_Phyllite_10.png","image_id":266,"category_name":"Phyllite","category":17,"distinct_rating":2.6,"distinct_type":"Bottom","item_type":"Foil","rt":719,"stimulus":"Stimuli_Rocks480/M_Phyllite_10.png","response":"l","trial_type":"image-keyboard-response","trial_index":211,"plugin_version":"2.1.0","time_elapsed":325365,"subject_id":"91632","group":"Group2","condition":"1_Rep","full_date":"2026-03-09T14:27:33.029Z","date":"2026-03-09","time":"14:27:33","cor_ans":false},{"trial_type":"html-keyboard-response","rt":null,"stimulus":"<p style=\"color: red; font-size: 50px; font-weight: bold;\">Incorrect</p>","response":null,"trial_index":212,"plugin_version":"2.1.0","time_elapsed":325881,"subject_id":"91632","group":"Group2","condition":"1_Rep","full_date":"2026-03-09T14:27:33.029Z","date":"2026-03-09","time":"14:27:33"},{"correct_response":"l","task":"test_phase","broad_category":"S","image_png":"S_Sandstone_04.png","image_id":452,"category_name":"Sandstone","category":29,"distinct_rating":1.8,"distinct_type":"Bottom","item_type":"Target","rt":1135,"stimulus":"Stimuli_Rocks480/S_Sandstone_04.png","response":"l","trial_type":"image-keyboard-response","trial_index":213,"plugin_version":"2.1.0","time_elapsed":327018,"subject_id":"91632","group":"Group2","condition":"1_Rep","full_date":"2026-03-09T14:27:33.029Z","date":"2026-03-09","time":"14:27:33","cor_ans":true},{"trial_type":"html-keyboard-response","rt":null,"stimulus":"<p style=\"color: green; font-size: 50px; font-weight: bold;\">Correct</p>","response":null,"trial_index":214,"plugin_version":"2.1.0","time_elapsed":327520,"subject_id":"91632","group":"Group2","condition":"1_Rep","full_date":"2026-03-09T14:27:33.029Z","date":"2026-03-09","time":"14:27:33"},{"correct_response":"l","task":"test_phase","broad_category":"I","image_png":"I_Obsidian_06.png","image_id":86,"category_name":"Obsidian","category":6,"distinct_rating":8.01,"distinct_type":"Top","item_type":"Target","rt":883,"stimulus":"Stimuli_Rocks480/I_Obsidian_06.png","response":"a","trial_type":"image-keyboard-response","trial_index":215,"plugin_version":"2.1.0","time_elapsed":328404,"subject_id":"91632","group":"Group2","condition":"1_Rep","full_date":"2026-03-09T14:27:33.029Z","date":"2026-03-09","time":"14:27:33","cor_ans":false},{"trial_type":"html-keyboard-response","rt":null,"stimulus":"<p style=\"color: red; font-size: 50px; font-weight: bold;\">Incorrect</p>","response":null,"trial_index":216,"plugin_version":"2.1.0","time_elapsed":328915,"subject_id":"91632","group":"Group2","condition":"1_Rep","full_date":"2026-03-09T14:27:33.029Z","date":"2026-03-09","time":"14:27:33"},{"correct_response":"a","task":"test_phase","broad_category":"S","image_png":"S_Chert_10.png","image_id":362,"category_name":"Chert","category":23,"distinct_rating":7.17,"distinct_type":"Top","item_type":"Foil","rt":1763,"stimulus":"Stimuli_Rocks480/S_Chert_10.png","response":"a","trial_type":"image-keyboard-response","trial_index":217,"plugin_version":"2.1.0","time_elapsed":330680,"subject_id":"91632","group":"Group2","condition":"1_Rep","full_date":"2026-03-09T14:27:33.029Z","date":"2026-03-09","time":"14:27:33","cor_ans":true},{"trial_type":"html-keyboard-response","rt":null,"stimulus":"<p style=\"color: green; font-size: 50px; font-weight: bold;\">Correct</p>","response":null,"trial_index":218,"plugin_version":"2.1.0","time_elapsed":331185,"subject_id":"91632","group":"Group2","condition":"1_Rep","full_date":"2026-03-09T14:27:33.029Z","date":"2026-03-09","time":"14:27:33"},{"correct_response":"a","task":"test_phase","broad_category":"M","image_png":"M_Quartzite_08.png","image_id":280,"category_name":"Quartzite","category":18,"distinct_rating":2.15,"distinct_type":"Bottom","item_type":"Foil","rt":1498,"stimulus":"Stimuli_Rocks480/M_Quartzite_08.png","response":"l","trial_type":"image-keyboard-response","trial_index":219,"plugin_version":"2.1.0","time_elapsed":332685,"subject_id":"91632","group":"Group2","condition":"1_Rep","full_date":"2026-03-09T14:27:33.029Z","date":"2026-03-09","time":"14:27:33","cor_ans":false},{"trial_type":"html-keyboard-response","rt":null,"stimulus":"<p style=\"color: red; font-size: 50px; font-weight: bold;\">Incorrect</p>","response":null,"trial_index":220,"plugin_version":"2.1.0","time_elapsed":333192,"subject_id":"91632","group":"Group2","condition":"1_Rep","full_date":"2026-03-09T14:27:33.029Z","date":"2026-03-09","time":"14:27:33"},{"correct_response":"a","task":"test_phase","broad_category":"S","image_png":"S_Dolomite_13.png","image_id":397,"category_name":"Dolomite","category":25,"distinct_rating":1.77,"distinct_type":"Bottom","item_type":"Foil","rt":1033,"stimulus":"Stimuli_Rocks480/S_Dolomite_13.png","response":"l","trial_type":"image-keyboard-response","trial_index":221,"plugin_version":"2.1.0","time_elapsed":334227,"subject_id":"91632","group":"Group2","condition":"1_Rep","full_date":"2026-03-09T14:27:33.029Z","date":"2026-03-09","time":"14:27:33","cor_ans":false},{"trial_type":"html-keyboard-response","rt":null,"stimulus":"<p style=\"color: red; font-size: 50px; font-weight: bold;\">Incorrect</p>","response":null,"trial_index":222,"plugin_version":"2.1.0","time_elapsed":334728,"subject_id":"91632","group":"Group2","condition":"1_Rep","full_date":"2026-03-09T14:27:33.029Z","date":"2026-03-09","time":"14:27:33"},{"correct_response":"l","task":"test_phase","broad_category":"S","image_png":"S_Dolomite_01.png","image_id":385,"category_name":"Dolomite","category":25,"distinct_rating":1.43,"distinct_type":"Bottom","item_type":"Target","rt":1011,"stimulus":"Stimuli_Rocks480/S_Dolomite_01.png","response":"l","trial_type":"image-keyboard-response","trial_index":223,"plugin_version":"2.1.0","time_elapsed":335741,"subject_id":"91632","group":"Group2","condition":"1_Rep","full_date":"2026-03-09T14:27:33.029Z","date":"2026-03-09","time":"14:27:33","cor_ans":true},{"trial_type":"html-keyboard-response","rt":null,"stimulus":"<p style=\"color: green; font-size: 50px; font-weight: bold;\">Correct</p>","response":null,"trial_index":224,"plugin_version":"2.1.0","time_elapsed":336251,"subject_id":"91632","group":"Group2","condition":"1_Rep","full_date":"2026-03-09T14:27:33.029Z","date":"2026-03-09","time":"14:27:33"},{"correct_response":"l","task":"test_phase","broad_category":"I","ima