[{"width":1470,"height":839,"webaudio":true,"browser":"safari","browser_version":"26.2.0","mobile":false,"os":"Mac OS","fullscreen":true,"vsync_rate":59.52,"webcam":true,"microphone":true,"trial_type":"browser-check","trial_index":0,"plugin_version":"2.1.0","time_elapsed":1019,"subject_id":"91224","group":"Group2","condition":"3_Rep","full_date":"2026-02-23T20:11:34.728Z","date":"2026-02-23","time":"20:11:34"},{"success":true,"timeout":false,"failed_images":[],"failed_audio":[],"failed_video":[],"trial_type":"preload","trial_index":1,"plugin_version":"2.1.0","time_elapsed":4034,"subject_id":"91224","group":"Group2","condition":"3_Rep","full_date":"2026-02-23T20:11:34.728Z","date":"2026-02-23","time":"20:11:34"},{"rt":8244,"url":"SONA_consent_memorability.html","trial_type":"external-html","trial_index":2,"plugin_version":"2.1.0","time_elapsed":12305,"subject_id":"91224","group":"Group2","condition":"3_Rep","full_date":"2026-02-23T20:11:34.728Z","date":"2026-02-23","time":"20:11:34"},{"success":true,"rt":1564,"trial_type":"fullscreen","trial_index":3,"plugin_version":"2.1.0","time_elapsed":14875,"subject_id":"91224","group":"Group2","condition":"3_Rep","full_date":"2026-02-23T20:11:34.728Z","date":"2026-02-23","time":"20:11:34"},{"rt":1676,"stimulus":"<div style=\"max-width: 760px; margin: auto; font-size: 20px; line-height: 1.5;\">\n      <h1 style=\"text-align:center; font-size: 30px;\">Instructions</h1>\n      <p>\n        Welcome to the study on <b>visual memory</b>. This experiment consists of <b>two phases</b>: \n        a <b>study phase</b> and a <b>test phase</b>.\n      </p>\n      <p>\n        In the study phase, you will see a series of rock images along with their category labels.\n        The images will appear one at a time.\n        <b>Your task</b> is to learn the categories to which the rock images belong \n        and to remember each image as accurately as possible.\n      </p> \n      <p>\n        Note that we will repeat the study phase <b>3 times</b>, \n             so you will have multiple opportunities to see and remember each image.\n      </p>\n      <p>\n        After the study phase, <b>your memory will be tested</b>. \n        Additional instructions for the test phase will be provided at that time.\n      </p>\n      <p>\n        If your computer has multiple <b>language settings</b> (e.g., English and another language),\n        please make sure it is set to English before starting.\n      </p>\n      <p>\n        You can track your progress using the <b>completion bar</b> at the top of the screen. \n        Please note that the bar will refresh when the test phase begins \n        to give you an accurate sense of your progress in both phases.\n      </p> \n      <p>\n        Press the button below when you are ready to begin.\n      </p>\n    </div>","response":0,"trial_type":"html-button-response","trial_index":4,"plugin_version":"2.1.0","time_elapsed":16554,"subject_id":"91224","group":"Group2","condition":"3_Rep","full_date":"2026-02-23T20:11:34.728Z","date":"2026-02-23","time":"20:11:34"},{"rt":null,"stimulus":"<p style=\"font-size: 50px; margin: 0; text-align: center;\">+</p>","response":null,"trial_type":"html-keyboard-response","trial_index":5,"plugin_version":"2.1.0","time_elapsed":17558,"subject_id":"91224","group":"Group2","condition":"3_Rep","full_date":"2026-02-23T20:11:34.728Z","date":"2026-02-23","time":"20:11:34"},{"task":"memory_phase","broad_category":"I","image_png":"I_Andesite_09.png","image_id":9,"category_name":"Andesite","category":1,"distinct_rating":2.49,"distinct_type":"Bottom","rt":null,"stimulus":"Stimuli_Rocks480/I_Andesite_09.png","response":null,"trial_type":"image-keyboard-response","trial_index":6,"plugin_version":"2.1.0","time_elapsed":20076,"subject_id":"91224","group":"Group2","condition":"3_Rep","full_date":"2026-02-23T20:11:34.728Z","date":"2026-02-23","time":"20:11:34"},{"rt":null,"stimulus":"<p style=\"font-size: 50px; margin: 0; text-align: center;\">+</p>","response":null,"trial_type":"html-keyboard-response","trial_index":7,"plugin_version":"2.1.0","time_elapsed":21077,"subject_id":"91224","group":"Group2","condition":"3_Rep","full_date":"2026-02-23T20:11:34.728Z","date":"2026-02-23","time":"20:11:34"},{"task":"memory_phase","broad_category":"I","image_png":"I_Diorite_01.png","image_id":33,"category_name":"Diorite","category":3,"distinct_rating":2.97,"distinct_type":"Bottom","rt":null,"stimulus":"Stimuli_Rocks480/I_Diorite_01.png","response":null,"trial_type":"image-keyboard-response","trial_index":8,"plugin_version":"2.1.0","time_elapsed":23595,"subject_id":"91224","group":"Group2","condition":"3_Rep","full_date":"2026-02-23T20:11:34.728Z","date":"2026-02-23","time":"20:11:34"},{"rt":null,"stimulus":"<p style=\"font-size: 50px; margin: 0; text-align: center;\">+</p>","response":null,"trial_type":"html-keyboard-response","trial_index":9,"plugin_version":"2.1.0","time_elapsed":24598,"subject_id":"91224","group":"Group2","condition":"3_Rep","full_date":"2026-02-23T20:11:34.728Z","date":"2026-02-23","time":"20:11:34"},{"task":"memory_phase","broad_category":"S","image_png":"S_Sandstone_04.png","image_id":452,"category_name":"Sandstone","category":29,"distinct_rating":1.8,"distinct_type":"Bottom","rt":null,"stimulus":"Stimuli_Rocks480/S_Sandstone_04.png","response":null,"trial_type":"image-keyboard-response","trial_index":10,"plugin_version":"2.1.0","time_elapsed":27113,"subject_id":"91224","group":"Group2","condition":"3_Rep","full_date":"2026-02-23T20:11:34.728Z","date":"2026-02-23","time":"20:11:34"},{"rt":null,"stimulus":"<p style=\"font-size: 50px; margin: 0; text-align: center;\">+</p>","response":null,"trial_type":"html-keyboard-response","trial_index":11,"plugin_version":"2.1.0","time_elapsed":28114,"subject_id":"91224","group":"Group2","condition":"3_Rep","full_date":"2026-02-23T20:11:34.728Z","date":"2026-02-23","time":"20:11:34"},{"task":"memory_phase","broad_category":"I","image_png":"I_Basalt_08.png","image_id":24,"category_name":"Basalt","category":2,"distinct_rating":2.31,"distinct_type":"Bottom","rt":null,"stimulus":"Stimuli_Rocks480/I_Basalt_08.png","response":null,"trial_type":"image-keyboard-response","trial_index":12,"plugin_version":"2.1.0","time_elapsed":30636,"subject_id":"91224","group":"Group2","condition":"3_Rep","full_date":"2026-02-23T20:11:34.728Z","date":"2026-02-23","time":"20:11:34"},{"rt":null,"stimulus":"<p style=\"font-size: 50px; margin: 0; text-align: center;\">+</p>","response":null,"trial_type":"html-keyboard-response","trial_index":13,"plugin_version":"2.1.0","time_elapsed":31638,"subject_id":"91224","group":"Group2","condition":"3_Rep","full_date":"2026-02-23T20:11:34.728Z","date":"2026-02-23","time":"20:11:34"},{"task":"memory_phase","broad_category":"M","image_png":"M_Gneiss_15.png","image_id":207,"category_name":"Gneiss","category":13,"distinct_rating":3.11,"distinct_type":"Bottom","rt":null,"stimulus":"Stimuli_Rocks480/M_Gneiss_15.png","response":null,"trial_type":"image-keyboard-response","trial_index":14,"plugin_version":"2.1.0","time_elapsed":34150,"subject_id":"91224","group":"Group2","condition":"3_Rep","full_date":"2026-02-23T20:11:34.728Z","date":"2026-02-23","time":"20:11:34"},{"rt":null,"stimulus":"<p style=\"font-size: 50px; margin: 0; text-align: center;\">+</p>","response":null,"trial_type":"html-keyboard-response","trial_index":15,"plugin_version":"2.1.0","time_elapsed":35152,"subject_id":"91224","group":"Group2","condition":"3_Rep","full_date":"2026-02-23T20:11:34.728Z","date":"2026-02-23","time":"20:11:34"},{"task":"memory_phase","broad_category":"M","image_png":"M_Marble_14.png","image_id":238,"category_name":"Marble","category":15,"distinct_rating":3.31,"distinct_type":"Bottom","rt":null,"stimulus":"Stimuli_Rocks480/M_Marble_14.png","response":null,"trial_type":"image-keyboard-response","trial_index":16,"plugin_version":"2.1.0","time_elapsed":37669,"subject_id":"91224","group":"Group2","condition":"3_Rep","full_date":"2026-02-23T20:11:34.728Z","date":"2026-02-23","time":"20:11:34"},{"rt":null,"stimulus":"<p style=\"font-size: 50px; margin: 0; text-align: center;\">+</p>","response":null,"trial_type":"html-keyboard-response","trial_index":17,"plugin_version":"2.1.0","time_elapsed":38672,"subject_id":"91224","group":"Group2","condition":"3_Rep","full_date":"2026-02-23T20:11:34.728Z","date":"2026-02-23","time":"20:11:34"},{"task":"memory_phase","broad_category":"S","image_png":"S_Shale_03.png","image_id":467,"category_name":"Shale","category":30,"distinct_rating":1.95,"distinct_type":"Bottom","rt":null,"stimulus":"Stimuli_Rocks480/S_Shale_03.png","response":null,"trial_type":"image-keyboard-response","trial_index":18,"plugin_version":"2.1.0","time_elapsed":41189,"subject_id":"91224","group":"Group2","condition":"3_Rep","full_date":"2026-02-23T20:11:34.728Z","date":"2026-02-23","time":"20:11:34"},{"rt":null,"stimulus":"<p style=\"font-size: 50px; margin: 0; text-align: center;\">+</p>","response":null,"trial_type":"html-keyboard-response","trial_index":19,"plugin_version":"2.1.0","time_elapsed":42191,"subject_id":"91224","group":"Group2","condition":"3_Rep","full_date":"2026-02-23T20:11:34.728Z","date":"2026-02-23","time":"20:11:34"},{"task":"memory_phase","broad_category":"I","image_png":"I_Pumice_14.png","image_id":142,"category_name":"Pumice","category":9,"distinct_rating":3.22,"distinct_type":"Bottom","rt":null,"stimulus":"Stimuli_Rocks480/I_Pumice_14.png","response":null,"trial_type":"image-keyboard-response","trial_index":20,"plugin_version":"2.1.0","time_elapsed":44708,"subject_id":"91224","group":"Group2","condition":"3_Rep","full_date":"2026-02-23T20:11:34.728Z","date":"2026-02-23","time":"20:11:34"},{"rt":null,"stimulus":"<p style=\"font-size: 50px; margin: 0; text-align: center;\">+</p>","response":null,"trial_type":"html-keyboard-response","trial_index":21,"plugin_version":"2.1.0","time_elapsed":45710,"subject_id":"91224","group":"Group2","condition":"3_Rep","full_date":"2026-02-23T20:11:34.728Z","date":"2026-02-23","time":"20:11:34"},{"task":"memory_phase","broad_category":"I","image_png":"I_Rhyolite_08.png","image_id":152,"category_name":"Rhyolite","category":10,"distinct_rating":1.38,"distinct_type":"Bottom","rt":null,"stimulus":"Stimuli_Rocks480/I_Rhyolite_08.png","response":null,"trial_type":"image-keyboard-response","trial_index":22,"plugin_version":"2.1.0","time_elapsed":48225,"subject_id":"91224","group":"Group2","condition":"3_Rep","full_date":"2026-02-23T20:11:34.728Z","date":"2026-02-23","time":"20:11:34"},{"rt":null,"stimulus":"<p style=\"font-size: 50px; margin: 0; text-align: center;\">+</p>","response":null,"trial_type":"html-keyboard-response","trial_index":23,"plugin_version":"2.1.0","time_elapsed":49227,"subject_id":"91224","group":"Group2","condition":"3_Rep","full_date":"2026-02-23T20:11:34.728Z","date":"2026-02-23","time":"20:11:34"},{"task":"memory_phase","broad_category":"S","image_png":"S_Chert_13.png","image_id":365,"category_name":"Chert","category":23,"distinct_rating":6.57,"distinct_type":"Top","rt":null,"stimulus":"Stimuli_Rocks480/S_Chert_13.png","response":null,"trial_type":"image-keyboard-response","trial_index":24,"plugin_version":"2.1.0","time_elapsed":51740,"subject_id":"91224","group":"Group2","condition":"3_Rep","full_date":"2026-02-23T20:11:34.728Z","date":"2026-02-23","time":"20:11:34"},{"rt":null,"stimulus":"<p style=\"font-size: 50px; margin: 0; text-align: center;\">+</p>","response":null,"trial_type":"html-keyboard-response","trial_index":25,"plugin_version":"2.1.0","time_elapsed":52743,"subject_id":"91224","group":"Group2","condition":"3_Rep","full_date":"2026-02-23T20:11:34.728Z","date":"2026-02-23","time":"20:11:34"},{"task":"memory_phase","broad_category":"I","image_png":"I_Diorite_15.png","image_id":47,"category_name":"Diorite","category":3,"distinct_rating":3.05,"distinct_type":"Bottom","rt":null,"stimulus":"Stimuli_Rocks480/I_Diorite_15.png","response":null,"trial_type":"image-keyboard-response","trial_index":26,"plugin_version":"2.1.0","time_elapsed":55259,"subject_id":"91224","group":"Group2","condition":"3_Rep","full_date":"2026-02-23T20:11:34.728Z","date":"2026-02-23","time":"20:11:34"},{"rt":null,"stimulus":"<p style=\"font-size: 50px; margin: 0; text-align: center;\">+</p>","response":null,"trial_type":"html-keyboard-response","trial_index":27,"plugin_version":"2.1.0","time_elapsed":56261,"subject_id":"91224","group":"Group2","condition":"3_Rep","full_date":"2026-02-23T20:11:34.728Z","date":"2026-02-23","time":"20:11:34"},{"task":"memory_phase","broad_category":"S","image_png":"S_Dolomite_01.png","image_id":385,"category_name":"Dolomite","category":25,"distinct_rating":1.43,"distinct_type":"Bottom","rt":null,"stimulus":"Stimuli_Rocks480/S_Dolomite_01.png","response":null,"trial_type":"image-keyboard-response","trial_index":28,"plugin_version":"2.1.0","time_elapsed":58781,"subject_id":"91224","group":"Group2","condition":"3_Rep","full_date":"2026-02-23T20:11:34.728Z","date":"2026-02-23","time":"20:11:34"},{"rt":null,"stimulus":"<p style=\"font-size: 50px; margin: 0; text-align: center;\">+</p>","response":null,"trial_type":"html-keyboard-response","trial_index":29,"plugin_version":"2.1.0","time_elapsed":59784,"subject_id":"91224","group":"Group2","condition":"3_Rep","full_date":"2026-02-23T20:11:34.728Z","date":"2026-02-23","time":"20:11:34"},{"task":"memory_phase","broad_category":"S","image_png":"S_Sandstone_08.png","image_id":456,"category_name":"Sandstone","category":29,"distinct_rating":1.5,"distinct_type":"Bottom","rt":null,"stimulus":"Stimuli_Rocks480/S_Sandstone_08.png","response":null,"trial_type":"image-keyboard-response","trial_index":30,"plugin_version":"2.1.0","time_elapsed":62301,"subject_id":"91224","group":"Group2","condition":"3_Rep","full_date":"2026-02-23T20:11:34.728Z","date":"2026-02-23","time":"20:11:34"},{"rt":null,"stimulus":"<p style=\"font-size: 50px; margin: 0; text-align: center;\">+</p>","response":null,"trial_type":"html-keyboard-response","trial_index":31,"plugin_version":"2.1.0","time_elapsed":63303,"subject_id":"91224","group":"Group2","condition":"3_Rep","full_date":"2026-02-23T20:11:34.728Z","date":"2026-02-23","time":"20:11:34"},{"task":"memory_phase","broad_category":"I","image_png":"I_Peridotite_13.png","image_id":125,"category_name":"Peridotite","category":8,"distinct_rating":7.28,"distinct_type":"Top","rt":null,"stimulus":"Stimuli_Rocks480/I_Peridotite_13.png","response":null,"trial_type":"image-keyboard-response","trial_index":32,"plugin_version":"2.1.0","time_elapsed":65821,"subject_id":"91224","group":"Group2","condition":"3_Rep","full_date":"2026-02-23T20:11:34.728Z","date":"2026-02-23","time":"20:11:34"},{"rt":null,"stimulus":"<p style=\"font-size: 50px; margin: 0; text-align: center;\">+</p>","response":null,"trial_type":"html-keyboard-response","trial_index":33,"plugin_version":"2.1.0","time_elapsed":66823,"subject_id":"91224","group":"Group2","condition":"3_Rep","full_date":"2026-02-23T20:11:34.728Z","date":"2026-02-23","time":"20:11:34"},{"task":"memory_phase","broad_category":"I","image_png":"I_Diorite_10.png","image_id":42,"category_name":"Diorite","category":3,"distinct_rating":2.84,"distinct_type":"Bottom","rt":null,"stimulus":"Stimuli_Rocks480/I_Diorite_10.png","response":null,"trial_type":"image-keyboard-response","trial_index":34,"plugin_version":"2.1.0","time_elapsed":69341,"subject_id":"91224","group":"Group2","condition":"3_Rep","full_date":"2026-02-23T20:11:34.728Z","date":"2026-02-23","time":"20:11:34"},{"rt":null,"stimulus":"<p style=\"font-size: 50px; margin: 0; text-align: center;\">+</p>","response":null,"trial_type":"html-keyboard-response","trial_index":35,"plugin_version":"2.1.0","time_elapsed":70343,"subject_id":"91224","group":"Group2","condition":"3_Rep","full_date":"2026-02-23T20:11:34.728Z","date":"2026-02-23","time":"20:11:34"},{"task":"memory_phase","broad_category":"M","image_png":"M_Slate_04.png","image_id":308,"category_name":"Slate","category":20,"distinct_rating":2.2,"distinct_type":"Bottom","rt":null,"stimulus":"Stimuli_Rocks480/M_Slate_04.png","response":null,"trial_type":"image-keyboard-response","trial_index":36,"plugin_version":"2.1.0","time_elapsed":72854,"subject_id":"91224","group":"Group2","condition":"3_Rep","full_date":"2026-02-23T20:11:34.728Z","date":"2026-02-23","time":"20:11:34"},{"rt":null,"stimulus":"<p style=\"font-size: 50px; margin: 0; text-align: center;\">+</p>","response":null,"trial_type":"html-keyboard-response","trial_index":37,"plugin_version":"2.1.0","time_elapsed":73857,"subject_id":"91224","group":"Group2","condition":"3_Rep","full_date":"2026-02-23T20:11:34.728Z","date":"2026-02-23","time":"20:11:34"},{"task":"memory_phase","broad_category":"M","image_png":"M_Phyllite_02.png","image_id":258,"category_name":"Phyllite","category":17,"distinct_rating":2.89,"distinct_type":"Bottom","rt":null,"stimulus":"Stimuli_Rocks480/M_Phyllite_02.png","response":null,"trial_type":"image-keyboard-response","trial_index":38,"plugin_version":"2.1.0","time_elapsed":76375,"subject_id":"91224","group":"Group2","condition":"3_Rep","full_date":"2026-02-23T20:11:34.728Z","date":"2026-02-23","time":"20:11:34"},{"rt":null,"stimulus":"<p style=\"font-size: 50px; margin: 0; text-align: center;\">+</p>","response":null,"trial_type":"html-keyboard-response","trial_index":39,"plugin_version":"2.1.0","time_elapsed":77378,"subject_id":"91224","group":"Group2","condition":"3_Rep","full_date":"2026-02-23T20:11:34.728Z","date":"2026-02-23","time":"20:11:34"},{"task":"memory_phase","broad_category":"M","image_png":"M_Marble_02.png","image_id":226,"category_name":"Marble","category":15,"distinct_rating":3.2,"distinct_type":"Bottom","rt":null,"stimulus":"Stimuli_Rocks480/M_Marble_02.png","response":null,"trial_type":"image-keyboard-response","trial_index":40,"plugin_version":"2.1.0","time_elapsed":79892,"subject_id":"91224","group":"Group2","condition":"3_Rep","full_date":"2026-02-23T20:11:34.728Z","date":"2026-02-23","time":"20:11:34"},{"rt":null,"stimulus":"<p style=\"font-size: 50px; margin: 0; text-align: center;\">+</p>","response":null,"trial_type":"html-keyboard-response","trial_index":41,"plugin_version":"2.1.0","time_elapsed":80893,"subject_id":"91224","group":"Group2","condition":"3_Rep","full_date":"2026-02-23T20:11:34.728Z","date":"2026-02-23","time":"20:11:34"},{"task":"memory_phase","broad_category":"M","image_png":"M_Quartzite_07.png","image_id":279,"category_name":"Quartzite","category":18,"distinct_rating":1.97,"distinct_type":"Bottom","rt":null,"stimulus":"Stimuli_Rocks480/M_Quartzite_07.png","response":null,"trial_type":"image-keyboard-response","trial_index":42,"plugin_version":"2.1.0","time_elapsed":83409,"subject_id":"91224","group":"Group2","condition":"3_Rep","full_date":"2026-02-23T20:11:34.728Z","date":"2026-02-23","time":"20:11:34"},{"rt":null,"stimulus":"<p style=\"font-size: 50px; margin: 0; text-align: center;\">+</p>","response":null,"trial_type":"html-keyboard-response","trial_index":43,"plugin_version":"2.1.0","time_elapsed":84411,"subject_id":"91224","group":"Group2","condition":"3_Rep","full_date":"2026-02-23T20:11:34.728Z","date":"2026-02-23","time":"20:11:34"},{"task":"memory_phase","broad_category":"I","image_png":"I_Pegmatite_03.png","image_id":99,"category_name":"Pegmatite","category":7,"distinct_rating":7.24,"distinct_type":"Top","rt":null,"stimulus":"Stimuli_Rocks480/I_Pegmatite_03.png","response":null,"trial_type":"image-keyboard-response","trial_index":44,"plugin_version":"2.1.0","time_elapsed":86928,"subject_id":"91224","group":"Group2","condition":"3_Rep","full_date":"2026-02-23T20:11:34.728Z","date":"2026-02-23","time":"20:11:34"},{"rt":null,"stimulus":"<p style=\"font-size: 50px; margin: 0; text-align: center;\">+</p>","response":null,"trial_type":"html-keyboard-response","trial_index":45,"plugin_version":"2.1.0","time_elapsed":87930,"subject_id":"91224","group":"Group2","condition":"3_Rep","full_date":"2026-02-23T20:11:34.728Z","date":"2026-02-23","time":"20:11:34"},{"task":"memory_phase","broad_category":"I","image_png":"I_Basalt_10.png","image_id":26,"category_name":"Basalt","category":2,"distinct_rating":2.76,"distinct_type":"Bottom","rt":null,"stimulus":"Stimuli_Rocks480/I_Basalt_10.png","response":null,"trial_type":"image-keyboard-response","trial_index":46,"plugin_version":"2.1.0","time_elapsed":90447,"subject_id":"91224","group":"Group2","condition":"3_Rep","full_date":"2026-02-23T20:11:34.728Z","date":"2026-02-23","time":"20:11:34"},{"rt":null,"stimulus":"<p style=\"font-size: 50px; margin: 0; text-align: center;\">+</p>","response":null,"trial_type":"html-keyboard-response","trial_index":47,"plugin_version":"2.1.0","time_elapsed":91449,"subject_id":"91224","group":"Group2","condition":"3_Rep","full_date":"2026-02-23T20:11:34.728Z","date":"2026-02-23","time":"20:11:34"},{"task":"memory_phase","broad_category":"S","image_png":"S_Rock Salt_15.png","image_id":447,"category_name":"Rock Salt","category":28,"distinct_rating":7.79,"distinct_type":"Top","rt":null,"stimulus":"Stimuli_Rocks480/S_Rock Salt_15.png","response":null,"trial_type":"image-keyboard-response","trial_index":48,"plugin_version":"2.1.0","time_elapsed":93964,"subject_id":"91224","group":"Group2","condition":"3_Rep","full_date":"2026-02-23T20:11:34.728Z","date":"2026-02-23","time":"20:11:34"},{"rt":null,"stimulus":"<p style=\"font-size: 50px; margin: 0; text-align: center;\">+</p>","response":null,"trial_type":"html-keyboard-response","trial_index":49,"plugin_version":"2.1.0","time_elapsed":94965,"subject_id":"91224","group":"Group2","condition":"3_Rep","full_date":"2026-02-23T20:11:34.728Z","date":"2026-02-23","time":"20:11:34"},{"task":"memory_phase","broad_category":"I","image_png":"I_Pegmatite_11.png","image_id":107,"category_name":"Pegmatite","category":7,"distinct_rating":7.11,"distinct_type":"Top","rt":null,"stimulus":"Stimuli_Rocks480/I_Pegmatite_11.png","response":null,"trial_type":"image-keyboard-response","trial_index":50,"plugin_version":"2.1.0","time_elapsed":97486,"subject_id":"91224","group":"Group2","condition":"3_Rep","full_date":"2026-02-23T20:11:34.728Z","date":"2026-02-23","time":"20:11:34"},{"rt":null,"stimulus":"<p style=\"font-size: 50px; margin: 0; text-align: center;\">+</p>","response":null,"trial_type":"html-keyboard-response","trial_index":51,"plugin_version":"2.1.0","time_elapsed":98488,"subject_id":"91224","group":"Group2","condition":"3_Rep","full_date":"2026-02-23T20:11:34.728Z","date":"2026-02-23","time":"20:11:34"},{"task":"memory_phase","broad_category":"I","image_png":"I_Pumice_01.png","image_id":129,"category_name":"Pumice","category":9,"distinct_rating":3.25,"distinct_type":"Bottom","rt":null,"stimulus":"Stimuli_Rocks480/I_Pumice_01.png","response":null,"trial_type":"image-keyboard-response","trial_index":52,"plugin_version":"2.1.0","time_elapsed":101005,"subject_id":"91224","group":"Group2","condition":"3_Rep","full_date":"2026-02-23T20:11:34.728Z","date":"2026-02-23","time":"20:11:34"},{"rt":null,"stimulus":"<p style=\"font-size: 50px; margin: 0; text-align: center;\">+</p>","response":null,"trial_type":"html-keyboard-response","trial_index":53,"plugin_version":"2.1.0","time_elapsed":102007,"subject_id":"91224","group":"Group2","condition":"3_Rep","full_date":"2026-02-23T20:11:34.728Z","date":"2026-02-23","time":"20:11:34"},{"task":"memory_phase","broad_category":"M","image_png":"M_Phyllite_05.png","image_id":261,"category_name":"Phyllite","category":17,"distinct_rating":2.14,"distinct_type":"Bottom","rt":null,"stimulus":"Stimuli_Rocks480/M_Phyllite_05.png","response":null,"trial_type":"image-keyboard-response","trial_index":54,"plugin_version":"2.1.0","time_elapsed":104523,"subject_id":"91224","group":"Group2","condition":"3_Rep","full_date":"2026-02-23T20:11:34.728Z","date":"2026-02-23","time":"20:11:34"},{"rt":2330,"stimulus":"<p style=\"max-width: 760px; margin: auto; font-size: 35px; line-height: 1.5;\">\n                Press SPACE to continue study phase\n              </p>","response":" ","trial_type":"html-keyboard-response","trial_index":55,"plugin_version":"2.1.0","time_elapsed":106855,"subject_id":"91224","group":"Group2","condition":"3_Rep","full_date":"2026-02-23T20:11:34.728Z","date":"2026-02-23","time":"20:11:34"},{"rt":null,"stimulus":"<p style=\"font-size: 50px; margin: 0; text-align: center;\">+</p>","response":null,"trial_type":"html-keyboard-response","trial_index":56,"plugin_version":"2.1.0","time_elapsed":107858,"subject_id":"91224","group":"Group2","condition":"3_Rep","full_date":"2026-02-23T20:11:34.728Z","date":"2026-02-23","time":"20:11:34"},{"task":"memory_phase","broad_category":"M","image_png":"M_Phyllite_13.png","image_id":269,"category_name":"Phyllite","category":17,"distinct_rating":2.8,"distinct_type":"Bottom","rt":null,"stimulus":"Stimuli_Rocks480/M_Phyllite_13.png","response":null,"trial_type":"image-keyboard-response","trial_index":57,"plugin_version":"2.1.0","time_elapsed":110371,"subject_id":"91224","group":"Group2","condition":"3_Rep","full_date":"2026-02-23T20:11:34.728Z","date":"2026-02-23","time":"20:11:34"},{"rt":null,"stimulus":"<p style=\"font-size: 50px; margin: 0; text-align: center;\">+</p>","response":null,"trial_type":"html-keyboard-response","trial_index":58,"plugin_version":"2.1.0","time_elapsed":111374,"subject_id":"91224","group":"Group2","condition":"3_Rep","full_date":"2026-02-23T20:11:34.728Z","date":"2026-02-23","time":"20:11:34"},{"task":"memory_phase","broad_category":"M","image_png":"M_Gneiss_10.png","image_id":202,"category_name":"Gneiss","category":13,"distinct_rating":3.09,"distinct_type":"Bottom","rt":null,"stimulus":"Stimuli_Rocks480/M_Gneiss_10.png","response":null,"trial_type":"image-keyboard-response","trial_index":59,"plugin_version":"2.1.0","time_elapsed":113892,"subject_id":"91224","group":"Group2","condition":"3_Rep","full_date":"2026-02-23T20:11:34.728Z","date":"2026-02-23","time":"20:11:34"},{"rt":null,"stimulus":"<p style=\"font-size: 50px; margin: 0; text-align: center;\">+</p>","response":null,"trial_type":"html-keyboard-response","trial_index":60,"plugin_version":"2.1.0","time_elapsed":114895,"subject_id":"91224","group":"Group2","condition":"3_Rep","full_date":"2026-02-23T20:11:34.728Z","date":"2026-02-23","time":"20:11:34"},{"task":"memory_phase","broad_category":"I","image_png":"I_Gabbro_12.png","image_id":60,"category_name":"Gabbro","category":4,"distinct_rating":2.6,"distinct_type":"Bottom","rt":null,"stimulus":"Stimuli_Rocks480/I_Gabbro_12.png","response":null,"trial_type":"image-keyboard-response","trial_index":61,"plugin_version":"2.1.0","time_elapsed":117412,"subject_id":"91224","group":"Group2","condition":"3_Rep","full_date":"2026-02-23T20:11:34.728Z","date":"2026-02-23","time":"20:11:34"},{"rt":null,"stimulus":"<p style=\"font-size: 50px; margin: 0; text-align: center;\">+</p>","response":null,"trial_type":"html-keyboard-response","trial_index":62,"plugin_version":"2.1.0","time_elapsed":118414,"subject_id":"91224","group":"Group2","condition":"3_Rep","full_date":"2026-02-23T20:11:34.728Z","date":"2026-02-23","time":"20:11:34"},{"task":"memory_phase","broad_category":"S","image_png":"S_Shale_07.png","image_id":471,"category_name":"Shale","category":30,"distinct_rating":2.73,"distinct_type":"Bottom","rt":null,"stimulus":"Stimuli_Rocks480/S_Shale_07.png","response":null,"trial_type":"image-keyboard-response","trial_index":63,"plugin_version":"2.1.0","time_elapsed":120930,"subject_id":"91224","group":"Group2","condition":"3_Rep","full_date":"2026-02-23T20:11:34.728Z","date":"2026-02-23","time":"20:11:34"},{"rt":null,"stimulus":"<p style=\"font-size: 50px; margin: 0; text-align: center;\">+</p>","response":null,"trial_type":"html-keyboard-response","trial_index":64,"plugin_version":"2.1.0","time_elapsed":121933,"subject_id":"91224","group":"Group2","condition":"3_Rep","full_date":"2026-02-23T20:11:34.728Z","date":"2026-02-23","time":"20:11:34"},{"task":"memory_phase","broad_category":"I","image_png":"I_Obsidian_06.png","image_id":86,"category_name":"Obsidian","category":6,"distinct_rating":8.01,"distinct_type":"Top","rt":null,"stimulus":"Stimuli_Rocks480/I_Obsidian_06.png","response":null,"trial_type":"image-keyboard-response","trial_index":65,"plugin_version":"2.1.0","time_elapsed":124449,"subject_id":"91224","group":"Group2","condition":"3_Rep","full_date":"2026-02-23T20:11:34.728Z","date":"2026-02-23","time":"20:11:34"},{"rt":null,"stimulus":"<p style=\"font-size: 50px; margin: 0; text-align: center;\">+</p>","response":null,"trial_type":"html-keyboard-response","trial_index":66,"plugin_version":"2.1.0","time_elapsed":125451,"subject_id":"91224","group":"Group2","condition":"3_Rep","full_date":"2026-02-23T20:11:34.728Z","date":"2026-02-23","time":"20:11:34"},{"task":"memory_phase","broad_category":"M","image_png":"M_Quartzite_12.png","image_id":284,"category_name":"Quartzite","category":18,"distinct_rating":1.92,"distinct_type":"Bottom","rt":null,"stimulus":"Stimuli_Rocks480/M_Quartzite_12.png","response":null,"trial_type":"image-keyboard-response","trial_index":67,"plugin_version":"2.1.0","time_elapsed":127967,"subject_id":"91224","group":"Group2","condition":"3_Rep","full_date":"2026-02-23T20:11:34.728Z","date":"2026-02-23","time":"20:11:34"},{"rt":null,"stimulus":"<p style=\"font-size: 50px; margin: 0; text-align: center;\">+</p>","response":null,"trial_type":"html-keyboard-response","trial_index":68,"plugin_version":"2.1.0","time_elapsed":128970,"subject_id":"91224","group":"Group2","condition":"3_Rep","full_date":"2026-02-23T20:11:34.728Z","date":"2026-02-23","time":"20:11:34"},{"task":"memory_phase","broad_category":"I","image_png":"I_Gabbro_14.png","image_id":62,"category_name":"Gabbro","category":4,"distinct_rating":2.95,"distinct_type":"Bottom","rt":null,"stimulus":"Stimuli_Rocks480/I_Gabbro_14.png","response":null,"trial_type":"image-keyboard-response","trial_index":69,"plugin_version":"2.1.0","time_elapsed":131487,"subject_id":"91224","group":"Group2","condition":"3_Rep","full_date":"2026-02-23T20:11:34.728Z","date":"2026-02-23","time":"20:11:34"},{"rt":null,"stimulus":"<p style=\"font-size: 50px; margin: 0; text-align: center;\">+</p>","response":null,"trial_type":"html-keyboard-response","trial_index":70,"plugin_version":"2.1.0","time_elapsed":132489,"subject_id":"91224","group":"Group2","condition":"3_Rep","full_date":"2026-02-23T20:11:34.728Z","date":"2026-02-23","time":"20:11:34"},{"task":"memory_phase","broad_category":"I","image_png":"I_Andesite_04.png","image_id":4,"category_name":"Andesite","category":1,"distinct_rating":3.18,"distinct_type":"Bottom","rt":null,"stimulus":"Stimuli_Rocks480/I_Andesite_04.png","response":null,"trial_type":"image-keyboard-response","trial_index":71,"plugin_version":"2.1.0","time_elapsed":135003,"subject_id":"91224","group":"Group2","condition":"3_Rep","full_date":"2026-02-23T20:11:34.728Z","date":"2026-02-23","time":"20:11:34"},{"rt":null,"stimulus":"<p style=\"font-size: 50px; margin: 0; text-align: center;\">+</p>","response":null,"trial_type":"html-keyboard-response","trial_index":72,"plugin_version":"2.1.0","time_elapsed":136005,"subject_id":"91224","group":"Group2","condition":"3_Rep","full_date":"2026-02-23T20:11:34.728Z","date":"2026-02-23","time":"20:11:34"},{"task":"memory_phase","broad_category":"S","image_png":"S_Dolomite_16.png","image_id":400,"category_name":"Dolomite","category":25,"distinct_rating":1.71,"distinct_type":"Bottom","rt":null,"stimulus":"Stimuli_Rocks480/S_Dolomite_16.png","response":null,"trial_type":"image-keyboard-response","trial_index":73,"plugin_version":"2.1.0","time_elapsed":138518,"subject_id":"91224","group":"Group2","condition":"3_Rep","full_date":"2026-02-23T20:11:34.728Z","date":"2026-02-23","time":"20:11:34"},{"rt":null,"stimulus":"<p style=\"font-size: 50px; margin: 0; text-align: center;\">+</p>","response":null,"trial_type":"html-keyboard-response","trial_index":74,"plugin_version":"2.1.0","time_elapsed":139520,"subject_id":"91224","group":"Group2","condition":"3_Rep","full_date":"2026-02-23T20:11:34.728Z","date":"2026-02-23","time":"20:11:34"},{"task":"memory_phase","broad_category":"S","image_png":"S_Sandstone_11.png","image_id":459,"category_name":"Sandstone","category":29,"distinct_rating":1.82,"distinct_type":"Bottom","rt":null,"stimulus":"Stimuli_Rocks480/S_Sandstone_11.png","response":null,"trial_type":"image-keyboard-response","trial_index":75,"plugin_version":"2.1.0","time_elapsed":142039,"subject_id":"91224","group":"Group2","condition":"3_Rep","full_date":"2026-02-23T20:11:34.728Z","date":"2026-02-23","time":"20:11:34"},{"rt":null,"stimulus":"<p style=\"font-size: 50px; margin: 0; text-align: center;\">+</p>","response":null,"trial_type":"html-keyboard-response","trial_index":76,"plugin_version":"2.1.0","time_elapsed":143041,"subject_id":"91224","group":"Group2","condition":"3_Rep","full_date":"2026-02-23T20:11:34.728Z","date":"2026-02-23","time":"20:11:34"},{"task":"memory_phase","broad_category":"I","image_png":"I_Andesite_03.png","image_id":3,"category_name":"Andesite","category":1,"distinct_rating":3.17,"distinct_type":"Bottom","rt":null,"stimulus":"Stimuli_Rocks480/I_Andesite_03.png","response":null,"trial_type":"image-keyboard-response","trial_index":77,"plugin_version":"2.1.0","time_elapsed":145552,"subject_id":"91224","group":"Group2","condition":"3_Rep","full_date":"2026-02-23T20:11:34.728Z","date":"2026-02-23","time":"20:11:34"},{"rt":null,"stimulus":"<p style=\"font-size: 50px; margin: 0; text-align: center;\">+</p>","response":null,"trial_type":"html-keyboard-response","trial_index":78,"plugin_version":"2.1.0","time_elapsed":146553,"subject_id":"91224","group":"Group2","condition":"3_Rep","full_date":"2026-02-23T20:11:34.728Z","date":"2026-02-23","time":"20:11:34"},{"task":"memory_phase","broad_category":"M","image_png":"M_Gneiss_14.png","image_id":206,"category_name":"Gneiss","category":13,"distinct_rating":3.41,"distinct_type":"Bottom","rt":null,"stimulus":"Stimuli_Rocks480/M_Gneiss_14.png","response":null,"trial_type":"image-keyboard-response","trial_index":79,"plugin_version":"2.1.0","time_elapsed":149071,"subject_id":"91224","group":"Group2","condition":"3_Rep","full_date":"2026-02-23T20:11:34.728Z","date":"2026-02-23","time":"20:11:34"},{"rt":null,"stimulus":"<p style=\"font-size: 50px; margin: 0; text-align: center;\">+</p>","response":null,"trial_type":"html-keyboard-response","trial_index":80,"plugin_version":"2.1.0","time_elapsed":150073,"subject_id":"91224","group":"Group2","condition":"3_Rep","full_date":"2026-02-23T20:11:34.728Z","date":"2026-02-23","time":"20:11:34"},{"task":"memory_phase","broad_category":"I","image_png":"I_Rhyolite_10.png","image_id":154,"category_name":"Rhyolite","category":10,"distinct_rating":2.88,"distinct_type":"Bottom","rt":null,"stimulus":"Stimuli_Rocks480/I_Rhyolite_10.png","response":null,"trial_type":"image-keyboard-response","trial_index":81,"plugin_version":"2.1.0","time_elapsed":152592,"subject_id":"91224","group":"Group2","condition":"3_Rep","full_date":"2026-02-23T20:11:34.728Z","date":"2026-02-23","time":"20:11:34"},{"rt":null,"stimulus":"<p style=\"font-size: 50px; margin: 0; text-align: center;\">+</p>","response":null,"trial_type":"html-keyboard-response","trial_index":82,"plugin_version":"2.1.0","time_elapsed":153594,"subject_id":"91224","group":"Group2","condition":"3_Rep","full_date":"2026-02-23T20:11:34.728Z","date":"2026-02-23","time":"20:11:34"},{"task":"memory_phase","broad_category":"S","image_png":"S_Conglomerate_14.png","image_id":382,"category_name":"Conglomerate","category":24,"distinct_rating":6.86,"distinct_type":"Top","rt":null,"stimulus":"Stimuli_Rocks480/S_Conglomerate_14.png","response":null,"trial_type":"image-keyboard-response","trial_index":83,"plugin_version":"2.1.0","time_elapsed":156108,"subject_id":"91224","group":"Group2","condition":"3_Rep","full_date":"2026-02-23T20:11:34.728Z","date":"2026-02-23","time":"20:11:34"},{"rt":null,"stimulus":"<p style=\"font-size: 50px; margin: 0; text-align: center;\">+</p>","response":null,"trial_type":"html-keyboard-response","trial_index":84,"plugin_version":"2.1.0","time_elapsed":157110,"subject_id":"91224","group":"Group2","condition":"3_Rep","full_date":"2026-02-23T20:11:34.728Z","date":"2026-02-23","time":"20:11:34"},{"task":"memory_phase","broad_category":"I","image_png":"I_Basalt_13.png","image_id":29,"category_name":"Basalt","category":2,"distinct_rating":2.68,"distinct_type":"Bottom","rt":null,"stimulus":"Stimuli_Rocks480/I_Basalt_13.png","response":null,"trial_type":"image-keyboard-response","trial_index":85,"plugin_version":"2.1.0","time_elapsed":159624,"subject_id":"91224","group":"Group2","condition":"3_Rep","full_date":"2026-02-23T20:11:34.728Z","date":"2026-02-23","time":"20:11:34"},{"rt":null,"stimulus":"<p style=\"font-size: 50px; margin: 0; text-align: center;\">+</p>","response":null,"trial_type":"html-keyboard-response","trial_index":86,"plugin_version":"2.1.0","time_elapsed":160626,"subject_id":"91224","group":"Group2","condition":"3_Rep","full_date":"2026-02-23T20:11:34.728Z","date":"2026-02-23","time":"20:11:34"},{"task":"memory_phase","broad_category":"M","image_png":"M_Marble_03.png","image_id":227,"category_name":"Marble","category":15,"distinct_rating":2.67,"distinct_type":"Bottom","rt":null,"stimulus":"Stimuli_Rocks480/M_Marble_03.png","response":null,"trial_type":"image-keyboard-response","trial_index":87,"plugin_version":"2.1.0","time_elapsed":163140,"subject_id":"91224","group":"Group2","condition":"3_Rep","full_date":"2026-02-23T20:11:34.728Z","date":"2026-02-23","time":"20:11:34"},{"rt":null,"stimulus":"<p style=\"font-size: 50px; margin: 0; text-align: center;\">+</p>","response":null,"trial_type":"html-keyboard-response","trial_index":88,"plugin_version":"2.1.0","time_elapsed":164142,"subject_id":"91224","group":"Group2","condition":"3_Rep","full_date":"2026-02-23T20:11:34.728Z","date":"2026-02-23","time":"20:11:34"},{"task":"memory_phase","broad_category":"I","image_png":"I_Pumice_13.png","image_id":141,"category_name":"Pumice","category":9,"distinct_rating":3.12,"distinct_type":"Bottom","rt":null,"stimulus":"Stimuli_Rocks480/I_Pumice_13.png","response":null,"trial_type":"image-keyboard-response","trial_index":89,"plugin_version":"2.1.0","time_elapsed":166658,"subject_id":"91224","group":"Group2","condition":"3_Rep","full_date":"2026-02-23T20:11:34.728Z","date":"2026-02-23","time":"20:11:34"},{"rt":null,"stimulus":"<p style=\"font-size: 50px; margin: 0; text-align: center;\">+</p>","response":null,"trial_type":"html-keyboard-response","trial_index":90,"plugin_version":"2.1.0","time_elapsed":167660,"subject_id":"91224","group":"Group2","condition":"3_Rep","full_date":"2026-02-23T20:11:34.728Z","date":"2026-02-23","time":"20:11:34"},{"task":"memory_phase","broad_category":"M","image_png":"M_Slate_14.png","image_id":318,"category_name":"Slate","category":20,"distinct_rating":2.58,"distinct_type":"Bottom","rt":null,"stimulus":"Stimuli_Rocks480/M_Slate_14.png","response":null,"trial_type":"image-keyboard-response","trial_index":91,"plugin_version":"2.1.0","time_elapsed":170171,"subject_id":"91224","group":"Group2","condition":"3_Rep","full_date":"2026-02-23T20:11:34.728Z","date":"2026-02-23","time":"20:11:34"},{"rt":null,"stimulus":"<p style=\"font-size: 50px; margin: 0; text-align: center;\">+</p>","response":null,"trial_type":"html-keyboard-response","trial_index":92,"plugin_version":"2.1.0","time_elapsed":171173,"subject_id":"91224","group":"Group2","condition":"3_Rep","full_date":"2026-02-23T20:11:34.728Z","date":"2026-02-23","time":"20:11:34"},{"task":"memory_phase","broad_category":"I","image_png":"I_Rhyolite_05.png","image_id":149,"category_name":"Rhyolite","category":10,"distinct_rating":3.02,"distinct_type":"Bottom","rt":null,"stimulus":"Stimuli_Rocks480/I_Rhyolite_05.png","response":null,"trial_type":"image-keyboard-response","trial_index":93,"plugin_version":"2.1.0","time_elapsed":173690,"subject_id":"91224","group":"Group2","condition":"3_Rep","full_date":"2026-02-23T20:11:34.728Z","date":"2026-02-23","time":"20:11:34"},{"rt":null,"stimulus":"<p style=\"font-size: 50px; margin: 0; text-align: center;\">+</p>","response":null,"trial_type":"html-keyboard-response","trial_index":94,"plugin_version":"2.1.0","time_elapsed":174692,"subject_id":"91224","group":"Group2","condition":"3_Rep","full_date":"2026-02-23T20:11:34.728Z","date":"2026-02-23","time":"20:11:34"},{"task":"memory_phase","broad_category":"M","image_png":"M_Slate_10.png","image_id":314,"category_name":"Slate","category":20,"distinct_rating":1.94,"distinct_type":"Bottom","rt":null,"stimulus":"Stimuli_Rocks480/M_Slate_10.png","response":null,"trial_type":"image-keyboard-response","trial_index":95,"plugin_version":"2.1.0","time_elapsed":177206,"subject_id":"91224","group":"Group2","condition":"3_Rep","full_date":"2026-02-23T20:11:34.728Z","date":"2026-02-23","time":"20:11:34"},{"rt":null,"stimulus":"<p style=\"font-size: 50px; margin: 0; text-align: center;\">+</p>","response":null,"trial_type":"html-keyboard-response","trial_index":96,"plugin_version":"2.1.0","time_elapsed":178208,"subject_id":"91224","group":"Group2","condition":"3_Rep","full_date":"2026-02-23T20:11:34.728Z","date":"2026-02-23","time":"20:11:34"},{"task":"memory_phase","broad_category":"S","image_png":"S_Dolomite_07.png","image_id":391,"category_name":"Dolomite","category":25,"distinct_rating":1.73,"distinct_type":"Bottom","rt":null,"stimulus":"Stimuli_Rocks480/S_Dolomite_07.png","response":null,"trial_type":"image-keyboard-response","trial_index":97,"plugin_version":"2.1.0","time_elapsed":180722,"subject_id":"91224","group":"Group2","condition":"3_Rep","full_date":"2026-02-23T20:11:34.728Z","date":"2026-02-23","time":"20:11:34"},{"rt":null,"stimulus":"<p style=\"font-size: 50px; margin: 0; text-align: center;\">+</p>","response":null,"trial_type":"html-keyboard-response","trial_index":98,"plugin_version":"2.1.0","time_elapsed":181725,"subject_id":"91224","group":"Group2","condition":"3_Rep","full_date":"2026-02-23T20:11:34.728Z","date":"2026-02-23","time":"20:11:34"},{"task":"memory_phase","broad_category":"S","image_png":"S_Rock Salt_13.png","image_id":445,"category_name":"Rock Salt","category":28,"distinct_rating":7.58,"distinct_type":"Top","rt":null,"stimulus":"Stimuli_Rocks480/S_Rock Salt_13.png","response":null,"trial_type":"image-keyboard-response","trial_index":99,"plugin_version":"2.1.0","time_elapsed":184241,"subject_id":"91224","group":"Group2","condition":"3_Rep","full_date":"2026-02-23T20:11:34.728Z","date":"2026-02-23","time":"20:11:34"},{"rt":null,"stimulus":"<p style=\"font-size: 50px; margin: 0; text-align: center;\">+</p>","response":null,"trial_type":"html-keyboard-response","trial_index":100,"plugin_version":"2.1.0","time_elapsed":185243,"subject_id":"91224","group":"Group2","condition":"3_Rep","full_date":"2026-02-23T20:11:34.728Z","date":"2026-02-23","time":"20:11:34"},{"task":"memory_phase","broad_category":"S","image_png":"S_Shale_02.png","image_id":466,"category_name":"Shale","category":30,"distinct_rating":2.9,"distinct_type":"Bottom","rt":null,"stimulus":"Stimuli_Rocks480/S_Shale_02.png","response":null,"trial_type":"image-keyboard-response","trial_index":101,"plugin_version":"2.1.0","time_elapsed":187756,"subject_id":"91224","group":"Group2","condition":"3_Rep","full_date":"2026-02-23T20:11:34.728Z","date":"2026-02-23","time":"20:11:34"},{"rt":null,"stimulus":"<p style=\"font-size: 50px; margin: 0; text-align: center;\">+</p>","response":null,"trial_type":"html-keyboard-response","trial_index":102,"plugin_version":"2.1.0","time_elapsed":188758,"subject_id":"91224","group":"Group2","condition":"3_Rep","full_date":"2026-02-23T20:11:34.728Z","date":"2026-02-23","time":"20:11:34"},{"task":"memory_phase","broad_category":"I","image_png":"I_Gabbro_02.png","image_id":50,"category_name":"Gabbro","category":4,"distinct_rating":2.73,"distinct_type":"Bottom","rt":null,"stimulus":"Stimuli_Rocks480/I_Gabbro_02.png","response":null,"trial_type":"image-keyboard-response","trial_index":103,"plugin_version":"2.1.0","time_elapsed":191272,"subject_id":"91224","group":"Group2","condition":"3_Rep","full_date":"2026-02-23T20:11:34.728Z","date":"2026-02-23","time":"20:11:34"},{"rt":null,"stimulus":"<p style=\"font-size: 50px; margin: 0; text-align: center;\">+</p>","response":null,"trial_type":"html-keyboard-response","trial_index":104,"plugin_version":"2.1.0","time_elapsed":192274,"subject_id":"91224","group":"Group2","condition":"3_Rep","full_date":"2026-02-23T20:11:34.728Z","date":"2026-02-23","time":"20:11:34"},{"task":"memory_phase","broad_category":"M","image_png":"M_Quartzite_15.png","image_id":287,"category_name":"Quartzite","category":18,"distinct_rating":2.19,"distinct_type":"Bottom","rt":null,"stimulus":"Stimuli_Rocks480/M_Quartzite_15.png","response":null,"trial_type":"image-keyboard-response","trial_index":105,"plugin_version":"2.1.0","time_elapsed":194791,"subject_id":"91224","group":"Group2","condition":"3_Rep","full_date":"2026-02-23T20:11:34.728Z","date":"2026-02-23","time":"20:11:34"},{"rt":8631,"stimulus":"<p style=\"max-width: 760px; margin: auto; font-size: 35px; line-height: 1.5;\">\n                You have completed 1 study phase. \n                Now, we'll show you all the images again 2 more times.\n                <br><br>Press SPACE to continue\n              </p>","response":" ","trial_type":"html-keyboard-response","trial_index":106,"plugin_version":"2.1.0","time_elapsed":203423,"subject_id":"91224","group":"Group2","condition":"3_Rep","full_date":"2026-02-23T20:11:34.728Z","date":"2026-02-23","time":"20:11:34"},{"rt":null,"stimulus":"<p style=\"font-size: 50px; margin: 0; text-align: center;\">+</p>","response":null,"trial_type":"html-keyboard-response","trial_index":107,"plugin_version":"2.1.0","time_elapsed":204425,"subject_id":"91224","group":"Group2","condition":"3_Rep","full_date":"2026-02-23T20:11:34.728Z","date":"2026-02-23","time":"20:11:34"},{"task":"memory_phase","broad_category":"I","image_png":"I_Pumice_13.png","image_id":141,"category_name":"Pumice","category":9,"distinct_rating":3.12,"distinct_type":"Bottom","rt":null,"stimulus":"Stimuli_Rocks480/I_Pumice_13.png","response":null,"trial_type":"image-keyboard-response","trial_index":108,"plugin_version":"2.1.0","time_elapsed":206928,"subject_id":"91224","group":"Group2","condition":"3_Rep","full_date":"2026-02-23T20:11:34.728Z","date":"2026-02-23","time":"20:11:34"},{"rt":null,"stimulus":"<p style=\"font-size: 50px; margin: 0; text-align: center;\">+</p>","response":null,"trial_type":"html-keyboard-response","trial_index":109,"plugin_version":"2.1.0","time_elapsed":207930,"subject_id":"91224","group":"Group2","condition":"3_Rep","full_date":"2026-02-23T20:11:34.728Z","date":"2026-02-23","time":"20:11:34"},{"task":"memory_phase","broad_category":"M","image_png":"M_Marble_03.png","image_id":227,"category_name":"Marble","category":15,"distinct_rating":2.67,"distinct_type":"Bottom","rt":null,"stimulus":"Stimuli_Rocks480/M_Marble_03.png","response":null,"trial_type":"image-keyboard-response","trial_index":110,"plugin_version":"2.1.0","time_elapsed":210433,"subject_id":"91224","group":"Group2","condition":"3_Rep","full_date":"2026-02-23T20:11:34.728Z","date":"2026-02-23","time":"20:11:34"},{"rt":null,"stimulus":"<p style=\"font-size: 50px; margin: 0; text-align: center;\">+</p>","response":null,"trial_type":"html-keyboard-response","trial_index":111,"plugin_version":"2.1.0","time_elapsed":211435,"subject_id":"91224","group":"Group2","condition":"3_Rep","full_date":"2026-02-23T20:11:34.728Z","date":"2026-02-23","time":"20:11:34"},{"task":"memory_phase","broad_category":"I","image_png":"I_Peridotite_13.png","image_id":125,"category_name":"Peridotite","category":8,"distinct_rating":7.28,"distinct_type":"Top","rt":null,"stimulus":"Stimuli_Rocks480/I_Peridotite_13.png","response":null,"trial_type":"image-keyboard-response","trial_index":112,"plugin_version":"2.1.0","time_elapsed":213957,"subject_id":"91224","group":"Group2","condition":"3_Rep","full_date":"2026-02-23T20:11:34.728Z","date":"2026-02-23","time":"20:11:34"},{"rt":null,"stimulus":"<p style=\"font-size: 50px; margin: 0; text-align: center;\">+</p>","response":null,"trial_type":"html-keyboard-response","trial_index":113,"plugin_version":"2.1.0","time_elapsed":214959,"subject_id":"91224","group":"Group2","condition":"3_Rep","full_date":"2026-02-23T20:11:34.728Z","date":"2026-02-23","time":"20:11:34"},{"task":"memory_phase","broad_category":"I","image_png":"I_Gabbro_02.png","image_id":50,"category_name":"Gabbro","category":4,"distinct_rating":2.73,"distinct_type":"Bottom","rt":null,"stimulus":"Stimuli_Rocks480/I_Gabbro_02.png","response":null,"trial_type":"image-keyboard-response","trial_index":114,"plugin_version":"2.1.0","time_elapsed":217461,"subject_id":"91224","group":"Group2","condition":"3_Rep","full_date":"2026-02-23T20:11:34.728Z","date":"2026-02-23","time":"20:11:34"},{"rt":null,"stimulus":"<p style=\"font-size: 50px; margin: 0; text-align: center;\">+</p>","response":null,"trial_type":"html-keyboard-response","trial_index":115,"plugin_version":"2.1.0","time_elapsed":218464,"subject_id":"91224","group":"Group2","condition":"3_Rep","full_date":"2026-02-23T20:11:34.728Z","date":"2026-02-23","time":"20:11:34"},{"task":"memory_phase","broad_category":"S","image_png":"S_Dolomite_07.png","image_id":391,"category_name":"Dolomite","category":25,"distinct_rating":1.73,"distinct_type":"Bottom","rt":null,"stimulus":"Stimuli_Rocks480/S_Dolomite_07.png","response":null,"trial_type":"image-keyboard-response","trial_index":116,"plugin_version":"2.1.0","time_elapsed":220966,"subject_id":"91224","group":"Group2","condition":"3_Rep","full_date":"2026-02-23T20:11:34.728Z","date":"2026-02-23","time":"20:11:34"},{"rt":null,"stimulus":"<p style=\"font-size: 50px; margin: 0; text-align: center;\">+</p>","response":null,"trial_type":"html-keyboard-response","trial_index":117,"plugin_version":"2.1.0","time_elapsed":221968,"subject_id":"91224","group":"Group2","condition":"3_Rep","full_date":"2026-02-23T20:11:34.728Z","date":"2026-02-23","time":"20:11:34"},{"task":"memory_phase","broad_category":"M","image_png":"M_Gneiss_14.png","image_id":206,"category_name":"Gneiss","category":13,"distinct_rating":3.41,"distinct_type":"Bottom","rt":null,"stimulus":"Stimuli_Rocks480/M_Gneiss_14.png","response":null,"trial_type":"image-keyboard-response","trial_index":118,"plugin_version":"2.1.0","time_elapsed":224483,"subject_id":"91224","group":"Group2","condition":"3_Rep","full_date":"2026-02-23T20:11:34.728Z","date":"2026-02-23","time":"20:11:34"},{"rt":null,"stimulus":"<p style=\"font-size: 50px; margin: 0; text-align: center;\">+</p>","response":null,"trial_type":"html-keyboard-response","trial_index":119,"plugin_version":"2.1.0","time_elapsed":225486,"subject_id":"91224","group":"Group2","condition":"3_Rep","full_date":"2026-02-23T20:11:34.728Z","date":"2026-02-23","time":"20:11:34"},{"task":"memory_phase","broad_category":"S","image_png":"S_Sandstone_08.png","image_id":456,"category_name":"Sandstone","category":29,"distinct_rating":1.5,"distinct_type":"Bottom","rt":null,"stimulus":"Stimuli_Rocks480/S_Sandstone_08.png","response":null,"trial_type":"image-keyboard-response","trial_index":120,"plugin_version":"2.1.0","time_elapsed":228002,"subject_id":"91224","group":"Group2","condition":"3_Rep","full_date":"2026-02-23T20:11:34.728Z","date":"2026-02-23","time":"20:11:34"},{"rt":null,"stimulus":"<p style=\"font-size: 50px; margin: 0; text-align: center;\">+</p>","response":null,"trial_type":"html-keyboard-response","trial_index":121,"plugin_version":"2.1.0","time_elapsed":229004,"subject_id":"91224","group":"Group2","condition":"3_Rep","full_date":"2026-02-23T20:11:34.728Z","date":"2026-02-23","time":"20:11:34"},{"task":"memory_phase","broad_category":"I","image_png":"I_Diorite_10.png","image_id":42,"category_name":"Diorite","category":3,"distinct_rating":2.84,"distinct_type":"Bottom","rt":null,"stimulus":"Stimuli_Rocks480/I_Diorite_10.png","response":null,"trial_type":"image-keyboard-response","trial_index":122,"plugin_version":"2.1.0","time_elapsed":231518,"subject_id":"91224","group":"Group2","condition":"3_Rep","full_date":"2026-02-23T20:11:34.728Z","date":"2026-02-23","time":"20:11:34"},{"rt":null,"stimulus":"<p style=\"font-size: 50px; margin: 0; text-align: center;\">+</p>","response":null,"trial_type":"html-keyboard-response","trial_index":123,"plugin_version":"2.1.0","time_elapsed":232520,"subject_id":"91224","group":"Group2","condition":"3_Rep","full_date":"2026-02-23T20:11:34.728Z","date":"2026-02-23","time":"20:11:34"},{"task":"memory_phase","broad_category":"M","image_png":"M_Marble_14.png","image_id":238,"category_name":"Marble","category":15,"distinct_rating":3.31,"distinct_type":"Bottom","rt":null,"stimulus":"Stimuli_Rocks480/M_Marble_14.png","response":null,"trial_type":"image-keyboard-response","trial_index":124,"plugin_version":"2.1.0","time_elapsed":235035,"subject_id":"91224","group":"Group2","condition":"3_Rep","full_date":"2026-02-23T20:11:34.728Z","date":"2026-02-23","time":"20:11:34"},{"rt":null,"stimulus":"<p style=\"font-size: 50px; margin: 0; text-align: center;\">+</p>","response":null,"trial_type":"html-keyboard-response","trial_index":125,"plugin_version":"2.1.0","time_elapsed":236037,"subject_id":"91224","group":"Group2","condition":"3_Rep","full_date":"2026-02-23T20:11:34.728Z","date":"2026-02-23","time":"20:11:34"},{"task":"memory_phase","broad_category":"M","image_png":"M_Phyllite_02.png","image_id":258,"category_name":"Phyllite","category":17,"distinct_rating":2.89,"distinct_type":"Bottom","rt":null,"stimulus":"Stimuli_Rocks480/M_Phyllite_02.png","response":null,"trial_type":"image-keyboard-response","trial_index":126,"plugin_version":"2.1.0","time_elapsed":238557,"subject_id":"91224","group":"Group2","condition":"3_Rep","full_date":"2026-02-23T20:11:34.728Z","date":"2026-02-23","time":"20:11:34"},{"rt":null,"stimulus":"<p style=\"font-size: 50px; margin: 0; text-align: center;\">+</p>","response":null,"trial_type":"html-keyboard-response","trial_index":127,"plugin_version":"2.1.0","time_elapsed":239559,"subject_id":"91224","group":"Group2","condition":"3_Rep","full_date":"2026-02-23T20:11:34.728Z","date":"2026-02-23","time":"20:11:34"},{"task":"memory_phase","broad_category":"I","image_png":"I_Gabbro_14.png","image_id":62,"category_name":"Gabbro","category":4,"distinct_rating":2.95,"distinct_type":"Bottom","rt":null,"stimulus":"Stimuli_Rocks480/I_Gabbro_14.png","response":null,"trial_type":"image-keyboard-response","trial_index":128,"plugin_version":"2.1.0","time_elapsed":242078,"subject_id":"91224","group":"Group2","condition":"3_Rep","full_date":"2026-02-23T20:11:34.728Z","date":"2026-02-23","time":"20:11:34"},{"rt":null,"stimulus":"<p style=\"font-size: 50px; margin: 0; text-align: center;\">+</p>","response":null,"trial_type":"html-keyboard-response","trial_index":129,"plugin_version":"2.1.0","time_elapsed":243080,"subject_id":"91224","group":"Group2","condition":"3_Rep","full_date":"2026-02-23T20:11:34.728Z","date":"2026-02-23","time":"20:11:34"},{"task":"memory_phase","broad_category":"I","image_png":"I_Pumice_01.png","image_id":129,"category_name":"Pumice","category":9,"distinct_rating":3.25,"distinct_type":"Bottom","rt":null,"stimulus":"Stimuli_Rocks480/I_Pumice_01.png","response":null,"trial_type":"image-keyboard-response","trial_index":130,"plugin_version":"2.1.0","time_elapsed":245594,"subject_id":"91224","group":"Group2","condition":"3_Rep","full_date":"2026-02-23T20:11:34.728Z","date":"2026-02-23","time":"20:11:34"},{"rt":null,"stimulus":"<p style=\"font-size: 50px; margin: 0; text-align: center;\">+</p>","response":null,"trial_type":"html-keyboard-response","trial_index":131,"plugin_version":"2.1.0","time_elapsed":246596,"subject_id":"91224","group":"Group2","condition":"3_Rep","full_date":"2026-02-23T20:11:34.728Z","date":"2026-02-23","time":"20:11:34"},{"task":"memory_phase","broad_category":"I","image_png":"I_Pumice_14.png","image_id":142,"category_name":"Pumice","category":9,"distinct_rating":3.22,"distinct_type":"Bottom","rt":null,"stimulus":"Stimuli_Rocks480/I_Pumice_14.png","response":null,"trial_type":"image-keyboard-response","trial_index":132,"plugin_version":"2.1.0","time_elapsed":249111,"subject_id":"91224","group":"Group2","condition":"3_Rep","full_date":"2026-02-23T20:11:34.728Z","date":"2026-02-23","time":"20:11:34"},{"rt":null,"stimulus":"<p style=\"font-size: 50px; margin: 0; text-align: center;\">+</p>","response":null,"trial_type":"html-keyboard-response","trial_index":133,"plugin_version":"2.1.0","time_elapsed":250113,"subject_id":"91224","group":"Group2","condition":"3_Rep","full_date":"2026-02-23T20:11:34.728Z","date":"2026-02-23","time":"20:11:34"},{"task":"memory_phase","broad_category":"S","image_png":"S_Dolomite_16.png","image_id":400,"category_name":"Dolomite","category":25,"distinct_rating":1.71,"distinct_type":"Bottom","rt":null,"stimulus":"Stimuli_Rocks480/S_Dolomite_16.png","response":null,"trial_type":"image-keyboard-response","trial_index":134,"plugin_version":"2.1.0","time_elapsed":252626,"subject_id":"91224","group":"Group2","condition":"3_Rep","full_date":"2026-02-23T20:11:34.728Z","date":"2026-02-23","time":"20:11:34"},{"rt":null,"stimulus":"<p style=\"font-size: 50px; margin: 0; text-align: center;\">+</p>","response":null,"trial_type":"html-keyboard-response","trial_index":135,"plugin_version":"2.1.0","time_elapsed":253628,"subject_id":"91224","group":"Group2","condition":"3_Rep","full_date":"2026-02-23T20:11:34.728Z","date":"2026-02-23","time":"20:11:34"},{"task":"memory_phase","broad_category":"M","image_png":"M_Quartzite_12.png","image_id":284,"category_name":"Quartzite","category":18,"distinct_rating":1.92,"distinct_type":"Bottom","rt":null,"stimulus":"Stimuli_Rocks480/M_Quartzite_12.png","response":null,"trial_type":"image-keyboard-response","trial_index":136,"plugin_version":"2.1.0","time_elapsed":256141,"subject_id":"91224","group":"Group2","condition":"3_Rep","full_date":"2026-02-23T20:11:34.728Z","date":"2026-02-23","time":"20:11:34"},{"rt":null,"stimulus":"<p style=\"font-size: 50px; margin: 0; text-align: center;\">+</p>","response":null,"trial_type":"html-keyboard-response","trial_index":137,"plugin_version":"2.1.0","time_elapsed":257144,"subject_id":"91224","group":"Group2","condition":"3_Rep","full_date":"2026-02-23T20:11:34.728Z","date":"2026-02-23","time":"20:11:34"},{"task":"memory_phase","broad_category":"I","image_png":"I_Obsidian_06.png","image_id":86,"category_name":"Obsidian","category":6,"distinct_rating":8.01,"distinct_type":"Top","rt":null,"stimulus":"Stimuli_Rocks480/I_Obsidian_06.png","response":null,"trial_type":"image-keyboard-response","trial_index":138,"plugin_version":"2.1.0","time_elapsed":259661,"subject_id":"91224","group":"Group2","condition":"3_Rep","full_date":"2026-02-23T20:11:34.728Z","date":"2026-02-23","time":"20:11:34"},{"rt":null,"stimulus":"<p style=\"font-size: 50px; margin: 0; text-align: center;\">+</p>","response":null,"trial_type":"html-keyboard-response","trial_index":139,"plugin_version":"2.1.0","time_elapsed":260663,"subject_id":"91224","group":"Group2","condition":"3_Rep","full_date":"2026-02-23T20:11:34.728Z","date":"2026-02-23","time":"20:11:34"},{"task":"memory_phase","broad_category":"I","image_png":"I_Pegmatite_11.png","image_id":107,"category_name":"Pegmatite","category":7,"distinct_rating":7.11,"distinct_type":"Top","rt":null,"stimulus":"Stimuli_Rocks480/I_Pegmatite_11.png","response":null,"trial_type":"image-keyboard-response","trial_index":140,"plugin_version":"2.1.0","time_elapsed":263182,"subject_id":"91224","group":"Group2","condition":"3_Rep","full_date":"2026-02-23T20:11:34.728Z","date":"2026-02-23","time":"20:11:34"},{"rt":null,"stimulus":"<p style=\"font-size: 50px; margin: 0; text-align: center;\">+</p>","response":null,"trial_type":"html-keyboard-response","trial_index":141,"plugin_version":"2.1.0","time_elapsed":264184,"subject_id":"91224","group":"Group2","condition":"3_Rep","full_date":"2026-02-23T20:11:34.728Z","date":"2026-02-23","time":"20:11:34"},{"task":"memory_phase","broad_category":"I","image_png":"I_Rhyolite_08.png","image_id":152,"category_name":"Rhyolite","category":10,"distinct_rating":1.38,"distinct_type":"Bottom","rt":null,"stimulus":"Stimuli_Rocks480/I_Rhyolite_08.png","response":null,"trial_type":"image-keyboard-response","trial_index":142,"plugin_version":"2.1.0","time_elapsed":266700,"subject_id":"91224","group":"Group2","condition":"3_Rep","full_date":"2026-02-23T20:11:34.728Z","date":"2026-02-23","time":"20:11:34"},{"rt":null,"stimulus":"<p style=\"font-size: 50px; margin: 0; text-align: center;\">+</p>","response":null,"trial_type":"html-keyboard-response","trial_index":143,"plugin_version":"2.1.0","time_elapsed":267702,"subject_id":"91224","group":"Group2","condition":"3_Rep","full_date":"2026-02-23T20:11:34.728Z","date":"2026-02-23","time":"20:11:34"},{"task":"memory_phase","broad_category":"M","image_png":"M_Gneiss_10.png","image_id":202,"category_name":"Gneiss","category":13,"distinct_rating":3.09,"distinct_type":"Bottom","rt":null,"stimulus":"Stimuli_Rocks480/M_Gneiss_10.png","response":null,"trial_type":"image-keyboard-response","trial_index":144,"plugin_version":"2.1.0","time_elapsed":270218,"subject_id":"91224","group":"Group2","condition":"3_Rep","full_date":"2026-02-23T20:11:34.728Z","date":"2026-02-23","time":"20:11:34"},{"rt":null,"stimulus":"<p style=\"font-size: 50px; margin: 0; text-align: center;\">+</p>","response":null,"trial_type":"html-keyboard-response","trial_index":145,"plugin_version":"2.1.0","time_elapsed":271220,"subject_id":"91224","group":"Group2","condition":"3_Rep","full_date":"2026-02-23T20:11:34.728Z","date":"2026-02-23","time":"20:11:34"},{"task":"memory_phase","broad_category":"S","image_png":"S_Rock Salt_15.png","image_id":447,"category_name":"Rock Salt","category":28,"distinct_rating":7.79,"distinct_type":"Top","rt":null,"stimulus":"Stimuli_Rocks480/S_Rock Salt_15.png","response":null,"trial_type":"image-keyboard-response","trial_index":146,"plugin_version":"2.1.0","time_elapsed":273737,"subject_id":"91224","group":"Group2","condition":"3_Rep","full_date":"2026-02-23T20:11:34.728Z","date":"2026-02-23","time":"20:11:34"},{"rt":null,"stimulus":"<p style=\"font-size: 50px; margin: 0; text-align: center;\">+</p>","response":null,"trial_type":"html-keyboard-response","trial_index":147,"plugin_version":"2.1.0","time_elapsed":274739,"subject_id":"91224","group":"Group2","condition":"3_Rep","full_date":"2026-02-23T20:11:34.728Z","date":"2026-02-23","time":"20:11:34"},{"task":"memory_phase","broad_category":"S","image_png":"S_Conglomerate_14.png","image_id":382,"category_name":"Conglomerate","category":24,"distinct_rating":6.86,"distinct_type":"Top","rt":null,"stimulus":"Stimuli_Rocks480/S_Conglomerate_14.png","response":null,"trial_type":"image-keyboard-response","trial_index":148,"plugin_version":"2.1.0","time_elapsed":277252,"subject_id":"91224","group":"Group2","condition":"3_Rep","full_date":"2026-02-23T20:11:34.728Z","date":"2026-02-23","time":"20:11:34"},{"rt":null,"stimulus":"<p style=\"font-size: 50px; margin: 0; text-align: center;\">+</p>","response":null,"trial_type":"html-keyboard-response","trial_index":149,"plugin_version":"2.1.0","time_elapsed":278254,"subject_id":"91224","group":"Group2","condition":"3_Rep","full_date":"2026-02-23T20:11:34.728Z","date":"2026-02-23","time":"20:11:34"},{"task":"memory_phase","broad_category":"S","image_png":"S_Rock Salt_13.png","image_id":445,"category_name":"Rock Salt","category":28,"distinct_rating":7.58,"distinct_type":"Top","rt":null,"stimulus":"Stimuli_Rocks480/S_Rock Salt_13.png","response":null,"trial_type":"image-keyboard-response","trial_index":150,"plugin_version":"2.1.0","time_elapsed":280757,"subject_id":"91224","group":"Group2","condition":"3_Rep","full_date":"2026-02-23T20:11:34.728Z","date":"2026-02-23","time":"20:11:34"},{"rt":null,"stimulus":"<p style=\"font-size: 50px; margin: 0; text-align: center;\">+</p>","response":null,"trial_type":"html-keyboard-response","trial_index":151,"plugin_version":"2.1.0","time_elapsed":281759,"subject_id":"91224","group":"Group2","condition":"3_Rep","full_date":"2026-02-23T20:11:34.728Z","date":"2026-02-23","time":"20:11:34"},{"task":"memory_phase","broad_category":"I","image_png":"I_Andesite_09.png","image_id":9,"category_name":"Andesite","category":1,"distinct_rating":2.49,"distinct_type":"Bottom","rt":null,"stimulus":"Stimuli_Rocks480/I_Andesite_09.png","response":null,"trial_type":"image-keyboard-response","trial_index":152,"plugin_version":"2.1.0","time_elapsed":284275,"subject_id":"91224","group":"Group2","condition":"3_Rep","full_date":"2026-02-23T20:11:34.728Z","date":"2026-02-23","time":"20:11:34"},{"rt":null,"stimulus":"<p style=\"font-size: 50px; margin: 0; text-align: center;\">+</p>","response":null,"trial_type":"html-keyboard-response","trial_index":153,"plugin_version":"2.1.0","time_elapsed":285277,"subject_id":"91224","group":"Group2","condition":"3_Rep","full_date":"2026-02-23T20:11:34.728Z","date":"2026-02-23","time":"20:11:34"},{"task":"memory_phase","broad_category":"I","image_png":"I_Gabbro_12.png","image_id":60,"category_name":"Gabbro","category":4,"distinct_rating":2.6,"distinct_type":"Bottom","rt":null,"stimulus":"Stimuli_Rocks480/I_Gabbro_12.png","response":null,"trial_type":"image-keyboard-response","trial_index":154,"plugin_version":"2.1.0","time_elapsed":287794,"subject_id":"91224","group":"Group2","condition":"3_Rep","full_date":"2026-02-23T20:11:34.728Z","date":"2026-02-23","time":"20:11:34"},{"rt":null,"stimulus":"<p style=\"font-size: 50px; margin: 0; text-align: center;\">+</p>","response":null,"trial_type":"html-keyboard-response","trial_index":155,"plugin_version":"2.1.0","time_elapsed":288796,"subject_id":"91224","group":"Group2","condition":"3_Rep","full_date":"2026-02-23T20:11:34.728Z","date":"2026-02-23","time":"20:11:34"},{"task":"memory_phase","broad_category":"I","image_png":"I_Pegmatite_03.png","image_id":99,"category_name":"Pegmatite","category":7,"distinct_rating":7.24,"distinct_type":"Top","rt":null,"stimulus":"Stimuli_Rocks480/I_Pegmatite_03.png","response":null,"trial_type":"image-keyboard-response","trial_index":156,"plugin_version":"2.1.0","time_elapsed":291311,"subject_id":"91224","group":"Group2","condition":"3_Rep","full_date":"2026-02-23T20:11:34.728Z","date":"2026-02-23","time":"20:11:34"},{"rt":1691,"stimulus":"<p style=\"max-width: 760px; margin: auto; font-size: 35px; line-height: 1.5;\">\n                Press SPACE to continue study phase\n              </p>","response":" ","trial_type":"html-keyboard-response","trial_index":157,"plugin_version":"2.1.0","time_elapsed":293004,"subject_id":"91224","group":"Group2","condition":"3_Rep","full_date":"2026-02-23T20:11:34.728Z","date":"2026-02-23","time":"20:11:34"},{"rt":null,"stimulus":"<p style=\"font-size: 50px; margin: 0; text-align: center;\">+</p>","response":null,"trial_type":"html-keyboard-response","trial_index":158,"plugin_version":"2.1.0","time_elapsed":294006,"subject_id":"91224","group":"Group2","condition":"3_Rep","full_date":"2026-02-23T20:11:34.728Z","date":"2026-02-23","time":"20:11:34"},{"task":"memory_phase","broad_category":"M","image_png":"M_Marble_02.png","image_id":226,"category_name":"Marble","category":15,"distinct_rating":3.2,"distinct_type":"Bottom","rt":null,"stimulus":"Stimuli_Rocks480/M_Marble_02.png","response":null,"trial_type":"image-keyboard-response","trial_index":159,"plugin_version":"2.1.0","time_elapsed":296519,"subject_id":"91224","group":"Group2","condition":"3_Rep","full_date":"2026-02-23T20:11:34.728Z","date":"2026-02-23","time":"20:11:34"},{"rt":null,"stimulus":"<p style=\"font-size: 50px; margin: 0; text-align: center;\">+</p>","response":null,"trial_type":"html-keyboard-response","trial_index":160,"plugin_version":"2.1.0","time_elapsed":297521,"subject_id":"91224","group":"Group2","condition":"3_Rep","full_date":"2026-02-23T20:11:34.728Z","date":"2026-02-23","time":"20:11:34"},{"task":"memory_phase","broad_category":"I","image_png":"I_Basalt_08.png","image_id":24,"category_name":"Basalt","category":2,"distinct_rating":2.31,"distinct_type":"Bottom","rt":null,"stimulus":"Stimuli_Rocks480/I_Basalt_08.png","response":null,"trial_type":"image-keyboard-response","trial_index":161,"plugin_version":"2.1.0","time_elapsed":300042,"subject_id":"91224","group":"Group2","condition":"3_Rep","full_date":"2026-02-23T20:11:34.728Z","date":"2026-02-23","time":"20:11:34"},{"rt":null,"stimulus":"<p style=\"font-size: 50px; margin: 0; text-align: center;\">+</p>","response":null,"trial_type":"html-keyboard-response","trial_index":162,"plugin_version":"2.1.0","time_elapsed":301044,"subject_id":"91224","group":"Group2","condition":"3_Rep","full_date":"2026-02-23T20:11:34.728Z","date":"2026-02-23","time":"20:11:34"},{"task":"memory_phase","broad_category":"M","image_png":"M_Slate_10.png","image_id":314,"category_name":"Slate","category":20,"distinct_rating":1.94,"distinct_type":"Bottom","rt":null,"stimulus":"Stimuli_Rocks480/M_Slate_10.png","response":null,"trial_type":"image-keyboard-response","trial_index":163,"plugin_version":"2.1.0","time_elapsed":303555,"subject_id":"91224","group":"Group2","condition":"3_Rep","full_date":"2026-02-23T20:11:34.728Z","date":"2026-02-23","time":"20:11:34"},{"rt":null,"stimulus":"<p style=\"font-size: 50px; margin: 0; text-align: center;\">+</p>","response":null,"trial_type":"html-keyboard-response","trial_index":164,"plugin_version":"2.1.0","time_elapsed":304557,"subject_id":"91224","group":"Group2","condition":"3_Rep","full_date":"2026-02-23T20:11:34.728Z","date":"2026-02-23","time":"20:11:34"},{"task":"memory_phase","broad_category":"S","image_png":"S_Shale_03.png","image_id":467,"category_name":"Shale","category":30,"distinct_rating":1.95,"distinct_type":"Bottom","rt":null,"stimulus":"Stimuli_Rocks480/S_Shale_03.png","response":null,"trial_type":"image-keyboard-response","trial_index":165,"plugin_version":"2.1.0","time_elapsed":307078,"subject_id":"91224","group":"Group2","condition":"3_Rep","full_date":"2026-02-23T20:11:34.728Z","date":"2026-02-23","time":"20:11:34"},{"rt":null,"stimulus":"<p style=\"font-size: 50px; margin: 0; text-align: center;\">+</p>","response":null,"trial_type":"html-keyboard-response","trial_index":166,"plugin_version":"2.1.0","time_elapsed":308080,"subject_id":"91224","group":"Group2","condition":"3_Rep","full_date":"2026-02-23T20:11:34.728Z","date":"2026-02-23","time":"20:11:34"},{"task":"memory_phase","broad_category":"I","image_png":"I_Diorite_01.png","image_id":33,"category_name":"Diorite","category":3,"distinct_rating":2.97,"distinct_type":"Bottom","rt":null,"stimulus":"Stimuli_Rocks480/I_Diorite_01.png","response":null,"trial_type":"image-keyboard-response","trial_index":167,"plugin_version":"2.1.0","time_elapsed":310598,"subject_id":"91224","group":"Group2","condition":"3_Rep","full_date":"2026-02-23T20:11:34.728Z","date":"2026-02-23","time":"20:11:34"},{"rt":null,"stimulus":"<p style=\"font-size: 50px; margin: 0; text-align: center;\">+</p>","response":null,"trial_type":"html-keyboard-response","trial_index":168,"plugin_version":"2.1.0","time_elapsed":311600,"subject_id":"91224","group":"Group2","condition":"3_Rep","full_date":"2026-02-23T20:11:34.728Z","date":"2026-02-23","time":"20:11:34"},{"task":"memory_phase","broad_category":"I","image_png":"I_Diorite_15.png","image_id":47,"category_name":"Diorite","category":3,"distinct_rating":3.05,"distinct_type":"Bottom","rt":null,"stimulus":"Stimuli_Rocks480/I_Diorite_15.png","response":null,"trial_type":"image-keyboard-response","trial_index":169,"plugin_version":"2.1.0","time_elapsed":314113,"subject_id":"91224","group":"Group2","condition":"3_Rep","full_date":"2026-02-23T20:11:34.728Z","date":"2026-02-23","time":"20:11:34"},{"rt":null,"stimulus":"<p style=\"font-size: 50px; margin: 0; text-align: center;\">+</p>","response":null,"trial_type":"html-keyboard-response","trial_index":170,"plugin_version":"2.1.0","time_elapsed":315115,"subject_id":"91224","group":"Group2","condition":"3_Rep","full_date":"2026-02-23T20:11:34.728Z","date":"2026-02-23","time":"20:11:34"},{"task":"memory_phase","broad_category":"S","image_png":"S_Shale_07.png","image_id":471,"category_name":"Shale","category":30,"distinct_rating":2.73,"distinct_type":"Bottom","rt":null,"stimulus":"Stimuli_Rocks480/S_Shale_07.png","response":null,"trial_type":"image-keyboard-response","trial_index":171,"plugin_version":"2.1.0","time_elapsed":317629,"subject_id":"91224","group":"Group2","condition":"3_Rep","full_date":"2026-02-23T20:11:34.728Z","date":"2026-02-23","time":"20:11:34"},{"rt":null,"stimulus":"<p style=\"font-size: 50px; margin: 0; text-align: center;\">+</p>","response":null,"trial_type":"html-keyboard-response","trial_index":172,"plugin_version":"2.1.0","time_elapsed":318631,"subject_id":"91224","group":"Group2","condition":"3_Rep","full_date":"2026-02-23T20:11:34.728Z","date":"2026-02-23","time":"20:11:34"},{"task":"memory_phase","broad_category":"M","image_png":"M_Slate_04.png","image_id":308,"category_name":"Slate","category":20,"distinct_rating":2.2,"distinct_type":"Bottom","rt":null,"stimulus":"Stimuli_Rocks480/M_Slate_04.png","response":null,"trial_type":"image-keyboard-response","trial_index":173,"plugin_version":"2.1.0","time_elapsed":321144,"subject_id":"91224","group":"Group2","condition":"3_Rep","full_date":"2026-02-23T20:11:34.728Z","date":"2026-02-23","time":"20:11:34"},{"rt":null,"stimulus":"<p style=\"font-size: 50px; margin: 0; text-align: center;\">+</p>","response":null,"trial_type":"html-keyboard-response","trial_index":174,"plugin_version":"2.1.0","time_elapsed":322146,"subject_id":"91224","group":"Group2","condition":"3_Rep","full_date":"2026-02-23T20:11:34.728Z","date":"2026-02-23","time":"20:11:34"},{"task":"memory_phase","broad_category":"M","image_png":"M_Phyllite_13.png","image_id":269,"category_name":"Phyllite","category":17,"distinct_rating":2.8,"distinct_type":"Bottom","rt":null,"stimulus":"Stimuli_Rocks480/M_Phyllite_13.png","response":null,"trial_type":"image-keyboard-response","trial_index":175,"plugin_version":"2.1.0","time_elapsed":324659,"subject_id":"91224","group":"Group2","condition":"3_Rep","full_date":"2026-02-23T20:11:34.728Z","date":"2026-02-23","time":"20:11:34"},{"rt":null,"stimulus":"<p style=\"font-size: 50px; margin: 0; text-align: center;\">+</p>","response":null,"trial_type":"html-keyboard-response","trial_index":176,"plugin_version":"2.1.0","time_elapsed":325661,"subject_id":"91224","group":"Group2","condition":"3_Rep","full_date":"2026-02-23T20:11:34.728Z","date":"2026-02-23","time":"20:11:34"},{"task":"memory_phase","broad_category":"S","image_png":"S_Chert_13.png","image_id":365,"category_name":"Chert","category":23,"distinct_rating":6.57,"distinct_type":"Top","rt":null,"stimulus":"Stimuli_Rocks480/S_Chert_13.png","response":null,"trial_type":"image-keyboard-response","trial_index":177,"plugin_version":"2.1.0","time_elapsed":328171,"subject_id":"91224","group":"Group2","condition":"3_Rep","full_date":"2026-02-23T20:11:34.728Z","date":"2026-02-23","time":"20:11:34"},{"rt":null,"stimulus":"<p style=\"font-size: 50px; margin: 0; text-align: center;\">+</p>","response":null,"trial_type":"html-keyboard-response","trial_index":178,"plugin_version":"2.1.0","time_elapsed":329173,"subject_id":"91224","group":"Group2","condition":"3_Rep","full_date":"2026-02-23T20:11:34.728Z","date":"2026-02-23","time":"20:11:34"},{"task":"memory_phase","broad_category":"I","image_png":"I_Andesite_04.png","image_id":4,"category_name":"Andesite","category":1,"distinct_rating":3.18,"distinct_type":"Bottom","rt":null,"stimulus":"Stimuli_Rocks480/I_Andesite_04.png","response":null,"trial_type":"image-keyboard-response","trial_index":179,"plugin_version":"2.1.0","time_elapsed":331687,"subject_id":"91224","group":"Group2","condition":"3_Rep","full_date":"2026-02-23T20:11:34.728Z","date":"2026-02-23","time":"20:11:34"},{"rt":null,"stimulus":"<p style=\"font-size: 50px; margin: 0; text-align: center;\">+</p>","response":null,"trial_type":"html-keyboard-response","trial_index":180,"plugin_version":"2.1.0","time_elapsed":332690,"subject_id":"91224","group":"Group2","condition":"3_Rep","full_date":"2026-02-23T20:11:34.728Z","date":"2026-02-23","time":"20:11:34"},{"task":"memory_phase","broad_category":"S","image_png":"S_Shale_02.png","image_id":466,"category_name":"Shale","category":30,"distinct_rating":2.9,"distinct_type":"Bottom","rt":null,"stimulus":"Stimuli_Rocks480/S_Shale_02.png","response":null,"trial_type":"image-keyboard-response","trial_index":181,"plugin_version":"2.1.0","time_elapsed":335202,"subject_id":"91224","group":"Group2","condition":"3_Rep","full_date":"2026-02-23T20:11:34.728Z","date":"2026-02-23","time":"20:11:34"},{"rt":null,"stimulus":"<p style=\"font-size: 50px; margin: 0; text-align: center;\">+</p>","response":null,"trial_type":"html-keyboard-response","trial_index":182,"plugin_version":"2.1.0","time_elapsed":336204,"subject_id":"91224","group":"Group2","condition":"3_Rep","full_date":"2026-02-23T20:11:34.728Z","date":"2026-02-23","time":"20:11:34"},{"task":"memory_phase","broad_category":"S","image_png":"S_Sandstone_04.png","image_id":452,"category_name":"Sandstone","category":29,"distinct_rating":1.8,"distinct_type":"Bottom","rt":null,"stimulus":"Stimuli_Rocks480/S_Sandstone_04.png","response":null,"trial_type":"image-keyboard-response","trial_index":183,"plugin_version":"2.1.0","time_elapsed":338719,"subject_id":"91224","group":"Group2","condition":"3_Rep","full_date":"2026-02-23T20:11:34.728Z","date":"2026-02-23","time":"20:11:34"},{"rt":null,"stimulus":"<p style=\"font-size: 50px; margin: 0; text-align: center;\">+</p>","response":null,"trial_type":"html-keyboard-response","trial_index":184,"plugin_version":"2.1.0","time_elapsed":339721,"subject_id":"91224","group":"Group2","condition":"3_Rep","full_date":"2026-02-23T20:11:34.728Z","date":"2026-02-23","time":"20:11:34"},{"task":"memory_phase","broad_category":"M","image_png":"M_Quartzite_15.png","image_id":287,"category_name":"Quartzite","category":18,"distinct_rating":2.19,"distinct_type":"Bottom","rt":null,"stimulus":"Stimuli_Rocks480/M_Quartzite_15.png","response":null,"trial_type":"image-keyboard-response","trial_index":185,"plugin_version":"2.1.0","time_elapsed":342240,"subject_id":"91224","group":"Group2","condition":"3_Rep","full_date":"2026-02-23T20:11:34.728Z","date":"2026-02-23","time":"20:11:34"},{"rt":null,"stimulus":"<p style=\"font-size: 50px; margin: 0; text-align: center;\">+</p>","response":null,"trial_type":"html-keyboard-response","trial_index":186,"plugin_version":"2.1.0","time_elapsed":343242,"subject_id":"91224","group":"Group2","condition":"3_Rep","full_date":"2026-02-23T20:11:34.728Z","date":"2026-02-23","time":"20:11:34"},{"task":"memory_phase","broad_category":"M","image_png":"M_Slate_14.png","image_id":318,"category_name":"Slate","category":20,"distinct_rating":2.58,"distinct_type":"Bottom","rt":null,"stimulus":"Stimuli_Rocks480/M_Slate_14.png","response":null,"trial_type":"image-keyboard-response","trial_index":187,"plugin_version":"2.1.0","time_elapsed":345753,"subject_id":"91224","group":"Group2","condition":"3_Rep","full_date":"2026-02-23T20:11:34.728Z","date":"2026-02-23","time":"20:11:34"},{"rt":null,"stimulus":"<p style=\"font-size: 50px; margin: 0; text-align: center;\">+</p>","response":null,"trial_type":"html-keyboard-response","trial_index":188,"plugin_version":"2.1.0","time_elapsed":346754,"subject_id":"91224","group":"Group2","condition":"3_Rep","full_date":"2026-02-23T20:11:34.728Z","date":"2026-02-23","time":"20:11:34"},{"task":"memory_phase","broad_category":"S","image_png":"S_Dolomite_01.png","image_id":385,"category_name":"Dolomite","category":25,"distinct_rating":1.43,"distinct_type":"Bottom","rt":null,"stimulus":"Stimuli_Rocks480/S_Dolomite_01.png","response":null,"trial_type":"image-keyboard-response","trial_index":189,"plugin_version":"2.1.0","time_elapsed":349272,"subject_id":"91224","group":"Group2","condition":"3_Rep","full_date":"2026-02-23T20:11:34.728Z","date":"2026-02-23","time":"20:11:34"},{"rt":null,"stimulus":"<p style=\"font-size: 50px; margin: 0; text-align: center;\">+</p>","response":null,"trial_type":"html-keyboard-response","trial_index":190,"plugin_version":"2.1.0","time_elapsed":350274,"subject_id":"91224","group":"Group2","condition":"3_Rep","full_date":"2026-02-23T20:11:34.728Z","date":"2026-02-23","time":"20:11:34"},{"task":"memory_phase","broad_category":"I","image_png":"I_Rhyolite_05.png","image_id":149,"category_name":"Rhyolite","category":10,"distinct_rating":3.02,"distinct_type":"Bottom","rt":null,"stimulus":"Stimuli_Rocks480/I_Rhyolite_05.png","response":null,"trial_type":"image-keyboard-response","trial_index":191,"plugin_version":"2.1.0","time_elapsed":352793,"subject_id":"91224","group":"Group2","condition":"3_Rep","full_date":"2026-02-23T20:11:34.728Z","date":"2026-02-23","time":"20:11:34"},{"rt":null,"stimulus":"<p style=\"font-size: 50px; margin: 0; text-align: center;\">+</p>","response":null,"trial_type":"html-keyboard-response","trial_index":192,"plugin_version":"2.1.0","time_elapsed":353795,"subject_id":"91224","group":"Group2","condition":"3_Rep","full_date":"2026-02-23T20:11:34.728Z","date":"2026-02-23","time":"20:11:34"},{"task":"memory_phase","broad_category":"I","image_png":"I_Andesite_03.png","image_id":3,"category_name":"Andesite","category":1,"distinct_rating":3.17,"distinct_type":"Bottom","rt":null,"stimulus":"Stimuli_Rocks480/I_Andesite_03.png","response":null,"trial_type":"image-keyboard-response","trial_index":193,"plugin_version":"2.1.0","time_elapsed":356306,"subject_id":"91224","group":"Group2","condition":"3_Rep","full_date":"2026-02-23T20:11:34.728Z","date":"2026-02-23","time":"20:11:34"},{"rt":null,"stimulus":"<p style=\"font-size: 50px; margin: 0; text-align: center;\">+</p>","response":null,"trial_type":"html-keyboard-response","trial_index":194,"plugin_version":"2.1.0","time_elapsed":357308,"subject_id":"91224","group":"Group2","condition":"3_Rep","full_date":"2026-02-23T20:11:34.728Z","date":"2026-02-23","time":"20:11:34"},{"task":"memory_phase","broad_category":"M","image_png":"M_Quartzite_07.png","image_id":279,"category_name":"Quartzite","category":18,"distinct_rating":1.97,"distinct_type":"Bottom","rt":null,"stimulus":"Stimuli_Rocks480/M_Quartzite_07.png","response":null,"trial_type":"image-keyboard-response","trial_index":195,"plugin_version":"2.1.0","time_elapsed":359827,"subject_id":"91224","group":"Group2","condition":"3_Rep","full_date":"2026-02-23T20:11:34.728Z","date":"2026-02-23","time":"20:11:34"},{"rt":null,"stimulus":"<p style=\"font-size: 50px; margin: 0; text-align: center;\">+</p>","response":null,"trial_type":"html-keyboard-response","trial_index":196,"plugin_version":"2.1.0","time_elapsed":360829,"subject_id":"91224","group":"Group2","condition":"3_Rep","full_date":"2026-02-23T20:11:34.728Z","date":"2026-02-23","time":"20:11:34"},{"task":"memory_phase","broad_category":"I","image_png":"I_Rhyolite_10.png","image_id":154,"category_name":"Rhyolite","category":10,"distinct_rating":2.88,"distinct_type":"Bottom","rt":null,"stimulus":"Stimuli_Rocks480/I_Rhyolite_10.png","response":null,"trial_type":"image-keyboard-response","trial_index":197,"plugin_version":"2.1.0","time_elapsed":363349,"subject_id":"91224","group":"Group2","condition":"3_Rep","full_date":"2026-02-23T20:11:34.728Z","date":"2026-02-23","time":"20:11:34"},{"rt":null,"stimulus":"<p style=\"font-size: 50px; margin: 0; text-align: center;\">+</p>","response":null,"trial_type":"html-keyboard-response","trial_index":198,"plugin_version":"2.1.0","time_elapsed":364352,"subject_id":"91224","group":"Group2","condition":"3_Rep","full_date":"2026-02-23T20:11:34.728Z","date":"2026-02-23","time":"20:11:34"},{"task":"memory_phase","broad_category":"M","image_png":"M_Phyllite_05.png","image_id":261,"category_name":"Phyllite","category":17,"distinct_rating":2.14,"distinct_type":"Bottom","rt":null,"stimulus":"Stimuli_Rocks480/M_Phyllite_05.png","response":null,"trial_type":"image-keyboard-response","trial_index":199,"plugin_version":"2.1.0","time_elapsed":366865,"subject_id":"91224","group":"Group2","condition":"3_Rep","full_date":"2026-02-23T20:11:34.728Z","date":"2026-02-23","time":"20:11:34"},{"rt":null,"stimulus":"<p style=\"font-size: 50px; margin: 0; text-align: center;\">+</p>","response":null,"trial_type":"html-keyboard-response","trial_index":200,"plugin_version":"2.1.0","time_elapsed":367866,"subject_id":"91224","group":"Group2","condition":"3_Rep","full_date":"2026-02-23T20:11:34.728Z","date":"2026-02-23","time":"20:11:34"},{"task":"memory_phase","broad_category":"S","image_png":"S_Sandstone_11.png","image_id":459,"category_name":"Sandstone","category":29,"distinct_rating":1.82,"distinct_type":"Bottom","rt":null,"stimulus":"Stimuli_Rocks480/S_Sandstone_11.png","response":null,"trial_type":"image-keyboard-response","trial_index":201,"plugin_version":"2.1.0","time_elapsed":370386,"subject_id":"91224","group":"Group2","condition":"3_Rep","full_date":"2026-02-23T20:11:34.728Z","date":"2026-02-23","time":"20:11:34"},{"rt":null,"stimulus":"<p style=\"font-size: 50px; margin: 0; text-align: center;\">+</p>","response":null,"trial_type":"html-keyboard-response","trial_index":202,"plugin_version":"2.1.0","time_elapsed":371389,"subject_id":"91224","group":"Group2","condition":"3_Rep","full_date":"2026-02-23T20:11:34.728Z","date":"2026-02-23","time":"20:11:34"},{"task":"memory_phase","broad_category":"I","image_png":"I_Basalt_13.png","image_id":29,"category_name":"Basalt","category":2,"distinct_rating":2.68,"distinct_type":"Bottom","rt":null,"stimulus":"Stimuli_Rocks480/I_Basalt_13.png","response":null,"trial_type":"image-keyboard-response","trial_index":203,"plugin_version":"2.1.0","time_elapsed":373905,"subject_id":"91224","group":"Group2","condition":"3_Rep","full_date":"2026-02-23T20:11:34.728Z","date":"2026-02-23","time":"20:11:34"},{"rt":null,"stimulus":"<p style=\"font-size: 50px; margin: 0; text-align: center;\">+</p>","response":null,"trial_type":"html-keyboard-response","trial_index":204,"plugin_version":"2.1.0","time_elapsed":374907,"subject_id":"91224","group":"Group2","condition":"3_Rep","full_date":"2026-02-23T20:11:34.728Z","date":"2026-02-23","time":"20:11:34"},{"task":"memory_phase","broad_category":"M","image_png":"M_Gneiss_15.png","image_id":207,"category_name":"Gneiss","category":13,"distinct_rating":3.11,"distinct_type":"Bottom","rt":null,"stimulus":"Stimuli_Rocks480/M_Gneiss_15.png","response":null,"trial_type":"image-keyboard-response","trial_index":205,"plugin_version":"2.1.0","time_elapsed":377419,"subject_id":"91224","group":"Group2","condition":"3_Rep","full_date":"2026-02-23T20:11:34.728Z","date":"2026-02-23","time":"20:11:34"},{"rt":null,"stimulus":"<p style=\"font-size: 50px; margin: 0; text-align: center;\">+</p>","response":null,"trial_type":"html-keyboard-response","trial_index":206,"plugin_version":"2.1.0","time_elapsed":378421,"subject_id":"91224","group":"Group2","condition":"3_Rep","full_date":"2026-02-23T20:11:34.728Z","date":"2026-02-23","time":"20:11:34"},{"task":"memory_phase","broad_category":"I","image_png":"I_Basalt_10.png","image_id":26,"category_name":"Basalt","category":2,"distinct_rating":2.76,"distinct_type":"Bottom","rt":null,"stimulus":"Stimuli_Rocks480/I_Basalt_10.png","response":null,"trial_type":"image-keyboard-response","trial_index":207,"plugin_version":"2.1.0","time_elapsed":380938,"subject_id":"91224","group":"Group2","condition":"3_Rep","full_date":"2026-02-23T20:11:34.728Z","date":"2026-02-23","time":"20:11:34"},{"rt":8708,"stimulus":"<p style=\"max-width: 760px; margin: auto; font-size: 35px; line-height: 1.5;\">\n                You have completed 2 study phases. \n                Now, we'll show you all the images again 1 more time.\n                <br><br>Press SPACE to continue\n              </p>","response":" ","trial_type":"html-keyboard-response","trial_index":208,"plugin_version":"2.1.0","time_elapsed":389647,"subject_id":"91224","group":"Group2","condition":"3_Rep","full_date":"2026-02-23T20:11:34.728Z","date":"2026-02-23","time":"20:11:34"},{"rt":null,"stimulus":"<p style=\"font-size: 50px; margin: 0; text-align: center;\">+</p>","response":null,"trial_type":"html-keyboard-response","trial_index":209,"plugin_version":"2.1.0","time_elapsed":390650,"subject_id":"91224","group":"Group2","condition":"3_Rep","full_date":"2026-02-23T20:11:34.728Z","date":"2026-02-23","time":"20:11:34"},{"task":"memory_phase","broad_category":"M","image_png":"M_Slate_14.png","image_id":318,"category_name":"Slate","category":20,"distinct_rating":2.58,"distinct_type":"Bottom","rt":null,"stimulus":"Stimuli_Rocks480/M_Slate_14.png","response":null,"trial_type":"image-keyboard-response","trial_index":210,"plugin_version":"2.1.0","time_elapsed":393153,"subject_id":"91224","group":"Group2","condition":"3_Rep","full_date":"2026-02-23T20:11:34.728Z","date":"2026-02-23","time":"20:11:34"},{"rt":null,"stimulus":"<p style=\"font-size: 50px; margin: 0; text-align: center;\">+</p>","response":null,"trial_type":"html-keyboard-response","trial_index":211,"plugin_version":"2.1.0","time_elapsed":394155,"subject_id":"91224","group":"Group2","condition":"3_Rep","full_date":"2026-02-23T20:11:34.728Z","date":"2026-02-23","time":"20:11:34"},{"task":"memory_phase","broad_category":"M","image_png":"M_Phyllite_02.png","image_id":258,"category_name":"Phyllite","category":17,"distinct_rating":2.89,"distinct_type":"Bottom","rt":null,"stimulus":"Stimuli_Rocks480/M_Phyllite_02.png","response":null,"trial_type":"image-keyboard-response","trial_index":212,"plugin_version":"2.1.0","time_elapsed":396671,"subject_id":"91224","group":"Group2","condition":"3_Rep","full_date":"2026-02-23T20:11:34.728Z","date":"2026-02-23","time":"20:11:34"},{"rt":null,"stimulus":"<p style=\"font-size: 50px; margin: 0; text-align: center;\">+</p>","response":null,"trial_type":"html-keyboard-response","trial_index":213,"plugin_version":"2.1.0","time_elapsed":397673,"subject_id":"91224","group":"Group2","condition":"3_Rep","full_date":"2026-02-23T20:11:34.728Z","date":"2026-02-23","time":"20:11:34"},{"task":"memory_phase","broad_category":"M","image_png":"M_Phyllite_13.png","image_id":269,"category_name":"Phyllite","category":17,"distinct_rating":2.8,"distinct_type":"Bottom","rt":null,"stimulus":"Stimuli_Rocks480/M_Phyllite_13.png","response":null,"trial_type":"image-keyboard-response","trial_index":214,"plugin_version":"2.1.0","time_elapsed":400189,"subject_id":"91224","group":"Group2","condition":"3_Rep","full_date":"2026-02-23T20:11:34.728Z","date":"2026-02-23","time":"20:11:34"},{"rt":null,"stimulus":"<p style=\"font-size: 50px; margin: 0; text-align: center;\">+</p>","response":null,"trial_type":"html-keyboard-response","trial_index":215,"plugin_version":"2.1.0","time_elapsed":401191,"subject_id":"91224","group":"Group2","condition":"3_Rep","full_date":"2026-02-23T20:11:34.728Z","date":"2026-02-23","time":"20:11:34"},{"task":"memory_phase","broad_category":"I","image_png":"I_Peridotite_13.png","image_id":125,"category_name":"Peridotite","category":8,"distinct_rating":7.28,"distinct_type":"Top","rt":null,"stimulus":"Stimuli_Rocks480/I_Peridotite_13.png","response":null,"trial_type":"image-keyboard-response","trial_index":216,"plugin_version":"2.1.0","time_elapsed":403709,"subject_id":"91224","group":"Group2","condition":"3_Rep","full_date":"2026-02-23T20:11:34.728Z","date":"2026-02-23","time":"20:11:34"},{"rt":null,"stimulus":"<p style=\"font-size: 50px; margin: 0; text-align: center;\">+</p>","response":null,"trial_type":"html-keyboard-response","trial_index":217,"plugin_version":"2.1.0","time_elapsed":404712,"subject_id":"91224","group":"Group2","condition":"3_Rep","full_date":"2026-02-23T20:11:34.728Z","date":"2026-02-23","time":"20:11:34"},{"task":"memory_phase","broad_category":"I","image_png":"I_Gabbro_14.png","image_id":62,"category_name":"Gabbro","category":4,"distinct_rating":2.95,"distinct_type":"Bottom","rt":null,"stimulus":"Stimuli_Rocks480/I_Gabbro_14.png","response":null,"trial_type":"image-keyboard-response","trial_index":218,"plugin_version":"2.1.0","time_elapsed":407230,"subject_id":"91224","group":"Group2","condition":"3_Rep","full_date":"2026-02-23T20:11:34.728Z","date":"2026-02-23","time":"20:11:34"},{"rt":null,"stimulus":"<p style=\"font-size: 50px; margin: 0; text-align: center;\">+</p>","response":null,"trial_type":"html-keyboard-response","trial_index":219,"plugin_version":"2.1.0","time_elapsed":408232,"subject_id":"91224","group":"Group2","condition":"3_Rep","full_date":"2026-02-23T20:11:34.728Z","date":"2026-02-23","time":"20:11:34"},{"task":"memory_phase","broad_category":"I","image_png":"I_Basalt_10.png","image_id":26,"category_name":"Basalt","category":2,"distinct_rating":2.76,"distinct_type":"Bottom","rt":null,"stimulus":"Stimuli_Rocks480/I_Basalt_10.png","response":null,"trial_type":"image-keyboard-response","trial_index":220,"plugin_version":"2.1.0","time_elapsed":410735,"subject_id":"91224","group":"Group2","condition":"3_Rep","full_date":"2026-02-23T20:11:34.728Z","date":"2026-02-23","time":"20:11:34"},{"rt":null,"stimulus":"<p style=\"font-size: 50px; margin: 0; text-align: center;\">+</p>","response":null,"trial_type":"html-keyboard-response","trial_index":221,"plugin_version":"2.1.0","time_elapsed":411737,"subject_id":"91224","group":"Group2","condition":"3_Rep","full_date":"2026-02-23T20:11:34.728Z","date":"2026-02-23","time":"20:11:34"},{"task":"memory_phase","broad_category":"S","image_png":"S_Shale_02.png","image_id":466,"category_name":"Shale","category":30,"distinct_rating":2.9,"distinct_type":"Bottom","rt":null,"stimulus":"Stimuli_Rocks480/S_Shale_02.png","response":null,"trial_type":"image-keyboard-response","trial_index":222,"plugin_version":"2.1.0","time_elapsed":414240,"subject_id":"91224","group":"Group2","condition":"3_Rep","full_date":"2026-02-23T20:11:34.728Z","date":"2026-02-23","time":"20:11:34"},{"rt":null,"stimulus":"<p style=\"font-size: 50px; margin: 0; text-align: center;\">+</p>","response":null,"trial_type":"html-keyboard-response","trial_index":223,"plugin_version":"2.1.0","time_elapsed":415242,"subject_id":"91224","group":"Group2","condition":"3_Rep","full_date":"2026-02-23T20:11:34.728Z","date":"2026-02-23","time":"20:11:34"},{"task":"memory_phase","broad_category":"S","image_png":"S_Sandstone_11.png","image_id":459,"category_name":"Sandstone","category":29,"distinct_rating":1.82,"distinct_type":"Bottom","rt":null,"stimulus":"Stimuli_Rocks480/S_Sandstone_11.png","response":null,"trial_type":"image-keyboard-response","trial_index":224,"plugin_version":"2.1.0","time_elapsed":417744,"subject_id":"91224","group":"Group2","condition":"3_Rep","full_date":"2026-02-23T20:11:34.728Z","date":"2026-02-23","time":"20:11:34"},{"rt":null,"stimulus":"<p style=\"font-size: 50px; margin: 0; text-align: center;\">+</p>","response":null,"trial_type":"html-keyboard-response","trial_index":225,"plugin_version":"2.1.0","time_elapsed":418746,"subject_id":"91224","group":"Group2","condition":"3_Rep","full_date":"2026-02-23T20:11:34.728Z","date":"2026-02-23","time":"20:11:34"},{"task":"memory_phase","broad_category":"I","image_png":"I_Diorite_01.png","image_id":33,"category_name":"Diorite","category":3,"distinct_rating":2.97,"distinct_type":"Bottom","rt":null,"stimulus":"Stimuli_Rocks480/I_Diorite_01.png","response":null,"trial_type":"image-keyboard-response","trial_index":226,"plugin_version":"2.1.0","time_elapsed":421265,"subject_id":"91224","group":"Group2","condition":"3_Rep","full_date":"2026-02-23T20:11:34.728Z","date":"2026-02-23","time":"20:11:34"},{"rt":null,"stimulus":"<p style=\"font-size: 50px; margin: 0; text-align: center;\">+</p>","response":null,"trial_type":"html-keyboard-response","trial_index":227,"plugin_version":"2.1.0","time_elapsed":422267,"subject_id":"91224","group":"Group2","condition":"3_Rep","full_date":"2026-02-23T20:11:34.728Z","date":"2026-02-23","time":"20:11:34"},{"task":"memory_phase","broad_category":"S","image_png":"S_Dolomite_07.png","image_id":391,"category_name":"Dolomite","category":25,"distinct_rating":1.73,"distinct_type":"Bottom","rt":null,"stimulus":"Stimuli_Rocks480/S_Dolomite_07.png","response":null,"trial_type":"image-keyboard-response","trial_index":228,"plugin_version":"2.1.0","time_elapsed":424781,"subject_id":"91224","group":"Group2","condition":"3_Rep","full_date":"2026-02-23T20:11:34.728Z","date":"2026-02-23","time":"20:11:34"},{"rt":null,"stimulus":"<p style=\"font-size: 50px; margin: 0; text-align: center;\">+</p>","response":null,"trial_type":"html-keyboard-response","trial_index":229,"plugin_version":"2.1.0","time_elapsed":425783,"subject_id":"91224","group":"Group2","condition":"3_Rep","full_date":"2026-02-23T20:11:34.728Z","date":"2026-02-23","time":"20:11:34"},{"task":"memory_phase","broad_category":"I","image_png":"I_Andesite_04.png","image_id":4,"category_name":"Andesite","category":1,"distinct_rating":3.18,"distinct_type":"Bottom","rt":null,"stimulus":"Stimuli_Rocks480/I_Andesite_04.png","response":null,"trial_type":"image-keyboard-response","trial_index":230,"plugin_version":"2.1.0","time_elapsed":428286,"subject_id":"91224","group":"Group2","condition":"3_Rep","full_date":"2026-02-23T20:11:34.728Z","date":"2026-02-23","time":"20:11:34"},{"rt":null,"stimulus":"<p style=\"font-size: 50px; margin: 0; text-align: center;\">+</p>","response":null,"trial_type":"html-keyboard-response","trial_index":231,"plugin_version":"2.1.0","time_elapsed":429288,"subject_id":"91224","group":"Group2","condition":"3_Rep","full_date":"2026-02-23T20:11:34.728Z","date":"2026-02-23","time":"20:11:34"},{"task":"memory_phase","broad_category":"I","image_png":"I_Diorite_15.png","image_id":47,"category_name":"Diorite","category":3,"distinct_rating":3.05,"distinct_type":"Bottom","rt":null,"stimulus":"Stimuli_Rocks480/I_Diorite_15.png","response":null,"trial_type":"image-keyboard-response","trial_index":232,"plugin_version":"2.1.0","time_elapsed":431804,"subject_id":"91224","group":"Group2","condition":"3_Rep","full_date":"2026-02-23T20:11:34.728Z","date":"2026-02-23","time":"20:11:34"},{"rt":null,"stimulus":"<p style=\"font-size: 50px; margin: 0; text-align: center;\">+</p>","response":null,"trial_type":"html-keyboard-response","trial_index":233,"plugin_version":"2.1.0","time_elapsed":432806,"subject_id":"91224","group":"Group2","condition":"3_Rep","full_date":"2026-02-23T20:11:34.728Z","date":"2026-02-23","time":"20:11:34"},{"task":"memory_phase","broad_category":"M","image_png":"M_Marble_03.png","image_id":227,"category_name":"Marble","category":15,"distinct_rating":2.67,"distinct_type":"Bottom","rt":null,"stimulus":"Stimuli_Rocks480/M_Marble_03.png","response":null,"trial_type":"image-keyboard-response","trial_index":234,"plugin_version":"2.1.0","time_elapsed":435323,"subject_id":"91224","group":"Group2","condition":"3_Rep","full_date":"2026-02-23T20:11:34.728Z","date":"2026-02-23","time":"20:11:34"},{"rt":null,"stimulus":"<p style=\"font-size: 50px; margin: 0; text-align: center;\">+</p>","response":null,"trial_type":"html-keyboard-response","trial_index":235,"plugin_version":"2.1.0","time_elapsed":436325,"subject_id":"91224","group":"Group2","condition":"3_Rep","full_date":"2026-02-23T20:11:34.728Z","date":"2026-02-23","time":"20:11:34"},{"task":"memory_phase","broad_category":"I","image_png":"I_Obsidian_06.png","image_id":86,"category_name":"Obsidian","category":6,"distinct_rating":8.01,"distinct_type":"Top","rt":null,"stimulus":"Stimuli_Rocks480/I_Obsidian_06.png","response":n