[{"width":1710,"height":981,"webaudio":true,"browser":"chrome","browser_version":"143.0.0","mobile":false,"os":"Mac OS","fullscreen":true,"vsync_rate":59.99,"webcam":true,"microphone":true,"trial_type":"browser-check","trial_index":0,"plugin_version":"2.1.0","time_elapsed":1007,"subject_id":"92001","group":"Group1","condition":"1_Rep","full_date":"2026-01-27T19:44:57.833Z","date":"2026-01-27","time":"19:44:57"},{"success":true,"timeout":false,"failed_images":[],"failed_audio":[],"failed_video":[],"trial_type":"preload","trial_index":1,"plugin_version":"2.1.0","time_elapsed":20658,"subject_id":"92001","group":"Group1","condition":"1_Rep","full_date":"2026-01-27T19:44:57.833Z","date":"2026-01-27","time":"19:44:57"},{"rt":73945,"url":"SONA_consent_memorability.html","trial_type":"external-html","trial_index":2,"plugin_version":"2.1.0","time_elapsed":94769,"subject_id":"92001","group":"Group1","condition":"1_Rep","full_date":"2026-01-27T19:44:57.833Z","date":"2026-01-27","time":"19:44:57"},{"success":true,"rt":2281,"trial_type":"fullscreen","trial_index":3,"plugin_version":"2.1.0","time_elapsed":98054,"subject_id":"92001","group":"Group1","condition":"1_Rep","full_date":"2026-01-27T19:44:57.833Z","date":"2026-01-27","time":"19:44:57"},{"rt":10928,"stimulus":"<div style=\"max-width: 760px; margin: auto; font-size: 20px; line-height: 1.5;\">\n      <h1 style=\"text-align:center; font-size: 30px;\">Instructions</h1>\n      <p>\n        Welcome to the study on <b>visual memory</b>. This experiment consists of <b>two phases</b>: \n        a <b>study phase</b> and a <b>test phase</b>.\n      </p>\n      <p>\n        In the study phase, you will see a series of rock images along with their category labels.\n        The images will appear one at a time.\n        <b>Your task</b> is to learn the categories to which the rock images belong \n        and to remember each image as accurately as possible.\n      </p> \n      <p>\n        Note that you will see each image only <b>once</b> during the study phase. \n          So, please pay close attention and try to remember each image carefully.\n      </p>\n      <p>\n        After the study phase, <b>your memory will be tested</b>. \n        Additional instructions for the test phase will be provided at that time.\n      </p>\n      <p>\n        If your computer has multiple <b>language settings</b> (e.g., English and another language),\n        please make sure it is set to English before starting.\n      </p>\n      <p>\n        You can track your progress using the <b>completion bar</b> at the top of the screen. \n        Please note that the bar will refresh when the test phase begins \n        to give you an accurate sense of your progress in both phases.\n      </p> \n      <p>\n        Press the button below when you are ready to begin.\n      </p>\n    </div>","response":0,"trial_type":"html-button-response","trial_index":4,"plugin_version":"2.1.0","time_elapsed":108985,"subject_id":"92001","group":"Group1","condition":"1_Rep","full_date":"2026-01-27T19:44:57.833Z","date":"2026-01-27","time":"19:44:57"},{"rt":null,"stimulus":"<p style=\"font-size: 50px; margin: 0; text-align: center;\">+</p>","response":null,"trial_type":"html-keyboard-response","trial_index":5,"plugin_version":"2.1.0","time_elapsed":109989,"subject_id":"92001","group":"Group1","condition":"1_Rep","full_date":"2026-01-27T19:44:57.833Z","date":"2026-01-27","time":"19:44:57"},{"task":"memory_phase","broad_category":"I","image_png":"I_Pegmatite_10.png","image_id":106,"category_name":"Pegmatite","category":7,"distinct_rating":7.66,"distinct_type":"Top","rt":null,"stimulus":"Stimuli_Rocks480/I_Pegmatite_10.png","response":null,"trial_type":"image-keyboard-response","trial_index":6,"plugin_version":"2.1.0","time_elapsed":112494,"subject_id":"92001","group":"Group1","condition":"1_Rep","full_date":"2026-01-27T19:44:57.833Z","date":"2026-01-27","time":"19:44:57"},{"rt":null,"stimulus":"<p style=\"font-size: 50px; margin: 0; text-align: center;\">+</p>","response":null,"trial_type":"html-keyboard-response","trial_index":7,"plugin_version":"2.1.0","time_elapsed":113497,"subject_id":"92001","group":"Group1","condition":"1_Rep","full_date":"2026-01-27T19:44:57.833Z","date":"2026-01-27","time":"19:44:57"},{"task":"memory_phase","broad_category":"I","image_png":"I_Gabbro_08.png","image_id":56,"category_name":"Gabbro","category":4,"distinct_rating":3.02,"distinct_type":"Bottom","rt":null,"stimulus":"Stimuli_Rocks480/I_Gabbro_08.png","response":null,"trial_type":"image-keyboard-response","trial_index":8,"plugin_version":"2.1.0","time_elapsed":116000,"subject_id":"92001","group":"Group1","condition":"1_Rep","full_date":"2026-01-27T19:44:57.833Z","date":"2026-01-27","time":"19:44:57"},{"rt":null,"stimulus":"<p style=\"font-size: 50px; margin: 0; text-align: center;\">+</p>","response":null,"trial_type":"html-keyboard-response","trial_index":9,"plugin_version":"2.1.0","time_elapsed":117003,"subject_id":"92001","group":"Group1","condition":"1_Rep","full_date":"2026-01-27T19:44:57.833Z","date":"2026-01-27","time":"19:44:57"},{"task":"memory_phase","broad_category":"I","image_png":"I_Obsidian_05.png","image_id":85,"category_name":"Obsidian","category":6,"distinct_rating":7.32,"distinct_type":"Top","rt":null,"stimulus":"Stimuli_Rocks480/I_Obsidian_05.png","response":null,"trial_type":"image-keyboard-response","trial_index":10,"plugin_version":"2.1.0","time_elapsed":119507,"subject_id":"92001","group":"Group1","condition":"1_Rep","full_date":"2026-01-27T19:44:57.833Z","date":"2026-01-27","time":"19:44:57"},{"rt":null,"stimulus":"<p style=\"font-size: 50px; margin: 0; text-align: center;\">+</p>","response":null,"trial_type":"html-keyboard-response","trial_index":11,"plugin_version":"2.1.0","time_elapsed":120510,"subject_id":"92001","group":"Group1","condition":"1_Rep","full_date":"2026-01-27T19:44:57.833Z","date":"2026-01-27","time":"19:44:57"},{"task":"memory_phase","broad_category":"S","image_png":"S_Chert_10.png","image_id":362,"category_name":"Chert","category":23,"distinct_rating":7.17,"distinct_type":"Top","rt":null,"stimulus":"Stimuli_Rocks480/S_Chert_10.png","response":null,"trial_type":"image-keyboard-response","trial_index":12,"plugin_version":"2.1.0","time_elapsed":123013,"subject_id":"92001","group":"Group1","condition":"1_Rep","full_date":"2026-01-27T19:44:57.833Z","date":"2026-01-27","time":"19:44:57"},{"rt":null,"stimulus":"<p style=\"font-size: 50px; margin: 0; text-align: center;\">+</p>","response":null,"trial_type":"html-keyboard-response","trial_index":13,"plugin_version":"2.1.0","time_elapsed":124016,"subject_id":"92001","group":"Group1","condition":"1_Rep","full_date":"2026-01-27T19:44:57.833Z","date":"2026-01-27","time":"19:44:57"},{"task":"memory_phase","broad_category":"I","image_png":"I_Pegmatite_16.png","image_id":112,"category_name":"Pegmatite","category":7,"distinct_rating":7.03,"distinct_type":"Top","rt":null,"stimulus":"Stimuli_Rocks480/I_Pegmatite_16.png","response":null,"trial_type":"image-keyboard-response","trial_index":14,"plugin_version":"2.1.0","time_elapsed":126520,"subject_id":"92001","group":"Group1","condition":"1_Rep","full_date":"2026-01-27T19:44:57.833Z","date":"2026-01-27","time":"19:44:57"},{"rt":null,"stimulus":"<p style=\"font-size: 50px; margin: 0; text-align: center;\">+</p>","response":null,"trial_type":"html-keyboard-response","trial_index":15,"plugin_version":"2.1.0","time_elapsed":127522,"subject_id":"92001","group":"Group1","condition":"1_Rep","full_date":"2026-01-27T19:44:57.833Z","date":"2026-01-27","time":"19:44:57"},{"task":"memory_phase","broad_category":"M","image_png":"M_Gneiss_13.png","image_id":205,"category_name":"Gneiss","category":13,"distinct_rating":3.26,"distinct_type":"Bottom","rt":null,"stimulus":"Stimuli_Rocks480/M_Gneiss_13.png","response":null,"trial_type":"image-keyboard-response","trial_index":16,"plugin_version":"2.1.0","time_elapsed":130025,"subject_id":"92001","group":"Group1","condition":"1_Rep","full_date":"2026-01-27T19:44:57.833Z","date":"2026-01-27","time":"19:44:57"},{"rt":null,"stimulus":"<p style=\"font-size: 50px; margin: 0; text-align: center;\">+</p>","response":null,"trial_type":"html-keyboard-response","trial_index":17,"plugin_version":"2.1.0","time_elapsed":131028,"subject_id":"92001","group":"Group1","condition":"1_Rep","full_date":"2026-01-27T19:44:57.833Z","date":"2026-01-27","time":"19:44:57"},{"task":"memory_phase","broad_category":"I","image_png":"I_Rhyolite_11.png","image_id":155,"category_name":"Rhyolite","category":10,"distinct_rating":1.73,"distinct_type":"Bottom","rt":null,"stimulus":"Stimuli_Rocks480/I_Rhyolite_11.png","response":null,"trial_type":"image-keyboard-response","trial_index":18,"plugin_version":"2.1.0","time_elapsed":133532,"subject_id":"92001","group":"Group1","condition":"1_Rep","full_date":"2026-01-27T19:44:57.833Z","date":"2026-01-27","time":"19:44:57"},{"rt":null,"stimulus":"<p style=\"font-size: 50px; margin: 0; text-align: center;\">+</p>","response":null,"trial_type":"html-keyboard-response","trial_index":19,"plugin_version":"2.1.0","time_elapsed":134535,"subject_id":"92001","group":"Group1","condition":"1_Rep","full_date":"2026-01-27T19:44:57.833Z","date":"2026-01-27","time":"19:44:57"},{"task":"memory_phase","broad_category":"S","image_png":"S_Rock Gypsum_04.png","image_id":420,"category_name":"Rock Gypsum","category":27,"distinct_rating":7.61,"distinct_type":"Top","rt":null,"stimulus":"Stimuli_Rocks480/S_Rock Gypsum_04.png","response":null,"trial_type":"image-keyboard-response","trial_index":20,"plugin_version":"2.1.0","time_elapsed":137037,"subject_id":"92001","group":"Group1","condition":"1_Rep","full_date":"2026-01-27T19:44:57.833Z","date":"2026-01-27","time":"19:44:57"},{"rt":null,"stimulus":"<p style=\"font-size: 50px; margin: 0; text-align: center;\">+</p>","response":null,"trial_type":"html-keyboard-response","trial_index":21,"plugin_version":"2.1.0","time_elapsed":138040,"subject_id":"92001","group":"Group1","condition":"1_Rep","full_date":"2026-01-27T19:44:57.833Z","date":"2026-01-27","time":"19:44:57"},{"task":"memory_phase","broad_category":"I","image_png":"I_Diorite_03.png","image_id":35,"category_name":"Diorite","category":3,"distinct_rating":3.14,"distinct_type":"Bottom","rt":null,"stimulus":"Stimuli_Rocks480/I_Diorite_03.png","response":null,"trial_type":"image-keyboard-response","trial_index":22,"plugin_version":"2.1.0","time_elapsed":140544,"subject_id":"92001","group":"Group1","condition":"1_Rep","full_date":"2026-01-27T19:44:57.833Z","date":"2026-01-27","time":"19:44:57"},{"rt":null,"stimulus":"<p style=\"font-size: 50px; margin: 0; text-align: center;\">+</p>","response":null,"trial_type":"html-keyboard-response","trial_index":23,"plugin_version":"2.1.0","time_elapsed":141546,"subject_id":"92001","group":"Group1","condition":"1_Rep","full_date":"2026-01-27T19:44:57.833Z","date":"2026-01-27","time":"19:44:57"},{"task":"memory_phase","broad_category":"I","image_png":"I_Diorite_04.png","image_id":36,"category_name":"Diorite","category":3,"distinct_rating":2.98,"distinct_type":"Bottom","rt":null,"stimulus":"Stimuli_Rocks480/I_Diorite_04.png","response":null,"trial_type":"image-keyboard-response","trial_index":24,"plugin_version":"2.1.0","time_elapsed":144050,"subject_id":"92001","group":"Group1","condition":"1_Rep","full_date":"2026-01-27T19:44:57.833Z","date":"2026-01-27","time":"19:44:57"},{"rt":null,"stimulus":"<p style=\"font-size: 50px; margin: 0; text-align: center;\">+</p>","response":null,"trial_type":"html-keyboard-response","trial_index":25,"plugin_version":"2.1.0","time_elapsed":145052,"subject_id":"92001","group":"Group1","condition":"1_Rep","full_date":"2026-01-27T19:44:57.833Z","date":"2026-01-27","time":"19:44:57"},{"task":"memory_phase","broad_category":"M","image_png":"M_Quartzite_08.png","image_id":280,"category_name":"Quartzite","category":18,"distinct_rating":2.15,"distinct_type":"Bottom","rt":null,"stimulus":"Stimuli_Rocks480/M_Quartzite_08.png","response":null,"trial_type":"image-keyboard-response","trial_index":26,"plugin_version":"2.1.0","time_elapsed":147556,"subject_id":"92001","group":"Group1","condition":"1_Rep","full_date":"2026-01-27T19:44:57.833Z","date":"2026-01-27","time":"19:44:57"},{"rt":null,"stimulus":"<p style=\"font-size: 50px; margin: 0; text-align: center;\">+</p>","response":null,"trial_type":"html-keyboard-response","trial_index":27,"plugin_version":"2.1.0","time_elapsed":148558,"subject_id":"92001","group":"Group1","condition":"1_Rep","full_date":"2026-01-27T19:44:57.833Z","date":"2026-01-27","time":"19:44:57"},{"task":"memory_phase","broad_category":"I","image_png":"I_Diorite_05.png","image_id":37,"category_name":"Diorite","category":3,"distinct_rating":3.08,"distinct_type":"Bottom","rt":null,"stimulus":"Stimuli_Rocks480/I_Diorite_05.png","response":null,"trial_type":"image-keyboard-response","trial_index":28,"plugin_version":"2.1.0","time_elapsed":151061,"subject_id":"92001","group":"Group1","condition":"1_Rep","full_date":"2026-01-27T19:44:57.833Z","date":"2026-01-27","time":"19:44:57"},{"rt":null,"stimulus":"<p style=\"font-size: 50px; margin: 0; text-align: center;\">+</p>","response":null,"trial_type":"html-keyboard-response","trial_index":29,"plugin_version":"2.1.0","time_elapsed":152064,"subject_id":"92001","group":"Group1","condition":"1_Rep","full_date":"2026-01-27T19:44:57.833Z","date":"2026-01-27","time":"19:44:57"},{"task":"memory_phase","broad_category":"I","image_png":"I_Andesite_08.png","image_id":8,"category_name":"Andesite","category":1,"distinct_rating":1.95,"distinct_type":"Bottom","rt":null,"stimulus":"Stimuli_Rocks480/I_Andesite_08.png","response":null,"trial_type":"image-keyboard-response","trial_index":30,"plugin_version":"2.1.0","time_elapsed":154569,"subject_id":"92001","group":"Group1","condition":"1_Rep","full_date":"2026-01-27T19:44:57.833Z","date":"2026-01-27","time":"19:44:57"},{"rt":null,"stimulus":"<p style=\"font-size: 50px; margin: 0; text-align: center;\">+</p>","response":null,"trial_type":"html-keyboard-response","trial_index":31,"plugin_version":"2.1.0","time_elapsed":155571,"subject_id":"92001","group":"Group1","condition":"1_Rep","full_date":"2026-01-27T19:44:57.833Z","date":"2026-01-27","time":"19:44:57"},{"task":"memory_phase","broad_category":"M","image_png":"M_Phyllite_03.png","image_id":259,"category_name":"Phyllite","category":17,"distinct_rating":2.5,"distinct_type":"Bottom","rt":null,"stimulus":"Stimuli_Rocks480/M_Phyllite_03.png","response":null,"trial_type":"image-keyboard-response","trial_index":32,"plugin_version":"2.1.0","time_elapsed":158074,"subject_id":"92001","group":"Group1","condition":"1_Rep","full_date":"2026-01-27T19:44:57.833Z","date":"2026-01-27","time":"19:44:57"},{"rt":null,"stimulus":"<p style=\"font-size: 50px; margin: 0; text-align: center;\">+</p>","response":null,"trial_type":"html-keyboard-response","trial_index":33,"plugin_version":"2.1.0","time_elapsed":159077,"subject_id":"92001","group":"Group1","condition":"1_Rep","full_date":"2026-01-27T19:44:57.833Z","date":"2026-01-27","time":"19:44:57"},{"task":"memory_phase","broad_category":"I","image_png":"I_Pumice_12.png","image_id":140,"category_name":"Pumice","category":9,"distinct_rating":2.97,"distinct_type":"Bottom","rt":null,"stimulus":"Stimuli_Rocks480/I_Pumice_12.png","response":null,"trial_type":"image-keyboard-response","trial_index":34,"plugin_version":"2.1.0","time_elapsed":161581,"subject_id":"92001","group":"Group1","condition":"1_Rep","full_date":"2026-01-27T19:44:57.833Z","date":"2026-01-27","time":"19:44:57"},{"rt":null,"stimulus":"<p style=\"font-size: 50px; margin: 0; text-align: center;\">+</p>","response":null,"trial_type":"html-keyboard-response","trial_index":35,"plugin_version":"2.1.0","time_elapsed":162583,"subject_id":"92001","group":"Group1","condition":"1_Rep","full_date":"2026-01-27T19:44:57.833Z","date":"2026-01-27","time":"19:44:57"},{"task":"memory_phase","broad_category":"I","image_png":"I_Basalt_02.png","image_id":18,"category_name":"Basalt","category":2,"distinct_rating":1.84,"distinct_type":"Bottom","rt":null,"stimulus":"Stimuli_Rocks480/I_Basalt_02.png","response":null,"trial_type":"image-keyboard-response","trial_index":36,"plugin_version":"2.1.0","time_elapsed":165086,"subject_id":"92001","group":"Group1","condition":"1_Rep","full_date":"2026-01-27T19:44:57.833Z","date":"2026-01-27","time":"19:44:57"},{"rt":null,"stimulus":"<p style=\"font-size: 50px; margin: 0; text-align: center;\">+</p>","response":null,"trial_type":"html-keyboard-response","trial_index":37,"plugin_version":"2.1.0","time_elapsed":166088,"subject_id":"92001","group":"Group1","condition":"1_Rep","full_date":"2026-01-27T19:44:57.833Z","date":"2026-01-27","time":"19:44:57"},{"task":"memory_phase","broad_category":"M","image_png":"M_Gneiss_06.png","image_id":198,"category_name":"Gneiss","category":13,"distinct_rating":2.65,"distinct_type":"Bottom","rt":null,"stimulus":"Stimuli_Rocks480/M_Gneiss_06.png","response":null,"trial_type":"image-keyboard-response","trial_index":38,"plugin_version":"2.1.0","time_elapsed":168592,"subject_id":"92001","group":"Group1","condition":"1_Rep","full_date":"2026-01-27T19:44:57.833Z","date":"2026-01-27","time":"19:44:57"},{"rt":null,"stimulus":"<p style=\"font-size: 50px; margin: 0; text-align: center;\">+</p>","response":null,"trial_type":"html-keyboard-response","trial_index":39,"plugin_version":"2.1.0","time_elapsed":169594,"subject_id":"92001","group":"Group1","condition":"1_Rep","full_date":"2026-01-27T19:44:57.833Z","date":"2026-01-27","time":"19:44:57"},{"task":"memory_phase","broad_category":"S","image_png":"S_Rock Salt_01.png","image_id":433,"category_name":"Rock Salt","category":28,"distinct_rating":7.18,"distinct_type":"Top","rt":null,"stimulus":"Stimuli_Rocks480/S_Rock Salt_01.png","response":null,"trial_type":"image-keyboard-response","trial_index":40,"plugin_version":"2.1.0","time_elapsed":172097,"subject_id":"92001","group":"Group1","condition":"1_Rep","full_date":"2026-01-27T19:44:57.833Z","date":"2026-01-27","time":"19:44:57"},{"rt":null,"stimulus":"<p style=\"font-size: 50px; margin: 0; text-align: center;\">+</p>","response":null,"trial_type":"html-keyboard-response","trial_index":41,"plugin_version":"2.1.0","time_elapsed":173100,"subject_id":"92001","group":"Group1","condition":"1_Rep","full_date":"2026-01-27T19:44:57.833Z","date":"2026-01-27","time":"19:44:57"},{"task":"memory_phase","broad_category":"I","image_png":"I_Rhyolite_14.png","image_id":158,"category_name":"Rhyolite","category":10,"distinct_rating":2.59,"distinct_type":"Bottom","rt":null,"stimulus":"Stimuli_Rocks480/I_Rhyolite_14.png","response":null,"trial_type":"image-keyboard-response","trial_index":42,"plugin_version":"2.1.0","time_elapsed":175603,"subject_id":"92001","group":"Group1","condition":"1_Rep","full_date":"2026-01-27T19:44:57.833Z","date":"2026-01-27","time":"19:44:57"},{"rt":null,"stimulus":"<p style=\"font-size: 50px; margin: 0; text-align: center;\">+</p>","response":null,"trial_type":"html-keyboard-response","trial_index":43,"plugin_version":"2.1.0","time_elapsed":176606,"subject_id":"92001","group":"Group1","condition":"1_Rep","full_date":"2026-01-27T19:44:57.833Z","date":"2026-01-27","time":"19:44:57"},{"task":"memory_phase","broad_category":"M","image_png":"M_Quartzite_05.png","image_id":277,"category_name":"Quartzite","category":18,"distinct_rating":2.23,"distinct_type":"Bottom","rt":null,"stimulus":"Stimuli_Rocks480/M_Quartzite_05.png","response":null,"trial_type":"image-keyboard-response","trial_index":44,"plugin_version":"2.1.0","time_elapsed":179109,"subject_id":"92001","group":"Group1","condition":"1_Rep","full_date":"2026-01-27T19:44:57.833Z","date":"2026-01-27","time":"19:44:57"},{"rt":null,"stimulus":"<p style=\"font-size: 50px; margin: 0; text-align: center;\">+</p>","response":null,"trial_type":"html-keyboard-response","trial_index":45,"plugin_version":"2.1.0","time_elapsed":180112,"subject_id":"92001","group":"Group1","condition":"1_Rep","full_date":"2026-01-27T19:44:57.833Z","date":"2026-01-27","time":"19:44:57"},{"task":"memory_phase","broad_category":"S","image_png":"S_Breccia_11.png","image_id":347,"category_name":"Breccia","category":22,"distinct_rating":6.7,"distinct_type":"Top","rt":null,"stimulus":"Stimuli_Rocks480/S_Breccia_11.png","response":null,"trial_type":"image-keyboard-response","trial_index":46,"plugin_version":"2.1.0","time_elapsed":182615,"subject_id":"92001","group":"Group1","condition":"1_Rep","full_date":"2026-01-27T19:44:57.833Z","date":"2026-01-27","time":"19:44:57"},{"rt":null,"stimulus":"<p style=\"font-size: 50px; margin: 0; text-align: center;\">+</p>","response":null,"trial_type":"html-keyboard-response","trial_index":47,"plugin_version":"2.1.0","time_elapsed":183618,"subject_id":"92001","group":"Group1","condition":"1_Rep","full_date":"2026-01-27T19:44:57.833Z","date":"2026-01-27","time":"19:44:57"},{"task":"memory_phase","broad_category":"I","image_png":"I_Andesite_10.png","image_id":10,"category_name":"Andesite","category":1,"distinct_rating":3.15,"distinct_type":"Bottom","rt":null,"stimulus":"Stimuli_Rocks480/I_Andesite_10.png","response":null,"trial_type":"image-keyboard-response","trial_index":48,"plugin_version":"2.1.0","time_elapsed":186121,"subject_id":"92001","group":"Group1","condition":"1_Rep","full_date":"2026-01-27T19:44:57.833Z","date":"2026-01-27","time":"19:44:57"},{"rt":null,"stimulus":"<p style=\"font-size: 50px; margin: 0; text-align: center;\">+</p>","response":null,"trial_type":"html-keyboard-response","trial_index":49,"plugin_version":"2.1.0","time_elapsed":187123,"subject_id":"92001","group":"Group1","condition":"1_Rep","full_date":"2026-01-27T19:44:57.833Z","date":"2026-01-27","time":"19:44:57"},{"task":"memory_phase","broad_category":"M","image_png":"M_Quartzite_13.png","image_id":285,"category_name":"Quartzite","category":18,"distinct_rating":2.27,"distinct_type":"Bottom","rt":null,"stimulus":"Stimuli_Rocks480/M_Quartzite_13.png","response":null,"trial_type":"image-keyboard-response","trial_index":50,"plugin_version":"2.1.0","time_elapsed":189626,"subject_id":"92001","group":"Group1","condition":"1_Rep","full_date":"2026-01-27T19:44:57.833Z","date":"2026-01-27","time":"19:44:57"},{"rt":null,"stimulus":"<p style=\"font-size: 50px; margin: 0; text-align: center;\">+</p>","response":null,"trial_type":"html-keyboard-response","trial_index":51,"plugin_version":"2.1.0","time_elapsed":190629,"subject_id":"92001","group":"Group1","condition":"1_Rep","full_date":"2026-01-27T19:44:57.833Z","date":"2026-01-27","time":"19:44:57"},{"task":"memory_phase","broad_category":"M","image_png":"M_Marble_06.png","image_id":230,"category_name":"Marble","category":15,"distinct_rating":3.4,"distinct_type":"Bottom","rt":null,"stimulus":"Stimuli_Rocks480/M_Marble_06.png","response":null,"trial_type":"image-keyboard-response","trial_index":52,"plugin_version":"2.1.0","time_elapsed":193132,"subject_id":"92001","group":"Group1","condition":"1_Rep","full_date":"2026-01-27T19:44:57.833Z","date":"2026-01-27","time":"19:44:57"},{"rt":null,"stimulus":"<p style=\"font-size: 50px; margin: 0; text-align: center;\">+</p>","response":null,"trial_type":"html-keyboard-response","trial_index":53,"plugin_version":"2.1.0","time_elapsed":194135,"subject_id":"92001","group":"Group1","condition":"1_Rep","full_date":"2026-01-27T19:44:57.833Z","date":"2026-01-27","time":"19:44:57"},{"task":"memory_phase","broad_category":"I","image_png":"I_Basalt_01.png","image_id":17,"category_name":"Basalt","category":2,"distinct_rating":1.92,"distinct_type":"Bottom","rt":null,"stimulus":"Stimuli_Rocks480/I_Basalt_01.png","response":null,"trial_type":"image-keyboard-response","trial_index":54,"plugin_version":"2.1.0","time_elapsed":196638,"subject_id":"92001","group":"Group1","condition":"1_Rep","full_date":"2026-01-27T19:44:57.833Z","date":"2026-01-27","time":"19:44:57"},{"rt":1919,"stimulus":"<p style=\"max-width: 760px; margin: auto; font-size: 35px; line-height: 1.5;\">\n                Press SPACE to continue study phase\n              </p>","response":" ","trial_type":"html-keyboard-response","trial_index":55,"plugin_version":"2.1.0","time_elapsed":198559,"subject_id":"92001","group":"Group1","condition":"1_Rep","full_date":"2026-01-27T19:44:57.833Z","date":"2026-01-27","time":"19:44:57"},{"rt":null,"stimulus":"<p style=\"font-size: 50px; margin: 0; text-align: center;\">+</p>","response":null,"trial_type":"html-keyboard-response","trial_index":56,"plugin_version":"2.1.0","time_elapsed":199562,"subject_id":"92001","group":"Group1","condition":"1_Rep","full_date":"2026-01-27T19:44:57.833Z","date":"2026-01-27","time":"19:44:57"},{"task":"memory_phase","broad_category":"S","image_png":"S_Dolomite_12.png","image_id":396,"category_name":"Dolomite","category":25,"distinct_rating":1.85,"distinct_type":"Bottom","rt":null,"stimulus":"Stimuli_Rocks480/S_Dolomite_12.png","response":null,"trial_type":"image-keyboard-response","trial_index":57,"plugin_version":"2.1.0","time_elapsed":202065,"subject_id":"92001","group":"Group1","condition":"1_Rep","full_date":"2026-01-27T19:44:57.833Z","date":"2026-01-27","time":"19:44:57"},{"rt":null,"stimulus":"<p style=\"font-size: 50px; margin: 0; text-align: center;\">+</p>","response":null,"trial_type":"html-keyboard-response","trial_index":58,"plugin_version":"2.1.0","time_elapsed":203068,"subject_id":"92001","group":"Group1","condition":"1_Rep","full_date":"2026-01-27T19:44:57.833Z","date":"2026-01-27","time":"19:44:57"},{"task":"memory_phase","broad_category":"I","image_png":"I_Gabbro_11.png","image_id":59,"category_name":"Gabbro","category":4,"distinct_rating":1.99,"distinct_type":"Bottom","rt":null,"stimulus":"Stimuli_Rocks480/I_Gabbro_11.png","response":null,"trial_type":"image-keyboard-response","trial_index":59,"plugin_version":"2.1.0","time_elapsed":205572,"subject_id":"92001","group":"Group1","condition":"1_Rep","full_date":"2026-01-27T19:44:57.833Z","date":"2026-01-27","time":"19:44:57"},{"rt":null,"stimulus":"<p style=\"font-size: 50px; margin: 0; text-align: center;\">+</p>","response":null,"trial_type":"html-keyboard-response","trial_index":60,"plugin_version":"2.1.0","time_elapsed":206574,"subject_id":"92001","group":"Group1","condition":"1_Rep","full_date":"2026-01-27T19:44:57.833Z","date":"2026-01-27","time":"19:44:57"},{"task":"memory_phase","broad_category":"M","image_png":"M_Slate_11.png","image_id":315,"category_name":"Slate","category":20,"distinct_rating":2.75,"distinct_type":"Bottom","rt":null,"stimulus":"Stimuli_Rocks480/M_Slate_11.png","response":null,"trial_type":"image-keyboard-response","trial_index":61,"plugin_version":"2.1.0","time_elapsed":209077,"subject_id":"92001","group":"Group1","condition":"1_Rep","full_date":"2026-01-27T19:44:57.833Z","date":"2026-01-27","time":"19:44:57"},{"rt":null,"stimulus":"<p style=\"font-size: 50px; margin: 0; text-align: center;\">+</p>","response":null,"trial_type":"html-keyboard-response","trial_index":62,"plugin_version":"2.1.0","time_elapsed":210079,"subject_id":"92001","group":"Group1","condition":"1_Rep","full_date":"2026-01-27T19:44:57.833Z","date":"2026-01-27","time":"19:44:57"},{"task":"memory_phase","broad_category":"I","image_png":"I_Basalt_09.png","image_id":25,"category_name":"Basalt","category":2,"distinct_rating":1.89,"distinct_type":"Bottom","rt":null,"stimulus":"Stimuli_Rocks480/I_Basalt_09.png","response":null,"trial_type":"image-keyboard-response","trial_index":63,"plugin_version":"2.1.0","time_elapsed":212583,"subject_id":"92001","group":"Group1","condition":"1_Rep","full_date":"2026-01-27T19:44:57.833Z","date":"2026-01-27","time":"19:44:57"},{"rt":null,"stimulus":"<p style=\"font-size: 50px; margin: 0; text-align: center;\">+</p>","response":null,"trial_type":"html-keyboard-response","trial_index":64,"plugin_version":"2.1.0","time_elapsed":213585,"subject_id":"92001","group":"Group1","condition":"1_Rep","full_date":"2026-01-27T19:44:57.833Z","date":"2026-01-27","time":"19:44:57"},{"task":"memory_phase","broad_category":"I","image_png":"I_Rhyolite_16.png","image_id":160,"category_name":"Rhyolite","category":10,"distinct_rating":2.19,"distinct_type":"Bottom","rt":null,"stimulus":"Stimuli_Rocks480/I_Rhyolite_16.png","response":null,"trial_type":"image-keyboard-response","trial_index":65,"plugin_version":"2.1.0","time_elapsed":216088,"subject_id":"92001","group":"Group1","condition":"1_Rep","full_date":"2026-01-27T19:44:57.833Z","date":"2026-01-27","time":"19:44:57"},{"rt":null,"stimulus":"<p style=\"font-size: 50px; margin: 0; text-align: center;\">+</p>","response":null,"trial_type":"html-keyboard-response","trial_index":66,"plugin_version":"2.1.0","time_elapsed":217090,"subject_id":"92001","group":"Group1","condition":"1_Rep","full_date":"2026-01-27T19:44:57.833Z","date":"2026-01-27","time":"19:44:57"},{"task":"memory_phase","broad_category":"M","image_png":"M_Phyllite_10.png","image_id":266,"category_name":"Phyllite","category":17,"distinct_rating":2.6,"distinct_type":"Bottom","rt":null,"stimulus":"Stimuli_Rocks480/M_Phyllite_10.png","response":null,"trial_type":"image-keyboard-response","trial_index":67,"plugin_version":"2.1.0","time_elapsed":219594,"subject_id":"92001","group":"Group1","condition":"1_Rep","full_date":"2026-01-27T19:44:57.833Z","date":"2026-01-27","time":"19:44:57"},{"rt":null,"stimulus":"<p style=\"font-size: 50px; margin: 0; text-align: center;\">+</p>","response":null,"trial_type":"html-keyboard-response","trial_index":68,"plugin_version":"2.1.0","time_elapsed":220597,"subject_id":"92001","group":"Group1","condition":"1_Rep","full_date":"2026-01-27T19:44:57.833Z","date":"2026-01-27","time":"19:44:57"},{"task":"memory_phase","broad_category":"S","image_png":"S_Shale_01.png","image_id":465,"category_name":"Shale","category":30,"distinct_rating":2.7,"distinct_type":"Bottom","rt":null,"stimulus":"Stimuli_Rocks480/S_Shale_01.png","response":null,"trial_type":"image-keyboard-response","trial_index":69,"plugin_version":"2.1.0","time_elapsed":223100,"subject_id":"92001","group":"Group1","condition":"1_Rep","full_date":"2026-01-27T19:44:57.833Z","date":"2026-01-27","time":"19:44:57"},{"rt":null,"stimulus":"<p style=\"font-size: 50px; margin: 0; text-align: center;\">+</p>","response":null,"trial_type":"html-keyboard-response","trial_index":70,"plugin_version":"2.1.0","time_elapsed":224102,"subject_id":"92001","group":"Group1","condition":"1_Rep","full_date":"2026-01-27T19:44:57.833Z","date":"2026-01-27","time":"19:44:57"},{"task":"memory_phase","broad_category":"S","image_png":"S_Dolomite_13.png","image_id":397,"category_name":"Dolomite","category":25,"distinct_rating":1.77,"distinct_type":"Bottom","rt":null,"stimulus":"Stimuli_Rocks480/S_Dolomite_13.png","response":null,"trial_type":"image-keyboard-response","trial_index":71,"plugin_version":"2.1.0","time_elapsed":226606,"subject_id":"92001","group":"Group1","condition":"1_Rep","full_date":"2026-01-27T19:44:57.833Z","date":"2026-01-27","time":"19:44:57"},{"rt":null,"stimulus":"<p style=\"font-size: 50px; margin: 0; text-align: center;\">+</p>","response":null,"trial_type":"html-keyboard-response","trial_index":72,"plugin_version":"2.1.0","time_elapsed":227609,"subject_id":"92001","group":"Group1","condition":"1_Rep","full_date":"2026-01-27T19:44:57.833Z","date":"2026-01-27","time":"19:44:57"},{"task":"memory_phase","broad_category":"S","image_png":"S_Dolomite_14.png","image_id":398,"category_name":"Dolomite","category":25,"distinct_rating":1.43,"distinct_type":"Bottom","rt":null,"stimulus":"Stimuli_Rocks480/S_Dolomite_14.png","response":null,"trial_type":"image-keyboard-response","trial_index":73,"plugin_version":"2.1.0","time_elapsed":230112,"subject_id":"92001","group":"Group1","condition":"1_Rep","full_date":"2026-01-27T19:44:57.833Z","date":"2026-01-27","time":"19:44:57"},{"rt":null,"stimulus":"<p style=\"font-size: 50px; margin: 0; text-align: center;\">+</p>","response":null,"trial_type":"html-keyboard-response","trial_index":74,"plugin_version":"2.1.0","time_elapsed":231115,"subject_id":"92001","group":"Group1","condition":"1_Rep","full_date":"2026-01-27T19:44:57.833Z","date":"2026-01-27","time":"19:44:57"},{"task":"memory_phase","broad_category":"M","image_png":"M_Slate_15.png","image_id":319,"category_name":"Slate","category":20,"distinct_rating":2.13,"distinct_type":"Bottom","rt":null,"stimulus":"Stimuli_Rocks480/M_Slate_15.png","response":null,"trial_type":"image-keyboard-response","trial_index":75,"plugin_version":"2.1.0","time_elapsed":233618,"subject_id":"92001","group":"Group1","condition":"1_Rep","full_date":"2026-01-27T19:44:57.833Z","date":"2026-01-27","time":"19:44:57"},{"rt":null,"stimulus":"<p style=\"font-size: 50px; margin: 0; text-align: center;\">+</p>","response":null,"trial_type":"html-keyboard-response","trial_index":76,"plugin_version":"2.1.0","time_elapsed":234623,"subject_id":"92001","group":"Group1","condition":"1_Rep","full_date":"2026-01-27T19:44:57.833Z","date":"2026-01-27","time":"19:44:57"},{"task":"memory_phase","broad_category":"M","image_png":"M_Marble_04.png","image_id":228,"category_name":"Marble","category":15,"distinct_rating":3.15,"distinct_type":"Bottom","rt":null,"stimulus":"Stimuli_Rocks480/M_Marble_04.png","response":null,"trial_type":"image-keyboard-response","trial_index":77,"plugin_version":"2.1.0","time_elapsed":237126,"subject_id":"92001","group":"Group1","condition":"1_Rep","full_date":"2026-01-27T19:44:57.833Z","date":"2026-01-27","time":"19:44:57"},{"rt":null,"stimulus":"<p style=\"font-size: 50px; margin: 0; text-align: center;\">+</p>","response":null,"trial_type":"html-keyboard-response","trial_index":78,"plugin_version":"2.1.0","time_elapsed":238128,"subject_id":"92001","group":"Group1","condition":"1_Rep","full_date":"2026-01-27T19:44:57.833Z","date":"2026-01-27","time":"19:44:57"},{"task":"memory_phase","broad_category":"S","image_png":"S_Shale_12.png","image_id":476,"category_name":"Shale","category":30,"distinct_rating":2.48,"distinct_type":"Bottom","rt":null,"stimulus":"Stimuli_Rocks480/S_Shale_12.png","response":null,"trial_type":"image-keyboard-response","trial_index":79,"plugin_version":"2.1.0","time_elapsed":240631,"subject_id":"92001","group":"Group1","condition":"1_Rep","full_date":"2026-01-27T19:44:57.833Z","date":"2026-01-27","time":"19:44:57"},{"rt":null,"stimulus":"<p style=\"font-size: 50px; margin: 0; text-align: center;\">+</p>","response":null,"trial_type":"html-keyboard-response","trial_index":80,"plugin_version":"2.1.0","time_elapsed":241634,"subject_id":"92001","group":"Group1","condition":"1_Rep","full_date":"2026-01-27T19:44:57.833Z","date":"2026-01-27","time":"19:44:57"},{"task":"memory_phase","broad_category":"S","image_png":"S_Shale_08.png","image_id":472,"category_name":"Shale","category":30,"distinct_rating":2.55,"distinct_type":"Bottom","rt":null,"stimulus":"Stimuli_Rocks480/S_Shale_08.png","response":null,"trial_type":"image-keyboard-response","trial_index":81,"plugin_version":"2.1.0","time_elapsed":244137,"subject_id":"92001","group":"Group1","condition":"1_Rep","full_date":"2026-01-27T19:44:57.833Z","date":"2026-01-27","time":"19:44:57"},{"rt":null,"stimulus":"<p style=\"font-size: 50px; margin: 0; text-align: center;\">+</p>","response":null,"trial_type":"html-keyboard-response","trial_index":82,"plugin_version":"2.1.0","time_elapsed":245140,"subject_id":"92001","group":"Group1","condition":"1_Rep","full_date":"2026-01-27T19:44:57.833Z","date":"2026-01-27","time":"19:44:57"},{"task":"memory_phase","broad_category":"S","image_png":"S_Conglomerate_05.png","image_id":373,"category_name":"Conglomerate","category":24,"distinct_rating":7.32,"distinct_type":"Top","rt":null,"stimulus":"Stimuli_Rocks480/S_Conglomerate_05.png","response":null,"trial_type":"image-keyboard-response","trial_index":83,"plugin_version":"2.1.0","time_elapsed":247643,"subject_id":"92001","group":"Group1","condition":"1_Rep","full_date":"2026-01-27T19:44:57.833Z","date":"2026-01-27","time":"19:44:57"},{"rt":null,"stimulus":"<p style=\"font-size: 50px; margin: 0; text-align: center;\">+</p>","response":null,"trial_type":"html-keyboard-response","trial_index":84,"plugin_version":"2.1.0","time_elapsed":248645,"subject_id":"92001","group":"Group1","condition":"1_Rep","full_date":"2026-01-27T19:44:57.833Z","date":"2026-01-27","time":"19:44:57"},{"task":"memory_phase","broad_category":"M","image_png":"M_Phyllite_07.png","image_id":263,"category_name":"Phyllite","category":17,"distinct_rating":2.59,"distinct_type":"Bottom","rt":null,"stimulus":"Stimuli_Rocks480/M_Phyllite_07.png","response":null,"trial_type":"image-keyboard-response","trial_index":85,"plugin_version":"2.1.0","time_elapsed":251148,"subject_id":"92001","group":"Group1","condition":"1_Rep","full_date":"2026-01-27T19:44:57.833Z","date":"2026-01-27","time":"19:44:57"},{"rt":null,"stimulus":"<p style=\"font-size: 50px; margin: 0; text-align: center;\">+</p>","response":null,"trial_type":"html-keyboard-response","trial_index":86,"plugin_version":"2.1.0","time_elapsed":252150,"subject_id":"92001","group":"Group1","condition":"1_Rep","full_date":"2026-01-27T19:44:57.833Z","date":"2026-01-27","time":"19:44:57"},{"task":"memory_phase","broad_category":"S","image_png":"S_Sandstone_03.png","image_id":451,"category_name":"Sandstone","category":29,"distinct_rating":1.86,"distinct_type":"Bottom","rt":null,"stimulus":"Stimuli_Rocks480/S_Sandstone_03.png","response":null,"trial_type":"image-keyboard-response","trial_index":87,"plugin_version":"2.1.0","time_elapsed":254653,"subject_id":"92001","group":"Group1","condition":"1_Rep","full_date":"2026-01-27T19:44:57.833Z","date":"2026-01-27","time":"19:44:57"},{"rt":null,"stimulus":"<p style=\"font-size: 50px; margin: 0; text-align: center;\">+</p>","response":null,"trial_type":"html-keyboard-response","trial_index":88,"plugin_version":"2.1.0","time_elapsed":255655,"subject_id":"92001","group":"Group1","condition":"1_Rep","full_date":"2026-01-27T19:44:57.833Z","date":"2026-01-27","time":"19:44:57"},{"task":"memory_phase","broad_category":"I","image_png":"I_Andesite_06.png","image_id":6,"category_name":"Andesite","category":1,"distinct_rating":3.17,"distinct_type":"Bottom","rt":null,"stimulus":"Stimuli_Rocks480/I_Andesite_06.png","response":null,"trial_type":"image-keyboard-response","trial_index":89,"plugin_version":"2.1.0","time_elapsed":258159,"subject_id":"92001","group":"Group1","condition":"1_Rep","full_date":"2026-01-27T19:44:57.833Z","date":"2026-01-27","time":"19:44:57"},{"rt":null,"stimulus":"<p style=\"font-size: 50px; margin: 0; text-align: center;\">+</p>","response":null,"trial_type":"html-keyboard-response","trial_index":90,"plugin_version":"2.1.0","time_elapsed":259162,"subject_id":"92001","group":"Group1","condition":"1_Rep","full_date":"2026-01-27T19:44:57.833Z","date":"2026-01-27","time":"19:44:57"},{"task":"memory_phase","broad_category":"I","image_png":"I_Pumice_11.png","image_id":139,"category_name":"Pumice","category":9,"distinct_rating":1.74,"distinct_type":"Bottom","rt":null,"stimulus":"Stimuli_Rocks480/I_Pumice_11.png","response":null,"trial_type":"image-keyboard-response","trial_index":91,"plugin_version":"2.1.0","time_elapsed":261665,"subject_id":"92001","group":"Group1","condition":"1_Rep","full_date":"2026-01-27T19:44:57.833Z","date":"2026-01-27","time":"19:44:57"},{"rt":null,"stimulus":"<p style=\"font-size: 50px; margin: 0; text-align: center;\">+</p>","response":null,"trial_type":"html-keyboard-response","trial_index":92,"plugin_version":"2.1.0","time_elapsed":262668,"subject_id":"92001","group":"Group1","condition":"1_Rep","full_date":"2026-01-27T19:44:57.833Z","date":"2026-01-27","time":"19:44:57"},{"task":"memory_phase","broad_category":"M","image_png":"M_Gneiss_05.png","image_id":197,"category_name":"Gneiss","category":13,"distinct_rating":2.97,"distinct_type":"Bottom","rt":null,"stimulus":"Stimuli_Rocks480/M_Gneiss_05.png","response":null,"trial_type":"image-keyboard-response","trial_index":93,"plugin_version":"2.1.0","time_elapsed":265171,"subject_id":"92001","group":"Group1","condition":"1_Rep","full_date":"2026-01-27T19:44:57.833Z","date":"2026-01-27","time":"19:44:57"},{"rt":null,"stimulus":"<p style=\"font-size: 50px; margin: 0; text-align: center;\">+</p>","response":null,"trial_type":"html-keyboard-response","trial_index":94,"plugin_version":"2.1.0","time_elapsed":266173,"subject_id":"92001","group":"Group1","condition":"1_Rep","full_date":"2026-01-27T19:44:57.833Z","date":"2026-01-27","time":"19:44:57"},{"task":"memory_phase","broad_category":"S","image_png":"S_Sandstone_15.png","image_id":463,"category_name":"Sandstone","category":29,"distinct_rating":2,"distinct_type":"Bottom","rt":null,"stimulus":"Stimuli_Rocks480/S_Sandstone_15.png","response":null,"trial_type":"image-keyboard-response","trial_index":95,"plugin_version":"2.1.0","time_elapsed":268676,"subject_id":"92001","group":"Group1","condition":"1_Rep","full_date":"2026-01-27T19:44:57.833Z","date":"2026-01-27","time":"19:44:57"},{"rt":null,"stimulus":"<p style=\"font-size: 50px; margin: 0; text-align: center;\">+</p>","response":null,"trial_type":"html-keyboard-response","trial_index":96,"plugin_version":"2.1.0","time_elapsed":269679,"subject_id":"92001","group":"Group1","condition":"1_Rep","full_date":"2026-01-27T19:44:57.833Z","date":"2026-01-27","time":"19:44:57"},{"task":"memory_phase","broad_category":"I","image_png":"I_Gabbro_16.png","image_id":64,"category_name":"Gabbro","category":4,"distinct_rating":2.52,"distinct_type":"Bottom","rt":null,"stimulus":"Stimuli_Rocks480/I_Gabbro_16.png","response":null,"trial_type":"image-keyboard-response","trial_index":97,"plugin_version":"2.1.0","time_elapsed":272182,"subject_id":"92001","group":"Group1","condition":"1_Rep","full_date":"2026-01-27T19:44:57.833Z","date":"2026-01-27","time":"19:44:57"},{"rt":null,"stimulus":"<p style=\"font-size: 50px; margin: 0; text-align: center;\">+</p>","response":null,"trial_type":"html-keyboard-response","trial_index":98,"plugin_version":"2.1.0","time_elapsed":273184,"subject_id":"92001","group":"Group1","condition":"1_Rep","full_date":"2026-01-27T19:44:57.833Z","date":"2026-01-27","time":"19:44:57"},{"task":"memory_phase","broad_category":"S","image_png":"S_Sandstone_16.png","image_id":464,"category_name":"Sandstone","category":29,"distinct_rating":1.93,"distinct_type":"Bottom","rt":null,"stimulus":"Stimuli_Rocks480/S_Sandstone_16.png","response":null,"trial_type":"image-keyboard-response","trial_index":99,"plugin_version":"2.1.0","time_elapsed":275688,"subject_id":"92001","group":"Group1","condition":"1_Rep","full_date":"2026-01-27T19:44:57.833Z","date":"2026-01-27","time":"19:44:57"},{"rt":null,"stimulus":"<p style=\"font-size: 50px; margin: 0; text-align: center;\">+</p>","response":null,"trial_type":"html-keyboard-response","trial_index":100,"plugin_version":"2.1.0","time_elapsed":276690,"subject_id":"92001","group":"Group1","condition":"1_Rep","full_date":"2026-01-27T19:44:57.833Z","date":"2026-01-27","time":"19:44:57"},{"task":"memory_phase","broad_category":"M","image_png":"M_Slate_03.png","image_id":307,"category_name":"Slate","category":20,"distinct_rating":1.87,"distinct_type":"Bottom","rt":null,"stimulus":"Stimuli_Rocks480/M_Slate_03.png","response":null,"trial_type":"image-keyboard-response","trial_index":101,"plugin_version":"2.1.0","time_elapsed":279193,"subject_id":"92001","group":"Group1","condition":"1_Rep","full_date":"2026-01-27T19:44:57.833Z","date":"2026-01-27","time":"19:44:57"},{"rt":null,"stimulus":"<p style=\"font-size: 50px; margin: 0; text-align: center;\">+</p>","response":null,"trial_type":"html-keyboard-response","trial_index":102,"plugin_version":"2.1.0","time_elapsed":280196,"subject_id":"92001","group":"Group1","condition":"1_Rep","full_date":"2026-01-27T19:44:57.833Z","date":"2026-01-27","time":"19:44:57"},{"task":"memory_phase","broad_category":"M","image_png":"M_Marble_16.png","image_id":240,"category_name":"Marble","category":15,"distinct_rating":2.57,"distinct_type":"Bottom","rt":null,"stimulus":"Stimuli_Rocks480/M_Marble_16.png","response":null,"trial_type":"image-keyboard-response","trial_index":103,"plugin_version":"2.1.0","time_elapsed":282699,"subject_id":"92001","group":"Group1","condition":"1_Rep","full_date":"2026-01-27T19:44:57.833Z","date":"2026-01-27","time":"19:44:57"},{"rt":null,"stimulus":"<p style=\"font-size: 50px; margin: 0; text-align: center;\">+</p>","response":null,"trial_type":"html-keyboard-response","trial_index":104,"plugin_version":"2.1.0","time_elapsed":283701,"subject_id":"92001","group":"Group1","condition":"1_Rep","full_date":"2026-01-27T19:44:57.833Z","date":"2026-01-27","time":"19:44:57"},{"task":"memory_phase","broad_category":"I","image_png":"I_Pumice_08.png","image_id":136,"category_name":"Pumice","category":9,"distinct_rating":3.1,"distinct_type":"Bottom","rt":null,"stimulus":"Stimuli_Rocks480/I_Pumice_08.png","response":null,"trial_type":"image-keyboard-response","trial_index":105,"plugin_version":"2.1.0","time_elapsed":286205,"subject_id":"92001","group":"Group1","condition":"1_Rep","full_date":"2026-01-27T19:44:57.833Z","date":"2026-01-27","time":"19:44:57"},{"rt":5859,"stimulus":"<div style=\"max-width: 760px; margin: auto; font-size: 20px; line-height: 1.5;\">\n      <h1 style=\"text-align:center; font-size: 30px;\">Instructions for the Test Phase</h1>\n      <p>\n        The study phase is now complete.\n      </p>\n      <p>\n        In the test phase, you will again see a series of rock images. \n        Some will be ones you saw before - during the study phase, while others will be new.  \n        <b>Your task</b> is to decide whether you have seen each image before by pressing the corresponding key on your keyboard:<br><br>\n          <b>A</b> - NO (you did not see this image before)<br>\n          <b>L</b> - YES (you saw this image before)<br><br>\n        The test will proceed at your own pace. You will receive feedback after each response.  \n        Please try to respond <b>as accurately as possible</b>.\n      </p>\n      <p>\n        <b>Reminder:</b> If your computer has multiple language settings (e.g., English and another language),\n        please ensure it is set to English during the test phase.\n      </p>\n      <p>\n        You can track your progress using the <b>completion bar</b> at the top of the screen.  \n        Note that it has been refreshed to reflect your progress during this final phase.\n      </p>\n      <p>\n        Press the button below when you are ready to continue.\n      </p>\n    </div>","response":0,"trial_type":"html-button-response","trial_index":106,"plugin_version":"2.1.0","time_elapsed":292066,"subject_id":"92001","group":"Group1","condition":"1_Rep","full_date":"2026-01-27T19:44:57.833Z","date":"2026-01-27","time":"19:44:57"},{"correct_response":"l","task":"test_phase","broad_category":"I","image_png":"I_Obsidian_05.png","image_id":85,"category_name":"Obsidian","category":6,"distinct_rating":7.32,"distinct_type":"Top","item_type":"Target","rt":3121,"stimulus":"Stimuli_Rocks480/I_Obsidian_05.png","response":"a","trial_type":"image-keyboard-response","trial_index":107,"plugin_version":"2.1.0","time_elapsed":295189,"subject_id":"92001","group":"Group1","condition":"1_Rep","full_date":"2026-01-27T19:44:57.833Z","date":"2026-01-27","time":"19:44:57","cor_ans":false},{"trial_type":"html-keyboard-response","rt":null,"stimulus":"<p style=\"color: red; font-size: 50px; font-weight: bold;\">Incorrect</p>","response":null,"trial_index":108,"plugin_version":"2.1.0","time_elapsed":295691,"subject_id":"92001","group":"Group1","condition":"1_Rep","full_date":"2026-01-27T19:44:57.833Z","date":"2026-01-27","time":"19:44:57"},{"correct_response":"l","task":"test_phase","broad_category":"M","image_png":"M_Phyllite_07.png","image_id":263,"category_name":"Phyllite","category":17,"distinct_rating":2.59,"distinct_type":"Bottom","item_type":"Target","rt":1964,"stimulus":"Stimuli_Rocks480/M_Phyllite_07.png","response":"l","trial_type":"image-keyboard-response","trial_index":109,"plugin_version":"2.1.0","time_elapsed":297657,"subject_id":"92001","group":"Group1","condition":"1_Rep","full_date":"2026-01-27T19:44:57.833Z","date":"2026-01-27","time":"19:44:57","cor_ans":true},{"trial_type":"html-keyboard-response","rt":null,"stimulus":"<p style=\"color: green; font-size: 50px; font-weight: bold;\">Correct</p>","response":null,"trial_index":110,"plugin_version":"2.1.0","time_elapsed":298159,"subject_id":"92001","group":"Group1","condition":"1_Rep","full_date":"2026-01-27T19:44:57.833Z","date":"2026-01-27","time":"19:44:57"},{"correct_response":"a","task":"test_phase","broad_category":"I","image_png":"I_Rhyolite_08.png","image_id":152,"category_name":"Rhyolite","category":10,"distinct_rating":1.38,"distinct_type":"Bottom","item_type":"Foil","rt":2146,"stimulus":"Stimuli_Rocks480/I_Rhyolite_08.png","response":"a","trial_type":"image-keyboard-response","trial_index":111,"plugin_version":"2.1.0","time_elapsed":300307,"subject_id":"92001","group":"Group1","condition":"1_Rep","full_date":"2026-01-27T19:44:57.833Z","date":"2026-01-27","time":"19:44:57","cor_ans":true},{"trial_type":"html-keyboard-response","rt":null,"stimulus":"<p style=\"color: green; font-size: 50px; font-weight: bold;\">Correct</p>","response":null,"trial_index":112,"plugin_version":"2.1.0","time_elapsed":300809,"subject_id":"92001","group":"Group1","condition":"1_Rep","full_date":"2026-01-27T19:44:57.833Z","date":"2026-01-27","time":"19:44:57"},{"correct_response":"l","task":"test_phase","broad_category":"S","image_png":"S_Rock Salt_01.png","image_id":433,"category_name":"Rock Salt","category":28,"distinct_rating":7.18,"distinct_type":"Top","item_type":"Target","rt":1871,"stimulus":"Stimuli_Rocks480/S_Rock Salt_01.png","response":"l","trial_type":"image-keyboard-response","trial_index":113,"plugin_version":"2.1.0","time_elapsed":302682,"subject_id":"92001","group":"Group1","condition":"1_Rep","full_date":"2026-01-27T19:44:57.833Z","date":"2026-01-27","time":"19:44:57","cor_ans":true},{"trial_type":"html-keyboard-response","rt":null,"stimulus":"<p style=\"color: green; font-size: 50px; font-weight: bold;\">Correct</p>","response":null,"trial_index":114,"plugin_version":"2.1.0","time_elapsed":303184,"subject_id":"92001","group":"Group1","condition":"1_Rep","full_date":"2026-01-27T19:44:57.833Z","date":"2026-01-27","time":"19:44:57"},{"correct_response":"a","task":"test_phase","broad_category":"I","image_png":"I_Pumice_14.png","image_id":142,"category_name":"Pumice","category":9,"distinct_rating":3.22,"distinct_type":"Bottom","item_type":"Foil","rt":2385,"stimulus":"Stimuli_Rocks480/I_Pumice_14.png","response":"a","trial_type":"image-keyboard-response","trial_index":115,"plugin_version":"2.1.0","time_elapsed":305571,"subject_id":"92001","group":"Group1","condition":"1_Rep","full_date":"2026-01-27T19:44:57.833Z","date":"2026-01-27","time":"19:44:57","cor_ans":true},{"trial_type":"html-keyboard-response","rt":null,"stimulus":"<p style=\"color: green; font-size: 50px; font-weight: bold;\">Correct</p>","response":null,"trial_index":116,"plugin_version":"2.1.0","time_elapsed":306072,"subject_id":"92001","group":"Group1","condition":"1_Rep","full_date":"2026-01-27T19:44:57.833Z","date":"2026-01-27","time":"19:44:57"},{"correct_response":"l","task":"test_phase","broad_category":"M","image_png":"M_Gneiss_13.png","image_id":205,"category_name":"Gneiss","category":13,"distinct_rating":3.26,"distinct_type":"Bottom","item_type":"Target","rt":1735,"stimulus":"Stimuli_Rocks480/M_Gneiss_13.png","response":"l","trial_type":"image-keyboard-response","trial_index":117,"plugin_version":"2.1.0","time_elapsed":307809,"subject_id":"92001","group":"Group1","condition":"1_Rep","full_date":"2026-01-27T19:44:57.833Z","date":"2026-01-27","time":"19:44:57","cor_ans":true},{"trial_type":"html-keyboard-response","rt":null,"stimulus":"<p style=\"color: green; font-size: 50px; font-weight: bold;\">Correct</p>","response":null,"trial_index":118,"plugin_version":"2.1.0","time_elapsed":308310,"subject_id":"92001","group":"Group1","condition":"1_Rep","full_date":"2026-01-27T19:44:57.833Z","date":"2026-01-27","time":"19:44:57"},{"correct_response":"l","task":"test_phase","broad_category":"M","image_png":"M_Slate_11.png","image_id":315,"category_name":"Slate","category":20,"distinct_rating":2.75,"distinct_type":"Bottom","item_type":"Target","rt":1213,"stimulus":"Stimuli_Rocks480/M_Slate_11.png","response":"l","trial_type":"image-keyboard-response","trial_index":119,"plugin_version":"2.1.0","time_elapsed":309525,"subject_id":"92001","group":"Group1","condition":"1_Rep","full_date":"2026-01-27T19:44:57.833Z","date":"2026-01-27","time":"19:44:57","cor_ans":true},{"trial_type":"html-keyboard-response","rt":null,"stimulus":"<p style=\"color: green; font-size: 50px; font-weight: bold;\">Correct</p>","response":null,"trial_index":120,"plugin_version":"2.1.0","time_elapsed":310026,"subject_id":"92001","group":"Group1","condition":"1_Rep","full_date":"2026-01-27T19:44:57.833Z","date":"2026-01-27","time":"19:44:57"},{"correct_response":"l","task":"test_phase","broad_category":"I","image_png":"I_Gabbro_08.png","image_id":56,"category_name":"Gabbro","category":4,"distinct_rating":3.02,"distinct_type":"Bottom","item_type":"Target","rt":1131,"stimulus":"Stimuli_Rocks480/I_Gabbro_08.png","response":"l","trial_type":"image-keyboard-response","trial_index":121,"plugin_version":"2.1.0","time_elapsed":311160,"subject_id":"92001","group":"Group1","condition":"1_Rep","full_date":"2026-01-27T19:44:57.833Z","date":"2026-01-27","time":"19:44:57","cor_ans":true},{"trial_type":"html-keyboard-response","rt":null,"stimulus":"<p style=\"color: green; font-size: 50px; font-weight: bold;\">Correct</p>","response":null,"trial_index":122,"plugin_version":"2.1.0","time_elapsed":311661,"subject_id":"92001","group":"Group1","condition":"1_Rep","full_date":"2026-01-27T19:44:57.833Z","date":"2026-01-27","time":"19:44:57"},{"correct_response":"l","task":"test_phase","broad_category":"M","image_png":"M_Marble_06.png","image_id":230,"category_name":"Marble","category":15,"distinct_rating":3.4,"distinct_type":"Bottom","item_type":"Target","rt":2739,"stimulus":"Stimuli_Rocks480/M_Marble_06.png","response":"a","trial_type":"image-keyboard-response","trial_index":123,"plugin_version":"2.1.0","time_elapsed":314402,"subject_id":"92001","group":"Group1","condition":"1_Rep","full_date":"2026-01-27T19:44:57.833Z","date":"2026-01-27","time":"19:44:57","cor_ans":false},{"trial_type":"html-keyboard-response","rt":null,"stimulus":"<p style=\"color: red; font-size: 50px; font-weight: bold;\">Incorrect</p>","response":null,"trial_index":124,"plugin_version":"2.1.0","time_elapsed":314904,"subject_id":"92001","group":"Group1","condition":"1_Rep","full_date":"2026-01-27T19:44:57.833Z","date":"2026-01-27","time":"19:44:57"},{"correct_response":"l","task":"test_phase","broad_category":"I","image_png":"I_Diorite_05.png","image_id":37,"category_name":"Diorite","category":3,"distinct_rating":3.08,"distinct_type":"Bottom","item_type":"Target","rt":1236,"stimulus":"Stimuli_Rocks480/I_Diorite_05.png","response":"l","trial_type":"image-keyboard-response","trial_index":125,"plugin_version":"2.1.0","time_elapsed":316141,"subject_id":"92001","group":"Group1","condition":"1_Rep","full_date":"2026-01-27T19:44:57.833Z","date":"2026-01-27","time":"19:44:57","cor_ans":true},{"trial_type":"html-keyboard-response","rt":null,"stimulus":"<p style=\"color: green; font-size: 50px; font-weight: bold;\">Correct</p>","response":null,"trial_index":126,"plugin_version":"2.1.0","time_elapsed":316643,"subject_id":"92001","group":"Group1","condition":"1_Rep","full_date":"2026-01-27T19:44:57.833Z","date":"2026-01-27","time":"19:44:57"},{"correct_response":"a","task":"test_phase","broad_category":"M","image_png":"M_Phyllite_02.png","image_id":258,"category_name":"Phyllite","category":17,"distinct_rating":2.89,"distinct_type":"Bottom","item_type":"Foil","rt":996,"stimulus":"Stimuli_Rocks480/M_Phyllite_02.png","response":"l","trial_type":"image-keyboard-response","trial_index":127,"plugin_version":"2.1.0","time_elapsed":317640,"subject_id":"92001","group":"Group1","condition":"1_Rep","full_date":"2026-01-27T19:44:57.833Z","date":"2026-01-27","time":"19:44:57","cor_ans":false},{"trial_type":"html-keyboard-response","rt":null,"stimulus":"<p style=\"color: red; font-size: 50px; font-weight: bold;\">Incorrect</p>","response":null,"trial_index":128,"plugin_version":"2.1.0","time_elapsed":318142,"subject_id":"92001","group":"Group1","condition":"1_Rep","full_date":"2026-01-27T19:44:57.833Z","date":"2026-01-27","time":"19:44:57"},{"correct_response":"l","task":"test_phase","broad_category":"I","image_png":"I_Andesite_10.png","image_id":10,"category_name":"Andesite","category":1,"distinct_rating":3.15,"distinct_type":"Bottom","item_type":"Target","rt":1274,"stimulus":"Stimuli_Rocks480/I_Andesite_10.png","response":"l","trial_type":"image-keyboard-response","trial_index":129,"plugin_version":"2.1.0","time_elapsed":319418,"subject_id":"92001","group":"Group1","condition":"1_Rep","full_date":"2026-01-27T19:44:57.833Z","date":"2026-01-27","time":"19:44:57","cor_ans":true},{"trial_type":"html-keyboard-response","rt":null,"stimulus":"<p style=\"color: green; font-size: 50px; font-weight: bold;\">Correct</p>","response":null,"trial_index":130,"plugin_version":"2.1.0","time_elapsed":319919,"subject_id":"92001","group":"Group1","condition":"1_Rep","full_date":"2026-01-27T19:44:57.833Z","date":"2026-01-27","time":"19:44:57"},{"correct_response":"a","task":"test_phase","broad_category":"M","image_png":"M_Gneiss_14.png","image_id":206,"category_name":"Gneiss","category":13,"distinct_rating":3.41,"distinct_type":"Bottom","item_type":"Foil","rt":2539,"stimulus":"Stimuli_Rocks480/M_Gneiss_14.png","response":"a","trial_type":"image-keyboard-response","trial_index":131,"plugin_version":"2.1.0","time_elapsed":322460,"subject_id":"92001","group":"Group1","condition":"1_Rep","full_date":"2026-01-27T19:44:57.833Z","date":"2026-01-27","time":"19:44:57","cor_ans":true},{"trial_type":"html-keyboard-response","rt":null,"stimulus":"<p style=\"color: green; font-size: 50px; font-weight: bold;\">Correct</p>","response":null,"trial_index":132,"plugin_version":"2.1.0","time_elapsed":322962,"subject_id":"92001","group":"Group1","condition":"1_Rep","full_date":"2026-01-27T19:44:57.833Z","date":"2026-01-27","time":"19:44:57"},{"correct_response":"a","task":"test_phase","broad_category":"M","image_png":"M_Marble_02.png","image_id":226,"category_name":"Marble","category":15,"distinct_rating":3.2,"distinct_type":"Bottom","item_type":"Foil","rt":2841,"stimulus":"Stimuli_Rocks480/M_Marble_02.png","response":"l","trial_type":"image-keyboard-response","trial_index":133,"plugin_version":"2.1.0","time_elapsed":325804,"subject_id":"92001","group":"Group1","condition":"1_Rep","full_date":"2026-01-27T19:44:57.833Z","date":"2026-01-27","time":"19:44:57","cor_ans":false},{"trial_type":"html-keyboard-response","rt":null,"stimulus":"<p style=\"color: red; font-size: 50px; font-weight: bold;\">Incorrect</p>","response":null,"trial_index":134,"plugin_version":"2.1.0","time_elapsed":326306,"subject_id":"92001","group":"Group1","condition":"1_Rep","full_date":"2026-01-27T19:44:57.833Z","date":"2026-01-27","time":"19:44:57"},{"correct_response":"l","task":"test_phase","broad_category":"S","image_png":"S_Sandstone_15.png","image_id":463,"category_name":"Sandstone","category":29,"distinct_rating":2,"distinct_type":"Bottom","item_type":"Target","rt":1094,"stimulus":"Stimuli_Rocks480/S_Sandstone_15.png","response":"l","trial_type":"image-keyboard-response","trial_index":135,"plugin_version":"2.1.0","time_elapsed":327402,"subject_id":"92001","group":"Group1","condition":"1_Rep","full_date":"2026-01-27T19:44:57.833Z","date":"2026-01-27","time":"19:44:57","cor_ans":true},{"trial_type":"html-keyboard-response","rt":null,"stimulus":"<p style=\"color: green; font-size: 50px; font-weight: bold;\">Correct</p>","response":null,"trial_index":136,"plugin_version":"2.1.0","time_elapsed":327904,"subject_id":"92001","group":"Group1","condition":"1_Rep","full_date":"2026-01-27T19:44:57.833Z","date":"2026-01-27","time":"19:44:57"},{"correct_response":"a","task":"test_phase","broad_category":"I","image_png":"I_Gabbro_12.png","image_id":60,"category_name":"Gabbro","category":4,"distinct_rating":2.6,"distinct_type":"Bottom","item_type":"Foil","rt":1945,"stimulus":"Stimuli_Rocks480/I_Gabbro_12.png","response":"l","trial_type":"image-keyboard-response","trial_index":137,"plugin_version":"2.1.0","time_elapsed":329851,"subject_id":"92001","group":"Group1","condition":"1_Rep","full_date":"2026-01-27T19:44:57.833Z","date":"2026-01-27","time":"19:44:57","cor_ans":false},{"trial_type":"html-keyboard-response","rt":null,"stimulus":"<p style=\"color: red; font-size: 50px; font-weight: bold;\">Incorrect</p>","response":null,"trial_index":138,"plugin_version":"2.1.0","time_elapsed":330353,"subject_id":"92001","group":"Group1","condition":"1_Rep","full_date":"2026-01-27T19:44:57.833Z","date":"2026-01-27","time":"19:44:57"},{"correct_response":"l","task":"test_phase","broad_category":"S","image_png":"S_Breccia_11.png","image_id":347,"category_name":"Breccia","category":22,"distinct_rating":6.7,"distinct_type":"Top","item_type":"Target","rt":1806,"stimulus":"Stimuli_Rocks480/S_Breccia_11.png","response":"a","trial_type":"image-keyboard-response","trial_index":139,"plugin_version":"2.1.0","time_elapsed":332161,"subject_id":"92001","group":"Group1","condition":"1_Rep","full_date":"2026-01-27T19:44:57.833Z","date":"2026-01-27","time":"19:44:57","cor_ans":false},{"trial_type":"html-keyboard-response","rt":null,"stimulus":"<p style=\"color: red; font-size: 50px; font-weight: bold;\">Incorrect</p>","response":null,"trial_index":140,"plugin_version":"2.1.0","time_elapsed":332662,"subject_id":"92001","group":"Group1","condition":"1_Rep","full_date":"2026-01-27T19:44:57.833Z","date":"2026-01-27","time":"19:44:57"},{"correct_response":"a","task":"test_phase","broad_category":"S","image_png":"S_Sandstone_11.png","image_id":459,"category_name":"Sandstone","category":29,"distinct_rating":1.82,"distinct_type":"Bottom","item_type":"Foil","rt":1176,"stimulus":"Stimuli_Rocks480/S_Sandstone_11.png","response":"l","trial_type":"image-keyboard-response","trial_index":141,"plugin_version":"2.1.0","time_elapsed":333840,"subject_id":"92001","group":"Group1","condition":"1_Rep","full_date":"2026-01-27T19:44:57.833Z","date":"2026-01-27","time":"19:44:57","cor_ans":false},{"trial_type":"html-keyboard-response","rt":null,"stimulus":"<p style=\"color: red; font-size: 50px; font-weight: bold;\">Incorrect</p>","response":null,"trial_index":142,"plugin_version":"2.1.0","time_elapsed":334341,"subject_id":"92001","group":"Group1","condition":"1_Rep","full_date":"2026-01-27T19:44:57.833Z","date":"2026-01-27","time":"19:44:57"},{"correct_response":"l","task":"test_phase","broad_category":"M","image_png":"M_Phyllite_03.png","image_id":259,"category_name":"Phyllite","category":17,"distinct_rating":2.5,"distinct_type":"Bottom","item_type":"Target","rt":748,"stimulus":"Stimuli_Rocks480/M_Phyllite_03.png","response":"l","trial_type":"image-keyboard-response","trial_index":143,"plugin_version":"2.1.0","time_elapsed":335091,"subject_id":"92001","group":"Group1","condition":"1_Rep","full_date":"2026-01-27T19:44:57.833Z","date":"2026-01-27","time":"19:44:57","cor_ans":true},{"trial_type":"html-keyboard-response","rt":null,"stimulus":"<p style=\"color: green; font-size: 50px; font-weight: bold;\">Correct</p>","response":null,"trial_index":144,"plugin_version":"2.1.0","time_elapsed":335593,"subject_id":"92001","group":"Group1","condition":"1_Rep","full_date":"2026-01-27T19:44:57.833Z","date":"2026-01-27","time":"19:44:57"},{"correct_response":"a","task":"test_phase","broad_category":"I","image_png":"I_Pegmatite_03.png","image_id":99,"category_name":"Pegmatite","category":7,"distinct_rating":7.24,"distinct_type":"Top","item_type":"Foil","rt":2174,"stimulus":"Stimuli_Rocks480/I_Pegmatite_03.png","response":"a","trial_type":"image-keyboard-response","trial_index":145,"plugin_version":"2.1.0","time_elapsed":337768,"subject_id":"92001","group":"Group1","condition":"1_Rep","full_date":"2026-01-27T19:44:57.833Z","date":"2026-01-27","time":"19:44:57","cor_ans":true},{"trial_type":"html-keyboard-response","rt":null,"stimulus":"<p style=\"color: green; font-size: 50px; font-weight: bold;\">Correct</p>","response":null,"trial_index":146,"plugin_version":"2.1.0","time_elapsed":338270,"subject_id":"92001","group":"Group1","condition":"1_Rep","full_date":"2026-01-27T19:44:57.833Z","date":"2026-01-27","time":"19:44:57"},{"correct_response":"l","task":"test_phase","broad_category":"M","image_png":"M_Quartzite_05.png","image_id":277,"category_name":"Quartzite","category":18,"distinct_rating":2.23,"distinct_type":"Bottom","item_type":"Target","rt":1038,"stimulus":"Stimuli_Rocks480/M_Quartzite_05.png","response":"l","trial_type":"image-keyboard-response","trial_index":147,"plugin_version":"2.1.0","time_elapsed":339310,"subject_id":"92001","group":"Group1","condition":"1_Rep","full_date":"2026-01-27T19:44:57.833Z","date":"2026-01-27","time":"19:44:57","cor_ans":true},{"trial_type":"html-keyboard-response","rt":null,"stimulus":"<p style=\"color: green; font-size: 50px; font-weight: bold;\">Correct</p>","response":null,"trial_index":148,"plugin_version":"2.1.0","time_elapsed":339811,"subject_id":"92001","group":"Group1","condition":"1_Rep","full_date":"2026-01-27T19:44:57.833Z","date":"2026-01-27","time":"19:44:57"},{"correct_response":"l","task":"test_phase","broad_category":"M","image_png":"M_Gneiss_06.png","image_id":198,"category_name":"Gneiss","category":13,"distinct_rating":2.65,"distinct_type":"Bottom","item_type":"Target","rt":1163,"stimulus":"Stimuli_Rocks480/M_Gneiss_06.png","response":"l","trial_type":"image-keyboard-response","trial_index":149,"plugin_version":"2.1.0","time_elapsed":340976,"subject_id":"92001","group":"Group1","condition":"1_Rep","full_date":"2026-01-27T19:44:57.833Z","date":"2026-01-27","time":"19:44:57","cor_ans":true},{"trial_type":"html-keyboard-response","rt":null,"stimulus":"<p style=\"color: green; font-size: 50px; font-weight: bold;\">Correct</p>","response":null,"trial_index":150,"plugin_version":"2.1.0","time_elapsed":341477,"subject_id":"92001","group":"Group1","condition":"1_Rep","full_date":"2026-01-27T19:44:57.833Z","date":"2026-01-27","time":"19:44:57"},{"correct_response":"l","task":"test_phase","broad_category":"M","image_png":"M_Slate_15.png","image_id":319,"category_name":"Slate","category":20,"distinct_rating":2.13,"distinct_type":"Bottom","item_type":"Target","rt":963,"stimulus":"Stimuli_Rocks480/M_Slate_15.png","response":"l","trial_type":"image-keyboard-response","trial_index":151,"plugin_version":"2.1.0","time_elapsed":342441,"subject_id":"92001","group":"Group1","condition":"1_Rep","full_date":"2026-01-27T19:44:57.833Z","date":"2026-01-27","time":"19:44:57","cor_ans":true},{"trial_type":"html-keyboard-response","rt":null,"stimulus":"<p style=\"color: green; font-size: 50px; font-weight: bold;\">Correct</p>","response":null,"trial_index":152,"plugin_version":"2.1.0","time_elapsed":342943,"subject_id":"92001","group":"Group1","condition":"1_Rep","full_date":"2026-01-27T19:44:57.833Z","date":"2026-01-27","time":"19:44:57"},{"correct_response":"l","task":"test_phase","broad_category":"M","image_png":"M_Quartzite_08.png","image_id":280,"category_name":"Quartzite","category":18,"distinct_rating":2.15,"distinct_type":"Bottom","item_type":"Target","rt":918,"stimulus":"Stimuli_Rocks480/M_Quartzite_08.png","response":"l","trial_type":"image-keyboard-response","trial_index":153,"plugin_version":"2.1.0","time_elapsed":343863,"subject_id":"92001","group":"Group1","condition":"1_Rep","full_date":"2026-01-27T19:44:57.833Z","date":"2026-01-27","time":"19:44:57","cor_ans":true},{"trial_type":"html-keyboard-response","rt":null,"stimulus":"<p style=\"color: green; font-size: 50px; font-weight: bold;\">Correct</p>","response":null,"trial_index":154,"plugin_version":"2.1.0","time_elapsed":344364,"subject_id":"92001","group":"Group1","condition":"1_Rep","full_date":"2026-01-27T19:44:57.833Z","date":"2026-01-27","time":"19:44:57"},{"correct_response":"a","task":"test_phase","broad_category":"I","image_png":"I_Andesite_04.png","image_id":4,"category_name":"Andesite","category":1,"distinct_rating":3.18,"distinct_type":"Bottom","item_type":"Foil","rt":1502,"stimulus":"Stimuli_Rocks480/I_Andesite_04.png","response":"l","trial_type":"image-keyboard-response","trial_index":155,"plugin_version":"2.1.0","time_elapsed":345867,"subject_id":"92001","group":"Group1","condition":"1_Rep","full_date":"2026-01-27T19:44:57.833Z","date":"2026-01-27","time":"19:44:57","cor_ans":false},{"trial_type":"html-keyboard-response","rt":null,"stimulus":"<p style=\"color: red; font-size: 50px; font-weight: bold;\">Incorrect</p>","response":null,"trial_index":156,"plugin_version":"2.1.0","time_elapsed":346368,"subject_id":"92001","group":"Group1","condition":"1_Rep","full_date":"2026-01-27T19:44:57.833Z","date":"2026-01-27","time":"19:44:57"},{"correct_response":"a","task":"test_phase","broad_category":"I","image_png":"I_Andesite_03.png","image_id":3,"category_name":"Andesite","category":1,"distinct_rating":3.17,"distinct_type":"Bottom","item_type":"Foil","rt":976,"stimulus":"Stimuli_Rocks480/I_Andesite_03.png","response":"l","trial_type":"image-keyboard-response","trial_index":157,"plugin_version":"2.1.0","time_elapsed":347346,"subject_id":"92001","group":"Group1","condition":"1_Rep","full_date":"2026-01-27T19:44:57.833Z","date":"2026-01-27","time":"19:44:57","cor_ans":false},{"trial_type":"html-keyboard-response","rt":null,"stimulus":"<p style=\"color: red; font-size: 50px; font-weight: bold;\">Incorrect</p>","response":null,"trial_index":158,"plugin_version":"2.1.0","time_elapsed":347847,"subject_id":"92001","group":"Group1","condition":"1_Rep","full_date":"2026-01-27T19:44:57.833Z","date":"2026-01-27","time":"19:44:57"},{"correct_response":"l","task":"test_phase","broad_category":"I","image_png":"I_Rhyolite_16.png","image_id":160,"category_name":"Rhyolite","category":10,"distinct_rating":2.19,"distinct_type":"Bottom","item_type":"Target","rt":916,"stimulus":"Stimuli_Rocks480/I_Rhyolite_16.png","response":"l","trial_type":"image-keyboard-response","trial_index":159,"plugin_version":"2.1.0","time_elapsed":348764,"subject_id":"92001","group":"Group1","condition":"1_Rep","full_date":"2026-01-27T19:44:57.833Z","date":"2026-01-27","time":"19:44:57","cor_ans":true},{"trial_type":"html-keyboard-response","rt":null,"stimulus":"<p style=\"color: green; font-size: 50px; font-weight: bold;\">Correct</p>","response":null,"trial_index":160,"plugin_version":"2.1.0","time_elapsed":349265,"subject_id":"92001","group":"Group1","condition":"1_Rep","full_date":"2026-01-27T19:44:57.833Z","date":"2026-01-27","time":"19:44:57"},{"correct_response":"a","task":"test_phase","broad_category":"I","image_png":"I_Diorite_15.png","image_id":47,"category_name":"Diorite","category":3,"distinct_rating":3.05,"distinct_type":"Bottom","item_type":"Foil","rt":1333,"stimulus":"Stimuli_Rocks480/I_Diorite_15.png","response":"a","trial_type":"image-keyboard-response","trial_index":161,"plugin_version":"2.1.0","time_elapsed":350600,"subject_id":"92001","group":"Group1","condition":"1_Rep","full_date":"2026-01-27T19:44:57.833Z","date":"2026-01-27","time":"19:44:57","cor_ans":true},{"trial_type":"html-keyboard-response","rt":null,"stimulus":"<p style=\"color: green; font-size: 50px; font-weight: bold;\">Correct</p>","response":null,"trial_index":162,"plugin_version":"2.1.0","time_elapsed":351102,"subject_id":"92001","group":"Group1","condition":"1_Rep","full_date":"2026-01-27T19:44:57.833Z","date":"2026-01-27","time":"19:44:57"},{"correct_response":"a","task":"test_phase","broad_category":"S","image_png":"S_Sandstone_08.png","image_id":456,"category_name":"Sandstone","category":29,"distinct_rating":1.5,"distinct_type":"Bottom","item_type":"Foil","rt":1008,"stimulus":"Stimuli_Rocks480/S_Sandstone_08.png","response":"l","trial_type":"image-keyboard-response","trial_index":163,"plugin_version":"2.1.0","time_elapsed":352112,"subject_id":"92001","group":"Group1","condition":"1_Rep","full_date":"2026-01-27T19:44:57.833Z","date":"2026-01-27","time":"19:44:57","cor_ans":false},{"trial_type":"html-keyboard-response","rt":null,"stimulus":"<p style=\"color: red; font-size: 50px; font-weight: bold;\">Incorrect</p>","response":null,"trial_index":164,"plugin_version":"2.1.0","time_elapsed":352613,"subject_id":"92001","group":"Group1","condition":"1_Rep","full_date":"2026-01-27T19:44:57.833Z","date":"2026-01-27","time":"19:44:57"},{"correct_response":"a","task":"test_phase","broad_category":"M","image_png":"M_Gneiss_10.png","image_id":202,"category_name":"Gneiss","category":13,"distinct_rating":3.09,"distinct_type":"Bottom","item_type":"Foil","rt":1989,"stimulus":"Stimuli_Rocks480/M_Gneiss_10.png","response":"l","trial_type":"image-keyboard-response","trial_index":165,"plugin_version":"2.1.0","time_elapsed":354604,"subject_id":"92001","group":"Group1","condition":"1_Rep","full_date":"2026-01-27T19:44:57.833Z","date":"2026-01-27","time":"19:44:57","cor_ans":false},{"trial_type":"html-keyboard-response","rt":null,"stimulus":"<p style=\"color: red; font-size: 50px; font-weight: bold;\">Incorrect</p>","response":null,"trial_index":166,"plugin_version":"2.1.0","time_elapsed":355106,"subject_id":"92001","group":"Group1","condition":"1_Rep","full_date":"2026-01-27T19:44:57.833Z","date":"2026-01-27","time":"19:44:57"},{"correct_response":"a","task":"test_phase","broad_category":"I","image_png":"I_Pumice_13.png","image_id":141,"category_name":"Pumice","category":9,"distinct_rating":3.12,"distinct_type":"Bottom","item_type":"Foil","rt":2165,"stimulus":"Stimuli_Rocks480/I_Pumice_13.png","response":"a","trial_type":"image-keyboard-response","trial_index":167,"plugin_version":"2.1.0","time_elapsed":357273,"subject_id":"92001","group":"Group1","condition":"1_Rep","full_date":"2026-01-27T19:44:57.833Z","date":"2026-01-27","time":"19:44:57","cor_ans":true},{"trial_type":"html-keyboard-response","rt":null,"stimulus":"<p style=\"color: green; font-size: 50px; font-weight: bold;\">Correct</p>","response":null,"trial_index":168,"plugin_version":"2.1.0","time_elapsed":357774,"subject_id":"92001","group":"Group1","condition":"1_Rep","full_date":"2026-01-27T19:44:57.833Z","date":"2026-01-27","time":"19:44:57"},{"correct_response":"l","task":"test_phase","broad_category":"I","image_png":"I_Rhyolite_11.png","image_id":155,"category_name":"Rhyolite","category":10,"distinct_rating":1.73,"distinct_type":"Bottom","item_type":"Target","rt":1138,"stimulus":"Stimuli_Rocks480/I_Rhyolite_11.png","response":"l","trial_type":"image-keyboard-response","trial_index":169,"plugin_version":"2.1.0","time_elapsed":358913,"subject_id":"92001","group":"Group1","condition":"1_Rep","full_date":"2026-01-27T19:44:57.833Z","date":"2026-01-27","time":"19:44:57","cor_ans":true},{"trial_type":"html-keyboard-response","rt":null,"stimulus":"<p style=\"color: green; font-size: 50px; font-weight: bold;\">Correct</p>","response":null,"trial_index":170,"plugin_version":"2.1.0","time_elapsed":359415,"subject_id":"92001","group":"Group1","condition":"1_Rep","full_date":"2026-01-27T19:44:57.833Z","date":"2026-01-27","time":"19:44:57"},{"correct_response":"a","task":"test_phase","broad_category":"I","image_png":"I_Diorite_01.png","image_id":33,"category_name":"Diorite","category":3,"distinct_rating":2.97,"distinct_type":"Bottom","item_type":"Foil","rt":811,"stimulus":"Stimuli_Rocks480/I_Diorite_01.png","response":"l","trial_type":"image-keyboard-response","trial_index":171,"plugin_version":"2.1.0","time_elapsed":360228,"subject_id":"92001","group":"Group1","condition":"1_Rep","full_date":"2026-01-27T19:44:57.833Z","date":"2026-01-27","time":"19:44:57","cor_ans":false},{"trial_type":"html-keyboard-response","rt":null,"stimulus":"<p style=\"color: red; font-size: 50px; font-weight: bold;\">Incorrect</p>","response":null,"trial_index":172,"plugin_version":"2.1.0","time_elapsed":360730,"subject_id":"92001","group":"Group1","condition":"1_Rep","full_date":"2026-01-27T19:44:57.833Z","date":"2026-01-27","time":"19:44:57"},{"correct_response":"a","task":"test_phase","broad_category":"M","image_png":"M_Marble_14.png","image_id":238,"category_name":"Marble","category":15,"distinct_rating":3.31,"distinct_type":"Bottom","item_type":"Foil","rt":1017,"stimulus":"Stimuli_Rocks480/M_Marble_14.png","response":"l","trial_type":"image-keyboard-response","trial_index":173,"plugin_version":"2.1.0","time_elapsed":361749,"subject_id":"92001","group":"Group1","condition":"1_Rep","full_date":"2026-01-27T19:44:57.833Z","date":"2026-01-27","time":"19:44:57","cor_ans":false},{"trial_type":"html-keyboard-response","rt":null,"stimulus":"<p style=\"color: red; font-size: 50px; font-weight: bold;\">Incorrect</p>","response":null,"trial_index":174,"plugin_version":"2.1.0","time_elapsed":362251,"subject_id":"92001","group":"Group1","condition":"1_Rep","full_date":"2026-01-27T19:44:57.833Z","date":"2026-01-27","time":"19:44:57"},{"correct_response":"a","task":"test_phase","broad_category":"M","image_png":"M_Marble_03.png","image_id":227,"category_name":"Marble","category":15,"distinct_rating":2.67,"distinct_type":"Bottom","item_type":"Foil","rt":795,"stimulus":"Stimuli_Rocks480/M_Marble_03.png","response":"a","trial_type":"image-keyboard-response","trial_index":175,"plugin_version":"2.1.0","time_elapsed":363048,"subject_id":"92001","group":"Group1","condition":"1_Rep","full_date":"2026-01-27T19:44:57.833Z","date":"2026-01-27","time":"19:44:57","cor_ans":true},{"trial_type":"html-keyboard-response","rt":null,"stimulus":"<p style=\"color: green; font-size: 50px; font-weight: bold;\">Correct</p>","response":null,"trial_index":176,"plugin_version":"2.1.0","time_elapsed":363549,"subject_id":"92001","group":"Group1","condition":"1_Rep","full_date":"2026-01-27T19:44:57.833Z","date":"2026-01-27","time":"19:44:57"},{"correct_response":"a","task":"test_phase","broad_category":"S","image_png":"S_Dolomite_01.png","image_id":385,"category_name":"Dolomite","category":25,"distinct_rating":1.43,"distinct_type":"Bottom","item_type":"Foil","rt":1621,"stimulus":"Stimuli_Rocks480/S_Dolomite_01.png","response":"l","trial_type":"image-keyboard-response","trial_index":177,"plugin_version":"2.1.0","time_elapsed":365172,"subject_id":"92001","group":"Group1","condition":"1_Rep","full_date":"2026-01-27T19:44:57.833Z","date":"2026-01-27","time":"19:44:57","cor_ans":false},{"trial_type":"html-keyboard-response","rt":null,"stimulus":"<p style=\"color: red; font-size: 50px; font-weight: bold;\">Incorrect</p>","response":null,"trial_index":178,"plugin_version":"2.1.0","time_elapsed":365674,"subject_id":"92001","group":"Group1","condition":"1_Rep","full_date":"2026-01-27T19:44:57.833Z","date":"2026-01-27","time":"19:44:57"},{"correct_response":"l","task":"test_phase","broad_category":"I","image_png":"I_Andesite_08.png","image_id":8,"category_name":"Andesite","category":1,"distinct_rating":1.95,"distinct_type":"Bottom","item_type":"Target","rt":863,"stimulus":"Stimuli_Rocks480/I_Andesite_08.png","response":"a","trial_type":"image-keyboard-response","trial_index":179,"plugin_version":"2.1.0","time_elapsed":366539,"subject_id":"92001","group":"Group1","condition":"1_Rep","full_date":"2026-01-27T19:44:57.833Z","date":"2026-01-27","time":"19:44:57","cor_ans":false},{"trial_type":"html-keyboard-response","rt":null,"stimulus":"<p style=\"color: red; font-size: 50px; font-weight: bold;\">Incorrect</p>","response":null,"trial_index":180,"plugin_version":"2.1.0","time_elapsed":367040,"subject_id":"92001","group":"Group1","condition":"1_Rep","full_date":"2026-01-27T19:44:57.833Z","date":"2026-01-27","time":"19:44:57"},{"correct_response":"a","task":"test_phase","broad_category":"I","image_png":"I_Pumice_01.png","image_id":129,"category_name":"Pumice","category":9,"distinct_rating":3.25,"distinct_type":"Bottom","item_type":"Foil","rt":1051,"stimulus":"Stimuli_Rocks480/I_Pumice_01.png","response":"l","trial_type":"image-keyboard-response","trial_index":181,"plugin_version":"2.1.0","time_elapsed":368093,"subject_id":"92001","group":"Group1","condition":"1_Rep","full_date":"2026-01-27T19:44:57.833Z","date":"2026-01-27","time":"19:44:57","cor_ans":false},{"trial_type":"html-keyboard-response","rt":null,"stimulus":"<p style=\"color: red; font-size: 50px; font-weight: bold;\">Incorrect</p>","response":null,"trial_index":182,"plugin_version":"2.1.0","time_elapsed":368594,"subject_id":"92001","group":"Group1","condition":"1_Rep","full_date":"2026-01-27T19:44:57.833Z","date":"2026-01-27","time":"19:44:57"},{"correct_response":"l","task":"test_phase","broad_category":"I","image_png":"I_Basalt_02.png","image_id":18,"category_name":"Basalt","category":2,"distinct_rating":1.84,"distinct_type":"Bottom","item_type":"Target","rt":3609,"stimulus":"Stimuli_Rocks480/I_Basalt_02.png","response":"l","trial_type":"image-keyboard-response","trial_index":183,"plugin_version":"2.1.0","time_elapsed":372204,"subject_id":"92001","group":"Group1","condition":"1_Rep","full_date":"2026-01-27T19:44:57.833Z","date":"2026-01-27","time":"19:44:57","cor_ans":true},{"trial_type":"html-keyboard-response","rt":null,"stimulus":"<p style=\"color: green; font-size: 50px; font-weight: bold;\">Correct</p>","response":null,"trial_index":184,"plugin_version":"2.1.0","time_elapsed":372705,"subject_id":"92001","group":"Group1","condition":"1_Rep","full_date":"2026-01-27T19:44:57.833Z","date":"2026-01-27","time":"19:44:57"},{"correct_response":"l","task":"test_phase","broad_category":"S","image_png":"S_Sandstone_03.png","image_id":451,"category_name":"Sandstone","category":29,"distinct_rating":1.86,"distinct_type":"Bottom","item_type":"Target","rt":849,"stimulus":"Stimuli_Rocks480/S_Sandstone_03.png","response":"l","trial_type":"image-keyboard-response","trial_index":185,"plugin_version":"2.1.0","time_elapsed":373556,"subject_id":"92001","group":"Group1","condition":"1_Rep","full_date":"2026-01-27T19:44:57.833Z","date":"2026-01-27","time":"19:44:57","cor_ans":true},{"trial_type":"html-keyboard-response","rt":null,"stimulus":"<p style=\"color: green; font-size: 50px; font-weight: bold;\">Correct</p>","response":null,"trial_index":186,"plugin_version":"2.1.0","time_elapsed":374057,"subject_id":"92001","group":"Group1","condition":"1_Rep","full_date":"2026-01-27T19:44:57.833Z","date":"2026-01-27","time":"19:44:57"},{"correct_response":"l","task":"test_phase","broad_category":"S","image_png":"S_Shale_01.png","image_id":465,"category_name":"Shale","category":30,"distinct_rating":2.7,"distinct_type":"Bottom","item_type":"Target","rt":1253,"stimulus":"Stimuli_Rocks480/S_Shale_01.png","response":"a","trial_type":"image-keyboard-response","trial_index":187,"plugin_version":"2.1.0","time_elapsed":375311,"subject_id":"92001","group":"Group1","condition":"1_Rep","full_date":"2026-01-27T19:44:57.833Z","date":"2026-01-27","time":"19:44:57","cor_ans":false},{"trial_type":"html-keyboard-response","rt":null,"stimulus":"<p style=\"color: red; font-size: 50px; font-weight: bold;\">Incorrect</p>","response":null,"trial_index":188,"plugin_version":"2.1.0","time_elapsed":375813,"subject_id":"92001","group":"Group1","condition":"1_Rep","full_date":"2026-01-27T19:44:57.833Z","date":"2026-01-27","time":"19:44:57"},{"correct_response":"a","task":"test_phase","broad_category":"S","image_png":"S_Shale_07.png","image_id":471,"category_name":"Shale","category":30,"distinct_rating":2.73,"distinct_type":"Bottom","item_type":"Foil","rt":818,"stimulus":"Stimuli_Rocks480/S_Shale_07.png","response":"l","trial_type":"image-keyboard-response","trial_index":189,"plugin_version":"2.1.0","time_elapsed":376632,"subject_id":"92001","group":"Group1","condition":"1_Rep","full_date":"2026-01-27T19:44:57.833Z","date":"2026-01-27","time":"19:44:57","cor_ans":false},{"trial_type":"html-keyboard-response","rt":null,"stimulus":"<p style=\"color: red; font-size: 50px; font-weight: bold;\">Incorrect</p>","response":null,"trial_index":190,"plugin_version":"2.1.0","time_elapsed":377134,"subject_id":"92001","group":"Group1","condition":"1_Rep","full_date":"2026-01-27T19:44:57.833Z","date":"2026-01-27","time":"19:44:57"},{"correct_response":"a","task":"test_phase","broad_category":"S","image_png":"S_Chert_13.png","image_id":365,"category_name":"Chert","category":23,"distinct_rating":6.57,"distinct_type":"Top","item_type":"Foil","rt":923,"stimulus":"Stimuli_Rocks480/S_Chert_13.png","response":"a","trial_type":"image-keyboard-response","trial_index":191,"plugin_version":"2.1.0","time_elapsed":378059,"subject_id":"92001","group":"Group1","condition":"1_Rep","full_date":"2026-01-27T19:44:57.833Z","date":"2026-01-27","time":"19:44:57","cor_ans":true},{"trial_type":"html-keyboard-response","rt":null,"stimulus":"<p style=\"color: green; font-size: 50px; font-weight: bold;\">Correct</p>","response":null,"trial_index":192,"plugin_version":"2.1.0","time_elapsed":378560,"subject_id":"92001","group":"Group1","condition":"1_Rep","full_date":"2026-01-27T19:44:57.833Z","date":"2026-01-27","time":"19:44:57"},{"correct_response":"l","task":"test_phase","broad_category":"M","image_png":"M_Slate_03.png","image_id":307,"category_name":"Slate","category":20,"distinct_rating":1.87,"distinct_type":"Bottom","item_type":"Target","rt":1041,"stimulus":"Stimuli_Rocks480/M_Slate_03.png","response":"l","trial_type":"image-keyboard-response","trial_index":193,"plugin_version":"2.1.0","time_elapsed":379603,"subject_id":"92001","group":"Group1","condition":"1_Rep","full_date":"2026-01-27T19:44:57.833Z","date":"2026-01-27","time":"19:44:57","cor_ans":true},{"trial_type":"html-keyboard-response","rt":null,"stimulus":"<p style=\"color: green; font-size: 50px; font-weight: bold;\">Correct</p>","response":null,"trial_index":194,"plugin_version":"2.1.0","time_elapsed":380105,"subject_id":"92001","group":"Group1","condition":"1_Rep","full_date":"2026-01-27T19:44:57.833Z","date":"2026-01-27","time":"19:44:57"},{"correct_response":"a","task":"test_phase","broad_category":"I","image_png":"I_Basalt_13.png","image_id":29,"category_name":"Basalt","category":2,"distinct_rating":2.68,"distinct_type":"Bottom","item_type":"Foil","rt":1234,"stimulus":"Stimuli_Rocks480/I_Basalt_13.png","response":"a","trial_type":"image-keyboard-response","trial_index":195,"plugin_version":"2.1.0","time_elapsed":381341,"subject_id":"92001","group":"Group1","condition":"1_Rep","full_date":"2026-01-27T19:44:57.833Z","date":"2026-01-27","time":"19:44:57","cor_ans":true},{"trial_type":"html-keyboard-response","rt":null,"stimulus":"<p style=\"color: green; font-size: 50px; font-weight: bold;\">Correct</p>","response":null,"trial_index":196,"plugin_version":"2.1.0","time_elapsed":381842,"subject_id":"92001","group":"Group1","condition":"1_Rep","full_date":"2026-01-27T19:44:57.833Z","date":"2026-01-27","time":"19:44:57"},{"correct_response":"a","task":"test_phase","broad_category":"M","image_png":"M_Quartzite_07.png","image_id":279,"category_name":"Quartzite","category":18,"distinct_rating":1.97,"distinct_type":"Bottom","item_type":"Foil","rt":1085,"stimulus":"Stimuli_Rocks480/M_Quartzite_07.png","response":"l","trial_type":"image-keyboard-response","trial_index":197,"plugin_version":"2.1.0","time_elapsed":382929,"subject_id":"92001","group":"Group1","condition":"1_Rep","full_date":"2026-01-27T19:44:57.833Z","date":"2026-01-27","time":"19:44:57","cor_ans":false},{"trial_type":"html-keyboard-response","rt":null,"stimulus":"<p style=\"color: red; font-size: 50px; font-weight: bold;\">Incorrect</p>","response":null,"trial_index":198,"plugin_version":"2.1.0","time_elapsed":383430,"subject_id":"92001","group":"Group1","condition":"1_Rep","full_date":"2026-01-27T19:44:57.833Z","date":"2026-01-27","time":"19:44:57"},{"correct_response":"a","task":"test_phase","broad_category":"S","image_png":"S_Shale_02.png","image_id":466,"category_name":"Shale","category":30,"distinct_rating":2.9,"distinct_type":"Bottom","item_type":"Foil","rt":1232,"stimulus":"Stimuli_Rocks480/S_Shale_02.png","response":"l","trial_type":"image-keyboard-response","trial_index":199,"plugin_version":"2.1.0","time_elapsed":384664,"subject_id":"92001","group":"Group1","condition":"1_Rep","full_date":"2026-01-27T19:44:57.833Z","date":"2026-01-27","time":"19:44:57","cor_ans":false},{"trial_type":"html-keyboard-response","rt":null,"stimulus":"<p style=\"color: red; font-size: 50px; font-weight: bold;\">Incorrect</p>","response":null,"trial_index":200,"plugin_version":"2.1.0","time_elapsed":385166,"subject_id":"92001","group":"Group1","condition":"1_Rep","full_date":"2026-01-27T19:44:57.833Z","date":"2026-01-27","time":"19:44:57"},{"correct_response":"a","task":"test_phase","broad_category":"M","image_png":"M_Phyllite_13.png","image_id":269,"category_name":"Phyllite","category":17,"distinct_rating":2.8,"distinct_type":"Bottom","item_type":"Foil","rt":910,"stimulus":"Stimuli_Rocks480/M_Phyllite_13.png","response":"a","trial_type":"image-keyboard-response","trial_index":201,"plugin_version":"2.1.0","time_elapsed":386078,"subject_id":"92001","group":"Group1","condition":"1_Rep","full_date":"2026-01-27T19:44:57.833Z","date":"2026-01-27","time":"19:44:57","cor_ans":true},{"trial_type":"html-keyboard-response","rt":null,"stimulus":"<p style=\"color: green; font-size: 50px; font-weight: bold;\">Correct</p>","response":null,"trial_index":202,"plugin_version":"2.1.0","time_elapsed":386580,"subject_id":"92001","group":"Group1","condition":"1_Rep","full_date":"2026-01-27T19:44:57.833Z","date":"2026-01-27","time":"19:44:57"},{"correct_response":"a","task":"test_phase","broad_category":"S","image_png":"S_Sandstone_04.png","image_id":452,"category_name":"Sandstone","category":29,"distinct_rating":1.8,"distinct_type":"Bottom","item_type":"Foil","rt":1516,"stimulus":"Stimuli_Rocks480/S_Sandstone_04.png","response":"a","trial_type":"image-keyboard-response","trial_index":203,"plugin_version":"2.1.0","time_elapsed":388098,"subject_id":"92001","group":"Group1","condition":"1_Rep","full_date":"2026-01-27T19:44:57.833Z","date":"2026-01-27","time":"19:44:57","cor_ans":true},{"trial_type":"html-keyboard-response","rt":null,"stimulus":"<p style=\"color: green; font-size: 50px; font-weight: bold;\">Correct</p>","response":null,"trial_index":204,"plugin_version":"2.1.0","time_elapsed":388599,"subject_id":"92001","group":"Group1","condition":"1_Rep","full_date":"2026-01-27T19:44:57.833Z","date":"2026-01-27","time":"19:44:57"},{"correct_response":"a","task":"test_phase","broad_category":"I","image_png":"I_Gabbro_02.png","image_id":50,"category_name":"Gabbro","category":4,"distinct_rating":2.73,"distinct_type":"Bottom","item_type":"Foil","rt":759,"stimulus":"Stimuli_Rocks480/I_Gabbro_02.png","response":"a","trial_type":"image-keyboard-response","trial_index":205,"plugin_version":"2.1.0","time_elapsed":389360,"subject_id":"92001","group":"Group1","condition":"1_Rep","full_date":"2026-01-27T19:44:57.833Z","date":"2026-01-27","time":"19:44:57","cor_ans":true},{"trial_type":"html-keyboard-response","rt":null,"stimulus":"<p style=\"color: green; font-size: 50px; font-weight: bold;\">Correct</p>","response":null,"trial_index":206,"plugin_version":"2.1.0","time_elapsed":389861,"subject_id":"92001","group":"Group1","condition":"1_Rep","full_date":"2026-01-27T19:44:57.833Z","date":"2026-01-27","time":"19:44:57"},{"correct_response":"l","task":"test_phase","broad_category":"M","image_png":"M_Quartzite_13.png","image_id":285,"category_name":"Quartzite","category":18,"distinct_rating":2.27,"distinct_type":"Bottom","item_type":"Target","rt":910,"stimulus":"Stimuli_Rocks480/M_Quartzite_13.png","response":"l","trial_type":"image-keyboard-response","trial_index":207,"plugin_version":"2.1.0","time_elapsed":390773,"subject_id":"92001","group":"Group1","condition":"1_Rep","full_date":"2026-01-27T19:44:57.833Z","date":"2026-01-27","time":"19:44:57","cor_ans":true},{"trial_type":"html-keyboard-response","rt":null,"stimulus":"<p style=\"color: green; font-size: 50px; font-weight: bold;\">Correct</p>","response":null,"trial_index":208,"plugin_version":"2.1.0","time_elapsed":391275,"subject_id":"92001","group":"Group1","condition":"1_Rep","full_date":"2026-01-27T19:44:57.833Z","date":"2026-01-27","time":"19:44:57"},{"correct_response":"a","task":"test_phase","broad_category":"I","image_png":"I_Pegmatite_11.png","image_id":107,"category_name":"Pegmatite","category":7,"distinct_rating":7.11,"distinct_type":"Top","item_type":"Foil","rt":1479,"stimulus":"Stimuli_Rocks480/I_Pegmatite_11.png","response":"a","trial_type":"image-keyboard-response","trial_index":209,"plugin_version":"2.1.0","time_elapsed":392756,"subject_id":"92001","group":"Group1","condition":"1_Rep","full_date":"2026-01-27T19:44:57.833Z","date":"2026-01-27","time":"19:44:57","cor_ans":true},{"trial_type":"html-keyboard-response","rt":null,"stimulus":"<p style=\"color: green; font-size: 50px; font-weight: bold;\">Correct</p>","response":null,"trial_index":210,"plugin_version":"2.1.0","time_elapsed":393257,"subject_id":"92001","group":"Group1","condition":"1_Rep","full_date":"2026-01-27T19:44:57.833Z","date":"2026-01-27","time":"19:44:57"},{"correct_response":"a","task":"test_phase","broad_category":"S","image_png":"S_Rock Salt_13.png","image_id":445,"category_name":"Rock Salt","category":28,"distinct_rating":7.58,"distinct_type":"Top","item_type":"Foil","rt":751,"stimulus":"Stimuli_Rocks480/S_Rock Salt_13.png","response":"a","trial_type":"image-keyboard-response","trial_index":211,"plugin_version":"2.1.0","time_elapsed":394009,"subject_id":"92001","group":"Group1","condition":"1_Rep","full_date":"2026-01-27T19:44:57.833Z","date":"2026-01-27","time":"19:44:57","cor_ans":true},{"trial_type":"html-keyboard-response","rt":null,"stimulus":"<p style=\"color: green; font-size: 50px; font-weight: bold;\">Correct</p>","response":null,"trial_index":212,"plugin_version":"2.1.0","time_elapsed":394511,"subject_id":"92001","group":"Group1","condition":"1_Rep","full_date":"2026-01-27T19:44:57.833Z","date":"2026-01-27","time":"19:44:57"},{"correct_response":"l","task":"test_phase","broad_category":"I","image_png":"I_Gabbro_11.png","image_id":59,"category_name":"Gabbro","category":4,"distinct_rating":1.99,"distinct_type":"Bottom","item_type":"Target","rt":2094,"stimulus":"Stimuli_Rocks480/I_Gabbro_11.png","response":"a","trial_type":"image-keyboard-response","trial_index":213,"plugin_version":"2.1.0","time_elapsed":396606,"subject_id":"92001","group":"Group1","condition":"1_Rep","full_date":"2026-01-27T19:44:57.833Z","date":"2026-01-27","time":"19:44:57","cor_ans":false},{"trial_type":"html-keyboard-response","rt":null,"stimulus":"<p style=\"color: red; font-size: 50px; font-weight: bold;\">Incorrect</p>","response":null,"trial_index":214,"plugin_version":"2.1.0","time_elapsed":397108,"subject_id":"92001","group":"Group1","condition":"1_Rep","full_date":"2026-01-27T19:44:57.833Z","date":"2026-01-27","time":"19:44:57"},{"correct_response":"l","task":"test_phase","broad_category":"I","image_png":"I_Basalt_01.png","image_id":17,"category_name":"Basalt","category":2,"distinct_rating":1.92,"distinct_type":"Bottom","item_type":"Target","rt":903,"stimulus":"Stimuli_Rocks480/I_Basalt_01.png","response":"l","trial_type":"image-keyboard-response","trial_index":215,"plugin_version":"2.1.0","time_elapsed":398012,"subject_id":"92001","group":"Group1","condition":"1_Rep","full_date":"2026-01-27T19:44:57.833Z","date":"2026-01-27","time":"19:44:57","cor_ans":true},{"trial_type":"html-keyboard-response","rt":null,"stimulus":"<p style=\"color: green; font-size: 50px; font-weight: bold;\">Correct</p>","response":null,"trial_index":216,"plugin_version":"2.1.0","time_elapsed":398514,"subject_id":"92001","group":"Group1","condition":"1_Rep","full_date":"2026-01-27T19:44:57.833Z","date":"2026-01-27","time":"19:44:57"},{"correct_response":"a","task":"test_phase","broad_category":"M","image_png":"M_Phyllite_05.png","image_id":261,"category_name":"Phyllite","category":17,"distinct_rating":2.14,"distinct_type":"Bottom","item_type":"Foil","rt":929,"stimulus":"Stimuli_Rocks480/M_Phyllite_05.png","response":"l","trial_type":"image-keyboard-response","trial_index":217,"plugin_version":"2.1.0","time_elapsed":399445,"subject_id":"92001","group":"Group1","condition":"1_Rep","full_date":"2026-01-27T19:44:57.833Z","date":"2026-01-27","time":"19:44:57","cor_ans":false},{"trial_type":"html-keyboard-response","rt":null,"stimulus":"<p style=\"color: red; font-size: 50px; font-weight: bold;\">Incorrect</p>","response":null,"trial_index":218,"plugin_version":"2.1.0","time_elapsed":399946,"subject_id":"92001","group":"Group1","condition":"1_Rep","full_date":"2026-01-27T19:44:57.833Z","date":"2026-01-27","time":"19:44:57"},{"correct_response":"a","task":"test_phase","broad_category":"I","image_png":"I_Rhyolite_05.png","image_id":149,"category_name":"Rhyolite","category":10,"distinct_rating":3.02,"distinct_type":"Bottom","item_type":"Foil","rt":1722,"stimulus":"Stimuli_Rocks480/I_Rhyolite_05.png","response":"a","trial_type":"image-keyboard-response","trial_index":219,"plugin_version":"2.1.0","time_elapsed":401671,"subject_id":"92001","group":"Group1","condition":"1_Rep","full_date":"2026-01-27T19:44:57.833Z","date":"2026-01-27","time":"19:44:57","cor_ans":true},{"trial_type":"html-keyboard-response","rt":null,"stimulus":"<p style=\"color: green; font-size: 50px; font-weight: bold;\">Correct</p>","response":null,"trial_index":220,"plugin_version":"2.1.0","time_elapsed":402172,"subject_id":"92001","group":"Group1","condition":"1_Rep","full_date":"2026-01-27T19:44:57.833Z","date":"2026-01-27","time":"19:44:57"},{"correct_response":"l","task":"test_phase","broad_category":"S","image_png":"S_Dolomite_13.png","image_id":397,"category_name":"Dolomite","category":25,"distinct_rating":1.77,"distinct_type":"Bottom","item_type":"Target","rt":786,"stimulus":"Stimuli_Rocks480/S_Dolomite_13.png","response":"l","trial_type":"image-keyboard-response","trial_index":221,"plugin_version":"2.1.0","time_elapsed":402960,"subject_id":"92001","group":"Group1","condition":"1_Rep","full_date":"2026-01-27T19:44:57.833Z","date":"2026-01-27","time":"19:44:57","cor_ans":true},{"trial_type":"html-keyboard-response","rt":null,"stimulus":"<p style=\"color: green; font-size: 50px; font-weight: bold;\">Correct</p>","response":null,"trial_index":222,"plugin_version":"2.1.0","time_elapsed":403461,"subject_id":"92001","group":"Group1","condition":"1_Rep","full_date":"2026-01-27T19:44:57.833Z","date":"2026-01-27","time":"19:44:57"},{"correct_response":"a","task":"test_phase","broad_category":"I","image_png":"I_Peridotite_13.png","image_id":125,"category_name":"Peridotite","category":8,"distinct_rating":7.28,"distinct_type":"Top","item_type":"Foil","rt":1020,"stimulus":"Stimuli_Rocks480/I_Peridotite_13.png","response":"a","trial_type":"image-keyboard-response","trial_index":223,"plugin_version":"2.1.0","time_elapsed":404483,"subject_id":"92001","group":"Group1","condition":"1_Rep","full_date":"2026-01-27T19:44:57.833Z","date":"2026-01-27","time":"19:44:57","cor_ans":true},{"trial_type":"html-keyboard-response","rt":null,"stimulus":"<p style=\"color: green; font-size: 50px; font-weight: bold;\">Correct</p>","response":null,"trial_index":224,"plugin_version":"2.1.0","time_elapsed":404984,"subject_id":"92001","group":"Group1","condition":"1_Rep","full_date":"2026-01-27T19:44:57.833Z","date":"2026-01-27","time":"19:44:57"},{"correct_response":"a","task":"test_phas