[{"width":1440,"height":778,"webaudio":true,"browser":"chrome","browser_version":"145.0.0","mobile":false,"os":"Mac OS","fullscreen":true,"vsync_rate":61.16,"webcam":true,"microphone":true,"trial_type":"browser-check","trial_index":0,"plugin_version":"2.1.0","time_elapsed":1000,"subject_id":"90645","group":"Group2","condition":"3_Rep","full_date":"2026-02-26T19:40:13.112Z","date":"2026-02-26","time":"19:40:13"},{"success":true,"timeout":false,"failed_images":[],"failed_audio":[],"failed_video":[],"trial_type":"preload","trial_index":1,"plugin_version":"2.1.0","time_elapsed":3161,"subject_id":"90645","group":"Group2","condition":"3_Rep","full_date":"2026-02-26T19:40:13.112Z","date":"2026-02-26","time":"19:40:13"},{"rt":21267,"url":"SONA_consent_memorability.html","trial_type":"external-html","trial_index":2,"plugin_version":"2.1.0","time_elapsed":24475,"subject_id":"90645","group":"Group2","condition":"3_Rep","full_date":"2026-02-26T19:40:13.112Z","date":"2026-02-26","time":"19:40:13"},{"success":true,"rt":1763,"trial_type":"fullscreen","trial_index":3,"plugin_version":"2.1.0","time_elapsed":27242,"subject_id":"90645","group":"Group2","condition":"3_Rep","full_date":"2026-02-26T19:40:13.112Z","date":"2026-02-26","time":"19:40:13"},{"rt":23597,"stimulus":"<div style=\"max-width: 760px; margin: auto; font-size: 20px; line-height: 1.5;\">\n      <h1 style=\"text-align:center; font-size: 30px;\">Instructions</h1>\n      <p>\n        Welcome to the study on <b>visual memory</b>. This experiment consists of <b>two phases</b>: \n        a <b>study phase</b> and a <b>test phase</b>.\n      </p>\n      <p>\n        In the study phase, you will see a series of rock images along with their category labels.\n        The images will appear one at a time.\n        <b>Your task</b> is to learn the categories to which the rock images belong \n        and to remember each image as accurately as possible.\n      </p> \n      <p>\n        Note that we will repeat the study phase <b>3 times</b>, \n             so you will have multiple opportunities to see and remember each image.\n      </p>\n      <p>\n        After the study phase, <b>your memory will be tested</b>. \n        Additional instructions for the test phase will be provided at that time.\n      </p>\n      <p>\n        If your computer has multiple <b>language settings</b> (e.g., English and another language),\n        please make sure it is set to English before starting.\n      </p>\n      <p>\n        You can track your progress using the <b>completion bar</b> at the top of the screen. \n        Please note that the bar will refresh when the test phase begins \n        to give you an accurate sense of your progress in both phases.\n      </p> \n      <p>\n        Press the button below when you are ready to begin.\n      </p>\n    </div>","response":0,"trial_type":"html-button-response","trial_index":4,"plugin_version":"2.1.0","time_elapsed":50841,"subject_id":"90645","group":"Group2","condition":"3_Rep","full_date":"2026-02-26T19:40:13.112Z","date":"2026-02-26","time":"19:40:13"},{"rt":null,"stimulus":"<p style=\"font-size: 50px; margin: 0; text-align: center;\">+</p>","response":null,"trial_type":"html-keyboard-response","trial_index":5,"plugin_version":"2.1.0","time_elapsed":51848,"subject_id":"90645","group":"Group2","condition":"3_Rep","full_date":"2026-02-26T19:40:13.112Z","date":"2026-02-26","time":"19:40:13"},{"task":"memory_phase","broad_category":"I","image_png":"I_Pumice_01.png","image_id":129,"category_name":"Pumice","category":9,"distinct_rating":3.25,"distinct_type":"Bottom","rt":null,"stimulus":"Stimuli_Rocks480/I_Pumice_01.png","response":null,"trial_type":"image-keyboard-response","trial_index":6,"plugin_version":"2.1.0","time_elapsed":54354,"subject_id":"90645","group":"Group2","condition":"3_Rep","full_date":"2026-02-26T19:40:13.112Z","date":"2026-02-26","time":"19:40:13"},{"rt":null,"stimulus":"<p style=\"font-size: 50px; margin: 0; text-align: center;\">+</p>","response":null,"trial_type":"html-keyboard-response","trial_index":7,"plugin_version":"2.1.0","time_elapsed":55356,"subject_id":"90645","group":"Group2","condition":"3_Rep","full_date":"2026-02-26T19:40:13.112Z","date":"2026-02-26","time":"19:40:13"},{"task":"memory_phase","broad_category":"S","image_png":"S_Rock Salt_15.png","image_id":447,"category_name":"Rock Salt","category":28,"distinct_rating":7.79,"distinct_type":"Top","rt":null,"stimulus":"Stimuli_Rocks480/S_Rock Salt_15.png","response":null,"trial_type":"image-keyboard-response","trial_index":8,"plugin_version":"2.1.0","time_elapsed":57861,"subject_id":"90645","group":"Group2","condition":"3_Rep","full_date":"2026-02-26T19:40:13.112Z","date":"2026-02-26","time":"19:40:13"},{"rt":null,"stimulus":"<p style=\"font-size: 50px; margin: 0; text-align: center;\">+</p>","response":null,"trial_type":"html-keyboard-response","trial_index":9,"plugin_version":"2.1.0","time_elapsed":58865,"subject_id":"90645","group":"Group2","condition":"3_Rep","full_date":"2026-02-26T19:40:13.112Z","date":"2026-02-26","time":"19:40:13"},{"task":"memory_phase","broad_category":"I","image_png":"I_Gabbro_12.png","image_id":60,"category_name":"Gabbro","category":4,"distinct_rating":2.6,"distinct_type":"Bottom","rt":null,"stimulus":"Stimuli_Rocks480/I_Gabbro_12.png","response":null,"trial_type":"image-keyboard-response","trial_index":10,"plugin_version":"2.1.0","time_elapsed":61369,"subject_id":"90645","group":"Group2","condition":"3_Rep","full_date":"2026-02-26T19:40:13.112Z","date":"2026-02-26","time":"19:40:13"},{"rt":null,"stimulus":"<p style=\"font-size: 50px; margin: 0; text-align: center;\">+</p>","response":null,"trial_type":"html-keyboard-response","trial_index":11,"plugin_version":"2.1.0","time_elapsed":62373,"subject_id":"90645","group":"Group2","condition":"3_Rep","full_date":"2026-02-26T19:40:13.112Z","date":"2026-02-26","time":"19:40:13"},{"task":"memory_phase","broad_category":"M","image_png":"M_Slate_10.png","image_id":314,"category_name":"Slate","category":20,"distinct_rating":1.94,"distinct_type":"Bottom","rt":null,"stimulus":"Stimuli_Rocks480/M_Slate_10.png","response":null,"trial_type":"image-keyboard-response","trial_index":12,"plugin_version":"2.1.0","time_elapsed":64877,"subject_id":"90645","group":"Group2","condition":"3_Rep","full_date":"2026-02-26T19:40:13.112Z","date":"2026-02-26","time":"19:40:13"},{"rt":null,"stimulus":"<p style=\"font-size: 50px; margin: 0; text-align: center;\">+</p>","response":null,"trial_type":"html-keyboard-response","trial_index":13,"plugin_version":"2.1.0","time_elapsed":65881,"subject_id":"90645","group":"Group2","condition":"3_Rep","full_date":"2026-02-26T19:40:13.112Z","date":"2026-02-26","time":"19:40:13"},{"task":"memory_phase","broad_category":"I","image_png":"I_Andesite_04.png","image_id":4,"category_name":"Andesite","category":1,"distinct_rating":3.18,"distinct_type":"Bottom","rt":null,"stimulus":"Stimuli_Rocks480/I_Andesite_04.png","response":null,"trial_type":"image-keyboard-response","trial_index":14,"plugin_version":"2.1.0","time_elapsed":68385,"subject_id":"90645","group":"Group2","condition":"3_Rep","full_date":"2026-02-26T19:40:13.112Z","date":"2026-02-26","time":"19:40:13"},{"rt":null,"stimulus":"<p style=\"font-size: 50px; margin: 0; text-align: center;\">+</p>","response":null,"trial_type":"html-keyboard-response","trial_index":15,"plugin_version":"2.1.0","time_elapsed":69389,"subject_id":"90645","group":"Group2","condition":"3_Rep","full_date":"2026-02-26T19:40:13.112Z","date":"2026-02-26","time":"19:40:13"},{"task":"memory_phase","broad_category":"S","image_png":"S_Sandstone_11.png","image_id":459,"category_name":"Sandstone","category":29,"distinct_rating":1.82,"distinct_type":"Bottom","rt":null,"stimulus":"Stimuli_Rocks480/S_Sandstone_11.png","response":null,"trial_type":"image-keyboard-response","trial_index":16,"plugin_version":"2.1.0","time_elapsed":71892,"subject_id":"90645","group":"Group2","condition":"3_Rep","full_date":"2026-02-26T19:40:13.112Z","date":"2026-02-26","time":"19:40:13"},{"rt":null,"stimulus":"<p style=\"font-size: 50px; margin: 0; text-align: center;\">+</p>","response":null,"trial_type":"html-keyboard-response","trial_index":17,"plugin_version":"2.1.0","time_elapsed":72896,"subject_id":"90645","group":"Group2","condition":"3_Rep","full_date":"2026-02-26T19:40:13.112Z","date":"2026-02-26","time":"19:40:13"},{"task":"memory_phase","broad_category":"M","image_png":"M_Slate_04.png","image_id":308,"category_name":"Slate","category":20,"distinct_rating":2.2,"distinct_type":"Bottom","rt":null,"stimulus":"Stimuli_Rocks480/M_Slate_04.png","response":null,"trial_type":"image-keyboard-response","trial_index":18,"plugin_version":"2.1.0","time_elapsed":75400,"subject_id":"90645","group":"Group2","condition":"3_Rep","full_date":"2026-02-26T19:40:13.112Z","date":"2026-02-26","time":"19:40:13"},{"rt":null,"stimulus":"<p style=\"font-size: 50px; margin: 0; text-align: center;\">+</p>","response":null,"trial_type":"html-keyboard-response","trial_index":19,"plugin_version":"2.1.0","time_elapsed":76403,"subject_id":"90645","group":"Group2","condition":"3_Rep","full_date":"2026-02-26T19:40:13.112Z","date":"2026-02-26","time":"19:40:13"},{"task":"memory_phase","broad_category":"S","image_png":"S_Dolomite_07.png","image_id":391,"category_name":"Dolomite","category":25,"distinct_rating":1.73,"distinct_type":"Bottom","rt":null,"stimulus":"Stimuli_Rocks480/S_Dolomite_07.png","response":null,"trial_type":"image-keyboard-response","trial_index":20,"plugin_version":"2.1.0","time_elapsed":78907,"subject_id":"90645","group":"Group2","condition":"3_Rep","full_date":"2026-02-26T19:40:13.112Z","date":"2026-02-26","time":"19:40:13"},{"rt":null,"stimulus":"<p style=\"font-size: 50px; margin: 0; text-align: center;\">+</p>","response":null,"trial_type":"html-keyboard-response","trial_index":21,"plugin_version":"2.1.0","time_elapsed":79910,"subject_id":"90645","group":"Group2","condition":"3_Rep","full_date":"2026-02-26T19:40:13.112Z","date":"2026-02-26","time":"19:40:13"},{"task":"memory_phase","broad_category":"M","image_png":"M_Marble_03.png","image_id":227,"category_name":"Marble","category":15,"distinct_rating":2.67,"distinct_type":"Bottom","rt":null,"stimulus":"Stimuli_Rocks480/M_Marble_03.png","response":null,"trial_type":"image-keyboard-response","trial_index":22,"plugin_version":"2.1.0","time_elapsed":82415,"subject_id":"90645","group":"Group2","condition":"3_Rep","full_date":"2026-02-26T19:40:13.112Z","date":"2026-02-26","time":"19:40:13"},{"rt":null,"stimulus":"<p style=\"font-size: 50px; margin: 0; text-align: center;\">+</p>","response":null,"trial_type":"html-keyboard-response","trial_index":23,"plugin_version":"2.1.0","time_elapsed":83418,"subject_id":"90645","group":"Group2","condition":"3_Rep","full_date":"2026-02-26T19:40:13.112Z","date":"2026-02-26","time":"19:40:13"},{"task":"memory_phase","broad_category":"I","image_png":"I_Rhyolite_08.png","image_id":152,"category_name":"Rhyolite","category":10,"distinct_rating":1.38,"distinct_type":"Bottom","rt":null,"stimulus":"Stimuli_Rocks480/I_Rhyolite_08.png","response":null,"trial_type":"image-keyboard-response","trial_index":24,"plugin_version":"2.1.0","time_elapsed":85922,"subject_id":"90645","group":"Group2","condition":"3_Rep","full_date":"2026-02-26T19:40:13.112Z","date":"2026-02-26","time":"19:40:13"},{"rt":null,"stimulus":"<p style=\"font-size: 50px; margin: 0; text-align: center;\">+</p>","response":null,"trial_type":"html-keyboard-response","trial_index":25,"plugin_version":"2.1.0","time_elapsed":86925,"subject_id":"90645","group":"Group2","condition":"3_Rep","full_date":"2026-02-26T19:40:13.112Z","date":"2026-02-26","time":"19:40:13"},{"task":"memory_phase","broad_category":"I","image_png":"I_Andesite_09.png","image_id":9,"category_name":"Andesite","category":1,"distinct_rating":2.49,"distinct_type":"Bottom","rt":null,"stimulus":"Stimuli_Rocks480/I_Andesite_09.png","response":null,"trial_type":"image-keyboard-response","trial_index":26,"plugin_version":"2.1.0","time_elapsed":89429,"subject_id":"90645","group":"Group2","condition":"3_Rep","full_date":"2026-02-26T19:40:13.112Z","date":"2026-02-26","time":"19:40:13"},{"rt":null,"stimulus":"<p style=\"font-size: 50px; margin: 0; text-align: center;\">+</p>","response":null,"trial_type":"html-keyboard-response","trial_index":27,"plugin_version":"2.1.0","time_elapsed":90432,"subject_id":"90645","group":"Group2","condition":"3_Rep","full_date":"2026-02-26T19:40:13.112Z","date":"2026-02-26","time":"19:40:13"},{"task":"memory_phase","broad_category":"S","image_png":"S_Shale_03.png","image_id":467,"category_name":"Shale","category":30,"distinct_rating":1.95,"distinct_type":"Bottom","rt":null,"stimulus":"Stimuli_Rocks480/S_Shale_03.png","response":null,"trial_type":"image-keyboard-response","trial_index":28,"plugin_version":"2.1.0","time_elapsed":92936,"subject_id":"90645","group":"Group2","condition":"3_Rep","full_date":"2026-02-26T19:40:13.112Z","date":"2026-02-26","time":"19:40:13"},{"rt":null,"stimulus":"<p style=\"font-size: 50px; margin: 0; text-align: center;\">+</p>","response":null,"trial_type":"html-keyboard-response","trial_index":29,"plugin_version":"2.1.0","time_elapsed":93938,"subject_id":"90645","group":"Group2","condition":"3_Rep","full_date":"2026-02-26T19:40:13.112Z","date":"2026-02-26","time":"19:40:13"},{"task":"memory_phase","broad_category":"M","image_png":"M_Marble_02.png","image_id":226,"category_name":"Marble","category":15,"distinct_rating":3.2,"distinct_type":"Bottom","rt":null,"stimulus":"Stimuli_Rocks480/M_Marble_02.png","response":null,"trial_type":"image-keyboard-response","trial_index":30,"plugin_version":"2.1.0","time_elapsed":96442,"subject_id":"90645","group":"Group2","condition":"3_Rep","full_date":"2026-02-26T19:40:13.112Z","date":"2026-02-26","time":"19:40:13"},{"rt":null,"stimulus":"<p style=\"font-size: 50px; margin: 0; text-align: center;\">+</p>","response":null,"trial_type":"html-keyboard-response","trial_index":31,"plugin_version":"2.1.0","time_elapsed":97445,"subject_id":"90645","group":"Group2","condition":"3_Rep","full_date":"2026-02-26T19:40:13.112Z","date":"2026-02-26","time":"19:40:13"},{"task":"memory_phase","broad_category":"S","image_png":"S_Dolomite_16.png","image_id":400,"category_name":"Dolomite","category":25,"distinct_rating":1.71,"distinct_type":"Bottom","rt":null,"stimulus":"Stimuli_Rocks480/S_Dolomite_16.png","response":null,"trial_type":"image-keyboard-response","trial_index":32,"plugin_version":"2.1.0","time_elapsed":99949,"subject_id":"90645","group":"Group2","condition":"3_Rep","full_date":"2026-02-26T19:40:13.112Z","date":"2026-02-26","time":"19:40:13"},{"rt":null,"stimulus":"<p style=\"font-size: 50px; margin: 0; text-align: center;\">+</p>","response":null,"trial_type":"html-keyboard-response","trial_index":33,"plugin_version":"2.1.0","time_elapsed":100952,"subject_id":"90645","group":"Group2","condition":"3_Rep","full_date":"2026-02-26T19:40:13.112Z","date":"2026-02-26","time":"19:40:13"},{"task":"memory_phase","broad_category":"M","image_png":"M_Quartzite_15.png","image_id":287,"category_name":"Quartzite","category":18,"distinct_rating":2.19,"distinct_type":"Bottom","rt":null,"stimulus":"Stimuli_Rocks480/M_Quartzite_15.png","response":null,"trial_type":"image-keyboard-response","trial_index":34,"plugin_version":"2.1.0","time_elapsed":103456,"subject_id":"90645","group":"Group2","condition":"3_Rep","full_date":"2026-02-26T19:40:13.112Z","date":"2026-02-26","time":"19:40:13"},{"rt":null,"stimulus":"<p style=\"font-size: 50px; margin: 0; text-align: center;\">+</p>","response":null,"trial_type":"html-keyboard-response","trial_index":35,"plugin_version":"2.1.0","time_elapsed":104458,"subject_id":"90645","group":"Group2","condition":"3_Rep","full_date":"2026-02-26T19:40:13.112Z","date":"2026-02-26","time":"19:40:13"},{"task":"memory_phase","broad_category":"I","image_png":"I_Pumice_13.png","image_id":141,"category_name":"Pumice","category":9,"distinct_rating":3.12,"distinct_type":"Bottom","rt":null,"stimulus":"Stimuli_Rocks480/I_Pumice_13.png","response":null,"trial_type":"image-keyboard-response","trial_index":36,"plugin_version":"2.1.0","time_elapsed":106963,"subject_id":"90645","group":"Group2","condition":"3_Rep","full_date":"2026-02-26T19:40:13.112Z","date":"2026-02-26","time":"19:40:13"},{"rt":null,"stimulus":"<p style=\"font-size: 50px; margin: 0; text-align: center;\">+</p>","response":null,"trial_type":"html-keyboard-response","trial_index":37,"plugin_version":"2.1.0","time_elapsed":107966,"subject_id":"90645","group":"Group2","condition":"3_Rep","full_date":"2026-02-26T19:40:13.112Z","date":"2026-02-26","time":"19:40:13"},{"task":"memory_phase","broad_category":"M","image_png":"M_Gneiss_10.png","image_id":202,"category_name":"Gneiss","category":13,"distinct_rating":3.09,"distinct_type":"Bottom","rt":null,"stimulus":"Stimuli_Rocks480/M_Gneiss_10.png","response":null,"trial_type":"image-keyboard-response","trial_index":38,"plugin_version":"2.1.0","time_elapsed":110470,"subject_id":"90645","group":"Group2","condition":"3_Rep","full_date":"2026-02-26T19:40:13.112Z","date":"2026-02-26","time":"19:40:13"},{"rt":null,"stimulus":"<p style=\"font-size: 50px; margin: 0; text-align: center;\">+</p>","response":null,"trial_type":"html-keyboard-response","trial_index":39,"plugin_version":"2.1.0","time_elapsed":111473,"subject_id":"90645","group":"Group2","condition":"3_Rep","full_date":"2026-02-26T19:40:13.112Z","date":"2026-02-26","time":"19:40:13"},{"task":"memory_phase","broad_category":"S","image_png":"S_Rock Salt_13.png","image_id":445,"category_name":"Rock Salt","category":28,"distinct_rating":7.58,"distinct_type":"Top","rt":null,"stimulus":"Stimuli_Rocks480/S_Rock Salt_13.png","response":null,"trial_type":"image-keyboard-response","trial_index":40,"plugin_version":"2.1.0","time_elapsed":113976,"subject_id":"90645","group":"Group2","condition":"3_Rep","full_date":"2026-02-26T19:40:13.112Z","date":"2026-02-26","time":"19:40:13"},{"rt":null,"stimulus":"<p style=\"font-size: 50px; margin: 0; text-align: center;\">+</p>","response":null,"trial_type":"html-keyboard-response","trial_index":41,"plugin_version":"2.1.0","time_elapsed":114979,"subject_id":"90645","group":"Group2","condition":"3_Rep","full_date":"2026-02-26T19:40:13.112Z","date":"2026-02-26","time":"19:40:13"},{"task":"memory_phase","broad_category":"I","image_png":"I_Basalt_08.png","image_id":24,"category_name":"Basalt","category":2,"distinct_rating":2.31,"distinct_type":"Bottom","rt":null,"stimulus":"Stimuli_Rocks480/I_Basalt_08.png","response":null,"trial_type":"image-keyboard-response","trial_index":42,"plugin_version":"2.1.0","time_elapsed":117483,"subject_id":"90645","group":"Group2","condition":"3_Rep","full_date":"2026-02-26T19:40:13.112Z","date":"2026-02-26","time":"19:40:13"},{"rt":null,"stimulus":"<p style=\"font-size: 50px; margin: 0; text-align: center;\">+</p>","response":null,"trial_type":"html-keyboard-response","trial_index":43,"plugin_version":"2.1.0","time_elapsed":118486,"subject_id":"90645","group":"Group2","condition":"3_Rep","full_date":"2026-02-26T19:40:13.112Z","date":"2026-02-26","time":"19:40:13"},{"task":"memory_phase","broad_category":"S","image_png":"S_Sandstone_04.png","image_id":452,"category_name":"Sandstone","category":29,"distinct_rating":1.8,"distinct_type":"Bottom","rt":null,"stimulus":"Stimuli_Rocks480/S_Sandstone_04.png","response":null,"trial_type":"image-keyboard-response","trial_index":44,"plugin_version":"2.1.0","time_elapsed":120990,"subject_id":"90645","group":"Group2","condition":"3_Rep","full_date":"2026-02-26T19:40:13.112Z","date":"2026-02-26","time":"19:40:13"},{"rt":null,"stimulus":"<p style=\"font-size: 50px; margin: 0; text-align: center;\">+</p>","response":null,"trial_type":"html-keyboard-response","trial_index":45,"plugin_version":"2.1.0","time_elapsed":121992,"subject_id":"90645","group":"Group2","condition":"3_Rep","full_date":"2026-02-26T19:40:13.112Z","date":"2026-02-26","time":"19:40:13"},{"task":"memory_phase","broad_category":"S","image_png":"S_Sandstone_08.png","image_id":456,"category_name":"Sandstone","category":29,"distinct_rating":1.5,"distinct_type":"Bottom","rt":null,"stimulus":"Stimuli_Rocks480/S_Sandstone_08.png","response":null,"trial_type":"image-keyboard-response","trial_index":46,"plugin_version":"2.1.0","time_elapsed":124497,"subject_id":"90645","group":"Group2","condition":"3_Rep","full_date":"2026-02-26T19:40:13.112Z","date":"2026-02-26","time":"19:40:13"},{"rt":null,"stimulus":"<p style=\"font-size: 50px; margin: 0; text-align: center;\">+</p>","response":null,"trial_type":"html-keyboard-response","trial_index":47,"plugin_version":"2.1.0","time_elapsed":125499,"subject_id":"90645","group":"Group2","condition":"3_Rep","full_date":"2026-02-26T19:40:13.112Z","date":"2026-02-26","time":"19:40:13"},{"task":"memory_phase","broad_category":"M","image_png":"M_Slate_14.png","image_id":318,"category_name":"Slate","category":20,"distinct_rating":2.58,"distinct_type":"Bottom","rt":null,"stimulus":"Stimuli_Rocks480/M_Slate_14.png","response":null,"trial_type":"image-keyboard-response","trial_index":48,"plugin_version":"2.1.0","time_elapsed":128003,"subject_id":"90645","group":"Group2","condition":"3_Rep","full_date":"2026-02-26T19:40:13.112Z","date":"2026-02-26","time":"19:40:13"},{"rt":null,"stimulus":"<p style=\"font-size: 50px; margin: 0; text-align: center;\">+</p>","response":null,"trial_type":"html-keyboard-response","trial_index":49,"plugin_version":"2.1.0","time_elapsed":129006,"subject_id":"90645","group":"Group2","condition":"3_Rep","full_date":"2026-02-26T19:40:13.112Z","date":"2026-02-26","time":"19:40:13"},{"task":"memory_phase","broad_category":"M","image_png":"M_Phyllite_05.png","image_id":261,"category_name":"Phyllite","category":17,"distinct_rating":2.14,"distinct_type":"Bottom","rt":null,"stimulus":"Stimuli_Rocks480/M_Phyllite_05.png","response":null,"trial_type":"image-keyboard-response","trial_index":50,"plugin_version":"2.1.0","time_elapsed":131510,"subject_id":"90645","group":"Group2","condition":"3_Rep","full_date":"2026-02-26T19:40:13.112Z","date":"2026-02-26","time":"19:40:13"},{"rt":null,"stimulus":"<p style=\"font-size: 50px; margin: 0; text-align: center;\">+</p>","response":null,"trial_type":"html-keyboard-response","trial_index":51,"plugin_version":"2.1.0","time_elapsed":132513,"subject_id":"90645","group":"Group2","condition":"3_Rep","full_date":"2026-02-26T19:40:13.112Z","date":"2026-02-26","time":"19:40:13"},{"task":"memory_phase","broad_category":"S","image_png":"S_Conglomerate_14.png","image_id":382,"category_name":"Conglomerate","category":24,"distinct_rating":6.86,"distinct_type":"Top","rt":null,"stimulus":"Stimuli_Rocks480/S_Conglomerate_14.png","response":null,"trial_type":"image-keyboard-response","trial_index":52,"plugin_version":"2.1.0","time_elapsed":135017,"subject_id":"90645","group":"Group2","condition":"3_Rep","full_date":"2026-02-26T19:40:13.112Z","date":"2026-02-26","time":"19:40:13"},{"rt":null,"stimulus":"<p style=\"font-size: 50px; margin: 0; text-align: center;\">+</p>","response":null,"trial_type":"html-keyboard-response","trial_index":53,"plugin_version":"2.1.0","time_elapsed":136019,"subject_id":"90645","group":"Group2","condition":"3_Rep","full_date":"2026-02-26T19:40:13.112Z","date":"2026-02-26","time":"19:40:13"},{"task":"memory_phase","broad_category":"I","image_png":"I_Andesite_03.png","image_id":3,"category_name":"Andesite","category":1,"distinct_rating":3.17,"distinct_type":"Bottom","rt":null,"stimulus":"Stimuli_Rocks480/I_Andesite_03.png","response":null,"trial_type":"image-keyboard-response","trial_index":54,"plugin_version":"2.1.0","time_elapsed":138523,"subject_id":"90645","group":"Group2","condition":"3_Rep","full_date":"2026-02-26T19:40:13.112Z","date":"2026-02-26","time":"19:40:13"},{"rt":1963,"stimulus":"<p style=\"max-width: 760px; margin: auto; font-size: 35px; line-height: 1.5;\">\n                Press SPACE to continue study phase\n              </p>","response":" ","trial_type":"html-keyboard-response","trial_index":55,"plugin_version":"2.1.0","time_elapsed":140488,"subject_id":"90645","group":"Group2","condition":"3_Rep","full_date":"2026-02-26T19:40:13.112Z","date":"2026-02-26","time":"19:40:13"},{"rt":null,"stimulus":"<p style=\"font-size: 50px; margin: 0; text-align: center;\">+</p>","response":null,"trial_type":"html-keyboard-response","trial_index":56,"plugin_version":"2.1.0","time_elapsed":141491,"subject_id":"90645","group":"Group2","condition":"3_Rep","full_date":"2026-02-26T19:40:13.112Z","date":"2026-02-26","time":"19:40:13"},{"task":"memory_phase","broad_category":"M","image_png":"M_Gneiss_14.png","image_id":206,"category_name":"Gneiss","category":13,"distinct_rating":3.41,"distinct_type":"Bottom","rt":null,"stimulus":"Stimuli_Rocks480/M_Gneiss_14.png","response":null,"trial_type":"image-keyboard-response","trial_index":57,"plugin_version":"2.1.0","time_elapsed":143994,"subject_id":"90645","group":"Group2","condition":"3_Rep","full_date":"2026-02-26T19:40:13.112Z","date":"2026-02-26","time":"19:40:13"},{"rt":null,"stimulus":"<p style=\"font-size: 50px; margin: 0; text-align: center;\">+</p>","response":null,"trial_type":"html-keyboard-response","trial_index":58,"plugin_version":"2.1.0","time_elapsed":144997,"subject_id":"90645","group":"Group2","condition":"3_Rep","full_date":"2026-02-26T19:40:13.112Z","date":"2026-02-26","time":"19:40:13"},{"task":"memory_phase","broad_category":"M","image_png":"M_Quartzite_12.png","image_id":284,"category_name":"Quartzite","category":18,"distinct_rating":1.92,"distinct_type":"Bottom","rt":null,"stimulus":"Stimuli_Rocks480/M_Quartzite_12.png","response":null,"trial_type":"image-keyboard-response","trial_index":59,"plugin_version":"2.1.0","time_elapsed":147501,"subject_id":"90645","group":"Group2","condition":"3_Rep","full_date":"2026-02-26T19:40:13.112Z","date":"2026-02-26","time":"19:40:13"},{"rt":null,"stimulus":"<p style=\"font-size: 50px; margin: 0; text-align: center;\">+</p>","response":null,"trial_type":"html-keyboard-response","trial_index":60,"plugin_version":"2.1.0","time_elapsed":148504,"subject_id":"90645","group":"Group2","condition":"3_Rep","full_date":"2026-02-26T19:40:13.112Z","date":"2026-02-26","time":"19:40:13"},{"task":"memory_phase","broad_category":"M","image_png":"M_Phyllite_13.png","image_id":269,"category_name":"Phyllite","category":17,"distinct_rating":2.8,"distinct_type":"Bottom","rt":null,"stimulus":"Stimuli_Rocks480/M_Phyllite_13.png","response":null,"trial_type":"image-keyboard-response","trial_index":61,"plugin_version":"2.1.0","time_elapsed":151008,"subject_id":"90645","group":"Group2","condition":"3_Rep","full_date":"2026-02-26T19:40:13.112Z","date":"2026-02-26","time":"19:40:13"},{"rt":null,"stimulus":"<p style=\"font-size: 50px; margin: 0; text-align: center;\">+</p>","response":null,"trial_type":"html-keyboard-response","trial_index":62,"plugin_version":"2.1.0","time_elapsed":152011,"subject_id":"90645","group":"Group2","condition":"3_Rep","full_date":"2026-02-26T19:40:13.112Z","date":"2026-02-26","time":"19:40:13"},{"task":"memory_phase","broad_category":"M","image_png":"M_Gneiss_15.png","image_id":207,"category_name":"Gneiss","category":13,"distinct_rating":3.11,"distinct_type":"Bottom","rt":null,"stimulus":"Stimuli_Rocks480/M_Gneiss_15.png","response":null,"trial_type":"image-keyboard-response","trial_index":63,"plugin_version":"2.1.0","time_elapsed":154516,"subject_id":"90645","group":"Group2","condition":"3_Rep","full_date":"2026-02-26T19:40:13.112Z","date":"2026-02-26","time":"19:40:13"},{"rt":null,"stimulus":"<p style=\"font-size: 50px; margin: 0; text-align: center;\">+</p>","response":null,"trial_type":"html-keyboard-response","trial_index":64,"plugin_version":"2.1.0","time_elapsed":155519,"subject_id":"90645","group":"Group2","condition":"3_Rep","full_date":"2026-02-26T19:40:13.112Z","date":"2026-02-26","time":"19:40:13"},{"task":"memory_phase","broad_category":"I","image_png":"I_Rhyolite_05.png","image_id":149,"category_name":"Rhyolite","category":10,"distinct_rating":3.02,"distinct_type":"Bottom","rt":null,"stimulus":"Stimuli_Rocks480/I_Rhyolite_05.png","response":null,"trial_type":"image-keyboard-response","trial_index":65,"plugin_version":"2.1.0","time_elapsed":158023,"subject_id":"90645","group":"Group2","condition":"3_Rep","full_date":"2026-02-26T19:40:13.112Z","date":"2026-02-26","time":"19:40:13"},{"rt":null,"stimulus":"<p style=\"font-size: 50px; margin: 0; text-align: center;\">+</p>","response":null,"trial_type":"html-keyboard-response","trial_index":66,"plugin_version":"2.1.0","time_elapsed":159026,"subject_id":"90645","group":"Group2","condition":"3_Rep","full_date":"2026-02-26T19:40:13.112Z","date":"2026-02-26","time":"19:40:13"},{"task":"memory_phase","broad_category":"I","image_png":"I_Obsidian_06.png","image_id":86,"category_name":"Obsidian","category":6,"distinct_rating":8.01,"distinct_type":"Top","rt":null,"stimulus":"Stimuli_Rocks480/I_Obsidian_06.png","response":null,"trial_type":"image-keyboard-response","trial_index":67,"plugin_version":"2.1.0","time_elapsed":161529,"subject_id":"90645","group":"Group2","condition":"3_Rep","full_date":"2026-02-26T19:40:13.112Z","date":"2026-02-26","time":"19:40:13"},{"rt":null,"stimulus":"<p style=\"font-size: 50px; margin: 0; text-align: center;\">+</p>","response":null,"trial_type":"html-keyboard-response","trial_index":68,"plugin_version":"2.1.0","time_elapsed":162532,"subject_id":"90645","group":"Group2","condition":"3_Rep","full_date":"2026-02-26T19:40:13.112Z","date":"2026-02-26","time":"19:40:13"},{"task":"memory_phase","broad_category":"I","image_png":"I_Diorite_15.png","image_id":47,"category_name":"Diorite","category":3,"distinct_rating":3.05,"distinct_type":"Bottom","rt":null,"stimulus":"Stimuli_Rocks480/I_Diorite_15.png","response":null,"trial_type":"image-keyboard-response","trial_index":69,"plugin_version":"2.1.0","time_elapsed":165035,"subject_id":"90645","group":"Group2","condition":"3_Rep","full_date":"2026-02-26T19:40:13.112Z","date":"2026-02-26","time":"19:40:13"},{"rt":null,"stimulus":"<p style=\"font-size: 50px; margin: 0; text-align: center;\">+</p>","response":null,"trial_type":"html-keyboard-response","trial_index":70,"plugin_version":"2.1.0","time_elapsed":166038,"subject_id":"90645","group":"Group2","condition":"3_Rep","full_date":"2026-02-26T19:40:13.112Z","date":"2026-02-26","time":"19:40:13"},{"task":"memory_phase","broad_category":"M","image_png":"M_Quartzite_07.png","image_id":279,"category_name":"Quartzite","category":18,"distinct_rating":1.97,"distinct_type":"Bottom","rt":null,"stimulus":"Stimuli_Rocks480/M_Quartzite_07.png","response":null,"trial_type":"image-keyboard-response","trial_index":71,"plugin_version":"2.1.0","time_elapsed":168542,"subject_id":"90645","group":"Group2","condition":"3_Rep","full_date":"2026-02-26T19:40:13.112Z","date":"2026-02-26","time":"19:40:13"},{"rt":null,"stimulus":"<p style=\"font-size: 50px; margin: 0; text-align: center;\">+</p>","response":null,"trial_type":"html-keyboard-response","trial_index":72,"plugin_version":"2.1.0","time_elapsed":169544,"subject_id":"90645","group":"Group2","condition":"3_Rep","full_date":"2026-02-26T19:40:13.112Z","date":"2026-02-26","time":"19:40:13"},{"task":"memory_phase","broad_category":"M","image_png":"M_Marble_14.png","image_id":238,"category_name":"Marble","category":15,"distinct_rating":3.31,"distinct_type":"Bottom","rt":null,"stimulus":"Stimuli_Rocks480/M_Marble_14.png","response":null,"trial_type":"image-keyboard-response","trial_index":73,"plugin_version":"2.1.0","time_elapsed":172048,"subject_id":"90645","group":"Group2","condition":"3_Rep","full_date":"2026-02-26T19:40:13.112Z","date":"2026-02-26","time":"19:40:13"},{"rt":null,"stimulus":"<p style=\"font-size: 50px; margin: 0; text-align: center;\">+</p>","response":null,"trial_type":"html-keyboard-response","trial_index":74,"plugin_version":"2.1.0","time_elapsed":173051,"subject_id":"90645","group":"Group2","condition":"3_Rep","full_date":"2026-02-26T19:40:13.112Z","date":"2026-02-26","time":"19:40:13"},{"task":"memory_phase","broad_category":"I","image_png":"I_Pumice_14.png","image_id":142,"category_name":"Pumice","category":9,"distinct_rating":3.22,"distinct_type":"Bottom","rt":null,"stimulus":"Stimuli_Rocks480/I_Pumice_14.png","response":null,"trial_type":"image-keyboard-response","trial_index":75,"plugin_version":"2.1.0","time_elapsed":175555,"subject_id":"90645","group":"Group2","condition":"3_Rep","full_date":"2026-02-26T19:40:13.112Z","date":"2026-02-26","time":"19:40:13"},{"rt":null,"stimulus":"<p style=\"font-size: 50px; margin: 0; text-align: center;\">+</p>","response":null,"trial_type":"html-keyboard-response","trial_index":76,"plugin_version":"2.1.0","time_elapsed":176558,"subject_id":"90645","group":"Group2","condition":"3_Rep","full_date":"2026-02-26T19:40:13.112Z","date":"2026-02-26","time":"19:40:13"},{"task":"memory_phase","broad_category":"S","image_png":"S_Shale_02.png","image_id":466,"category_name":"Shale","category":30,"distinct_rating":2.9,"distinct_type":"Bottom","rt":null,"stimulus":"Stimuli_Rocks480/S_Shale_02.png","response":null,"trial_type":"image-keyboard-response","trial_index":77,"plugin_version":"2.1.0","time_elapsed":179062,"subject_id":"90645","group":"Group2","condition":"3_Rep","full_date":"2026-02-26T19:40:13.112Z","date":"2026-02-26","time":"19:40:13"},{"rt":null,"stimulus":"<p style=\"font-size: 50px; margin: 0; text-align: center;\">+</p>","response":null,"trial_type":"html-keyboard-response","trial_index":78,"plugin_version":"2.1.0","time_elapsed":180065,"subject_id":"90645","group":"Group2","condition":"3_Rep","full_date":"2026-02-26T19:40:13.112Z","date":"2026-02-26","time":"19:40:13"},{"task":"memory_phase","broad_category":"M","image_png":"M_Phyllite_02.png","image_id":258,"category_name":"Phyllite","category":17,"distinct_rating":2.89,"distinct_type":"Bottom","rt":null,"stimulus":"Stimuli_Rocks480/M_Phyllite_02.png","response":null,"trial_type":"image-keyboard-response","trial_index":79,"plugin_version":"2.1.0","time_elapsed":182569,"subject_id":"90645","group":"Group2","condition":"3_Rep","full_date":"2026-02-26T19:40:13.112Z","date":"2026-02-26","time":"19:40:13"},{"rt":null,"stimulus":"<p style=\"font-size: 50px; margin: 0; text-align: center;\">+</p>","response":null,"trial_type":"html-keyboard-response","trial_index":80,"plugin_version":"2.1.0","time_elapsed":183572,"subject_id":"90645","group":"Group2","condition":"3_Rep","full_date":"2026-02-26T19:40:13.112Z","date":"2026-02-26","time":"19:40:13"},{"task":"memory_phase","broad_category":"I","image_png":"I_Gabbro_02.png","image_id":50,"category_name":"Gabbro","category":4,"distinct_rating":2.73,"distinct_type":"Bottom","rt":null,"stimulus":"Stimuli_Rocks480/I_Gabbro_02.png","response":null,"trial_type":"image-keyboard-response","trial_index":81,"plugin_version":"2.1.0","time_elapsed":186076,"subject_id":"90645","group":"Group2","condition":"3_Rep","full_date":"2026-02-26T19:40:13.112Z","date":"2026-02-26","time":"19:40:13"},{"rt":null,"stimulus":"<p style=\"font-size: 50px; margin: 0; text-align: center;\">+</p>","response":null,"trial_type":"html-keyboard-response","trial_index":82,"plugin_version":"2.1.0","time_elapsed":187079,"subject_id":"90645","group":"Group2","condition":"3_Rep","full_date":"2026-02-26T19:40:13.112Z","date":"2026-02-26","time":"19:40:13"},{"task":"memory_phase","broad_category":"I","image_png":"I_Rhyolite_10.png","image_id":154,"category_name":"Rhyolite","category":10,"distinct_rating":2.88,"distinct_type":"Bottom","rt":null,"stimulus":"Stimuli_Rocks480/I_Rhyolite_10.png","response":null,"trial_type":"image-keyboard-response","trial_index":83,"plugin_version":"2.1.0","time_elapsed":189582,"subject_id":"90645","group":"Group2","condition":"3_Rep","full_date":"2026-02-26T19:40:13.112Z","date":"2026-02-26","time":"19:40:13"},{"rt":null,"stimulus":"<p style=\"font-size: 50px; margin: 0; text-align: center;\">+</p>","response":null,"trial_type":"html-keyboard-response","trial_index":84,"plugin_version":"2.1.0","time_elapsed":190585,"subject_id":"90645","group":"Group2","condition":"3_Rep","full_date":"2026-02-26T19:40:13.112Z","date":"2026-02-26","time":"19:40:13"},{"task":"memory_phase","broad_category":"S","image_png":"S_Chert_13.png","image_id":365,"category_name":"Chert","category":23,"distinct_rating":6.57,"distinct_type":"Top","rt":null,"stimulus":"Stimuli_Rocks480/S_Chert_13.png","response":null,"trial_type":"image-keyboard-response","trial_index":85,"plugin_version":"2.1.0","time_elapsed":193089,"subject_id":"90645","group":"Group2","condition":"3_Rep","full_date":"2026-02-26T19:40:13.112Z","date":"2026-02-26","time":"19:40:13"},{"rt":null,"stimulus":"<p style=\"font-size: 50px; margin: 0; text-align: center;\">+</p>","response":null,"trial_type":"html-keyboard-response","trial_index":86,"plugin_version":"2.1.0","time_elapsed":194092,"subject_id":"90645","group":"Group2","condition":"3_Rep","full_date":"2026-02-26T19:40:13.112Z","date":"2026-02-26","time":"19:40:13"},{"task":"memory_phase","broad_category":"I","image_png":"I_Peridotite_13.png","image_id":125,"category_name":"Peridotite","category":8,"distinct_rating":7.28,"distinct_type":"Top","rt":null,"stimulus":"Stimuli_Rocks480/I_Peridotite_13.png","response":null,"trial_type":"image-keyboard-response","trial_index":87,"plugin_version":"2.1.0","time_elapsed":196595,"subject_id":"90645","group":"Group2","condition":"3_Rep","full_date":"2026-02-26T19:40:13.112Z","date":"2026-02-26","time":"19:40:13"},{"rt":null,"stimulus":"<p style=\"font-size: 50px; margin: 0; text-align: center;\">+</p>","response":null,"trial_type":"html-keyboard-response","trial_index":88,"plugin_version":"2.1.0","time_elapsed":197599,"subject_id":"90645","group":"Group2","condition":"3_Rep","full_date":"2026-02-26T19:40:13.112Z","date":"2026-02-26","time":"19:40:13"},{"task":"memory_phase","broad_category":"S","image_png":"S_Shale_07.png","image_id":471,"category_name":"Shale","category":30,"distinct_rating":2.73,"distinct_type":"Bottom","rt":null,"stimulus":"Stimuli_Rocks480/S_Shale_07.png","response":null,"trial_type":"image-keyboard-response","trial_index":89,"plugin_version":"2.1.0","time_elapsed":200103,"subject_id":"90645","group":"Group2","condition":"3_Rep","full_date":"2026-02-26T19:40:13.112Z","date":"2026-02-26","time":"19:40:13"},{"rt":null,"stimulus":"<p style=\"font-size: 50px; margin: 0; text-align: center;\">+</p>","response":null,"trial_type":"html-keyboard-response","trial_index":90,"plugin_version":"2.1.0","time_elapsed":201105,"subject_id":"90645","group":"Group2","condition":"3_Rep","full_date":"2026-02-26T19:40:13.112Z","date":"2026-02-26","time":"19:40:13"},{"task":"memory_phase","broad_category":"I","image_png":"I_Basalt_10.png","image_id":26,"category_name":"Basalt","category":2,"distinct_rating":2.76,"distinct_type":"Bottom","rt":null,"stimulus":"Stimuli_Rocks480/I_Basalt_10.png","response":null,"trial_type":"image-keyboard-response","trial_index":91,"plugin_version":"2.1.0","time_elapsed":203609,"subject_id":"90645","group":"Group2","condition":"3_Rep","full_date":"2026-02-26T19:40:13.112Z","date":"2026-02-26","time":"19:40:13"},{"rt":null,"stimulus":"<p style=\"font-size: 50px; margin: 0; text-align: center;\">+</p>","response":null,"trial_type":"html-keyboard-response","trial_index":92,"plugin_version":"2.1.0","time_elapsed":204612,"subject_id":"90645","group":"Group2","condition":"3_Rep","full_date":"2026-02-26T19:40:13.112Z","date":"2026-02-26","time":"19:40:13"},{"task":"memory_phase","broad_category":"I","image_png":"I_Gabbro_14.png","image_id":62,"category_name":"Gabbro","category":4,"distinct_rating":2.95,"distinct_type":"Bottom","rt":null,"stimulus":"Stimuli_Rocks480/I_Gabbro_14.png","response":null,"trial_type":"image-keyboard-response","trial_index":93,"plugin_version":"2.1.0","time_elapsed":207116,"subject_id":"90645","group":"Group2","condition":"3_Rep","full_date":"2026-02-26T19:40:13.112Z","date":"2026-02-26","time":"19:40:13"},{"rt":null,"stimulus":"<p style=\"font-size: 50px; margin: 0; text-align: center;\">+</p>","response":null,"trial_type":"html-keyboard-response","trial_index":94,"plugin_version":"2.1.0","time_elapsed":208119,"subject_id":"90645","group":"Group2","condition":"3_Rep","full_date":"2026-02-26T19:40:13.112Z","date":"2026-02-26","time":"19:40:13"},{"task":"memory_phase","broad_category":"S","image_png":"S_Dolomite_01.png","image_id":385,"category_name":"Dolomite","category":25,"distinct_rating":1.43,"distinct_type":"Bottom","rt":null,"stimulus":"Stimuli_Rocks480/S_Dolomite_01.png","response":null,"trial_type":"image-keyboard-response","trial_index":95,"plugin_version":"2.1.0","time_elapsed":210623,"subject_id":"90645","group":"Group2","condition":"3_Rep","full_date":"2026-02-26T19:40:13.112Z","date":"2026-02-26","time":"19:40:13"},{"rt":null,"stimulus":"<p style=\"font-size: 50px; margin: 0; text-align: center;\">+</p>","response":null,"trial_type":"html-keyboard-response","trial_index":96,"plugin_version":"2.1.0","time_elapsed":211626,"subject_id":"90645","group":"Group2","condition":"3_Rep","full_date":"2026-02-26T19:40:13.112Z","date":"2026-02-26","time":"19:40:13"},{"task":"memory_phase","broad_category":"I","image_png":"I_Pegmatite_03.png","image_id":99,"category_name":"Pegmatite","category":7,"distinct_rating":7.24,"distinct_type":"Top","rt":null,"stimulus":"Stimuli_Rocks480/I_Pegmatite_03.png","response":null,"trial_type":"image-keyboard-response","trial_index":97,"plugin_version":"2.1.0","time_elapsed":214130,"subject_id":"90645","group":"Group2","condition":"3_Rep","full_date":"2026-02-26T19:40:13.112Z","date":"2026-02-26","time":"19:40:13"},{"rt":null,"stimulus":"<p style=\"font-size: 50px; margin: 0; text-align: center;\">+</p>","response":null,"trial_type":"html-keyboard-response","trial_index":98,"plugin_version":"2.1.0","time_elapsed":215133,"subject_id":"90645","group":"Group2","condition":"3_Rep","full_date":"2026-02-26T19:40:13.112Z","date":"2026-02-26","time":"19:40:13"},{"task":"memory_phase","broad_category":"I","image_png":"I_Pegmatite_11.png","image_id":107,"category_name":"Pegmatite","category":7,"distinct_rating":7.11,"distinct_type":"Top","rt":null,"stimulus":"Stimuli_Rocks480/I_Pegmatite_11.png","response":null,"trial_type":"image-keyboard-response","trial_index":99,"plugin_version":"2.1.0","time_elapsed":217637,"subject_id":"90645","group":"Group2","condition":"3_Rep","full_date":"2026-02-26T19:40:13.112Z","date":"2026-02-26","time":"19:40:13"},{"rt":null,"stimulus":"<p style=\"font-size: 50px; margin: 0; text-align: center;\">+</p>","response":null,"trial_type":"html-keyboard-response","trial_index":100,"plugin_version":"2.1.0","time_elapsed":218640,"subject_id":"90645","group":"Group2","condition":"3_Rep","full_date":"2026-02-26T19:40:13.112Z","date":"2026-02-26","time":"19:40:13"},{"task":"memory_phase","broad_category":"I","image_png":"I_Basalt_13.png","image_id":29,"category_name":"Basalt","category":2,"distinct_rating":2.68,"distinct_type":"Bottom","rt":null,"stimulus":"Stimuli_Rocks480/I_Basalt_13.png","response":null,"trial_type":"image-keyboard-response","trial_index":101,"plugin_version":"2.1.0","time_elapsed":221143,"subject_id":"90645","group":"Group2","condition":"3_Rep","full_date":"2026-02-26T19:40:13.112Z","date":"2026-02-26","time":"19:40:13"},{"rt":null,"stimulus":"<p style=\"font-size: 50px; margin: 0; text-align: center;\">+</p>","response":null,"trial_type":"html-keyboard-response","trial_index":102,"plugin_version":"2.1.0","time_elapsed":222146,"subject_id":"90645","group":"Group2","condition":"3_Rep","full_date":"2026-02-26T19:40:13.112Z","date":"2026-02-26","time":"19:40:13"},{"task":"memory_phase","broad_category":"I","image_png":"I_Diorite_10.png","image_id":42,"category_name":"Diorite","category":3,"distinct_rating":2.84,"distinct_type":"Bottom","rt":null,"stimulus":"Stimuli_Rocks480/I_Diorite_10.png","response":null,"trial_type":"image-keyboard-response","trial_index":103,"plugin_version":"2.1.0","time_elapsed":224650,"subject_id":"90645","group":"Group2","condition":"3_Rep","full_date":"2026-02-26T19:40:13.112Z","date":"2026-02-26","time":"19:40:13"},{"rt":null,"stimulus":"<p style=\"font-size: 50px; margin: 0; text-align: center;\">+</p>","response":null,"trial_type":"html-keyboard-response","trial_index":104,"plugin_version":"2.1.0","time_elapsed":225653,"subject_id":"90645","group":"Group2","condition":"3_Rep","full_date":"2026-02-26T19:40:13.112Z","date":"2026-02-26","time":"19:40:13"},{"task":"memory_phase","broad_category":"I","image_png":"I_Diorite_01.png","image_id":33,"category_name":"Diorite","category":3,"distinct_rating":2.97,"distinct_type":"Bottom","rt":null,"stimulus":"Stimuli_Rocks480/I_Diorite_01.png","response":null,"trial_type":"image-keyboard-response","trial_index":105,"plugin_version":"2.1.0","time_elapsed":228157,"subject_id":"90645","group":"Group2","condition":"3_Rep","full_date":"2026-02-26T19:40:13.112Z","date":"2026-02-26","time":"19:40:13"},{"rt":4772,"stimulus":"<p style=\"max-width: 760px; margin: auto; font-size: 35px; line-height: 1.5;\">\n                You have completed 1 study phase. \n                Now, we'll show you all the images again 2 more times.\n                <br><br>Press SPACE to continue\n              </p>","response":" ","trial_type":"html-keyboard-response","trial_index":106,"plugin_version":"2.1.0","time_elapsed":232930,"subject_id":"90645","group":"Group2","condition":"3_Rep","full_date":"2026-02-26T19:40:13.112Z","date":"2026-02-26","time":"19:40:13"},{"rt":null,"stimulus":"<p style=\"font-size: 50px; margin: 0; text-align: center;\">+</p>","response":null,"trial_type":"html-keyboard-response","trial_index":107,"plugin_version":"2.1.0","time_elapsed":233933,"subject_id":"90645","group":"Group2","condition":"3_Rep","full_date":"2026-02-26T19:40:13.112Z","date":"2026-02-26","time":"19:40:13"},{"task":"memory_phase","broad_category":"I","image_png":"I_Gabbro_02.png","image_id":50,"category_name":"Gabbro","category":4,"distinct_rating":2.73,"distinct_type":"Bottom","rt":null,"stimulus":"Stimuli_Rocks480/I_Gabbro_02.png","response":null,"trial_type":"image-keyboard-response","trial_index":108,"plugin_version":"2.1.0","time_elapsed":236437,"subject_id":"90645","group":"Group2","condition":"3_Rep","full_date":"2026-02-26T19:40:13.112Z","date":"2026-02-26","time":"19:40:13"},{"rt":null,"stimulus":"<p style=\"font-size: 50px; margin: 0; text-align: center;\">+</p>","response":null,"trial_type":"html-keyboard-response","trial_index":109,"plugin_version":"2.1.0","time_elapsed":237440,"subject_id":"90645","group":"Group2","condition":"3_Rep","full_date":"2026-02-26T19:40:13.112Z","date":"2026-02-26","time":"19:40:13"},{"task":"memory_phase","broad_category":"S","image_png":"S_Chert_13.png","image_id":365,"category_name":"Chert","category":23,"distinct_rating":6.57,"distinct_type":"Top","rt":null,"stimulus":"Stimuli_Rocks480/S_Chert_13.png","response":null,"trial_type":"image-keyboard-response","trial_index":110,"plugin_version":"2.1.0","time_elapsed":239943,"subject_id":"90645","group":"Group2","condition":"3_Rep","full_date":"2026-02-26T19:40:13.112Z","date":"2026-02-26","time":"19:40:13"},{"rt":null,"stimulus":"<p style=\"font-size: 50px; margin: 0; text-align: center;\">+</p>","response":null,"trial_type":"html-keyboard-response","trial_index":111,"plugin_version":"2.1.0","time_elapsed":240946,"subject_id":"90645","group":"Group2","condition":"3_Rep","full_date":"2026-02-26T19:40:13.112Z","date":"2026-02-26","time":"19:40:13"},{"task":"memory_phase","broad_category":"I","image_png":"I_Peridotite_13.png","image_id":125,"category_name":"Peridotite","category":8,"distinct_rating":7.28,"distinct_type":"Top","rt":null,"stimulus":"Stimuli_Rocks480/I_Peridotite_13.png","response":null,"trial_type":"image-keyboard-response","trial_index":112,"plugin_version":"2.1.0","time_elapsed":243450,"subject_id":"90645","group":"Group2","condition":"3_Rep","full_date":"2026-02-26T19:40:13.112Z","date":"2026-02-26","time":"19:40:13"},{"rt":null,"stimulus":"<p style=\"font-size: 50px; margin: 0; text-align: center;\">+</p>","response":null,"trial_type":"html-keyboard-response","trial_index":113,"plugin_version":"2.1.0","time_elapsed":244452,"subject_id":"90645","group":"Group2","condition":"3_Rep","full_date":"2026-02-26T19:40:13.112Z","date":"2026-02-26","time":"19:40:13"},{"task":"memory_phase","broad_category":"S","image_png":"S_Sandstone_08.png","image_id":456,"category_name":"Sandstone","category":29,"distinct_rating":1.5,"distinct_type":"Bottom","rt":null,"stimulus":"Stimuli_Rocks480/S_Sandstone_08.png","response":null,"trial_type":"image-keyboard-response","trial_index":114,"plugin_version":"2.1.0","time_elapsed":246956,"subject_id":"90645","group":"Group2","condition":"3_Rep","full_date":"2026-02-26T19:40:13.112Z","date":"2026-02-26","time":"19:40:13"},{"rt":null,"stimulus":"<p style=\"font-size: 50px; margin: 0; text-align: center;\">+</p>","response":null,"trial_type":"html-keyboard-response","trial_index":115,"plugin_version":"2.1.0","time_elapsed":247959,"subject_id":"90645","group":"Group2","condition":"3_Rep","full_date":"2026-02-26T19:40:13.112Z","date":"2026-02-26","time":"19:40:13"},{"task":"memory_phase","broad_category":"I","image_png":"I_Pegmatite_11.png","image_id":107,"category_name":"Pegmatite","category":7,"distinct_rating":7.11,"distinct_type":"Top","rt":null,"stimulus":"Stimuli_Rocks480/I_Pegmatite_11.png","response":null,"trial_type":"image-keyboard-response","trial_index":116,"plugin_version":"2.1.0","time_elapsed":250463,"subject_id":"90645","group":"Group2","condition":"3_Rep","full_date":"2026-02-26T19:40:13.112Z","date":"2026-02-26","time":"19:40:13"},{"rt":null,"stimulus":"<p style=\"font-size: 50px; margin: 0; text-align: center;\">+</p>","response":null,"trial_type":"html-keyboard-response","trial_index":117,"plugin_version":"2.1.0","time_elapsed":251466,"subject_id":"90645","group":"Group2","condition":"3_Rep","full_date":"2026-02-26T19:40:13.112Z","date":"2026-02-26","time":"19:40:13"},{"task":"memory_phase","broad_category":"M","image_png":"M_Marble_14.png","image_id":238,"category_name":"Marble","category":15,"distinct_rating":3.31,"distinct_type":"Bottom","rt":null,"stimulus":"Stimuli_Rocks480/M_Marble_14.png","response":null,"trial_type":"image-keyboard-response","trial_index":118,"plugin_version":"2.1.0","time_elapsed":253970,"subject_id":"90645","group":"Group2","condition":"3_Rep","full_date":"2026-02-26T19:40:13.112Z","date":"2026-02-26","time":"19:40:13"},{"rt":null,"stimulus":"<p style=\"font-size: 50px; margin: 0; text-align: center;\">+</p>","response":null,"trial_type":"html-keyboard-response","trial_index":119,"plugin_version":"2.1.0","time_elapsed":254973,"subject_id":"90645","group":"Group2","condition":"3_Rep","full_date":"2026-02-26T19:40:13.112Z","date":"2026-02-26","time":"19:40:13"},{"task":"memory_phase","broad_category":"S","image_png":"S_Shale_07.png","image_id":471,"category_name":"Shale","category":30,"distinct_rating":2.73,"distinct_type":"Bottom","rt":null,"stimulus":"Stimuli_Rocks480/S_Shale_07.png","response":null,"trial_type":"image-keyboard-response","trial_index":120,"plugin_version":"2.1.0","time_elapsed":257477,"subject_id":"90645","group":"Group2","condition":"3_Rep","full_date":"2026-02-26T19:40:13.112Z","date":"2026-02-26","time":"19:40:13"},{"rt":null,"stimulus":"<p style=\"font-size: 50px; margin: 0; text-align: center;\">+</p>","response":null,"trial_type":"html-keyboard-response","trial_index":121,"plugin_version":"2.1.0","time_elapsed":258480,"subject_id":"90645","group":"Group2","condition":"3_Rep","full_date":"2026-02-26T19:40:13.112Z","date":"2026-02-26","time":"19:40:13"},{"task":"memory_phase","broad_category":"S","image_png":"S_Dolomite_16.png","image_id":400,"category_name":"Dolomite","category":25,"distinct_rating":1.71,"distinct_type":"Bottom","rt":null,"stimulus":"Stimuli_Rocks480/S_Dolomite_16.png","response":null,"trial_type":"image-keyboard-response","trial_index":122,"plugin_version":"2.1.0","time_elapsed":260983,"subject_id":"90645","group":"Group2","condition":"3_Rep","full_date":"2026-02-26T19:40:13.112Z","date":"2026-02-26","time":"19:40:13"},{"rt":null,"stimulus":"<p style=\"font-size: 50px; margin: 0; text-align: center;\">+</p>","response":null,"trial_type":"html-keyboard-response","trial_index":123,"plugin_version":"2.1.0","time_elapsed":261986,"subject_id":"90645","group":"Group2","condition":"3_Rep","full_date":"2026-02-26T19:40:13.112Z","date":"2026-02-26","time":"19:40:13"},{"task":"memory_phase","broad_category":"M","image_png":"M_Quartzite_07.png","image_id":279,"category_name":"Quartzite","category":18,"distinct_rating":1.97,"distinct_type":"Bottom","rt":null,"stimulus":"Stimuli_Rocks480/M_Quartzite_07.png","response":null,"trial_type":"image-keyboard-response","trial_index":124,"plugin_version":"2.1.0","time_elapsed":264490,"subject_id":"90645","group":"Group2","condition":"3_Rep","full_date":"2026-02-26T19:40:13.112Z","date":"2026-02-26","time":"19:40:13"},{"rt":null,"stimulus":"<p style=\"font-size: 50px; margin: 0; text-align: center;\">+</p>","response":null,"trial_type":"html-keyboard-response","trial_index":125,"plugin_version":"2.1.0","time_elapsed":265493,"subject_id":"90645","group":"Group2","condition":"3_Rep","full_date":"2026-02-26T19:40:13.112Z","date":"2026-02-26","time":"19:40:13"},{"task":"memory_phase","broad_category":"I","image_png":"I_Pegmatite_03.png","image_id":99,"category_name":"Pegmatite","category":7,"distinct_rating":7.24,"distinct_type":"Top","rt":null,"stimulus":"Stimuli_Rocks480/I_Pegmatite_03.png","response":null,"trial_type":"image-keyboard-response","trial_index":126,"plugin_version":"2.1.0","time_elapsed":267998,"subject_id":"90645","group":"Group2","condition":"3_Rep","full_date":"2026-02-26T19:40:13.112Z","date":"2026-02-26","time":"19:40:13"},{"rt":null,"stimulus":"<p style=\"font-size: 50px; margin: 0; text-align: center;\">+</p>","response":null,"trial_type":"html-keyboard-response","trial_index":127,"plugin_version":"2.1.0","time_elapsed":269000,"subject_id":"90645","group":"Group2","condition":"3_Rep","full_date":"2026-02-26T19:40:13.112Z","date":"2026-02-26","time":"19:40:13"},{"task":"memory_phase","broad_category":"I","image_png":"I_Rhyolite_08.png","image_id":152,"category_name":"Rhyolite","category":10,"distinct_rating":1.38,"distinct_type":"Bottom","rt":null,"stimulus":"Stimuli_Rocks480/I_Rhyolite_08.png","response":null,"trial_type":"image-keyboard-response","trial_index":128,"plugin_version":"2.1.0","time_elapsed":271504,"subject_id":"90645","group":"Group2","condition":"3_Rep","full_date":"2026-02-26T19:40:13.112Z","date":"2026-02-26","time":"19:40:13"},{"rt":null,"stimulus":"<p style=\"font-size: 50px; margin: 0; text-align: center;\">+</p>","response":null,"trial_type":"html-keyboard-response","trial_index":129,"plugin_version":"2.1.0","time_elapsed":272507,"subject_id":"90645","group":"Group2","condition":"3_Rep","full_date":"2026-02-26T19:40:13.112Z","date":"2026-02-26","time":"19:40:13"},{"task":"memory_phase","broad_category":"I","image_png":"I_Andesite_04.png","image_id":4,"category_name":"Andesite","category":1,"distinct_rating":3.18,"distinct_type":"Bottom","rt":null,"stimulus":"Stimuli_Rocks480/I_Andesite_04.png","response":null,"trial_type":"image-keyboard-response","trial_index":130,"plugin_version":"2.1.0","time_elapsed":275011,"subject_id":"90645","group":"Group2","condition":"3_Rep","full_date":"2026-02-26T19:40:13.112Z","date":"2026-02-26","time":"19:40:13"},{"rt":null,"stimulus":"<p style=\"font-size: 50px; margin: 0; text-align: center;\">+</p>","response":null,"trial_type":"html-keyboard-response","trial_index":131,"plugin_version":"2.1.0","time_elapsed":276014,"subject_id":"90645","group":"Group2","condition":"3_Rep","full_date":"2026-02-26T19:40:13.112Z","date":"2026-02-26","time":"19:40:13"},{"task":"memory_phase","broad_category":"I","image_png":"I_Basalt_13.png","image_id":29,"category_name":"Basalt","category":2,"distinct_rating":2.68,"distinct_type":"Bottom","rt":null,"stimulus":"Stimuli_Rocks480/I_Basalt_13.png","response":null,"trial_type":"image-keyboard-response","trial_index":132,"plugin_version":"2.1.0","time_elapsed":278518,"subject_id":"90645","group":"Group2","condition":"3_Rep","full_date":"2026-02-26T19:40:13.112Z","date":"2026-02-26","time":"19:40:13"},{"rt":null,"stimulus":"<p style=\"font-size: 50px; margin: 0; text-align: center;\">+</p>","response":null,"trial_type":"html-keyboard-response","trial_index":133,"plugin_version":"2.1.0","time_elapsed":279521,"subject_id":"90645","group":"Group2","condition":"3_Rep","full_date":"2026-02-26T19:40:13.112Z","date":"2026-02-26","time":"19:40:13"},{"task":"memory_phase","broad_category":"I","image_png":"I_Diorite_10.png","image_id":42,"category_name":"Diorite","category":3,"distinct_rating":2.84,"distinct_type":"Bottom","rt":null,"stimulus":"Stimuli_Rocks480/I_Diorite_10.png","response":null,"trial_type":"image-keyboard-response","trial_index":134,"plugin_version":"2.1.0","time_elapsed":282026,"subject_id":"90645","group":"Group2","condition":"3_Rep","full_date":"2026-02-26T19:40:13.112Z","date":"2026-02-26","time":"19:40:13"},{"rt":null,"stimulus":"<p style=\"font-size: 50px; margin: 0; text-align: center;\">+</p>","response":null,"trial_type":"html-keyboard-response","trial_index":135,"plugin_version":"2.1.0","time_elapsed":283028,"subject_id":"90645","group":"Group2","condition":"3_Rep","full_date":"2026-02-26T19:40:13.112Z","date":"2026-02-26","time":"19:40:13"},{"task":"memory_phase","broad_category":"M","image_png":"M_Marble_03.png","image_id":227,"category_name":"Marble","category":15,"distinct_rating":2.67,"distinct_type":"Bottom","rt":null,"stimulus":"Stimuli_Rocks480/M_Marble_03.png","response":null,"trial_type":"image-keyboard-response","trial_index":136,"plugin_version":"2.1.0","time_elapsed":285532,"subject_id":"90645","group":"Group2","condition":"3_Rep","full_date":"2026-02-26T19:40:13.112Z","date":"2026-02-26","time":"19:40:13"},{"rt":null,"stimulus":"<p style=\"font-size: 50px; margin: 0; text-align: center;\">+</p>","response":null,"trial_type":"html-keyboard-response","trial_index":137,"plugin_version":"2.1.0","time_elapsed":286535,"subject_id":"90645","group":"Group2","condition":"3_Rep","full_date":"2026-02-26T19:40:13.112Z","date":"2026-02-26","time":"19:40:13"},{"task":"memory_phase","broad_category":"S","image_png":"S_Shale_02.png","image_id":466,"category_name":"Shale","category":30,"distinct_rating":2.9,"distinct_type":"Bottom","rt":null,"stimulus":"Stimuli_Rocks480/S_Shale_02.png","response":null,"trial_type":"image-keyboard-response","trial_index":138,"plugin_version":"2.1.0","time_elapsed":289039,"subject_id":"90645","group":"Group2","condition":"3_Rep","full_date":"2026-02-26T19:40:13.112Z","date":"2026-02-26","time":"19:40:13"},{"rt":null,"stimulus":"<p style=\"font-size: 50px; margin: 0; text-align: center;\">+</p>","response":null,"trial_type":"html-keyboard-response","trial_index":139,"plugin_version":"2.1.0","time_elapsed":290042,"subject_id":"90645","group":"Group2","condition":"3_Rep","full_date":"2026-02-26T19:40:13.112Z","date":"2026-02-26","time":"19:40:13"},{"task":"memory_phase","broad_category":"M","image_png":"M_Phyllite_13.png","image_id":269,"category_name":"Phyllite","category":17,"distinct_rating":2.8,"distinct_type":"Bottom","rt":null,"stimulus":"Stimuli_Rocks480/M_Phyllite_13.png","response":null,"trial_type":"image-keyboard-response","trial_index":140,"plugin_version":"2.1.0","time_elapsed":292545,"subject_id":"90645","group":"Group2","condition":"3_Rep","full_date":"2026-02-26T19:40:13.112Z","date":"2026-02-26","time":"19:40:13"},{"rt":null,"stimulus":"<p style=\"font-size: 50px; margin: 0; text-align: center;\">+</p>","response":null,"trial_type":"html-keyboard-response","trial_index":141,"plugin_version":"2.1.0","time_elapsed":293548,"subject_id":"90645","group":"Group2","condition":"3_Rep","full_date":"2026-02-26T19:40:13.112Z","date":"2026-02-26","time":"19:40:13"},{"task":"memory_phase","broad_category":"M","image_png":"M_Slate_10.png","image_id":314,"category_name":"Slate","category":20,"distinct_rating":1.94,"distinct_type":"Bottom","rt":null,"stimulus":"Stimuli_Rocks480/M_Slate_10.png","response":null,"trial_type":"image-keyboard-response","trial_index":142,"plugin_version":"2.1.0","time_elapsed":296052,"subject_id":"90645","group":"Group2","condition":"3_Rep","full_date":"2026-02-26T19:40:13.112Z","date":"2026-02-26","time":"19:40:13"},{"rt":null,"stimulus":"<p style=\"font-size: 50px; margin: 0; text-align: center;\">+</p>","response":null,"trial_type":"html-keyboard-response","trial_index":143,"plugin_version":"2.1.0","time_elapsed":297055,"subject_id":"90645","group":"Group2","condition":"3_Rep","full_date":"2026-02-26T19:40:13.112Z","date":"2026-02-26","time":"19:40:13"},{"task":"memory_phase","broad_category":"S","image_png":"S_Shale_03.png","image_id":467,"category_name":"Shale","category":30,"distinct_rating":1.95,"distinct_type":"Bottom","rt":null,"stimulus":"Stimuli_Rocks480/S_Shale_03.png","response":null,"trial_type":"image-keyboard-response","trial_index":144,"plugin_version":"2.1.0","time_elapsed":299559,"subject_id":"90645","group":"Group2","condition":"3_Rep","full_date":"2026-02-26T19:40:13.112Z","date":"2026-02-26","time":"19:40:13"},{"rt":null,"stimulus":"<p style=\"font-size: 50px; margin: 0; text-align: center;\">+</p>","response":null,"trial_type":"html-keyboard-response","trial_index":145,"plugin_version":"2.1.0","time_elapsed":300561,"subject_id":"90645","group":"Group2","condition":"3_Rep","full_date":"2026-02-26T19:40:13.112Z","date":"2026-02-26","time":"19:40:13"},{"task":"memory_phase","broad_category":"I","image_png":"I_Gabbro_12.png","image_id":60,"category_name":"Gabbro","category":4,"distinct_rating":2.6,"distinct_type":"Bottom","rt":null,"stimulus":"Stimuli_Rocks480/I_Gabbro_12.png","response":null,"trial_type":"image-keyboard-response","trial_index":146,"plugin_version":"2.1.0","time_elapsed":303065,"subject_id":"90645","group":"Group2","condition":"3_Rep","full_date":"2026-02-26T19:40:13.112Z","date":"2026-02-26","time":"19:40:13"},{"rt":null,"stimulus":"<p style=\"font-size: 50px; margin: 0; text-align: center;\">+</p>","response":null,"trial_type":"html-keyboard-response","trial_index":147,"plugin_version":"2.1.0","time_elapsed":304068,"subject_id":"90645","group":"Group2","condition":"3_Rep","full_date":"2026-02-26T19:40:13.112Z","date":"2026-02-26","time":"19:40:13"},{"task":"memory_phase","broad_category":"I","image_png":"I_Obsidian_06.png","image_id":86,"category_name":"Obsidian","category":6,"distinct_rating":8.01,"distinct_type":"Top","rt":null,"stimulus":"Stimuli_Rocks480/I_Obsidian_06.png","response":null,"trial_type":"image-keyboard-response","trial_index":148,"plugin_version":"2.1.0","time_elapsed":306572,"subject_id":"90645","group":"Group2","condition":"3_Rep","full_date":"2026-02-26T19:40:13.112Z","date":"2026-02-26","time":"19:40:13"},{"rt":null,"stimulus":"<p style=\"font-size: 50px; margin: 0; text-align: center;\">+</p>","response":null,"trial_type":"html-keyboard-response","trial_index":149,"plugin_version":"2.1.0","time_elapsed":307576,"subject_id":"90645","group":"Group2","condition":"3_Rep","full_date":"2026-02-26T19:40:13.112Z","date":"2026-02-26","time":"19:40:13"},{"task":"memory_phase","broad_category":"M","image_png":"M_Gneiss_14.png","image_id":206,"category_name":"Gneiss","category":13,"distinct_rating":3.41,"distinct_type":"Bottom","rt":null,"stimulus":"Stimuli_Rocks480/M_Gneiss_14.png","response":null,"trial_type":"image-keyboard-response","trial_index":150,"plugin_version":"2.1.0","time_elapsed":310079,"subject_id":"90645","group":"Group2","condition":"3_Rep","full_date":"2026-02-26T19:40:13.112Z","date":"2026-02-26","time":"19:40:13"},{"rt":null,"stimulus":"<p style=\"font-size: 50px; margin: 0; text-align: center;\">+</p>","response":null,"trial_type":"html-keyboard-response","trial_index":151,"plugin_version":"2.1.0","time_elapsed":311082,"subject_id":"90645","group":"Group2","condition":"3_Rep","full_date":"2026-02-26T19:40:13.112Z","date":"2026-02-26","time":"19:40:13"},{"task":"memory_phase","broad_category":"I","image_png":"I_Pumice_13.png","image_id":141,"category_name":"Pumice","category":9,"distinct_rating":3.12,"distinct_type":"Bottom","rt":null,"stimulus":"Stimuli_Rocks480/I_Pumice_13.png","response":null,"trial_type":"image-keyboard-response","trial_index":152,"plugin_version":"2.1.0","time_elapsed":313586,"subject_id":"90645","group":"Group2","condition":"3_Rep","full_date":"2026-02-26T19:40:13.112Z","date":"2026-02-26","time":"19:40:13"},{"rt":null,"stimulus":"<p style=\"font-size: 50px; margin: 0; text-align: center;\">+</p>","response":null,"trial_type":"html-keyboard-response","trial_index":153,"plugin_version":"2.1.0","time_elapsed":314589,"subject_id":"90645","group":"Group2","condition":"3_Rep","full_date":"2026-02-26T19:40:13.112Z","date":"2026-02-26","time":"19:40:13"},{"task":"memory_phase","broad_category":"I","image_png":"I_Rhyolite_10.png","image_id":154,"category_name":"Rhyolite","category":10,"distinct_rating":2.88,"distinct_type":"Bottom","rt":null,"stimulus":"Stimuli_Rocks480/I_Rhyolite_10.png","response":null,"trial_type":"image-keyboard-response","trial_index":154,"plugin_version":"2.1.0","time_elapsed":317093,"subject_id":"90645","group":"Group2","condition":"3_Rep","full_date":"2026-02-26T19:40:13.112Z","date":"2026-02-26","time":"19:40:13"},{"rt":null,"stimulus":"<p style=\"font-size: 50px; margin: 0; text-align: center;\">+</p>","response":null,"trial_type":"html-keyboard-response","trial_index":155,"plugin_version":"2.1.0","time_elapsed":318096,"subject_id":"90645","group":"Group2","condition":"3_Rep","full_date":"2026-02-26T19:40:13.112Z","date":"2026-02-26","time":"19:40:13"},{"task":"memory_phase","broad_category":"M","image_png":"M_Gneiss_15.png","image_id":207,"category_name":"Gneiss","category":13,"distinct_rating":3.11,"distinct_type":"Bottom","rt":null,"stimulus":"Stimuli_Rocks480/M_Gneiss_15.png","response":null,"trial_type":"image-keyboard-response","trial_index":156,"plugin_version":"2.1.0","time_elapsed":320600,"subject_id":"90645","group":"Group2","condition":"3_Rep","full_date":"2026-02-26T19:40:13.112Z","date":"2026-02-26","time":"19:40:13"},{"rt":3947,"stimulus":"<p style=\"max-width: 760px; margin: auto; font-size: 35px; line-height: 1.5;\">\n                Press SPACE to continue study phase\n              </p>","response":" ","trial_type":"html-keyboard-response","trial_index":157,"plugin_version":"2.1.0","time_elapsed":324548,"subject_id":"90645","group":"Group2","condition":"3_Rep","full_date":"2026-02-26T19:40:13.112Z","date":"2026-02-26","time":"19:40:13"},{"rt":null,"stimulus":"<p style=\"font-size: 50px; margin: 0; text-align: center;\">+</p>","response":null,"trial_type":"html-keyboard-response","trial_index":158,"plugin_version":"2.1.0","time_elapsed":325550,"subject_id":"90645","group":"Group2","condition":"3_Rep","full_date":"2026-02-26T19:40:13.112Z","date":"2026-02-26","time":"19:40:13"},{"task":"memory_phase","broad_category":"M","image_png":"M_Slate_14.png","image_id":318,"category_name":"Slate","category":20,"distinct_rating":2.58,"distinct_type":"Bottom","rt":null,"stimulus":"Stimuli_Rocks480/M_Slate_14.png","response":null,"trial_type":"image-keyboard-response","trial_index":159,"plugin_version":"2.1.0","time_elapsed":328054,"subject_id":"90645","group":"Group2","condition":"3_Rep","full_date":"2026-02-26T19:40:13.112Z","date":"2026-02-26","time":"19:40:13"},{"rt":null,"stimulus":"<p style=\"font-size: 50px; margin: 0; text-align: center;\">+</p>","response":null,"trial_type":"html-keyboard-response","trial_index":160,"plugin_version":"2.1.0","time_elapsed":329057,"subject_id":"90645","group":"Group2","condition":"3_Rep","full_date":"2026-02-26T19:40:13.112Z","date":"2026-02-26","time":"19:40:13"},{"task":"memory_phase","broad_category":"S","image_png":"S_Rock Salt_15.png","image_id":447,"category_name":"Rock Salt","category":28,"distinct_rating":7.79,"distinct_type":"Top","rt":null,"stimulus":"Stimuli_Rocks480/S_Rock Salt_15.png","response":null,"trial_type":"image-keyboard-response","trial_index":161,"plugin_version":"2.1.0","time_elapsed":331560,"subject_id":"90645","group":"Group2","condition":"3_Rep","full_date":"2026-02-26T19:40:13.112Z","date":"2026-02-26","time":"19:40:13"},{"rt":null,"stimulus":"<p style=\"font-size: 50px; margin: 0; text-align: center;\">+</p>","response":null,"trial_type":"html-keyboard-response","trial_index":162,"plugin_version":"2.1.0","time_elapsed":332563,"subject_id":"90645","group":"Group2","condition":"3_Rep","full_date":"2026-02-26T19:40:13.112Z","date":"2026-02-26","time":"19:40:13"},{"task":"memory_phase","broad_category":"I","image_png":"I_Gabbro_14.png","image_id":62,"category_name":"Gabbro","category":4,"distinct_rating":2.95,"distinct_type":"Bottom","rt":null,"stimulus":"Stimuli_Rocks480/I_Gabbro_14.png","response":null,"trial_type":"image-keyboard-response","trial_index":163,"plugin_version":"2.1.0","time_elapsed":335067,"subject_id":"90645","group":"Group2","condition":"3_Rep","full_date":"2026-02-26T19:40:13.112Z","date":"2026-02-26","time":"19:40:13"},{"rt":null,"stimulus":"<p style=\"font-size: 50px; margin: 0; text-align: center;\">+</p>","response":null,"trial_type":"html-keyboard-response","trial_index":164,"plugin_version":"2.1.0","time_elapsed":336070,"subject_id":"90645","group":"Group2","condition":"3_Rep","full_date":"2026-02-26T19:40:13.112Z","date":"2026-02-26","time":"19:40:13"},{"task":"memory_phase","broad_category":"M","image_png":"M_Phyllite_02.png","image_id":258,"category_name":"Phyllite","category":17,"distinct_rating":2.89,"distinct_type":"Bottom","rt":null,"stimulus":"Stimuli_Rocks480/M_Phyllite_02.png","response":null,"trial_type":"image-keyboard-response","trial_index":165,"plugin_version":"2.1.0","time_elapsed":338575,"subject_id":"90645","group":"Group2","condition":"3_Rep","full_date":"2026-02-26T19:40:13.112Z","date":"2026-02-26","time":"19:40:13"},{"rt":null,"stimulus":"<p style=\"font-size: 50px; margin: 0; text-align: center;\">+</p>","response":null,"trial_type":"html-keyboard-response","trial_index":166,"plugin_version":"2.1.0","time_elapsed":339577,"subject_id":"90645","group":"Group2","condition":"3_Rep","full_date":"2026-02-26T19:40:13.112Z","date":"2026-02-26","time":"19:40:13"},{"task":"memory_phase","broad_category":"I","image_png":"I_Rhyolite_05.png","image_id":149,"category_name":"Rhyolite","category":10,"distinct_rating":3.02,"distinct_type":"Bottom","rt":null,"stimulus":"Stimuli_Rocks480/I_Rhyolite_05.png","response":null,"trial_type":"image-keyboard-response","trial_index":167,"plugin_version":"2.1.0","time_elapsed":342081,"subject_id":"90645","group":"Group2","condition":"3_Rep","full_date":"2026-02-26T19:40:13.112Z","date":"2026-02-26","time":"19:40:13"},{"rt":null,"stimulus":"<p style=\"font-size: 50px; margin: 0; text-align: center;\">+</p>","response":null,"trial_type":"html-keyboard-response","trial_index":168,"plugin_version":"2.1.0","time_elapsed":343084,"subject_id":"90645","group":"Group2","condition":"3_Rep","full_date":"2026-02-26T19:40:13.112Z","date":"2026-02-26","time":"19:40:13"},{"task":"memory_phase","broad_category":"M","image_png":"M_Quartzite_15.png","image_id":287,"category_name":"Quartzite","category":18,"distinct_rating":2.19,"distinct_type":"Bottom","rt":null,"stimulus":"Stimuli_Rocks480/M_Quartzite_15.png","response":null,"trial_type":"image-keyboard-response","trial_index":169,"plugin_version":"2.1.0","time_elapsed":345588,"subject_id":"90645","group":"Group2","condition":"3_Rep","full_date":"2026-02-26T19:40:13.112Z","date":"2026-02-26","time":"19:40:13"},{"rt":null,"stimulus":"<p style=\"font-size: 50px; margin: 0; text-align: center;\">+</p>","response":null,"trial_type":"html-keyboard-response","trial_index":170,"plugin_version":"2.1.0","time_elapsed":346591,"subject_id":"90645","group":"Group2","condition":"3_Rep","full_date":"2026-02-26T19:40:13.112Z","date":"2026-02-26","time":"19:40:13"},{"task":"memory_phase","broad_category":"I","image_png":"I_Diorite_15.png","image_id":47,"category_name":"Diorite","category":3,"distinct_rating":3.05,"distinct_type":"Bottom","rt":null,"stimulus":"Stimuli_Rocks480/I_Diorite_15.png","response":null,"trial_type":"image-keyboard-response","trial_index":171,"plugin_version":"2.1.0","time_elapsed":349095,"subject_id":"90645","group":"Group2","condition":"3_Rep","full_date":"2026-02-26T19:40:13.112Z","date":"2026-02-26","time":"19:40:13"},{"rt":null,"stimulus":"<p style=\"font-size: 50px; margin: 0; text-align: center;\">+</p>","response":null,"trial_type":"html-keyboard-response","trial_index":172,"plugin_version":"2.1.0","time_elapsed":350098,"subject_id":"90645","group":"Group2","condition":"3_Rep","full_date":"2026-02-26T19:40:13.112Z","date":"2026-02-26","time":"19:40:13"},{"task":"memory_phase","broad_category":"S","image_png":"S_Rock Salt_13.png","image_id":445,"category_name":"Rock Salt","category":28,"distinct_rating":7.58,"distinct_type":"Top","rt":null,"stimulus":"Stimuli_Rocks480/S_Rock Salt_13.png","response":null,"trial_type":"image-keyboard-response","trial_index":173,"plugin_version":"2.1.0","time_elapsed":352602,"subject_id":"90645","group":"Group2","condition":"3_Rep","full_date":"2026-02-26T19:40:13.112Z","date":"2026-02-26","time":"19:40:13"},{"rt":null,"stimulus":"<p style=\"font-size: 50px; margin: 0; text-align: center;\">+</p>","response":null,"trial_type":"html-keyboard-response","trial_index":174,"plugin_version":"2.1.0","time_elapsed":353604,"subject_id":"90645","group":"Group2","condition":"3_Rep","full_date":"2026-02-26T19:40:13.112Z","date":"2026-02-26","time":"19:40:13"},{"task":"memory_phase","broad_category":"I","image_png":"I_Pumice_01.png","image_id":129,"category_name":"Pumice","category":9,"distinct_rating":3.25,"distinct_type":"Bottom","rt":null,"stimulus":"Stimuli_Rocks480/I_Pumice_01.png","response":null,"trial_type":"image-keyboard-response","trial_index":175,"plugin_version":"2.1.0","time_elapsed":356108,"subject_id":"90645","group":"Group2","condition":"3_Rep","full_date":"2026-02-26T19:40:13.112Z","date":"2026-02-26","time":"19:40:13"},{"rt":null,"stimulus":"<p style=\"font-size: 50px; margin: 0; text-align: center;\">+</p>","response":null,"trial_type":"html-keyboard-response","trial_index":176,"plugin_version":"2.1.0","time_elapsed":357110,"subject_id":"90645","group":"Group2","condition":"3_Rep","full_date":"2026-02-26T19:40:13.112Z","date":"2026-02-26","time":"19:40:13"},{"task":"memory_phase","broad_category":"S","image_png":"S_Sandstone_11.png","image_id":459,"category_name":"Sandstone","category":29,"distinct_rating":1.82,"distinct_type":"Bottom","rt":null,"stimulus":"Stimuli_Rocks480/S_Sandstone_11.png","response":null,"trial_type":"image-keyboard-response","trial_index":177,"plugin_version":"2.1.0","time_elapsed":359614,"subject_id":"90645","group":"Group2","condition":"3_Rep","full_date":"2026-02-26T19:40:13.112Z","date":"2026-02-26","time":"19:40:13"},{"rt":null,"stimulus":"<p style=\"font-size: 50px; margin: 0; text-align: center;\">+</p>","response":null,"trial_type":"html-keyboard-response","trial_index":178,"plugin_version":"2.1.0","time_elapsed":360617,"subject_id":"90645","group":"Group2","condition":"3_Rep","full_date":"2026-02-26T19:40:13.112Z","date":"2026-02-26","time":"19:40:13"},{"task":"memory_phase","broad_category":"M","image_png":"M_Quartzite_12.png","image_id":284,"category_name":"Quartzite","category":18,"distinct_rating":1.92,"distinct_type":"Bottom","rt":null,"stimulus":"Stimuli_Rocks480/M_Quartzite_12.png","response":null,"trial_type":"image-keyboard-response","trial_index":179,"plugin_version":"2.1.0","time_elapsed":363121,"subject_id":"90645","group":"Group2","condition":"3_Rep","full_date":"2026-02-26T19:40:13.112Z","date":"2026-02-26","time":"19:40:13"},{"rt":null,"stimulus":"<p style=\"font-size: 50px; margin: 0; text-align: center;\">+</p>","response":null,"trial_type":"html-keyboard-response","trial_index":180,"plugin_version":"2.1.0","time_elapsed":364123,"subject_id":"90645","group":"Group2","condition":"3_Rep","full_date":"2026-02-26T19:40:13.112Z","date":"2026-02-26","time":"19:40:13"},{"task":"memory_phase","broad_category":"I","image_png":"I_Basalt_10.png","image_id":26,"category_name":"Basalt","category":2,"distinct_rating":2.76,"distinct_type":"Bottom","rt":null,"stimulus":"Stimuli_Rocks480/I_Basalt_10.png","response":null,"trial_type":"image-keyboard-response","trial_index":181,"plugin_version":"2.1.0","time_elapsed":366628,"subject_id":"90645","group":"Group2","condition":"3_Rep","full_date":"2026-02-26T19:40:13.112Z","date":"2026-02-26","time":"19:40:13"},{"rt":null,"stimulus":"<p style=\"font-size: 50px; margin: 0; text-align: center;\">+</p>","response":null,"trial_type":"html-keyboard-response","trial_index":182,"plugin_version":"2.1.0","time_elapsed":367631,"subject_id":"90645","group":"Group2","condition":"3_Rep","full_date":"2026-02-26T19:40:13.112Z","date":"2026-02-26","time":"19:40:13"},{"task":"memory_phase","broad_category":"M","image_png":"M_Phyllite_05.png","image_id":261,"category_name":"Phyllite","category":17,"distinct_rating":2.14,"distinct_type":"Bottom","rt":null,"stimulus":"Stimuli_Rocks480/M_Phyllite_05.png","response":null,"trial_type":"image-keyboard-response","trial_index":183,"plugin_version":"2.1.0","time_elapsed":370135,"subject_id":"90645","group":"Group2","condition":"3_Rep","full_date":"2026-02-26T19:40:13.112Z","date":"2026-02-26","time":"19:40:13"},{"rt":null,"stimulus":"<p style=\"font-size: 50px; margin: 0; text-align: center;\">+</p>","response":null,"trial_type":"html-keyboard-response","trial_index":184,"plugin_version":"2.1.0","time_elapsed":371138,"subject_id":"90645","group":"Group2","condition":"3_Rep","full_date":"2026-02-26T19:40:13.112Z","date":"2026-02-26","time":"19:40:13"},{"task":"memory_phase","broad_category":"S","image_png":"S_Sandstone_04.png","image_id":452,"category_name":"Sandstone","category":29,"distinct_rating":1.8,"distinct_type":"Bottom","rt":null,"stimulus":"Stimuli_Rocks480/S_Sandstone_04.png","response":null,"trial_type":"image-keyboard-response","trial_index":185,"plugin_version":"2.1.0","time_elapsed":373642,"subject_id":"90645","group":"Group2","condition":"3_Rep","full_date":"2026-02-26T19:40:13.112Z","date":"2026-02-26","time":"19:40:13"},{"rt":null,"stimulus":"<p style=\"font-size: 50px; margin: 0; text-align: center;\">+</p>","response":null,"trial_type":"html-keyboard-response","trial_index":186,"plugin_version":"2.1.0","time_elapsed":374645,"subject_id":"90645","group":"Group2","condition":"3_Rep","full_date":"2026-02-26T19:40:13.112Z","date":"2026-02-26","time":"19:40:13"},{"task":"memory_phase","broad_category":"M","image_png":"M_Marble_02.png","image_id":226,"category_name":"Marble","category":15,"distinct_rating":3.2,"distinct_type":"Bottom","rt":null,"stimulus":"Stimuli_Rocks480/M_Marble_02.png","response":null,"trial_type":"image-keyboard-response","trial_index":187,"plugin_version":"2.1.0","time_elapsed":377149,"subject_id":"90645","group":"Group2","condition":"3_Rep","full_date":"2026-02-26T19:40:13.112Z","date":"2026-02-26","time":"19:40:13"},{"rt":null,"stimulus":"<p style=\"font-size: 50px; margin: 0; text-align: center;\">+</p>","response":null,"trial_type":"html-keyboard-response","trial_index":188,"plugin_version":"2.1.0","time_elapsed":378152,"subject_id":"90645","group":"Group2","condition":"3_Rep","full_date":"2026-02-26T19:40:13.112Z","date":"2026-02-26","time":"19:40:13"},{"task":"memory_phase","broad_category":"I","image_png":"I_Pumice_14.png","image_id":142,"category_name":"Pumice","category":9,"distinct_rating":3.22,"distinct_type":"Bottom","rt":null,"stimulus":"Stimuli_Rocks480/I_Pumice_14.png","response":null,"trial_type":"image-keyboard-response","trial_index":189,"plugin_version":"2.1.0","time_elapsed":380656,"subject_id":"90645","group":"Group2","condition":"3_Rep","full_date":"2026-02-26T19:40:13.112Z","date":"2026-02-26","time":"19:40:13"},{"rt":null,"stimulus":"<p style=\"font-size: 50px; margin: 0; text-align: center;\">+</p>","response":null,"trial_type":"html-keyboard-response","trial_index":190,"plugin_version":"2.1.0","time_elapsed":381659,"subject_id":"90645","group":"Group2","condition":"3_Rep","full_date":"2026-02-26T19:40:13.112Z","date":"2026-02-26","time":"19:40:13"},{"task":"memory_phase","broad_category":"S","image_png":"S_Dolomite_07.png","image_id":391,"category_name":"Dolomite","category":25,"distinct_rating":1.73,"distinct_type":"Bottom","rt":null,"stimulus":"Stimuli_Rocks480/S_Dolomite_07.png","response":null,"trial_type":"image-keyboard-response","trial_index":191,"plugin_version":"2.1.0","time_elapsed":384164,"subject_id":"90645","group":"Group2","condition":"3_Rep","full_date":"2026-02-26T19:40:13.112Z","date":"2026-02-26","time":"19:40:13"},{"rt":null,"stimulus":"<p style=\"font-size: 50px; margin: 0; text-align: center;\">+</p>","response":null,"trial_type":"html-keyboard-response","trial_index":192,"plugin_version":"2.1.0","time_elapsed":385167,"subject_id":"90645","group":"Group2","condition":"3_Rep","full_date":"2026-02-26T19:40:13.112Z","date":"2026-02-26","time":"19:40:13"},{"task":"memory_phase","broad_category":"M","image_png":"M_Slate_04.png","image_id":308,"category_name":"Slate","category":20,"distinct_rating":2.2,"distinct_type":"Bottom","rt":null,"stimulus":"Stimuli_Rocks480/M_Slate_04.png","response":null,"trial_type":"image-keyboard-response","trial_index":193,"plugin_version":"2.1.0","time_elapsed":387671,"subject_id":"90645","group":"Group2","condition":"3_Rep","full_date":"2026-02-26T19:40:13.112Z","date":"2026-02-26","time":"19:40:13"},{"rt":null,"stimulus":"<p style=\"font-size: 50px; margin: 0; text-align: center;\">+</p>","response":null,"trial_type":"html-keyboard-response","trial_index":194,"plugin_version":"2.1.0","time_elapsed":388672,"subject_id":"90645","group":"Group2","condition":"3_Rep","full_date":"2026-02-26T19:40:13.112Z","date":"2026-02-26","time":"19:40:13"},{"task":"memory_phase","broad_category":"S","image_png":"S_Dolomite_01.png","image_id":385,"category_name":"Dolomite","category":25,"distinct_rating":1.43,"distinct_type":"Bottom","rt":null,"stimulus":"Stimuli_Rocks480/S_Dolomite_01.png","response":null,"trial_type":"image-keyboard-response","trial_index":195,"plugin_version":"2.1.0","time_elapsed":391177,"subject_id":"90645","group":"Group2","condition":"3_Rep","full_date":"2026-02-26T19:40:13.112Z","date":"2026-02-26","time":"19:40:13"},{"rt":null,"stimulus":"<p style=\"font-size: 50px; margin: 0; text-align: center;\">+</p>","response":null,"trial_type":"html-keyboard-response","trial_index":196,"plugin_version":"2.1.0","time_elapsed":392180,"subject_id":"90645","group":"Group2","condition":"3_Rep","full_date":"2026-02-26T19:40:13.112Z","date":"2026-02-26","time":"19:40:13"},{"task":"memory_phase","broad_category":"I","image_png":"I_Basalt_08.png","image_id":24,"category_name":"Basalt","category":2,"distinct_rating":2.31,"distinct_type":"Bottom","rt":null,"stimulus":"Stimuli_Rocks480/I_Basalt_08.png","response":null,"trial_type":"image-keyboard-response","trial_index":197,"plugin_version":"2.1.0","time_elapsed":394683,"subject_id":"90645","group":"Group2","condition":"3_Rep","full_date":"2026-02-26T19:40:13.112Z","date":"2026-02-26","time":"19:40:13"},{"rt":null,"stimulus":"<p style=\"font-size: 50px; margin: 0; text-align: center;\">+</p>","response":null,"trial_type":"html-keyboard-response","trial_index":198,"plugin_version":"2.1.0","time_elapsed":395686,"subject_id":"90645","group":"Group2","condition":"3_Rep","full_date":"2026-02-26T19:40:13.112Z","date":"2026-02-26","time":"19:40:13"},{"task":"memory_phase","broad_category":"M","image_png":"M_Gneiss_10.png","image_id":202,"category_name":"Gneiss","category":13,"distinct_rating":3.09,"distinct_type":"Bottom","rt":null,"stimulus":"Stimuli_Rocks480/M_Gneiss_10.png","response":null,"trial_type":"image-keyboard-response","trial_index":199,"plugin_version":"2.1.0","time_elapsed":398190,"subject_id":"90645","group":"Group2","condition":"3_Rep","full_date":"2026-02-26T19:40:13.112Z","date":"2026-02-26","time":"19:40:13"},{"rt":null,"stimulus":"<p style=\"font-size: 50px; margin: 0; text-align: center;\">+</p>","response":null,"trial_type":"html-keyboard-response","trial_index":200,"plugin_version":"2.1.0","time_elapsed":399193,"subject_id":"90645","group":"Group2","condition":"3_Rep","full_date":"2026-02-26T19:40:13.112Z","date":"2026-02-26","time":"19:40:13"},{"task":"memory_phase","broad_category":"I","image_png":"I_Andesite_03.png","image_id":3,"category_name":"Andesite","category":1,"distinct_rating":3.17,"distinct_type":"Bottom","rt":null,"stimulus":"Stimuli_Rocks480/I_Andesite_03.png","response":null,"trial_type":"image-keyboard-response","trial_index":201,"plugin_version":"2.1.0","time_elapsed":401697,"subject_id":"90645","group":"Group2","condition":"3_Rep","full_date":"2026-02-26T19:40:13.112Z","date":"2026-02-26","time":"19:40:13"},{"rt":null,"stimulus":"<p style=\"font-size: 50px; margin: 0; text-align: center;\">+</p>","response":null,"trial_type":"html-keyboard-response","trial_index":202,"plugin_version":"2.1.0","time_elapsed":402700,"subject_id":"90645","group":"Group2","condition":"3_Rep","full_date":"2026-02-26T19:40:13.112Z","date":"2026-02-26","time":"19:40:13"},{"task":"memory_phase","broad_category":"S","image_png":"S_Conglomerate_14.png","image_id":382,"category_name":"Conglomerate","category":24,"distinct_rating":6.86,"distinct_type":"Top","rt":null,"stimulus":"Stimuli_Rocks480/S_Conglomerate_14.png","response":null,"trial_type":"image-keyboard-response","trial_index":203,"plugin_version":"2.1.0","time_elapsed":405203,"subject_id":"90645","group":"Group2","condition":"3_Rep","full_date":"2026-02-26T19:40:13.112Z","date":"2026-02-26","time":"19:40:13"},{"rt":null,"stimulus":"<p style=\"font-size: 50px; margin: 0; text-align: center;\">+</p>","response":null,"trial_type":"html-keyboard-response","trial_index":204,"plugin_version":"2.1.0","time_elapsed":406206,"subject_id":"90645","group":"Group2","condition":"3_Rep","full_date":"2026-02-26T19:40:13.112Z","date":"2026-02-26","time":"19:40:13"},{"task":"memory_phase","broad_category":"I","image_png":"I_Diorite_01.png","image_id":33,"category_name":"Diorite","category":3,"distinct_rating":2.97,"distinct_type":"Bottom","rt":null,"stimulus":"Stimuli_Rocks480/I_Diorite_01.png","response":null,"trial_type":"image-keyboard-response","trial_index":205,"plugin_version":"2.1.0","time_elapsed":408710,"subject_id":"90645","group":"Group2","condition":"3_Rep","full_date":"2026-02-26T19:40:13.112Z","date":"2026-02-26","time":"19:40:13"},{"rt":null,"stimulus":"<p style=\"font-size: 50px; margin: 0; text-align: center;\">+</p>","response":null,"trial_type":"html-keyboard-response","trial_index":206,"plugin_version":"2.1.0","time_elapsed":409712,"subject_id":"90645","group":"Group2","condition":"3_Rep","full_date":"2026-02-26T19:40:13.112Z","date":"2026-02-26","time":"19:40:13"},{"task":"memory_phase","broad_category":"I","image_png":"I_Andesite_09.png","image_id":9,"category_name":"Andesite","category":1,"distinct_rating":2.49,"distinct_type":"Bottom","rt":null,"stimulus":"Stimuli_Rocks480/I_Andesite_09.png","response":null,"trial_type":"image-keyboard-response","trial_index":207,"plugin_version":"2.1.0","time_elapsed":412215,"subject_id":"90645","group":"Group2","condition":"3_Rep","full_date":"2026-02-26T19:40:13.112Z","date":"2026-02-26","time":"19:40:13"},{"rt":5006,"stimulus":"<p style=\"max-width: 760px; margin: auto; font-size: 35px; line-height: 1.5;\">\n                You have completed 2 study phases. \n                Now, we'll show you all the images again 1 more time.\n                <br><br>Press SPACE to continue\n              </p>","response":" ","trial_type":"html-keyboard-response","trial_index":208,"plugin_version":"2.1.0","time_elapsed":417223,"subject_id":"90645","group":"Group2","condition":"3_Rep","full_date":"2026-02-26T19:40:13.112Z","date":"2026-02-26","time":"19:40:13"},{"rt":null,"stimulus":"<p style=\"font-size: 50px; margin: 0; text-align: center;\">+</p>","response":null,"trial_type":"html-keyboard-response","trial_index":209,"plugin_version":"2.1.0","time_elapsed":418226,"subject_id":"90645","group":"Group2","condition":"3_Rep","full_date":"2026-02-26T19:40:13.112Z","date":"2026-02-26","time":"19:40:13"},{"task":"memory_phase","broad_category":"S","image_png":"S_Rock Salt_13.png","image_id":445,"category_name":"Rock Salt","category":28,"distinct_rating":7.58,"distinct_type":"Top","rt":null,"stimulus":"Stimuli_Rocks480/S_Rock Salt_13.png","response":null,"trial_type":"image-keyboard-response","trial_index":210,"plugin_version":"2.1.0","time_elapsed":420730,"subject_id":"90645","group":"Group2","condition":"3_Rep","full_date":"2026-02-26T19:40:13.112Z","date":"2026-02-26","time":"19:40:13"},{"rt":null,"stimulus":"<p style=\"font-size: 50px; margin: 0; text-align: center;\">+</p>","response":null,"trial_type":"html-keyboard-response","trial_index":211,"plugin_version":"2.1.0","time_elapsed":421733,"subject_id":"90645","group":"Group2","condition":"3_Rep","full_date":"2026-02-26T19:40:13.112Z","date":"2026-02-26","time":"19:40:13"},{"task":"memory_phase","broad_category":"M","image_png":"M_Quartzite_07.png","image_id":279,"category_name":"Quartzite","category":18,"distinct_rating":1.97,"distinct_type":"Bottom","rt":null,"stimulus":"Stimuli_Rocks480/M_Quartzite_07.png","response":null,"trial_type":"image-keyboard-response","trial_index":212,"plugin_version":"2.1.0","time_elapsed":424237,"subject_id":"90645","group":"Group2","condition":"3_Rep","full_date":"2026-02-26T19:40:13.112Z","date":"2026-02-26","time":"19:40:13"},{"rt":null,"stimulus":"<p style=\"font-size: 50px; margin: 0; text-align: center;\">+</p>","response":null,"trial_type":"html-keyboard-response","trial_index":213,"plugin_version":"2.1.0","time_elapsed":425240,"subject_id":"90645","group":"Group2","condition":"3_Rep","full_date":"2026-02-26T19:40:13.112Z","date":"2026-02-26","time":"19:40:13"},{"task":"memory_phase","broad_category":"I","image_png":"I_Andesite_09.png","image_id":9,"category_name":"Andesite","category":1,"distinct_rating":2.49,"distinct_type":"Bottom","rt":null,"stimulus":"Stimuli_Rocks480/I_Andesite_09.png","response":null,"trial_type":"image-keyboard-response","trial_index":214,"plugin_version":"2.1.0","time_elapsed":427744,"subject_id":"90645","group":"Group2","condition":"3_Rep","full_date":"2026-02-26T19:40:13.112Z","date":"2026-02-26","time":"19:40:13"},{"rt":null,"stimulus":"<p style=\"font-size: 50px; margin: 0; text-align: center;\">+</p>","response":null,"trial_type":"html-keyboard-response","trial_index":215,"plugin_version":"2.1.0","time_elapsed":428747,"subject_id":"90645","group":"Group2","condition":"3_Rep","full_date":"2026-02-26T19:40:13.112Z","date":"2026-02-26","time":"19:40:13"},{"task":"memory_phase","broad_category":"M","image_png":"M_Gneiss_14.png","image_id":206,"category_name":"Gneiss","category":13,"distinct_rating":3.41,"distinct_type":"Bottom","rt":null,"stimulus":"Stimuli_Rocks480/M_Gneiss_14.png","response":null,"trial_type":"image-keyboard-response","trial_index":216,"plugin_version":"2.1.0","time_elapsed":431251,"subject_id":"90645","group":"Group2","condition":"3_Rep","full_date":"2026-02-26T19:40:13.112Z","date":"2026-02-26","time":"19:40:13"},{"rt":null,"stimulus":"<p style=\"font-size: 50px; margin: 0; text-align: center;\">+</p>","response":null,"trial_type":"html-keyboard-response","trial_index":217,"plugin_version":"2.1.0","time_elapsed":432254,"subject_id":"90645","group":"Group2","condition":"3_Rep","full_date":"2026-02-26T19:40:13.112Z","date":"2026-02-26","time":"19:40:13"},{"task":"memory_phase","broad_category":"S","image_png":"S_Shale_03.png","image_id":467,"category_name":"Shale","category":30,"distinct_rating":1.95,"distinct_type":"Bottom","rt":null,"stimulus":"Stimuli_Rocks480/S_Shale_03.png","response":null,"trial_type":"image-keyboard-response","trial_index":218,"plugin_version":"2.1.0","time_elapsed":434758,"subject_id":"90645","group":"Group2","condition":"3_Rep","full_date":"2026-02-26T19:40:13.112Z","date":"2026-02-26","time":"19:40:13"},{"rt":null,"stimulus":"<p style=\"font-size: 50px; margin: 0; text-align: center;\">+</p>","response":null,"trial_type":"html-keyboard-response","trial_index":219,"plugin_version":"2.1.0","time_elapsed":435761,"subject_id":"90645","group":"Group2","condition":"3_Rep","full_date":"2026-02-26T19:40:13.112Z","date":"2026-02-26","time":"19:40:13"},{"task":"memory_phase","broad_category":"I","image_png":"I_Gabbro_12.png","image_id":60,"category_name":"Gabbro","category":4,"distinct_rating":2.6,"distinct_type":"Bottom","rt":null,"stimulus":"Stimuli_Rocks480/I_Gabbro_12.png","response":null,"trial_type":"image-keyboard-response","trial_index":220,"plugin_version":"2.1.0","time_elapsed":438265,"subject_id":"90645","group":"Group2","condition":"3_Rep","full_date":"2026-02-26T19:40:13.112Z","date":"2026-02-26","time":"19:40:13"},{"rt":null,"stimulus":"<p style=\"font-size: 50px; margin: 0; text-align: center;\">+</p>","response":null,"trial_type":"html-keyboard-response","trial_index":221,"plugin_version":"2.1.0","time_elapsed":439268,"subject_id":"90645","group":"Group2","condition":"3_Rep","full_date":"2026-02-26T19:40:13.112Z","date":"2026-02-26","time":"19:40:13"},{"task":"memory_phase","broad_category":"M","image_png":"M_Marble_03.png","image_id":227,"category_name":"Marble","category":15,"distinct_rating":2.67,"distinct_type":"Bottom","rt":null,"stimulus":"Stimuli_Rocks480/M_Marble_03.png","response":null,"trial_type":"image-keyboard-response","trial_index":222,"plugin_version":"2.1.0","time_elapsed":441772,"subject_id":"90645","group":"Group2","condition":"3_Rep","full_date":"2026-02-26T19:40:13.112Z","date":"2026-02-26","time":"19:40:13"},{"rt":null,"stimulus":"<p style=\"font-size: 50px; margin: 0; text-align: center;\">+</p>","response":null,"trial_type":"html-keyboard-response","trial_index":223,"plugin_version":"2.1.0","time_elapsed":442775,"subject_id":"90645","group":"Group2","condition":"3_Rep","full_date":"2026-02-26T19:40:13.112Z","date":"2026-02-26","time":"19:40:13"},{"task":"memory_phase","broad_category":"I","image_png":"I_Basalt_10.png","image_id":26,"category_name":"Basalt","category":2,"distinct_rating":2.76,"distinct_type":"Bottom","rt":null,"stimulus":"Stimuli_Rocks480/I_Basalt_10.png","response":null,"trial_type":"image-keyboard-response","trial_index":224,"plugin_version":"2.1.0","time_elapsed":445278,"subject_id":"90645","group":"Group2","condition":"3_Rep","full_date":"2026-02-26T19:40:13.112Z","date":"2026-02-26","time":"19:40:13"},{"rt":null,"stimulus":"<p style=\"font-size: 50px; margin: 0; text-align: center;\">+</p>","response":null,"trial_type":"html-keyboard-response","trial_index":225,"plugin_version":"2.1.0","time_elapsed":446281,"subject_id":"90645","group":"Group2","condition":"3_Rep","full_date":"2026-02-26T19:40:13.112Z","date":"2026-02-26","time":"19:40:13"},{"task":"memory_phase","broad_category":"M","image_png":"M_Slate_10.png","image_id":314,"category_name":"Slate","category":20,"distinct_rating":1.94,"distinct_type":"Bottom","rt":null,"stimulus":"Stimuli_Rocks480/M_Slate_10.png","response":null,"trial_type":"image-keyboard-response","trial_index":226,"plugin_version":"2.1.0","time_elapsed":448784,"subject_id":"90645","group":"Group2","condition":"3_Rep","full_date":"2026-02-26T19:40:13.112Z","date":"2026-02-26","time":"19:40:13"},{"rt":null,"stimulus":"<p style=\"font-size: 50px; margin: 0; text-align: center;\">+</p>","response":null,"trial_type":"html-keyboard-response","trial_index":227,"plugin_version":"2.1.0","time_elapsed":449787,"subject_id":"90645","group":"Group2","condition":"3_Rep","full_date":"2026-02-26T19:40:13.112Z","date":"2026-02-26","time":"19:40:13"},{"task":"memory_phase","broad_category":"I","image_png":"I_Pumice_14.png","image_id":142,"category_name":"Pumice","category":9,"distinct_rating":3.22,"distinct_type":"Bottom","rt":null,"stimulus":"Stimuli_Rocks480/I_Pumice_14.png","response":null,"trial_type":"image-keyboard-response","trial_index":228,"plugin_version":"2.1.0","time_elapsed":452291,"subject_id":"90645","group":"Group2","condition":"3_Rep","full_date":"2026-02-26T19:40:13.112Z","date":"2026-02-26","time":"19:40:13"},{"rt":null,"stimulus":"<p style=\"font-size: 50px; margin: 0; text-align: center;\">+</p>","response":null,"trial_type":"html-keyboard-response","trial_index":229,"plugin_version":"2.1.0","time_elapsed":453293,"subject_id":"90645","group":"Group2","condition":"3_Rep","full_date":"2026-02-26T19:40:13.112Z","date":"2026-02-26","time":"19:40:13"},{"task":"memory_phase","broad_category":"S","image_png":"S_Sandstone_04.png","image_id":452,"category_name":"Sandstone","category":29,"distinct_rating":1.8,"distinct_type":"Bottom","rt":null,"stimulus":"Stimuli_Rocks480/S_Sandstone_04.png","response":null,"trial_type":"image-keyboard-response","trial_index":230,"plugin_version":"2.1.0","time_elapsed":455796,"subject_id":"90645","group":"Group2","condition":"3_Rep","full_date":"2026-02-26T19:40:13.112Z","date":"2026-02-26","time":"19:40:13"},{"rt":null,"stimulus":"<p style=\"font-size: 50px; margin: 0; text-align: center;\">+</p>","response":null,"trial_type":"html-keyboard-response","trial_index":231,"plugin_version":"2.1.0","time_elapsed":456799,"subject_id":"90645","group":"Group2","condition":"3_Rep","full_date":"2026-02-26T19:40:13.112Z","date":"2026-02-26","time":"19:40:13"},{"task":"memory_phase","broad_category":"M","image_png":"M_Slate_04.png","image_id":308,"category_name":"Slate","category":20,"distinct_rating":2.2,"distinct_type":"Bottom","rt":null,"stimulus":"Stimuli_Rocks480/M_Slate_04.png","response":null,"trial_type":"image-keyboard-response","trial_index":232,"plugin_version":"2.1.0","time_elapsed":459304,"subject_id":"90645","group":"Group2","condition":"3_Rep","full_date":"2026-02-26T19:40:13.112Z","date":"2026-02-26","time":"19:40:13"},{"rt":null,"stimulus":"<p style=\"font-size: 50px; margin: 0; text-align: center;\">+</p>","response":null,"trial_type":"html-keyboard-response","trial_index":233,"plugin_version":"2.1.0","time_elapsed":460306,"subject_id":"90645","group":"Group2","condition":"3_Rep","full_date":"2026-02-26T19:40:13.112Z","date":"2026-02-26","time":"19:40:13"},{"task":"memory_phase","broad_category":"I","image_png":"I_Rhyolite_05.png","image_id":149,"category_name":"Rhyolite","category":10,"distinct_rating":3.02,"distinct_type":"Bottom","rt":null,"stimulus":"Stimuli_Rocks480/I_Rhyolite_05.png","response":null,"trial_type":"image-keyboard-response","trial_index":234,"plugin_version":"2.1.0","time_elapsed":462810,"subject_id":"90645","group":"Group2","condition":"3_Rep","full_date":"2026-02-26T19:40:13.112Z","date":"2026-02-26","time":"19:40:13"},{"rt":null,"stimulus":"<p style=\"font-size: 50px; margin: 0; text-align: center;\">+</p>","response":null,"trial_type":"html-keyboard-response","trial_index":235,"plugin_version":"2.1.0","time_elapsed":463812,"subject_id":"90645","group":"Group2","condition":"3_Rep","full_date":"2026-02-26T19:40:13.112Z","date":"2026-02-26","time":"19:40:13"},{"task":"memory_phase","broad_category":"M","image_png":"M_Marble_02.png","image_id":226,"category_name":"Marble","category":15,"distinct_rating":3.2,"distinct_type":"Bottom","rt":null,"stimulus":"Stimuli_Rocks480/M_Marble_02.png","res