[{"width":1470,"height":745,"webaudio":true,"browser":"chrome","browser_version":"144.0.0","mobile":false,"os":"Mac OS","fullscreen":true,"vsync_rate":60.15,"webcam":true,"microphone":true,"trial_type":"browser-check","trial_index":0,"plugin_version":"2.1.0","time_elapsed":1006,"subject_id":"90833","group":"Group1","condition":"3_Rep","full_date":"2026-02-14T20:11:24.858Z","date":"2026-02-14","time":"20:11:24"},{"success":true,"timeout":false,"failed_images":[],"failed_audio":[],"failed_video":[],"trial_type":"preload","trial_index":1,"plugin_version":"2.1.0","time_elapsed":1101,"subject_id":"90833","group":"Group1","condition":"3_Rep","full_date":"2026-02-14T20:11:24.858Z","date":"2026-02-14","time":"20:11:24"},{"rt":54000,"url":"SONA_consent_memorability.html","trial_type":"external-html","trial_index":2,"plugin_version":"2.1.0","time_elapsed":55104,"subject_id":"90833","group":"Group1","condition":"3_Rep","full_date":"2026-02-14T20:11:24.858Z","date":"2026-02-14","time":"20:11:24"},{"success":true,"rt":2145,"trial_type":"fullscreen","trial_index":3,"plugin_version":"2.1.0","time_elapsed":58254,"subject_id":"90833","group":"Group1","condition":"3_Rep","full_date":"2026-02-14T20:11:24.858Z","date":"2026-02-14","time":"20:11:24"},{"rt":20612,"stimulus":"<div style=\"max-width: 760px; margin: auto; font-size: 20px; line-height: 1.5;\">\n      <h1 style=\"text-align:center; font-size: 30px;\">Instructions</h1>\n      <p>\n        Welcome to the study on <b>visual memory</b>. This experiment consists of <b>two phases</b>: \n        a <b>study phase</b> and a <b>test phase</b>.\n      </p>\n      <p>\n        In the study phase, you will see a series of rock images along with their category labels.\n        The images will appear one at a time.\n        <b>Your task</b> is to learn the categories to which the rock images belong \n        and to remember each image as accurately as possible.\n      </p> \n      <p>\n        Note that we will repeat the study phase <b>3 times</b>, \n             so you will have multiple opportunities to see and remember each image.\n      </p>\n      <p>\n        After the study phase, <b>your memory will be tested</b>. \n        Additional instructions for the test phase will be provided at that time.\n      </p>\n      <p>\n        If your computer has multiple <b>language settings</b> (e.g., English and another language),\n        please make sure it is set to English before starting.\n      </p>\n      <p>\n        You can track your progress using the <b>completion bar</b> at the top of the screen. \n        Please note that the bar will refresh when the test phase begins \n        to give you an accurate sense of your progress in both phases.\n      </p> \n      <p>\n        Press the button below when you are ready to begin.\n      </p>\n    </div>","response":0,"trial_type":"html-button-response","trial_index":4,"plugin_version":"2.1.0","time_elapsed":78870,"subject_id":"90833","group":"Group1","condition":"3_Rep","full_date":"2026-02-14T20:11:24.858Z","date":"2026-02-14","time":"20:11:24"},{"rt":null,"stimulus":"<p style=\"font-size: 50px; margin: 0; text-align: center;\">+</p>","response":null,"trial_type":"html-keyboard-response","trial_index":5,"plugin_version":"2.1.0","time_elapsed":79876,"subject_id":"90833","group":"Group1","condition":"3_Rep","full_date":"2026-02-14T20:11:24.858Z","date":"2026-02-14","time":"20:11:24"},{"task":"memory_phase","broad_category":"I","image_png":"I_Andesite_10.png","image_id":10,"category_name":"Andesite","category":1,"distinct_rating":3.15,"distinct_type":"Bottom","rt":null,"stimulus":"Stimuli_Rocks480/I_Andesite_10.png","response":null,"trial_type":"image-keyboard-response","trial_index":6,"plugin_version":"2.1.0","time_elapsed":82384,"subject_id":"90833","group":"Group1","condition":"3_Rep","full_date":"2026-02-14T20:11:24.858Z","date":"2026-02-14","time":"20:11:24"},{"rt":null,"stimulus":"<p style=\"font-size: 50px; margin: 0; text-align: center;\">+</p>","response":null,"trial_type":"html-keyboard-response","trial_index":7,"plugin_version":"2.1.0","time_elapsed":83387,"subject_id":"90833","group":"Group1","condition":"3_Rep","full_date":"2026-02-14T20:11:24.858Z","date":"2026-02-14","time":"20:11:24"},{"task":"memory_phase","broad_category":"S","image_png":"S_Rock Salt_01.png","image_id":433,"category_name":"Rock Salt","category":28,"distinct_rating":7.18,"distinct_type":"Top","rt":null,"stimulus":"Stimuli_Rocks480/S_Rock Salt_01.png","response":null,"trial_type":"image-keyboard-response","trial_index":8,"plugin_version":"2.1.0","time_elapsed":85892,"subject_id":"90833","group":"Group1","condition":"3_Rep","full_date":"2026-02-14T20:11:24.858Z","date":"2026-02-14","time":"20:11:24"},{"rt":null,"stimulus":"<p style=\"font-size: 50px; margin: 0; text-align: center;\">+</p>","response":null,"trial_type":"html-keyboard-response","trial_index":9,"plugin_version":"2.1.0","time_elapsed":86895,"subject_id":"90833","group":"Group1","condition":"3_Rep","full_date":"2026-02-14T20:11:24.858Z","date":"2026-02-14","time":"20:11:24"},{"task":"memory_phase","broad_category":"M","image_png":"M_Gneiss_06.png","image_id":198,"category_name":"Gneiss","category":13,"distinct_rating":2.65,"distinct_type":"Bottom","rt":null,"stimulus":"Stimuli_Rocks480/M_Gneiss_06.png","response":null,"trial_type":"image-keyboard-response","trial_index":10,"plugin_version":"2.1.0","time_elapsed":89399,"subject_id":"90833","group":"Group1","condition":"3_Rep","full_date":"2026-02-14T20:11:24.858Z","date":"2026-02-14","time":"20:11:24"},{"rt":null,"stimulus":"<p style=\"font-size: 50px; margin: 0; text-align: center;\">+</p>","response":null,"trial_type":"html-keyboard-response","trial_index":11,"plugin_version":"2.1.0","time_elapsed":90403,"subject_id":"90833","group":"Group1","condition":"3_Rep","full_date":"2026-02-14T20:11:24.858Z","date":"2026-02-14","time":"20:11:24"},{"task":"memory_phase","broad_category":"I","image_png":"I_Gabbro_16.png","image_id":64,"category_name":"Gabbro","category":4,"distinct_rating":2.52,"distinct_type":"Bottom","rt":null,"stimulus":"Stimuli_Rocks480/I_Gabbro_16.png","response":null,"trial_type":"image-keyboard-response","trial_index":12,"plugin_version":"2.1.0","time_elapsed":92907,"subject_id":"90833","group":"Group1","condition":"3_Rep","full_date":"2026-02-14T20:11:24.858Z","date":"2026-02-14","time":"20:11:24"},{"rt":null,"stimulus":"<p style=\"font-size: 50px; margin: 0; text-align: center;\">+</p>","response":null,"trial_type":"html-keyboard-response","trial_index":13,"plugin_version":"2.1.0","time_elapsed":93910,"subject_id":"90833","group":"Group1","condition":"3_Rep","full_date":"2026-02-14T20:11:24.858Z","date":"2026-02-14","time":"20:11:24"},{"task":"memory_phase","broad_category":"S","image_png":"S_Conglomerate_05.png","image_id":373,"category_name":"Conglomerate","category":24,"distinct_rating":7.32,"distinct_type":"Top","rt":null,"stimulus":"Stimuli_Rocks480/S_Conglomerate_05.png","response":null,"trial_type":"image-keyboard-response","trial_index":14,"plugin_version":"2.1.0","time_elapsed":96414,"subject_id":"90833","group":"Group1","condition":"3_Rep","full_date":"2026-02-14T20:11:24.858Z","date":"2026-02-14","time":"20:11:24"},{"rt":null,"stimulus":"<p style=\"font-size: 50px; margin: 0; text-align: center;\">+</p>","response":null,"trial_type":"html-keyboard-response","trial_index":15,"plugin_version":"2.1.0","time_elapsed":97417,"subject_id":"90833","group":"Group1","condition":"3_Rep","full_date":"2026-02-14T20:11:24.858Z","date":"2026-02-14","time":"20:11:24"},{"task":"memory_phase","broad_category":"S","image_png":"S_Rock Gypsum_04.png","image_id":420,"category_name":"Rock Gypsum","category":27,"distinct_rating":7.61,"distinct_type":"Top","rt":null,"stimulus":"Stimuli_Rocks480/S_Rock Gypsum_04.png","response":null,"trial_type":"image-keyboard-response","trial_index":16,"plugin_version":"2.1.0","time_elapsed":99921,"subject_id":"90833","group":"Group1","condition":"3_Rep","full_date":"2026-02-14T20:11:24.858Z","date":"2026-02-14","time":"20:11:24"},{"rt":null,"stimulus":"<p style=\"font-size: 50px; margin: 0; text-align: center;\">+</p>","response":null,"trial_type":"html-keyboard-response","trial_index":17,"plugin_version":"2.1.0","time_elapsed":100923,"subject_id":"90833","group":"Group1","condition":"3_Rep","full_date":"2026-02-14T20:11:24.858Z","date":"2026-02-14","time":"20:11:24"},{"task":"memory_phase","broad_category":"I","image_png":"I_Diorite_03.png","image_id":35,"category_name":"Diorite","category":3,"distinct_rating":3.14,"distinct_type":"Bottom","rt":null,"stimulus":"Stimuli_Rocks480/I_Diorite_03.png","response":null,"trial_type":"image-keyboard-response","trial_index":18,"plugin_version":"2.1.0","time_elapsed":103427,"subject_id":"90833","group":"Group1","condition":"3_Rep","full_date":"2026-02-14T20:11:24.858Z","date":"2026-02-14","time":"20:11:24"},{"rt":null,"stimulus":"<p style=\"font-size: 50px; margin: 0; text-align: center;\">+</p>","response":null,"trial_type":"html-keyboard-response","trial_index":19,"plugin_version":"2.1.0","time_elapsed":104430,"subject_id":"90833","group":"Group1","condition":"3_Rep","full_date":"2026-02-14T20:11:24.858Z","date":"2026-02-14","time":"20:11:24"},{"task":"memory_phase","broad_category":"M","image_png":"M_Gneiss_13.png","image_id":205,"category_name":"Gneiss","category":13,"distinct_rating":3.26,"distinct_type":"Bottom","rt":null,"stimulus":"Stimuli_Rocks480/M_Gneiss_13.png","response":null,"trial_type":"image-keyboard-response","trial_index":20,"plugin_version":"2.1.0","time_elapsed":106935,"subject_id":"90833","group":"Group1","condition":"3_Rep","full_date":"2026-02-14T20:11:24.858Z","date":"2026-02-14","time":"20:11:24"},{"rt":null,"stimulus":"<p style=\"font-size: 50px; margin: 0; text-align: center;\">+</p>","response":null,"trial_type":"html-keyboard-response","trial_index":21,"plugin_version":"2.1.0","time_elapsed":107938,"subject_id":"90833","group":"Group1","condition":"3_Rep","full_date":"2026-02-14T20:11:24.858Z","date":"2026-02-14","time":"20:11:24"},{"task":"memory_phase","broad_category":"S","image_png":"S_Shale_08.png","image_id":472,"category_name":"Shale","category":30,"distinct_rating":2.55,"distinct_type":"Bottom","rt":null,"stimulus":"Stimuli_Rocks480/S_Shale_08.png","response":null,"trial_type":"image-keyboard-response","trial_index":22,"plugin_version":"2.1.0","time_elapsed":110442,"subject_id":"90833","group":"Group1","condition":"3_Rep","full_date":"2026-02-14T20:11:24.858Z","date":"2026-02-14","time":"20:11:24"},{"rt":null,"stimulus":"<p style=\"font-size: 50px; margin: 0; text-align: center;\">+</p>","response":null,"trial_type":"html-keyboard-response","trial_index":23,"plugin_version":"2.1.0","time_elapsed":111445,"subject_id":"90833","group":"Group1","condition":"3_Rep","full_date":"2026-02-14T20:11:24.858Z","date":"2026-02-14","time":"20:11:24"},{"task":"memory_phase","broad_category":"M","image_png":"M_Slate_15.png","image_id":319,"category_name":"Slate","category":20,"distinct_rating":2.13,"distinct_type":"Bottom","rt":null,"stimulus":"Stimuli_Rocks480/M_Slate_15.png","response":null,"trial_type":"image-keyboard-response","trial_index":24,"plugin_version":"2.1.0","time_elapsed":113949,"subject_id":"90833","group":"Group1","condition":"3_Rep","full_date":"2026-02-14T20:11:24.858Z","date":"2026-02-14","time":"20:11:24"},{"rt":null,"stimulus":"<p style=\"font-size: 50px; margin: 0; text-align: center;\">+</p>","response":null,"trial_type":"html-keyboard-response","trial_index":25,"plugin_version":"2.1.0","time_elapsed":114952,"subject_id":"90833","group":"Group1","condition":"3_Rep","full_date":"2026-02-14T20:11:24.858Z","date":"2026-02-14","time":"20:11:24"},{"task":"memory_phase","broad_category":"I","image_png":"I_Basalt_09.png","image_id":25,"category_name":"Basalt","category":2,"distinct_rating":1.89,"distinct_type":"Bottom","rt":null,"stimulus":"Stimuli_Rocks480/I_Basalt_09.png","response":null,"trial_type":"image-keyboard-response","trial_index":26,"plugin_version":"2.1.0","time_elapsed":117455,"subject_id":"90833","group":"Group1","condition":"3_Rep","full_date":"2026-02-14T20:11:24.858Z","date":"2026-02-14","time":"20:11:24"},{"rt":null,"stimulus":"<p style=\"font-size: 50px; margin: 0; text-align: center;\">+</p>","response":null,"trial_type":"html-keyboard-response","trial_index":27,"plugin_version":"2.1.0","time_elapsed":118459,"subject_id":"90833","group":"Group1","condition":"3_Rep","full_date":"2026-02-14T20:11:24.858Z","date":"2026-02-14","time":"20:11:24"},{"task":"memory_phase","broad_category":"I","image_png":"I_Diorite_04.png","image_id":36,"category_name":"Diorite","category":3,"distinct_rating":2.98,"distinct_type":"Bottom","rt":null,"stimulus":"Stimuli_Rocks480/I_Diorite_04.png","response":null,"trial_type":"image-keyboard-response","trial_index":28,"plugin_version":"2.1.0","time_elapsed":120962,"subject_id":"90833","group":"Group1","condition":"3_Rep","full_date":"2026-02-14T20:11:24.858Z","date":"2026-02-14","time":"20:11:24"},{"rt":null,"stimulus":"<p style=\"font-size: 50px; margin: 0; text-align: center;\">+</p>","response":null,"trial_type":"html-keyboard-response","trial_index":29,"plugin_version":"2.1.0","time_elapsed":121965,"subject_id":"90833","group":"Group1","condition":"3_Rep","full_date":"2026-02-14T20:11:24.858Z","date":"2026-02-14","time":"20:11:24"},{"task":"memory_phase","broad_category":"M","image_png":"M_Quartzite_08.png","image_id":280,"category_name":"Quartzite","category":18,"distinct_rating":2.15,"distinct_type":"Bottom","rt":null,"stimulus":"Stimuli_Rocks480/M_Quartzite_08.png","response":null,"trial_type":"image-keyboard-response","trial_index":30,"plugin_version":"2.1.0","time_elapsed":124469,"subject_id":"90833","group":"Group1","condition":"3_Rep","full_date":"2026-02-14T20:11:24.858Z","date":"2026-02-14","time":"20:11:24"},{"rt":null,"stimulus":"<p style=\"font-size: 50px; margin: 0; text-align: center;\">+</p>","response":null,"trial_type":"html-keyboard-response","trial_index":31,"plugin_version":"2.1.0","time_elapsed":125471,"subject_id":"90833","group":"Group1","condition":"3_Rep","full_date":"2026-02-14T20:11:24.858Z","date":"2026-02-14","time":"20:11:24"},{"task":"memory_phase","broad_category":"I","image_png":"I_Andesite_06.png","image_id":6,"category_name":"Andesite","category":1,"distinct_rating":3.17,"distinct_type":"Bottom","rt":null,"stimulus":"Stimuli_Rocks480/I_Andesite_06.png","response":null,"trial_type":"image-keyboard-response","trial_index":32,"plugin_version":"2.1.0","time_elapsed":127975,"subject_id":"90833","group":"Group1","condition":"3_Rep","full_date":"2026-02-14T20:11:24.858Z","date":"2026-02-14","time":"20:11:24"},{"rt":null,"stimulus":"<p style=\"font-size: 50px; margin: 0; text-align: center;\">+</p>","response":null,"trial_type":"html-keyboard-response","trial_index":33,"plugin_version":"2.1.0","time_elapsed":128978,"subject_id":"90833","group":"Group1","condition":"3_Rep","full_date":"2026-02-14T20:11:24.858Z","date":"2026-02-14","time":"20:11:24"},{"task":"memory_phase","broad_category":"I","image_png":"I_Diorite_05.png","image_id":37,"category_name":"Diorite","category":3,"distinct_rating":3.08,"distinct_type":"Bottom","rt":null,"stimulus":"Stimuli_Rocks480/I_Diorite_05.png","response":null,"trial_type":"image-keyboard-response","trial_index":34,"plugin_version":"2.1.0","time_elapsed":131482,"subject_id":"90833","group":"Group1","condition":"3_Rep","full_date":"2026-02-14T20:11:24.858Z","date":"2026-02-14","time":"20:11:24"},{"rt":null,"stimulus":"<p style=\"font-size: 50px; margin: 0; text-align: center;\">+</p>","response":null,"trial_type":"html-keyboard-response","trial_index":35,"plugin_version":"2.1.0","time_elapsed":132485,"subject_id":"90833","group":"Group1","condition":"3_Rep","full_date":"2026-02-14T20:11:24.858Z","date":"2026-02-14","time":"20:11:24"},{"task":"memory_phase","broad_category":"S","image_png":"S_Dolomite_13.png","image_id":397,"category_name":"Dolomite","category":25,"distinct_rating":1.77,"distinct_type":"Bottom","rt":null,"stimulus":"Stimuli_Rocks480/S_Dolomite_13.png","response":null,"trial_type":"image-keyboard-response","trial_index":36,"plugin_version":"2.1.0","time_elapsed":134989,"subject_id":"90833","group":"Group1","condition":"3_Rep","full_date":"2026-02-14T20:11:24.858Z","date":"2026-02-14","time":"20:11:24"},{"rt":null,"stimulus":"<p style=\"font-size: 50px; margin: 0; text-align: center;\">+</p>","response":null,"trial_type":"html-keyboard-response","trial_index":37,"plugin_version":"2.1.0","time_elapsed":135993,"subject_id":"90833","group":"Group1","condition":"3_Rep","full_date":"2026-02-14T20:11:24.858Z","date":"2026-02-14","time":"20:11:24"},{"task":"memory_phase","broad_category":"M","image_png":"M_Slate_03.png","image_id":307,"category_name":"Slate","category":20,"distinct_rating":1.87,"distinct_type":"Bottom","rt":null,"stimulus":"Stimuli_Rocks480/M_Slate_03.png","response":null,"trial_type":"image-keyboard-response","trial_index":38,"plugin_version":"2.1.0","time_elapsed":138497,"subject_id":"90833","group":"Group1","condition":"3_Rep","full_date":"2026-02-14T20:11:24.858Z","date":"2026-02-14","time":"20:11:24"},{"rt":null,"stimulus":"<p style=\"font-size: 50px; margin: 0; text-align: center;\">+</p>","response":null,"trial_type":"html-keyboard-response","trial_index":39,"plugin_version":"2.1.0","time_elapsed":139499,"subject_id":"90833","group":"Group1","condition":"3_Rep","full_date":"2026-02-14T20:11:24.858Z","date":"2026-02-14","time":"20:11:24"},{"task":"memory_phase","broad_category":"S","image_png":"S_Dolomite_14.png","image_id":398,"category_name":"Dolomite","category":25,"distinct_rating":1.43,"distinct_type":"Bottom","rt":null,"stimulus":"Stimuli_Rocks480/S_Dolomite_14.png","response":null,"trial_type":"image-keyboard-response","trial_index":40,"plugin_version":"2.1.0","time_elapsed":142003,"subject_id":"90833","group":"Group1","condition":"3_Rep","full_date":"2026-02-14T20:11:24.858Z","date":"2026-02-14","time":"20:11:24"},{"rt":null,"stimulus":"<p style=\"font-size: 50px; margin: 0; text-align: center;\">+</p>","response":null,"trial_type":"html-keyboard-response","trial_index":41,"plugin_version":"2.1.0","time_elapsed":143006,"subject_id":"90833","group":"Group1","condition":"3_Rep","full_date":"2026-02-14T20:11:24.858Z","date":"2026-02-14","time":"20:11:24"},{"task":"memory_phase","broad_category":"M","image_png":"M_Quartzite_13.png","image_id":285,"category_name":"Quartzite","category":18,"distinct_rating":2.27,"distinct_type":"Bottom","rt":null,"stimulus":"Stimuli_Rocks480/M_Quartzite_13.png","response":null,"trial_type":"image-keyboard-response","trial_index":42,"plugin_version":"2.1.0","time_elapsed":145510,"subject_id":"90833","group":"Group1","condition":"3_Rep","full_date":"2026-02-14T20:11:24.858Z","date":"2026-02-14","time":"20:11:24"},{"rt":null,"stimulus":"<p style=\"font-size: 50px; margin: 0; text-align: center;\">+</p>","response":null,"trial_type":"html-keyboard-response","trial_index":43,"plugin_version":"2.1.0","time_elapsed":146513,"subject_id":"90833","group":"Group1","condition":"3_Rep","full_date":"2026-02-14T20:11:24.858Z","date":"2026-02-14","time":"20:11:24"},{"task":"memory_phase","broad_category":"M","image_png":"M_Marble_16.png","image_id":240,"category_name":"Marble","category":15,"distinct_rating":2.57,"distinct_type":"Bottom","rt":null,"stimulus":"Stimuli_Rocks480/M_Marble_16.png","response":null,"trial_type":"image-keyboard-response","trial_index":44,"plugin_version":"2.1.0","time_elapsed":149017,"subject_id":"90833","group":"Group1","condition":"3_Rep","full_date":"2026-02-14T20:11:24.858Z","date":"2026-02-14","time":"20:11:24"},{"rt":null,"stimulus":"<p style=\"font-size: 50px; margin: 0; text-align: center;\">+</p>","response":null,"trial_type":"html-keyboard-response","trial_index":45,"plugin_version":"2.1.0","time_elapsed":150019,"subject_id":"90833","group":"Group1","condition":"3_Rep","full_date":"2026-02-14T20:11:24.858Z","date":"2026-02-14","time":"20:11:24"},{"task":"memory_phase","broad_category":"S","image_png":"S_Dolomite_12.png","image_id":396,"category_name":"Dolomite","category":25,"distinct_rating":1.85,"distinct_type":"Bottom","rt":null,"stimulus":"Stimuli_Rocks480/S_Dolomite_12.png","response":null,"trial_type":"image-keyboard-response","trial_index":46,"plugin_version":"2.1.0","time_elapsed":152523,"subject_id":"90833","group":"Group1","condition":"3_Rep","full_date":"2026-02-14T20:11:24.858Z","date":"2026-02-14","time":"20:11:24"},{"rt":null,"stimulus":"<p style=\"font-size: 50px; margin: 0; text-align: center;\">+</p>","response":null,"trial_type":"html-keyboard-response","trial_index":47,"plugin_version":"2.1.0","time_elapsed":153526,"subject_id":"90833","group":"Group1","condition":"3_Rep","full_date":"2026-02-14T20:11:24.858Z","date":"2026-02-14","time":"20:11:24"},{"task":"memory_phase","broad_category":"M","image_png":"M_Slate_11.png","image_id":315,"category_name":"Slate","category":20,"distinct_rating":2.75,"distinct_type":"Bottom","rt":null,"stimulus":"Stimuli_Rocks480/M_Slate_11.png","response":null,"trial_type":"image-keyboard-response","trial_index":48,"plugin_version":"2.1.0","time_elapsed":156031,"subject_id":"90833","group":"Group1","condition":"3_Rep","full_date":"2026-02-14T20:11:24.858Z","date":"2026-02-14","time":"20:11:24"},{"rt":null,"stimulus":"<p style=\"font-size: 50px; margin: 0; text-align: center;\">+</p>","response":null,"trial_type":"html-keyboard-response","trial_index":49,"plugin_version":"2.1.0","time_elapsed":157033,"subject_id":"90833","group":"Group1","condition":"3_Rep","full_date":"2026-02-14T20:11:24.858Z","date":"2026-02-14","time":"20:11:24"},{"task":"memory_phase","broad_category":"I","image_png":"I_Rhyolite_11.png","image_id":155,"category_name":"Rhyolite","category":10,"distinct_rating":1.73,"distinct_type":"Bottom","rt":null,"stimulus":"Stimuli_Rocks480/I_Rhyolite_11.png","response":null,"trial_type":"image-keyboard-response","trial_index":50,"plugin_version":"2.1.0","time_elapsed":159537,"subject_id":"90833","group":"Group1","condition":"3_Rep","full_date":"2026-02-14T20:11:24.858Z","date":"2026-02-14","time":"20:11:24"},{"rt":null,"stimulus":"<p style=\"font-size: 50px; margin: 0; text-align: center;\">+</p>","response":null,"trial_type":"html-keyboard-response","trial_index":51,"plugin_version":"2.1.0","time_elapsed":160539,"subject_id":"90833","group":"Group1","condition":"3_Rep","full_date":"2026-02-14T20:11:24.858Z","date":"2026-02-14","time":"20:11:24"},{"task":"memory_phase","broad_category":"I","image_png":"I_Andesite_08.png","image_id":8,"category_name":"Andesite","category":1,"distinct_rating":1.95,"distinct_type":"Bottom","rt":null,"stimulus":"Stimuli_Rocks480/I_Andesite_08.png","response":null,"trial_type":"image-keyboard-response","trial_index":52,"plugin_version":"2.1.0","time_elapsed":163044,"subject_id":"90833","group":"Group1","condition":"3_Rep","full_date":"2026-02-14T20:11:24.858Z","date":"2026-02-14","time":"20:11:24"},{"rt":null,"stimulus":"<p style=\"font-size: 50px; margin: 0; text-align: center;\">+</p>","response":null,"trial_type":"html-keyboard-response","trial_index":53,"plugin_version":"2.1.0","time_elapsed":164047,"subject_id":"90833","group":"Group1","condition":"3_Rep","full_date":"2026-02-14T20:11:24.858Z","date":"2026-02-14","time":"20:11:24"},{"task":"memory_phase","broad_category":"I","image_png":"I_Gabbro_08.png","image_id":56,"category_name":"Gabbro","category":4,"distinct_rating":3.02,"distinct_type":"Bottom","rt":null,"stimulus":"Stimuli_Rocks480/I_Gabbro_08.png","response":null,"trial_type":"image-keyboard-response","trial_index":54,"plugin_version":"2.1.0","time_elapsed":166551,"subject_id":"90833","group":"Group1","condition":"3_Rep","full_date":"2026-02-14T20:11:24.858Z","date":"2026-02-14","time":"20:11:24"},{"rt":2086,"stimulus":"<p style=\"max-width: 760px; margin: auto; font-size: 35px; line-height: 1.5;\">\n                Press SPACE to continue study phase\n              </p>","response":" ","trial_type":"html-keyboard-response","trial_index":55,"plugin_version":"2.1.0","time_elapsed":168639,"subject_id":"90833","group":"Group1","condition":"3_Rep","full_date":"2026-02-14T20:11:24.858Z","date":"2026-02-14","time":"20:11:24"},{"rt":null,"stimulus":"<p style=\"font-size: 50px; margin: 0; text-align: center;\">+</p>","response":null,"trial_type":"html-keyboard-response","trial_index":56,"plugin_version":"2.1.0","time_elapsed":169642,"subject_id":"90833","group":"Group1","condition":"3_Rep","full_date":"2026-02-14T20:11:24.858Z","date":"2026-02-14","time":"20:11:24"},{"task":"memory_phase","broad_category":"I","image_png":"I_Pegmatite_16.png","image_id":112,"category_name":"Pegmatite","category":7,"distinct_rating":7.03,"distinct_type":"Top","rt":null,"stimulus":"Stimuli_Rocks480/I_Pegmatite_16.png","response":null,"trial_type":"image-keyboard-response","trial_index":57,"plugin_version":"2.1.0","time_elapsed":172146,"subject_id":"90833","group":"Group1","condition":"3_Rep","full_date":"2026-02-14T20:11:24.858Z","date":"2026-02-14","time":"20:11:24"},{"rt":null,"stimulus":"<p style=\"font-size: 50px; margin: 0; text-align: center;\">+</p>","response":null,"trial_type":"html-keyboard-response","trial_index":58,"plugin_version":"2.1.0","time_elapsed":173150,"subject_id":"90833","group":"Group1","condition":"3_Rep","full_date":"2026-02-14T20:11:24.858Z","date":"2026-02-14","time":"20:11:24"},{"task":"memory_phase","broad_category":"M","image_png":"M_Phyllite_10.png","image_id":266,"category_name":"Phyllite","category":17,"distinct_rating":2.6,"distinct_type":"Bottom","rt":null,"stimulus":"Stimuli_Rocks480/M_Phyllite_10.png","response":null,"trial_type":"image-keyboard-response","trial_index":59,"plugin_version":"2.1.0","time_elapsed":175654,"subject_id":"90833","group":"Group1","condition":"3_Rep","full_date":"2026-02-14T20:11:24.858Z","date":"2026-02-14","time":"20:11:24"},{"rt":null,"stimulus":"<p style=\"font-size: 50px; margin: 0; text-align: center;\">+</p>","response":null,"trial_type":"html-keyboard-response","trial_index":60,"plugin_version":"2.1.0","time_elapsed":176657,"subject_id":"90833","group":"Group1","condition":"3_Rep","full_date":"2026-02-14T20:11:24.858Z","date":"2026-02-14","time":"20:11:24"},{"task":"memory_phase","broad_category":"I","image_png":"I_Obsidian_05.png","image_id":85,"category_name":"Obsidian","category":6,"distinct_rating":7.32,"distinct_type":"Top","rt":null,"stimulus":"Stimuli_Rocks480/I_Obsidian_05.png","response":null,"trial_type":"image-keyboard-response","trial_index":61,"plugin_version":"2.1.0","time_elapsed":179161,"subject_id":"90833","group":"Group1","condition":"3_Rep","full_date":"2026-02-14T20:11:24.858Z","date":"2026-02-14","time":"20:11:24"},{"rt":null,"stimulus":"<p style=\"font-size: 50px; margin: 0; text-align: center;\">+</p>","response":null,"trial_type":"html-keyboard-response","trial_index":62,"plugin_version":"2.1.0","time_elapsed":180165,"subject_id":"90833","group":"Group1","condition":"3_Rep","full_date":"2026-02-14T20:11:24.858Z","date":"2026-02-14","time":"20:11:24"},{"task":"memory_phase","broad_category":"I","image_png":"I_Basalt_02.png","image_id":18,"category_name":"Basalt","category":2,"distinct_rating":1.84,"distinct_type":"Bottom","rt":null,"stimulus":"Stimuli_Rocks480/I_Basalt_02.png","response":null,"trial_type":"image-keyboard-response","trial_index":63,"plugin_version":"2.1.0","time_elapsed":182669,"subject_id":"90833","group":"Group1","condition":"3_Rep","full_date":"2026-02-14T20:11:24.858Z","date":"2026-02-14","time":"20:11:24"},{"rt":null,"stimulus":"<p style=\"font-size: 50px; margin: 0; text-align: center;\">+</p>","response":null,"trial_type":"html-keyboard-response","trial_index":64,"plugin_version":"2.1.0","time_elapsed":183672,"subject_id":"90833","group":"Group1","condition":"3_Rep","full_date":"2026-02-14T20:11:24.858Z","date":"2026-02-14","time":"20:11:24"},{"task":"memory_phase","broad_category":"M","image_png":"M_Gneiss_05.png","image_id":197,"category_name":"Gneiss","category":13,"distinct_rating":2.97,"distinct_type":"Bottom","rt":null,"stimulus":"Stimuli_Rocks480/M_Gneiss_05.png","response":null,"trial_type":"image-keyboard-response","trial_index":65,"plugin_version":"2.1.0","time_elapsed":186175,"subject_id":"90833","group":"Group1","condition":"3_Rep","full_date":"2026-02-14T20:11:24.858Z","date":"2026-02-14","time":"20:11:24"},{"rt":null,"stimulus":"<p style=\"font-size: 50px; margin: 0; text-align: center;\">+</p>","response":null,"trial_type":"html-keyboard-response","trial_index":66,"plugin_version":"2.1.0","time_elapsed":187178,"subject_id":"90833","group":"Group1","condition":"3_Rep","full_date":"2026-02-14T20:11:24.858Z","date":"2026-02-14","time":"20:11:24"},{"task":"memory_phase","broad_category":"M","image_png":"M_Phyllite_03.png","image_id":259,"category_name":"Phyllite","category":17,"distinct_rating":2.5,"distinct_type":"Bottom","rt":null,"stimulus":"Stimuli_Rocks480/M_Phyllite_03.png","response":null,"trial_type":"image-keyboard-response","trial_index":67,"plugin_version":"2.1.0","time_elapsed":189682,"subject_id":"90833","group":"Group1","condition":"3_Rep","full_date":"2026-02-14T20:11:24.858Z","date":"2026-02-14","time":"20:11:24"},{"rt":null,"stimulus":"<p style=\"font-size: 50px; margin: 0; text-align: center;\">+</p>","response":null,"trial_type":"html-keyboard-response","trial_index":68,"plugin_version":"2.1.0","time_elapsed":190684,"subject_id":"90833","group":"Group1","condition":"3_Rep","full_date":"2026-02-14T20:11:24.858Z","date":"2026-02-14","time":"20:11:24"},{"task":"memory_phase","broad_category":"I","image_png":"I_Rhyolite_16.png","image_id":160,"category_name":"Rhyolite","category":10,"distinct_rating":2.19,"distinct_type":"Bottom","rt":null,"stimulus":"Stimuli_Rocks480/I_Rhyolite_16.png","response":null,"trial_type":"image-keyboard-response","trial_index":69,"plugin_version":"2.1.0","time_elapsed":193188,"subject_id":"90833","group":"Group1","condition":"3_Rep","full_date":"2026-02-14T20:11:24.858Z","date":"2026-02-14","time":"20:11:24"},{"rt":null,"stimulus":"<p style=\"font-size: 50px; margin: 0; text-align: center;\">+</p>","response":null,"trial_type":"html-keyboard-response","trial_index":70,"plugin_version":"2.1.0","time_elapsed":194191,"subject_id":"90833","group":"Group1","condition":"3_Rep","full_date":"2026-02-14T20:11:24.858Z","date":"2026-02-14","time":"20:11:24"},{"task":"memory_phase","broad_category":"S","image_png":"S_Sandstone_16.png","image_id":464,"category_name":"Sandstone","category":29,"distinct_rating":1.93,"distinct_type":"Bottom","rt":null,"stimulus":"Stimuli_Rocks480/S_Sandstone_16.png","response":null,"trial_type":"image-keyboard-response","trial_index":71,"plugin_version":"2.1.0","time_elapsed":196696,"subject_id":"90833","group":"Group1","condition":"3_Rep","full_date":"2026-02-14T20:11:24.858Z","date":"2026-02-14","time":"20:11:24"},{"rt":null,"stimulus":"<p style=\"font-size: 50px; margin: 0; text-align: center;\">+</p>","response":null,"trial_type":"html-keyboard-response","trial_index":72,"plugin_version":"2.1.0","time_elapsed":197699,"subject_id":"90833","group":"Group1","condition":"3_Rep","full_date":"2026-02-14T20:11:24.858Z","date":"2026-02-14","time":"20:11:24"},{"task":"memory_phase","broad_category":"I","image_png":"I_Pumice_08.png","image_id":136,"category_name":"Pumice","category":9,"distinct_rating":3.1,"distinct_type":"Bottom","rt":null,"stimulus":"Stimuli_Rocks480/I_Pumice_08.png","response":null,"trial_type":"image-keyboard-response","trial_index":73,"plugin_version":"2.1.0","time_elapsed":200202,"subject_id":"90833","group":"Group1","condition":"3_Rep","full_date":"2026-02-14T20:11:24.858Z","date":"2026-02-14","time":"20:11:24"},{"rt":null,"stimulus":"<p style=\"font-size: 50px; margin: 0; text-align: center;\">+</p>","response":null,"trial_type":"html-keyboard-response","trial_index":74,"plugin_version":"2.1.0","time_elapsed":201205,"subject_id":"90833","group":"Group1","condition":"3_Rep","full_date":"2026-02-14T20:11:24.858Z","date":"2026-02-14","time":"20:11:24"},{"task":"memory_phase","broad_category":"S","image_png":"S_Shale_01.png","image_id":465,"category_name":"Shale","category":30,"distinct_rating":2.7,"distinct_type":"Bottom","rt":null,"stimulus":"Stimuli_Rocks480/S_Shale_01.png","response":null,"trial_type":"image-keyboard-response","trial_index":75,"plugin_version":"2.1.0","time_elapsed":203709,"subject_id":"90833","group":"Group1","condition":"3_Rep","full_date":"2026-02-14T20:11:24.858Z","date":"2026-02-14","time":"20:11:24"},{"rt":null,"stimulus":"<p style=\"font-size: 50px; margin: 0; text-align: center;\">+</p>","response":null,"trial_type":"html-keyboard-response","trial_index":76,"plugin_version":"2.1.0","time_elapsed":204712,"subject_id":"90833","group":"Group1","condition":"3_Rep","full_date":"2026-02-14T20:11:24.858Z","date":"2026-02-14","time":"20:11:24"},{"task":"memory_phase","broad_category":"S","image_png":"S_Breccia_11.png","image_id":347,"category_name":"Breccia","category":22,"distinct_rating":6.7,"distinct_type":"Top","rt":null,"stimulus":"Stimuli_Rocks480/S_Breccia_11.png","response":null,"trial_type":"image-keyboard-response","trial_index":77,"plugin_version":"2.1.0","time_elapsed":207217,"subject_id":"90833","group":"Group1","condition":"3_Rep","full_date":"2026-02-14T20:11:24.858Z","date":"2026-02-14","time":"20:11:24"},{"rt":null,"stimulus":"<p style=\"font-size: 50px; margin: 0; text-align: center;\">+</p>","response":null,"trial_type":"html-keyboard-response","trial_index":78,"plugin_version":"2.1.0","time_elapsed":208219,"subject_id":"90833","group":"Group1","condition":"3_Rep","full_date":"2026-02-14T20:11:24.858Z","date":"2026-02-14","time":"20:11:24"},{"task":"memory_phase","broad_category":"I","image_png":"I_Pegmatite_10.png","image_id":106,"category_name":"Pegmatite","category":7,"distinct_rating":7.66,"distinct_type":"Top","rt":null,"stimulus":"Stimuli_Rocks480/I_Pegmatite_10.png","response":null,"trial_type":"image-keyboard-response","trial_index":79,"plugin_version":"2.1.0","time_elapsed":210722,"subject_id":"90833","group":"Group1","condition":"3_Rep","full_date":"2026-02-14T20:11:24.858Z","date":"2026-02-14","time":"20:11:24"},{"rt":null,"stimulus":"<p style=\"font-size: 50px; margin: 0; text-align: center;\">+</p>","response":null,"trial_type":"html-keyboard-response","trial_index":80,"plugin_version":"2.1.0","time_elapsed":211725,"subject_id":"90833","group":"Group1","condition":"3_Rep","full_date":"2026-02-14T20:11:24.858Z","date":"2026-02-14","time":"20:11:24"},{"task":"memory_phase","broad_category":"I","image_png":"I_Rhyolite_14.png","image_id":158,"category_name":"Rhyolite","category":10,"distinct_rating":2.59,"distinct_type":"Bottom","rt":null,"stimulus":"Stimuli_Rocks480/I_Rhyolite_14.png","response":null,"trial_type":"image-keyboard-response","trial_index":81,"plugin_version":"2.1.0","time_elapsed":214229,"subject_id":"90833","group":"Group1","condition":"3_Rep","full_date":"2026-02-14T20:11:24.858Z","date":"2026-02-14","time":"20:11:24"},{"rt":null,"stimulus":"<p style=\"font-size: 50px; margin: 0; text-align: center;\">+</p>","response":null,"trial_type":"html-keyboard-response","trial_index":82,"plugin_version":"2.1.0","time_elapsed":215231,"subject_id":"90833","group":"Group1","condition":"3_Rep","full_date":"2026-02-14T20:11:24.858Z","date":"2026-02-14","time":"20:11:24"},{"task":"memory_phase","broad_category":"M","image_png":"M_Marble_04.png","image_id":228,"category_name":"Marble","category":15,"distinct_rating":3.15,"distinct_type":"Bottom","rt":null,"stimulus":"Stimuli_Rocks480/M_Marble_04.png","response":null,"trial_type":"image-keyboard-response","trial_index":83,"plugin_version":"2.1.0","time_elapsed":217735,"subject_id":"90833","group":"Group1","condition":"3_Rep","full_date":"2026-02-14T20:11:24.858Z","date":"2026-02-14","time":"20:11:24"},{"rt":null,"stimulus":"<p style=\"font-size: 50px; margin: 0; text-align: center;\">+</p>","response":null,"trial_type":"html-keyboard-response","trial_index":84,"plugin_version":"2.1.0","time_elapsed":218738,"subject_id":"90833","group":"Group1","condition":"3_Rep","full_date":"2026-02-14T20:11:24.858Z","date":"2026-02-14","time":"20:11:24"},{"task":"memory_phase","broad_category":"I","image_png":"I_Basalt_01.png","image_id":17,"category_name":"Basalt","category":2,"distinct_rating":1.92,"distinct_type":"Bottom","rt":null,"stimulus":"Stimuli_Rocks480/I_Basalt_01.png","response":null,"trial_type":"image-keyboard-response","trial_index":85,"plugin_version":"2.1.0","time_elapsed":221241,"subject_id":"90833","group":"Group1","condition":"3_Rep","full_date":"2026-02-14T20:11:24.858Z","date":"2026-02-14","time":"20:11:24"},{"rt":null,"stimulus":"<p style=\"font-size: 50px; margin: 0; text-align: center;\">+</p>","response":null,"trial_type":"html-keyboard-response","trial_index":86,"plugin_version":"2.1.0","time_elapsed":222243,"subject_id":"90833","group":"Group1","condition":"3_Rep","full_date":"2026-02-14T20:11:24.858Z","date":"2026-02-14","time":"20:11:24"},{"task":"memory_phase","broad_category":"I","image_png":"I_Pumice_11.png","image_id":139,"category_name":"Pumice","category":9,"distinct_rating":1.74,"distinct_type":"Bottom","rt":null,"stimulus":"Stimuli_Rocks480/I_Pumice_11.png","response":null,"trial_type":"image-keyboard-response","trial_index":87,"plugin_version":"2.1.0","time_elapsed":224747,"subject_id":"90833","group":"Group1","condition":"3_Rep","full_date":"2026-02-14T20:11:24.858Z","date":"2026-02-14","time":"20:11:24"},{"rt":null,"stimulus":"<p style=\"font-size: 50px; margin: 0; text-align: center;\">+</p>","response":null,"trial_type":"html-keyboard-response","trial_index":88,"plugin_version":"2.1.0","time_elapsed":225750,"subject_id":"90833","group":"Group1","condition":"3_Rep","full_date":"2026-02-14T20:11:24.858Z","date":"2026-02-14","time":"20:11:24"},{"task":"memory_phase","broad_category":"S","image_png":"S_Sandstone_03.png","image_id":451,"category_name":"Sandstone","category":29,"distinct_rating":1.86,"distinct_type":"Bottom","rt":null,"stimulus":"Stimuli_Rocks480/S_Sandstone_03.png","response":null,"trial_type":"image-keyboard-response","trial_index":89,"plugin_version":"2.1.0","time_elapsed":228254,"subject_id":"90833","group":"Group1","condition":"3_Rep","full_date":"2026-02-14T20:11:24.858Z","date":"2026-02-14","time":"20:11:24"},{"rt":null,"stimulus":"<p style=\"font-size: 50px; margin: 0; text-align: center;\">+</p>","response":null,"trial_type":"html-keyboard-response","trial_index":90,"plugin_version":"2.1.0","time_elapsed":229257,"subject_id":"90833","group":"Group1","condition":"3_Rep","full_date":"2026-02-14T20:11:24.858Z","date":"2026-02-14","time":"20:11:24"},{"task":"memory_phase","broad_category":"S","image_png":"S_Chert_10.png","image_id":362,"category_name":"Chert","category":23,"distinct_rating":7.17,"distinct_type":"Top","rt":null,"stimulus":"Stimuli_Rocks480/S_Chert_10.png","response":null,"trial_type":"image-keyboard-response","trial_index":91,"plugin_version":"2.1.0","time_elapsed":231761,"subject_id":"90833","group":"Group1","condition":"3_Rep","full_date":"2026-02-14T20:11:24.858Z","date":"2026-02-14","time":"20:11:24"},{"rt":null,"stimulus":"<p style=\"font-size: 50px; margin: 0; text-align: center;\">+</p>","response":null,"trial_type":"html-keyboard-response","trial_index":92,"plugin_version":"2.1.0","time_elapsed":232763,"subject_id":"90833","group":"Group1","condition":"3_Rep","full_date":"2026-02-14T20:11:24.858Z","date":"2026-02-14","time":"20:11:24"},{"task":"memory_phase","broad_category":"M","image_png":"M_Marble_06.png","image_id":230,"category_name":"Marble","category":15,"distinct_rating":3.4,"distinct_type":"Bottom","rt":null,"stimulus":"Stimuli_Rocks480/M_Marble_06.png","response":null,"trial_type":"image-keyboard-response","trial_index":93,"plugin_version":"2.1.0","time_elapsed":235266,"subject_id":"90833","group":"Group1","condition":"3_Rep","full_date":"2026-02-14T20:11:24.858Z","date":"2026-02-14","time":"20:11:24"},{"rt":null,"stimulus":"<p style=\"font-size: 50px; margin: 0; text-align: center;\">+</p>","response":null,"trial_type":"html-keyboard-response","trial_index":94,"plugin_version":"2.1.0","time_elapsed":236268,"subject_id":"90833","group":"Group1","condition":"3_Rep","full_date":"2026-02-14T20:11:24.858Z","date":"2026-02-14","time":"20:11:24"},{"task":"memory_phase","broad_category":"I","image_png":"I_Gabbro_11.png","image_id":59,"category_name":"Gabbro","category":4,"distinct_rating":1.99,"distinct_type":"Bottom","rt":null,"stimulus":"Stimuli_Rocks480/I_Gabbro_11.png","response":null,"trial_type":"image-keyboard-response","trial_index":95,"plugin_version":"2.1.0","time_elapsed":238772,"subject_id":"90833","group":"Group1","condition":"3_Rep","full_date":"2026-02-14T20:11:24.858Z","date":"2026-02-14","time":"20:11:24"},{"rt":null,"stimulus":"<p style=\"font-size: 50px; margin: 0; text-align: center;\">+</p>","response":null,"trial_type":"html-keyboard-response","trial_index":96,"plugin_version":"2.1.0","time_elapsed":239774,"subject_id":"90833","group":"Group1","condition":"3_Rep","full_date":"2026-02-14T20:11:24.858Z","date":"2026-02-14","time":"20:11:24"},{"task":"memory_phase","broad_category":"M","image_png":"M_Quartzite_05.png","image_id":277,"category_name":"Quartzite","category":18,"distinct_rating":2.23,"distinct_type":"Bottom","rt":null,"stimulus":"Stimuli_Rocks480/M_Quartzite_05.png","response":null,"trial_type":"image-keyboard-response","trial_index":97,"plugin_version":"2.1.0","time_elapsed":242277,"subject_id":"90833","group":"Group1","condition":"3_Rep","full_date":"2026-02-14T20:11:24.858Z","date":"2026-02-14","time":"20:11:24"},{"rt":null,"stimulus":"<p style=\"font-size: 50px; margin: 0; text-align: center;\">+</p>","response":null,"trial_type":"html-keyboard-response","trial_index":98,"plugin_version":"2.1.0","time_elapsed":243280,"subject_id":"90833","group":"Group1","condition":"3_Rep","full_date":"2026-02-14T20:11:24.858Z","date":"2026-02-14","time":"20:11:24"},{"task":"memory_phase","broad_category":"I","image_png":"I_Pumice_12.png","image_id":140,"category_name":"Pumice","category":9,"distinct_rating":2.97,"distinct_type":"Bottom","rt":null,"stimulus":"Stimuli_Rocks480/I_Pumice_12.png","response":null,"trial_type":"image-keyboard-response","trial_index":99,"plugin_version":"2.1.0","time_elapsed":245783,"subject_id":"90833","group":"Group1","condition":"3_Rep","full_date":"2026-02-14T20:11:24.858Z","date":"2026-02-14","time":"20:11:24"},{"rt":null,"stimulus":"<p style=\"font-size: 50px; margin: 0; text-align: center;\">+</p>","response":null,"trial_type":"html-keyboard-response","trial_index":100,"plugin_version":"2.1.0","time_elapsed":246785,"subject_id":"90833","group":"Group1","condition":"3_Rep","full_date":"2026-02-14T20:11:24.858Z","date":"2026-02-14","time":"20:11:24"},{"task":"memory_phase","broad_category":"S","image_png":"S_Shale_12.png","image_id":476,"category_name":"Shale","category":30,"distinct_rating":2.48,"distinct_type":"Bottom","rt":null,"stimulus":"Stimuli_Rocks480/S_Shale_12.png","response":null,"trial_type":"image-keyboard-response","trial_index":101,"plugin_version":"2.1.0","time_elapsed":249289,"subject_id":"90833","group":"Group1","condition":"3_Rep","full_date":"2026-02-14T20:11:24.858Z","date":"2026-02-14","time":"20:11:24"},{"rt":null,"stimulus":"<p style=\"font-size: 50px; margin: 0; text-align: center;\">+</p>","response":null,"trial_type":"html-keyboard-response","trial_index":102,"plugin_version":"2.1.0","time_elapsed":250292,"subject_id":"90833","group":"Group1","condition":"3_Rep","full_date":"2026-02-14T20:11:24.858Z","date":"2026-02-14","time":"20:11:24"},{"task":"memory_phase","broad_category":"M","image_png":"M_Phyllite_07.png","image_id":263,"category_name":"Phyllite","category":17,"distinct_rating":2.59,"distinct_type":"Bottom","rt":null,"stimulus":"Stimuli_Rocks480/M_Phyllite_07.png","response":null,"trial_type":"image-keyboard-response","trial_index":103,"plugin_version":"2.1.0","time_elapsed":252795,"subject_id":"90833","group":"Group1","condition":"3_Rep","full_date":"2026-02-14T20:11:24.858Z","date":"2026-02-14","time":"20:11:24"},{"rt":null,"stimulus":"<p style=\"font-size: 50px; margin: 0; text-align: center;\">+</p>","response":null,"trial_type":"html-keyboard-response","trial_index":104,"plugin_version":"2.1.0","time_elapsed":253797,"subject_id":"90833","group":"Group1","condition":"3_Rep","full_date":"2026-02-14T20:11:24.858Z","date":"2026-02-14","time":"20:11:24"},{"task":"memory_phase","broad_category":"S","image_png":"S_Sandstone_15.png","image_id":463,"category_name":"Sandstone","category":29,"distinct_rating":2,"distinct_type":"Bottom","rt":null,"stimulus":"Stimuli_Rocks480/S_Sandstone_15.png","response":null,"trial_type":"image-keyboard-response","trial_index":105,"plugin_version":"2.1.0","time_elapsed":256301,"subject_id":"90833","group":"Group1","condition":"3_Rep","full_date":"2026-02-14T20:11:24.858Z","date":"2026-02-14","time":"20:11:24"},{"rt":3633,"stimulus":"<p style=\"max-width: 760px; margin: auto; font-size: 35px; line-height: 1.5;\">\n                You have completed 1 study phase. \n                Now, we'll show you all the images again 2 more times.\n                <br><br>Press SPACE to continue\n              </p>","response":" ","trial_type":"html-keyboard-response","trial_index":106,"plugin_version":"2.1.0","time_elapsed":259935,"subject_id":"90833","group":"Group1","condition":"3_Rep","full_date":"2026-02-14T20:11:24.858Z","date":"2026-02-14","time":"20:11:24"},{"rt":null,"stimulus":"<p style=\"font-size: 50px; margin: 0; text-align: center;\">+</p>","response":null,"trial_type":"html-keyboard-response","trial_index":107,"plugin_version":"2.1.0","time_elapsed":260938,"subject_id":"90833","group":"Group1","condition":"3_Rep","full_date":"2026-02-14T20:11:24.858Z","date":"2026-02-14","time":"20:11:24"},{"task":"memory_phase","broad_category":"M","image_png":"M_Slate_11.png","image_id":315,"category_name":"Slate","category":20,"distinct_rating":2.75,"distinct_type":"Bottom","rt":null,"stimulus":"Stimuli_Rocks480/M_Slate_11.png","response":null,"trial_type":"image-keyboard-response","trial_index":108,"plugin_version":"2.1.0","time_elapsed":263441,"subject_id":"90833","group":"Group1","condition":"3_Rep","full_date":"2026-02-14T20:11:24.858Z","date":"2026-02-14","time":"20:11:24"},{"rt":null,"stimulus":"<p style=\"font-size: 50px; margin: 0; text-align: center;\">+</p>","response":null,"trial_type":"html-keyboard-response","trial_index":109,"plugin_version":"2.1.0","time_elapsed":264444,"subject_id":"90833","group":"Group1","condition":"3_Rep","full_date":"2026-02-14T20:11:24.858Z","date":"2026-02-14","time":"20:11:24"},{"task":"memory_phase","broad_category":"S","image_png":"S_Dolomite_14.png","image_id":398,"category_name":"Dolomite","category":25,"distinct_rating":1.43,"distinct_type":"Bottom","rt":null,"stimulus":"Stimuli_Rocks480/S_Dolomite_14.png","response":null,"trial_type":"image-keyboard-response","trial_index":110,"plugin_version":"2.1.0","time_elapsed":266948,"subject_id":"90833","group":"Group1","condition":"3_Rep","full_date":"2026-02-14T20:11:24.858Z","date":"2026-02-14","time":"20:11:24"},{"rt":null,"stimulus":"<p style=\"font-size: 50px; margin: 0; text-align: center;\">+</p>","response":null,"trial_type":"html-keyboard-response","trial_index":111,"plugin_version":"2.1.0","time_elapsed":267950,"subject_id":"90833","group":"Group1","condition":"3_Rep","full_date":"2026-02-14T20:11:24.858Z","date":"2026-02-14","time":"20:11:24"},{"task":"memory_phase","broad_category":"M","image_png":"M_Slate_15.png","image_id":319,"category_name":"Slate","category":20,"distinct_rating":2.13,"distinct_type":"Bottom","rt":null,"stimulus":"Stimuli_Rocks480/M_Slate_15.png","response":null,"trial_type":"image-keyboard-response","trial_index":112,"plugin_version":"2.1.0","time_elapsed":270453,"subject_id":"90833","group":"Group1","condition":"3_Rep","full_date":"2026-02-14T20:11:24.858Z","date":"2026-02-14","time":"20:11:24"},{"rt":null,"stimulus":"<p style=\"font-size: 50px; margin: 0; text-align: center;\">+</p>","response":null,"trial_type":"html-keyboard-response","trial_index":113,"plugin_version":"2.1.0","time_elapsed":271456,"subject_id":"90833","group":"Group1","condition":"3_Rep","full_date":"2026-02-14T20:11:24.858Z","date":"2026-02-14","time":"20:11:24"},{"task":"memory_phase","broad_category":"I","image_png":"I_Andesite_06.png","image_id":6,"category_name":"Andesite","category":1,"distinct_rating":3.17,"distinct_type":"Bottom","rt":null,"stimulus":"Stimuli_Rocks480/I_Andesite_06.png","response":null,"trial_type":"image-keyboard-response","trial_index":114,"plugin_version":"2.1.0","time_elapsed":273960,"subject_id":"90833","group":"Group1","condition":"3_Rep","full_date":"2026-02-14T20:11:24.858Z","date":"2026-02-14","time":"20:11:24"},{"rt":null,"stimulus":"<p style=\"font-size: 50px; margin: 0; text-align: center;\">+</p>","response":null,"trial_type":"html-keyboard-response","trial_index":115,"plugin_version":"2.1.0","time_elapsed":274964,"subject_id":"90833","group":"Group1","condition":"3_Rep","full_date":"2026-02-14T20:11:24.858Z","date":"2026-02-14","time":"20:11:24"},{"task":"memory_phase","broad_category":"I","image_png":"I_Pegmatite_10.png","image_id":106,"category_name":"Pegmatite","category":7,"distinct_rating":7.66,"distinct_type":"Top","rt":null,"stimulus":"Stimuli_Rocks480/I_Pegmatite_10.png","response":null,"trial_type":"image-keyboard-response","trial_index":116,"plugin_version":"2.1.0","time_elapsed":277467,"subject_id":"90833","group":"Group1","condition":"3_Rep","full_date":"2026-02-14T20:11:24.858Z","date":"2026-02-14","time":"20:11:24"},{"rt":null,"stimulus":"<p style=\"font-size: 50px; margin: 0; text-align: center;\">+</p>","response":null,"trial_type":"html-keyboard-response","trial_index":117,"plugin_version":"2.1.0","time_elapsed":278470,"subject_id":"90833","group":"Group1","condition":"3_Rep","full_date":"2026-02-14T20:11:24.858Z","date":"2026-02-14","time":"20:11:24"},{"task":"memory_phase","broad_category":"S","image_png":"S_Breccia_11.png","image_id":347,"category_name":"Breccia","category":22,"distinct_rating":6.7,"distinct_type":"Top","rt":null,"stimulus":"Stimuli_Rocks480/S_Breccia_11.png","response":null,"trial_type":"image-keyboard-response","trial_index":118,"plugin_version":"2.1.0","time_elapsed":280974,"subject_id":"90833","group":"Group1","condition":"3_Rep","full_date":"2026-02-14T20:11:24.858Z","date":"2026-02-14","time":"20:11:24"},{"rt":null,"stimulus":"<p style=\"font-size: 50px; margin: 0; text-align: center;\">+</p>","response":null,"trial_type":"html-keyboard-response","trial_index":119,"plugin_version":"2.1.0","time_elapsed":281976,"subject_id":"90833","group":"Group1","condition":"3_Rep","full_date":"2026-02-14T20:11:24.858Z","date":"2026-02-14","time":"20:11:24"},{"task":"memory_phase","broad_category":"S","image_png":"S_Conglomerate_05.png","image_id":373,"category_name":"Conglomerate","category":24,"distinct_rating":7.32,"distinct_type":"Top","rt":null,"stimulus":"Stimuli_Rocks480/S_Conglomerate_05.png","response":null,"trial_type":"image-keyboard-response","trial_index":120,"plugin_version":"2.1.0","time_elapsed":284480,"subject_id":"90833","group":"Group1","condition":"3_Rep","full_date":"2026-02-14T20:11:24.858Z","date":"2026-02-14","time":"20:11:24"},{"rt":null,"stimulus":"<p style=\"font-size: 50px; margin: 0; text-align: center;\">+</p>","response":null,"trial_type":"html-keyboard-response","trial_index":121,"plugin_version":"2.1.0","time_elapsed":285483,"subject_id":"90833","group":"Group1","condition":"3_Rep","full_date":"2026-02-14T20:11:24.858Z","date":"2026-02-14","time":"20:11:24"},{"task":"memory_phase","broad_category":"S","image_png":"S_Shale_12.png","image_id":476,"category_name":"Shale","category":30,"distinct_rating":2.48,"distinct_type":"Bottom","rt":null,"stimulus":"Stimuli_Rocks480/S_Shale_12.png","response":null,"trial_type":"image-keyboard-response","trial_index":122,"plugin_version":"2.1.0","time_elapsed":287987,"subject_id":"90833","group":"Group1","condition":"3_Rep","full_date":"2026-02-14T20:11:24.858Z","date":"2026-02-14","time":"20:11:24"},{"rt":null,"stimulus":"<p style=\"font-size: 50px; margin: 0; text-align: center;\">+</p>","response":null,"trial_type":"html-keyboard-response","trial_index":123,"plugin_version":"2.1.0","time_elapsed":288989,"subject_id":"90833","group":"Group1","condition":"3_Rep","full_date":"2026-02-14T20:11:24.858Z","date":"2026-02-14","time":"20:11:24"},{"task":"memory_phase","broad_category":"I","image_png":"I_Gabbro_11.png","image_id":59,"category_name":"Gabbro","category":4,"distinct_rating":1.99,"distinct_type":"Bottom","rt":null,"stimulus":"Stimuli_Rocks480/I_Gabbro_11.png","response":null,"trial_type":"image-keyboard-response","trial_index":124,"plugin_version":"2.1.0","time_elapsed":291493,"subject_id":"90833","group":"Group1","condition":"3_Rep","full_date":"2026-02-14T20:11:24.858Z","date":"2026-02-14","time":"20:11:24"},{"rt":null,"stimulus":"<p style=\"font-size: 50px; margin: 0; text-align: center;\">+</p>","response":null,"trial_type":"html-keyboard-response","trial_index":125,"plugin_version":"2.1.0","time_elapsed":292496,"subject_id":"90833","group":"Group1","condition":"3_Rep","full_date":"2026-02-14T20:11:24.858Z","date":"2026-02-14","time":"20:11:24"},{"task":"memory_phase","broad_category":"I","image_png":"I_Rhyolite_14.png","image_id":158,"category_name":"Rhyolite","category":10,"distinct_rating":2.59,"distinct_type":"Bottom","rt":null,"stimulus":"Stimuli_Rocks480/I_Rhyolite_14.png","response":null,"trial_type":"image-keyboard-response","trial_index":126,"plugin_version":"2.1.0","time_elapsed":294999,"subject_id":"90833","group":"Group1","condition":"3_Rep","full_date":"2026-02-14T20:11:24.858Z","date":"2026-02-14","time":"20:11:24"},{"rt":null,"stimulus":"<p style=\"font-size: 50px; margin: 0; text-align: center;\">+</p>","response":null,"trial_type":"html-keyboard-response","trial_index":127,"plugin_version":"2.1.0","time_elapsed":296003,"subject_id":"90833","group":"Group1","condition":"3_Rep","full_date":"2026-02-14T20:11:24.858Z","date":"2026-02-14","time":"20:11:24"},{"task":"memory_phase","broad_category":"I","image_png":"I_Basalt_01.png","image_id":17,"category_name":"Basalt","category":2,"distinct_rating":1.92,"distinct_type":"Bottom","rt":null,"stimulus":"Stimuli_Rocks480/I_Basalt_01.png","response":null,"trial_type":"image-keyboard-response","trial_index":128,"plugin_version":"2.1.0","time_elapsed":298506,"subject_id":"90833","group":"Group1","condition":"3_Rep","full_date":"2026-02-14T20:11:24.858Z","date":"2026-02-14","time":"20:11:24"},{"rt":null,"stimulus":"<p style=\"font-size: 50px; margin: 0; text-align: center;\">+</p>","response":null,"trial_type":"html-keyboard-response","trial_index":129,"plugin_version":"2.1.0","time_elapsed":299508,"subject_id":"90833","group":"Group1","condition":"3_Rep","full_date":"2026-02-14T20:11:24.858Z","date":"2026-02-14","time":"20:11:24"},{"task":"memory_phase","broad_category":"I","image_png":"I_Diorite_03.png","image_id":35,"category_name":"Diorite","category":3,"distinct_rating":3.14,"distinct_type":"Bottom","rt":null,"stimulus":"Stimuli_Rocks480/I_Diorite_03.png","response":null,"trial_type":"image-keyboard-response","trial_index":130,"plugin_version":"2.1.0","time_elapsed":302012,"subject_id":"90833","group":"Group1","condition":"3_Rep","full_date":"2026-02-14T20:11:24.858Z","date":"2026-02-14","time":"20:11:24"},{"rt":null,"stimulus":"<p style=\"font-size: 50px; margin: 0; text-align: center;\">+</p>","response":null,"trial_type":"html-keyboard-response","trial_index":131,"plugin_version":"2.1.0","time_elapsed":303015,"subject_id":"90833","group":"Group1","condition":"3_Rep","full_date":"2026-02-14T20:11:24.858Z","date":"2026-02-14","time":"20:11:24"},{"task":"memory_phase","broad_category":"I","image_png":"I_Basalt_09.png","image_id":25,"category_name":"Basalt","category":2,"distinct_rating":1.89,"distinct_type":"Bottom","rt":null,"stimulus":"Stimuli_Rocks480/I_Basalt_09.png","response":null,"trial_type":"image-keyboard-response","trial_index":132,"plugin_version":"2.1.0","time_elapsed":305519,"subject_id":"90833","group":"Group1","condition":"3_Rep","full_date":"2026-02-14T20:11:24.858Z","date":"2026-02-14","time":"20:11:24"},{"rt":null,"stimulus":"<p style=\"font-size: 50px; margin: 0; text-align: center;\">+</p>","response":null,"trial_type":"html-keyboard-response","trial_index":133,"plugin_version":"2.1.0","time_elapsed":306522,"subject_id":"90833","group":"Group1","condition":"3_Rep","full_date":"2026-02-14T20:11:24.858Z","date":"2026-02-14","time":"20:11:24"},{"task":"memory_phase","broad_category":"M","image_png":"M_Gneiss_13.png","image_id":205,"category_name":"Gneiss","category":13,"distinct_rating":3.26,"distinct_type":"Bottom","rt":null,"stimulus":"Stimuli_Rocks480/M_Gneiss_13.png","response":null,"trial_type":"image-keyboard-response","trial_index":134,"plugin_version":"2.1.0","time_elapsed":309026,"subject_id":"90833","group":"Group1","condition":"3_Rep","full_date":"2026-02-14T20:11:24.858Z","date":"2026-02-14","time":"20:11:24"},{"rt":null,"stimulus":"<p style=\"font-size: 50px; margin: 0; text-align: center;\">+</p>","response":null,"trial_type":"html-keyboard-response","trial_index":135,"plugin_version":"2.1.0","time_elapsed":310029,"subject_id":"90833","group":"Group1","condition":"3_Rep","full_date":"2026-02-14T20:11:24.858Z","date":"2026-02-14","time":"20:11:24"},{"task":"memory_phase","broad_category":"I","image_png":"I_Diorite_05.png","image_id":37,"category_name":"Diorite","category":3,"distinct_rating":3.08,"distinct_type":"Bottom","rt":null,"stimulus":"Stimuli_Rocks480/I_Diorite_05.png","response":null,"trial_type":"image-keyboard-response","trial_index":136,"plugin_version":"2.1.0","time_elapsed":312533,"subject_id":"90833","group":"Group1","condition":"3_Rep","full_date":"2026-02-14T20:11:24.858Z","date":"2026-02-14","time":"20:11:24"},{"rt":null,"stimulus":"<p style=\"font-size: 50px; margin: 0; text-align: center;\">+</p>","response":null,"trial_type":"html-keyboard-response","trial_index":137,"plugin_version":"2.1.0","time_elapsed":313536,"subject_id":"90833","group":"Group1","condition":"3_Rep","full_date":"2026-02-14T20:11:24.858Z","date":"2026-02-14","time":"20:11:24"},{"task":"memory_phase","broad_category":"I","image_png":"I_Pumice_12.png","image_id":140,"category_name":"Pumice","category":9,"distinct_rating":2.97,"distinct_type":"Bottom","rt":null,"stimulus":"Stimuli_Rocks480/I_Pumice_12.png","response":null,"trial_type":"image-keyboard-response","trial_index":138,"plugin_version":"2.1.0","time_elapsed":316040,"subject_id":"90833","group":"Group1","condition":"3_Rep","full_date":"2026-02-14T20:11:24.858Z","date":"2026-02-14","time":"20:11:24"},{"rt":null,"stimulus":"<p style=\"font-size: 50px; margin: 0; text-align: center;\">+</p>","response":null,"trial_type":"html-keyboard-response","trial_index":139,"plugin_version":"2.1.0","time_elapsed":317042,"subject_id":"90833","group":"Group1","condition":"3_Rep","full_date":"2026-02-14T20:11:24.858Z","date":"2026-02-14","time":"20:11:24"},{"task":"memory_phase","broad_category":"S","image_png":"S_Rock Salt_01.png","image_id":433,"category_name":"Rock Salt","category":28,"distinct_rating":7.18,"distinct_type":"Top","rt":null,"stimulus":"Stimuli_Rocks480/S_Rock Salt_01.png","response":null,"trial_type":"image-keyboard-response","trial_index":140,"plugin_version":"2.1.0","time_elapsed":319547,"subject_id":"90833","group":"Group1","condition":"3_Rep","full_date":"2026-02-14T20:11:24.858Z","date":"2026-02-14","time":"20:11:24"},{"rt":null,"stimulus":"<p style=\"font-size: 50px; margin: 0; text-align: center;\">+</p>","response":null,"trial_type":"html-keyboard-response","trial_index":141,"plugin_version":"2.1.0","time_elapsed":320550,"subject_id":"90833","group":"Group1","condition":"3_Rep","full_date":"2026-02-14T20:11:24.858Z","date":"2026-02-14","time":"20:11:24"},{"task":"memory_phase","broad_category":"M","image_png":"M_Phyllite_07.png","image_id":263,"category_name":"Phyllite","category":17,"distinct_rating":2.59,"distinct_type":"Bottom","rt":null,"stimulus":"Stimuli_Rocks480/M_Phyllite_07.png","response":null,"trial_type":"image-keyboard-response","trial_index":142,"plugin_version":"2.1.0","time_elapsed":323053,"subject_id":"90833","group":"Group1","condition":"3_Rep","full_date":"2026-02-14T20:11:24.858Z","date":"2026-02-14","time":"20:11:24"},{"rt":null,"stimulus":"<p style=\"font-size: 50px; margin: 0; text-align: center;\">+</p>","response":null,"trial_type":"html-keyboard-response","trial_index":143,"plugin_version":"2.1.0","time_elapsed":324056,"subject_id":"90833","group":"Group1","condition":"3_Rep","full_date":"2026-02-14T20:11:24.858Z","date":"2026-02-14","time":"20:11:24"},{"task":"memory_phase","broad_category":"M","image_png":"M_Marble_06.png","image_id":230,"category_name":"Marble","category":15,"distinct_rating":3.4,"distinct_type":"Bottom","rt":null,"stimulus":"Stimuli_Rocks480/M_Marble_06.png","response":null,"trial_type":"image-keyboard-response","trial_index":144,"plugin_version":"2.1.0","time_elapsed":326560,"subject_id":"90833","group":"Group1","condition":"3_Rep","full_date":"2026-02-14T20:11:24.858Z","date":"2026-02-14","time":"20:11:24"},{"rt":null,"stimulus":"<p style=\"font-size: 50px; margin: 0; text-align: center;\">+</p>","response":null,"trial_type":"html-keyboard-response","trial_index":145,"plugin_version":"2.1.0","time_elapsed":327563,"subject_id":"90833","group":"Group1","condition":"3_Rep","full_date":"2026-02-14T20:11:24.858Z","date":"2026-02-14","time":"20:11:24"},{"task":"memory_phase","broad_category":"I","image_png":"I_Andesite_10.png","image_id":10,"category_name":"Andesite","category":1,"distinct_rating":3.15,"distinct_type":"Bottom","rt":null,"stimulus":"Stimuli_Rocks480/I_Andesite_10.png","response":null,"trial_type":"image-keyboard-response","trial_index":146,"plugin_version":"2.1.0","time_elapsed":330067,"subject_id":"90833","group":"Group1","condition":"3_Rep","full_date":"2026-02-14T20:11:24.858Z","date":"2026-02-14","time":"20:11:24"},{"rt":null,"stimulus":"<p style=\"font-size: 50px; margin: 0; text-align: center;\">+</p>","response":null,"trial_type":"html-keyboard-response","trial_index":147,"plugin_version":"2.1.0","time_elapsed":331069,"subject_id":"90833","group":"Group1","condition":"3_Rep","full_date":"2026-02-14T20:11:24.858Z","date":"2026-02-14","time":"20:11:24"},{"task":"memory_phase","broad_category":"I","image_png":"I_Rhyolite_16.png","image_id":160,"category_name":"Rhyolite","category":10,"distinct_rating":2.19,"distinct_type":"Bottom","rt":null,"stimulus":"Stimuli_Rocks480/I_Rhyolite_16.png","response":null,"trial_type":"image-keyboard-response","trial_index":148,"plugin_version":"2.1.0","time_elapsed":333573,"subject_id":"90833","group":"Group1","condition":"3_Rep","full_date":"2026-02-14T20:11:24.858Z","date":"2026-02-14","time":"20:11:24"},{"rt":null,"stimulus":"<p style=\"font-size: 50px; margin: 0; text-align: center;\">+</p>","response":null,"trial_type":"html-keyboard-response","trial_index":149,"plugin_version":"2.1.0","time_elapsed":334575,"subject_id":"90833","group":"Group1","condition":"3_Rep","full_date":"2026-02-14T20:11:24.858Z","date":"2026-02-14","time":"20:11:24"},{"task":"memory_phase","broad_category":"M","image_png":"M_Phyllite_10.png","image_id":266,"category_name":"Phyllite","category":17,"distinct_rating":2.6,"distinct_type":"Bottom","rt":null,"stimulus":"Stimuli_Rocks480/M_Phyllite_10.png","response":null,"trial_type":"image-keyboard-response","trial_index":150,"plugin_version":"2.1.0","time_elapsed":337079,"subject_id":"90833","group":"Group1","condition":"3_Rep","full_date":"2026-02-14T20:11:24.858Z","date":"2026-02-14","time":"20:11:24"},{"rt":null,"stimulus":"<p style=\"font-size: 50px; margin: 0; text-align: center;\">+</p>","response":null,"trial_type":"html-keyboard-response","trial_index":151,"plugin_version":"2.1.0","time_elapsed":338082,"subject_id":"90833","group":"Group1","condition":"3_Rep","full_date":"2026-02-14T20:11:24.858Z","date":"2026-02-14","time":"20:11:24"},{"task":"memory_phase","broad_category":"I","image_png":"I_Pumice_11.png","image_id":139,"category_name":"Pumice","category":9,"distinct_rating":1.74,"distinct_type":"Bottom","rt":null,"stimulus":"Stimuli_Rocks480/I_Pumice_11.png","response":null,"trial_type":"image-keyboard-response","trial_index":152,"plugin_version":"2.1.0","time_elapsed":340585,"subject_id":"90833","group":"Group1","condition":"3_Rep","full_date":"2026-02-14T20:11:24.858Z","date":"2026-02-14","time":"20:11:24"},{"rt":null,"stimulus":"<p style=\"font-size: 50px; margin: 0; text-align: center;\">+</p>","response":null,"trial_type":"html-keyboard-response","trial_index":153,"plugin_version":"2.1.0","time_elapsed":341588,"subject_id":"90833","group":"Group1","condition":"3_Rep","full_date":"2026-02-14T20:11:24.858Z","date":"2026-02-14","time":"20:11:24"},{"task":"memory_phase","broad_category":"S","image_png":"S_Dolomite_13.png","image_id":397,"category_name":"Dolomite","category":25,"distinct_rating":1.77,"distinct_type":"Bottom","rt":null,"stimulus":"Stimuli_Rocks480/S_Dolomite_13.png","response":null,"trial_type":"image-keyboard-response","trial_index":154,"plugin_version":"2.1.0","time_elapsed":344092,"subject_id":"90833","group":"Group1","condition":"3_Rep","full_date":"2026-02-14T20:11:24.858Z","date":"2026-02-14","time":"20:11:24"},{"rt":null,"stimulus":"<p style=\"font-size: 50px; margin: 0; text-align: center;\">+</p>","response":null,"trial_type":"html-keyboard-response","trial_index":155,"plugin_version":"2.1.0","time_elapsed":345094,"subject_id":"90833","group":"Group1","condition":"3_Rep","full_date":"2026-02-14T20:11:24.858Z","date":"2026-02-14","time":"20:11:24"},{"task":"memory_phase","broad_category":"I","image_png":"I_Diorite_04.png","image_id":36,"category_name":"Diorite","category":3,"distinct_rating":2.98,"distinct_type":"Bottom","rt":null,"stimulus":"Stimuli_Rocks480/I_Diorite_04.png","response":null,"trial_type":"image-keyboard-response","trial_index":156,"plugin_version":"2.1.0","time_elapsed":347598,"subject_id":"90833","group":"Group1","condition":"3_Rep","full_date":"2026-02-14T20:11:24.858Z","date":"2026-02-14","time":"20:11:24"},{"rt":1426,"stimulus":"<p style=\"max-width: 760px; margin: auto; font-size: 35px; line-height: 1.5;\">\n                Press SPACE to continue study phase\n              </p>","response":" ","trial_type":"html-keyboard-response","trial_index":157,"plugin_version":"2.1.0","time_elapsed":349026,"subject_id":"90833","group":"Group1","condition":"3_Rep","full_date":"2026-02-14T20:11:24.858Z","date":"2026-02-14","time":"20:11:24"},{"rt":null,"stimulus":"<p style=\"font-size: 50px; margin: 0; text-align: center;\">+</p>","response":null,"trial_type":"html-keyboard-response","trial_index":158,"plugin_version":"2.1.0","time_elapsed":350029,"subject_id":"90833","group":"Group1","condition":"3_Rep","full_date":"2026-02-14T20:11:24.858Z","date":"2026-02-14","time":"20:11:24"},{"task":"memory_phase","broad_category":"I","image_png":"I_Obsidian_05.png","image_id":85,"category_name":"Obsidian","category":6,"distinct_rating":7.32,"distinct_type":"Top","rt":null,"stimulus":"Stimuli_Rocks480/I_Obsidian_05.png","response":null,"trial_type":"image-keyboard-response","trial_index":159,"plugin_version":"2.1.0","time_elapsed":352533,"subject_id":"90833","group":"Group1","condition":"3_Rep","full_date":"2026-02-14T20:11:24.858Z","date":"2026-02-14","time":"20:11:24"},{"rt":null,"stimulus":"<p style=\"font-size: 50px; margin: 0; text-align: center;\">+</p>","response":null,"trial_type":"html-keyboard-response","trial_index":160,"plugin_version":"2.1.0","time_elapsed":353536,"subject_id":"90833","group":"Group1","condition":"3_Rep","full_date":"2026-02-14T20:11:24.858Z","date":"2026-02-14","time":"20:11:24"},{"task":"memory_phase","broad_category":"M","image_png":"M_Marble_04.png","image_id":228,"category_name":"Marble","category":15,"distinct_rating":3.15,"distinct_type":"Bottom","rt":null,"stimulus":"Stimuli_Rocks480/M_Marble_04.png","response":null,"trial_type":"image-keyboard-response","trial_index":161,"plugin_version":"2.1.0","time_elapsed":356039,"subject_id":"90833","group":"Group1","condition":"3_Rep","full_date":"2026-02-14T20:11:24.858Z","date":"2026-02-14","time":"20:11:24"},{"rt":null,"stimulus":"<p style=\"font-size: 50px; margin: 0; text-align: center;\">+</p>","response":null,"trial_type":"html-keyboard-response","trial_index":162,"plugin_version":"2.1.0","time_elapsed":357042,"subject_id":"90833","group":"Group1","condition":"3_Rep","full_date":"2026-02-14T20:11:24.858Z","date":"2026-02-14","time":"20:11:24"},{"task":"memory_phase","broad_category":"I","image_png":"I_Gabbro_08.png","image_id":56,"category_name":"Gabbro","category":4,"distinct_rating":3.02,"distinct_type":"Bottom","rt":null,"stimulus":"Stimuli_Rocks480/I_Gabbro_08.png","response":null,"trial_type":"image-keyboard-response","trial_index":163,"plugin_version":"2.1.0","time_elapsed":359546,"subject_id":"90833","group":"Group1","condition":"3_Rep","full_date":"2026-02-14T20:11:24.858Z","date":"2026-02-14","time":"20:11:24"},{"rt":null,"stimulus":"<p style=\"font-size: 50px; margin: 0; text-align: center;\">+</p>","response":null,"trial_type":"html-keyboard-response","trial_index":164,"plugin_version":"2.1.0","time_elapsed":360548,"subject_id":"90833","group":"Group1","condition":"3_Rep","full_date":"2026-02-14T20:11:24.858Z","date":"2026-02-14","time":"20:11:24"},{"task":"memory_phase","broad_category":"S","image_png":"S_Chert_10.png","image_id":362,"category_name":"Chert","category":23,"distinct_rating":7.17,"distinct_type":"Top","rt":null,"stimulus":"Stimuli_Rocks480/S_Chert_10.png","response":null,"trial_type":"image-keyboard-response","trial_index":165,"plugin_version":"2.1.0","time_elapsed":363052,"subject_id":"90833","group":"Group1","condition":"3_Rep","full_date":"2026-02-14T20:11:24.858Z","date":"2026-02-14","time":"20:11:24"},{"rt":null,"stimulus":"<p style=\"font-size: 50px; margin: 0; text-align: center;\">+</p>","response":null,"trial_type":"html-keyboard-response","trial_index":166,"plugin_version":"2.1.0","time_elapsed":364054,"subject_id":"90833","group":"Group1","condition":"3_Rep","full_date":"2026-02-14T20:11:24.858Z","date":"2026-02-14","time":"20:11:24"},{"task":"memory_phase","broad_category":"M","image_png":"M_Slate_03.png","image_id":307,"category_name":"Slate","category":20,"distinct_rating":1.87,"distinct_type":"Bottom","rt":null,"stimulus":"Stimuli_Rocks480/M_Slate_03.png","response":null,"trial_type":"image-keyboard-response","trial_index":167,"plugin_version":"2.1.0","time_elapsed":366558,"subject_id":"90833","group":"Group1","condition":"3_Rep","full_date":"2026-02-14T20:11:24.858Z","date":"2026-02-14","time":"20:11:24"},{"rt":null,"stimulus":"<p style=\"font-size: 50px; margin: 0; text-align: center;\">+</p>","response":null,"trial_type":"html-keyboard-response","trial_index":168,"plugin_version":"2.1.0","time_elapsed":367560,"subject_id":"90833","group":"Group1","condition":"3_Rep","full_date":"2026-02-14T20:11:24.858Z","date":"2026-02-14","time":"20:11:24"},{"task":"memory_phase","broad_category":"S","image_png":"S_Shale_01.png","image_id":465,"category_name":"Shale","category":30,"distinct_rating":2.7,"distinct_type":"Bottom","rt":null,"stimulus":"Stimuli_Rocks480/S_Shale_01.png","response":null,"trial_type":"image-keyboard-response","trial_index":169,"plugin_version":"2.1.0","time_elapsed":370064,"subject_id":"90833","group":"Group1","condition":"3_Rep","full_date":"2026-02-14T20:11:24.858Z","date":"2026-02-14","time":"20:11:24"},{"rt":null,"stimulus":"<p style=\"font-size: 50px; margin: 0; text-align: center;\">+</p>","response":null,"trial_type":"html-keyboard-response","trial_index":170,"plugin_version":"2.1.0","time_elapsed":371067,"subject_id":"90833","group":"Group1","condition":"3_Rep","full_date":"2026-02-14T20:11:24.858Z","date":"2026-02-14","time":"20:11:24"},{"task":"memory_phase","broad_category":"I","image_png":"I_Rhyolite_11.png","image_id":155,"category_name":"Rhyolite","category":10,"distinct_rating":1.73,"distinct_type":"Bottom","rt":null,"stimulus":"Stimuli_Rocks480/I_Rhyolite_11.png","response":null,"trial_type":"image-keyboard-response","trial_index":171,"plugin_version":"2.1.0","time_elapsed":373571,"subject_id":"90833","group":"Group1","condition":"3_Rep","full_date":"2026-02-14T20:11:24.858Z","date":"2026-02-14","time":"20:11:24"},{"rt":null,"stimulus":"<p style=\"font-size: 50px; margin: 0; text-align: center;\">+</p>","response":null,"trial_type":"html-keyboard-response","trial_index":172,"plugin_version":"2.1.0","time_elapsed":374575,"subject_id":"90833","group":"Group1","condition":"3_Rep","full_date":"2026-02-14T20:11:24.858Z","date":"2026-02-14","time":"20:11:24"},{"task":"memory_phase","broad_category":"M","image_png":"M_Marble_16.png","image_id":240,"category_name":"Marble","category":15,"distinct_rating":2.57,"distinct_type":"Bottom","rt":null,"stimulus":"Stimuli_Rocks480/M_Marble_16.png","response":null,"trial_type":"image-keyboard-response","trial_index":173,"plugin_version":"2.1.0","time_elapsed":377079,"subject_id":"90833","group":"Group1","condition":"3_Rep","full_date":"2026-02-14T20:11:24.858Z","date":"2026-02-14","time":"20:11:24"},{"rt":null,"stimulus":"<p style=\"font-size: 50px; margin: 0; text-align: center;\">+</p>","response":null,"trial_type":"html-keyboard-response","trial_index":174,"plugin_version":"2.1.0","time_elapsed":378081,"subject_id":"90833","group":"Group1","condition":"3_Rep","full_date":"2026-02-14T20:11:24.858Z","date":"2026-02-14","time":"20:11:24"},{"task":"memory_phase","broad_category":"S","image_png":"S_Rock Gypsum_04.png","image_id":420,"category_name":"Rock Gypsum","category":27,"distinct_rating":7.61,"distinct_type":"Top","rt":null,"stimulus":"Stimuli_Rocks480/S_Rock Gypsum_04.png","response":null,"trial_type":"image-keyboard-response","trial_index":175,"plugin_version":"2.1.0","time_elapsed":380585,"subject_id":"90833","group":"Group1","condition":"3_Rep","full_date":"2026-02-14T20:11:24.858Z","date":"2026-02-14","time":"20:11:24"},{"rt":null,"stimulus":"<p style=\"font-size: 50px; margin: 0; text-align: center;\">+</p>","response":null,"trial_type":"html-keyboard-response","trial_index":176,"plugin_version":"2.1.0","time_elapsed":381588,"subject_id":"90833","group":"Group1","condition":"3_Rep","full_date":"2026-02-14T20:11:24.858Z","date":"2026-02-14","time":"20:11:24"},{"task":"memory_phase","broad_category":"M","image_png":"M_Gneiss_06.png","image_id":198,"category_name":"Gneiss","category":13,"distinct_rating":2.65,"distinct_type":"Bottom","rt":null,"stimulus":"Stimuli_Rocks480/M_Gneiss_06.png","response":null,"trial_type":"image-keyboard-response","trial_index":177,"plugin_version":"2.1.0","time_elapsed":384091,"subject_id":"90833","group":"Group1","condition":"3_Rep","full_date":"2026-02-14T20:11:24.858Z","date":"2026-02-14","time":"20:11:24"},{"rt":null,"stimulus":"<p style=\"font-size: 50px; margin: 0; text-align: center;\">+</p>","response":null,"trial_type":"html-keyboard-response","trial_index":178,"plugin_version":"2.1.0","time_elapsed":385094,"subject_id":"90833","group":"Group1","condition":"3_Rep","full_date":"2026-02-14T20:11:24.858Z","date":"2026-02-14","time":"20:11:24"},{"task":"memory_phase","broad_category":"I","image_png":"I_Basalt_02.png","image_id":18,"category_name":"Basalt","category":2,"distinct_rating":1.84,"distinct_type":"Bottom","rt":null,"stimulus":"Stimuli_Rocks480/I_Basalt_02.png","response":null,"trial_type":"image-keyboard-response","trial_index":179,"plugin_version":"2.1.0","time_elapsed":387598,"subject_id":"90833","group":"Group1","condition":"3_Rep","full_date":"2026-02-14T20:11:24.858Z","date":"2026-02-14","time":"20:11:24"},{"rt":null,"stimulus":"<p style=\"font-size: 50px; margin: 0; text-align: center;\">+</p>","response":null,"trial_type":"html-keyboard-response","trial_index":180,"plugin_version":"2.1.0","time_elapsed":388601,"subject_id":"90833","group":"Group1","condition":"3_Rep","full_date":"2026-02-14T20:11:24.858Z","date":"2026-02-14","time":"20:11:24"},{"task":"memory_phase","broad_category":"M","image_png":"M_Quartzite_05.png","image_id":277,"category_name":"Quartzite","category":18,"distinct_rating":2.23,"distinct_type":"Bottom","rt":null,"stimulus":"Stimuli_Rocks480/M_Quartzite_05.png","response":null,"trial_type":"image-keyboard-response","trial_index":181,"plugin_version":"2.1.0","time_elapsed":391106,"subject_id":"90833","group":"Group1","condition":"3_Rep","full_date":"2026-02-14T20:11:24.858Z","date":"2026-02-14","time":"20:11:24"},{"rt":null,"stimulus":"<p style=\"font-size: 50px; margin: 0; text-align: center;\">+</p>","response":null,"trial_type":"html-keyboard-response","trial_index":182,"plugin_version":"2.1.0","time_elapsed":392109,"subject_id":"90833","group":"Group1","condition":"3_Rep","full_date":"2026-02-14T20:11:24.858Z","date":"2026-02-14","time":"20:11:24"},{"task":"memory_phase","broad_category":"S","image_png":"S_Sandstone_03.png","image_id":451,"category_name":"Sandstone","category":29,"distinct_rating":1.86,"distinct_type":"Bottom","rt":null,"stimulus":"Stimuli_Rocks480/S_Sandstone_03.png","response":null,"trial_type":"image-keyboard-response","trial_index":183,"plugin_version":"2.1.0","time_elapsed":394613,"subject_id":"90833","group":"Group1","condition":"3_Rep","full_date":"2026-02-14T20:11:24.858Z","date":"2026-02-14","time":"20:11:24"},{"rt":null,"stimulus":"<p style=\"font-size: 50px; margin: 0; text-align: center;\">+</p>","response":null,"trial_type":"html-keyboard-response","trial_index":184,"plugin_version":"2.1.0","time_elapsed":395616,"subject_id":"90833","group":"Group1","condition":"3_Rep","full_date":"2026-02-14T20:11:24.858Z","date":"2026-02-14","time":"20:11:24"},{"task":"memory_phase","broad_category":"I","image_png":"I_Gabbro_16.png","image_id":64,"category_name":"Gabbro","category":4,"distinct_rating":2.52,"distinct_type":"Bottom","rt":null,"stimulus":"Stimuli_Rocks480/I_Gabbro_16.png","response":null,"trial_type":"image-keyboard-response","trial_index":185,"plugin_version":"2.1.0","time_elapsed":398120,"subject_id":"90833","group":"Group1","condition":"3_Rep","full_date":"2026-02-14T20:11:24.858Z","date":"2026-02-14","time":"20:11:24"},{"rt":null,"stimulus":"<p style=\"font-size: 50px; margin: 0; text-align: center;\">+</p>","response":null,"trial_type":"html-keyboard-response","trial_index":186,"plugin_version":"2.1.0","time_elapsed":399123,"subject_id":"90833","group":"Group1","condition":"3_Rep","full_date":"2026-02-14T20:11:24.858Z","date":"2026-02-14","time":"20:11:24"},{"task":"memory_phase","broad_category":"M","image_png":"M_Gneiss_05.png","image_id":197,"category_name":"Gneiss","category":13,"distinct_rating":2.97,"distinct_type":"Bottom","rt":null,"stimulus":"Stimuli_Rocks480/M_Gneiss_05.png","response":null,"trial_type":"image-keyboard-response","trial_index":187,"plugin_version":"2.1.0","time_elapsed":401626,"subject_id":"90833","group":"Group1","condition":"3_Rep","full_date":"2026-02-14T20:11:24.858Z","date":"2026-02-14","time":"20:11:24"},{"rt":null,"stimulus":"<p style=\"font-size: 50px; margin: 0; text-align: center;\">+</p>","response":null,"trial_type":"html-keyboard-response","trial_index":188,"plugin_version":"2.1.0","time_elapsed":402628,"subject_id":"90833","group":"Group1","condition":"3_Rep","full_date":"2026-02-14T20:11:24.858Z","date":"2026-02-14","time":"20:11:24"},{"task":"memory_phase","broad_category":"S","image_png":"S_Sandstone_16.png","image_id":464,"category_name":"Sandstone","category":29,"distinct_rating":1.93,"distinct_type":"Bottom","rt":null,"stimulus":"Stimuli_Rocks480/S_Sandstone_16.png","response":null,"trial_type":"image-keyboard-response","trial_index":189,"plugin_version":"2.1.0","time_elapsed":405132,"subject_id":"90833","group":"Group1","condition":"3_Rep","full_date":"2026-02-14T20:11:24.858Z","date":"2026-02-14","time":"20:11:24"},{"rt":null,"stimulus":"<p style=\"font-size: 50px; margin: 0; text-align: center;\">+</p>","response":null,"trial_type":"html-keyboard-response","trial_index":190,"plugin_version":"2.1.0","time_elapsed":406134,"subject_id":"90833","group":"Group1","condition":"3_Rep","full_date":"2026-02-14T20:11:24.858Z","date":"2026-02-14","time":"20:11:24"},{"task":"memory_phase","broad_category":"I","image_png":"I_Andesite_08.png","image_id":8,"category_name":"Andesite","category":1,"distinct_rating":1.95,"distinct_type":"Bottom","rt":null,"stimulus":"Stimuli_Rocks480/I_Andesite_08.png","response":null,"trial_type":"image-keyboard-response","trial_index":191,"plugin_version":"2.1.0","time_elapsed":408638,"subject_id":"90833","group":"Group1","condition":"3_Rep","full_date":"2026-02-14T20:11:24.858Z","date":"2026-02-14","time":"20:11:24"},{"rt":null,"stimulus":"<p style=\"font-size: 50px; margin: 0; text-align: center;\">+</p>","response":null,"trial_type":"html-keyboard-response","trial_index":192,"plugin_version":"2.1.0","time_elapsed":409641,"subject_id":"90833","group":"Group1","condition":"3_Rep","full_date":"2026-02-14T20:11:24.858Z","date":"2026-02-14","time":"20:11:24"},{"task":"memory_phase","broad_category":"I","image_png":"I_Pumice_08.png","image_id":136,"category_name":"Pumice","category":9,"distinct_rating":3.1,"distinct_type":"Bottom","rt":null,"stimulus":"Stimuli_Rocks480/I_Pumice_08.png","response":null,"trial_type":"image-keyboard-response","trial_index":193,"plugin_version":"2.1.0","time_elapsed":412145,"subject_id":"90833","group":"Group1","condition":"3_Rep","full_date":"2026-02-14T20:11:24.858Z","date":"2026-02-14","time":"20:11:24"},{"rt":null,"stimulus":"<p style=\"font-size: 50px; margin: 0; text-align: center;\">+</p>","response":null,"trial_type":"html-keyboard-response","trial_index":194,"plugin_version":"2.1.0","time_elapsed":413147,"subject_id":"90833","group":"Group1","condition":"3_Rep","full_date":"2026-02-14T20:11:24.858Z","date":"2026-02-14","time":"20:11:24"},{"task":"memory_phase","broad_category":"S","image_png":"S_Dolomite_12.png","image_id":396,"category_name":"Dolomite","category":25,"distinct_rating":1.85,"distinct_type":"Bottom","rt":null,"stimulus":"Stimuli_Rocks480/S_Dolomite_12.png","response":null,"trial_type":"image-keyboard-response","trial_index":195,"plugin_version":"2.1.0","time_elapsed":415651,"subject_id":"90833","group":"Group1","condition":"3_Rep","full_date":"2026-02-14T20:11:24.858Z","date":"2026-02-14","time":"20:11:24"},{"rt":null,"stimulus":"<p style=\"font-size: 50px; margin: 0; text-align: center;\">+</p>","response":null,"trial_type":"html-keyboard-response","trial_index":196,"plugin_version":"2.1.0","time_elapsed":416654,"subject_id":"90833","group":"Group1","condition":"3_Rep","full_date":"2026-02-14T20:11:24.858Z","date":"2026-02-14","time":"20:11:24"},{"task":"memory_phase","broad_category":"M","image_png":"M_Quartzite_13.png","image_id":285,"category_name":"Quartzite","category":18,"distinct_rating":2.27,"distinct_type":"Bottom","rt":null,"stimulus":"Stimuli_Rocks480/M_Quartzite_13.png","response":null,"trial_type":"image-keyboard-response","trial_index":197,"plugin_version":"2.1.0","time_elapsed":419158,"subject_id":"90833","group":"Group1","condition":"3_Rep","full_date":"2026-02-14T20:11:24.858Z","date":"2026-02-14","time":"20:11:24"},{"rt":null,"stimulus":"<p style=\"font-size: 50px; margin: 0; text-align: center;\">+</p>","response":null,"trial_type":"html-keyboard-response","trial_index":198,"plugin_version":"2.1.0","time_elapsed":420161,"subject_id":"90833","group":"Group1","condition":"3_Rep","full_date":"2026-02-14T20:11:24.858Z","date":"2026-02-14","time":"20:11:24"},{"task":"memory_phase","broad_category":"M","image_png":"M_Phyllite_03.png","image_id":259,"category_name":"Phyllite","category":17,"distinct_rating":2.5,"distinct_type":"Bottom","rt":null,"stimulus":"Stimuli_Rocks480/M_Phyllite_03.png","response":null,"trial_type":"image-keyboard-response","trial_index":199,"plugin_version":"2.1.0","time_elapsed":422664,"subject_id":"90833","group":"Group1","condition":"3_Rep","full_date":"2026-02-14T20:11:24.858Z","date":"2026-02-14","time":"20:11:24"},{"rt":null,"stimulus":"<p style=\"font-size: 50px; margin: 0; text-align: center;\">+</p>","response":null,"trial_type":"html-keyboard-response","trial_index":200,"plugin_version":"2.1.0","time_elapsed":423667,"subject_id":"90833","group":"Group1","condition":"3_Rep","full_date":"2026-02-14T20:11:24.858Z","date":"2026-02-14","time":"20:11:24"},{"task":"memory_phase","broad_category":"M","image_png":"M_Quartzite_08.png","image_id":280,"category_name":"Quartzite","category":18,"distinct_rating":2.15,"distinct_type":"Bottom","rt":null,"stimulus":"Stimuli_Rocks480/M_Quartzite_08.png","response":null,"trial_type":"image-keyboard-response","trial_index":201,"plugin_version":"2.1.0","time_elapsed":426170,"subject_id":"90833","group":"Group1","condition":"3_Rep","full_date":"2026-02-14T20:11:24.858Z","date":"2026-02-14","time":"20:11:24"},{"rt":null,"stimulus":"<p style=\"font-size: 50px; margin: 0; text-align: center;\">+</p>","response":null,"trial_type":"html-keyboard-response","trial_index":202,"plugin_version":"2.1.0","time_elapsed":427173,"subject_id":"90833","group":"Group1","condition":"3_Rep","full_date":"2026-02-14T20:11:24.858Z","date":"2026-02-14","time":"20:11:24"},{"task":"memory_phase","broad_category":"I","image_png":"I_Pegmatite_16.png","image_id":112,"category_name":"Pegmatite","category":7,"distinct_rating":7.03,"distinct_type":"Top","rt":null,"stimulus":"Stimuli_Rocks480/I_Pegmatite_16.png","response":null,"trial_type":"image-keyboard-response","trial_index":203,"plugin_version":"2.1.0","time_elapsed":429676,"subject_id":"90833","group":"Group1","condition":"3_Rep","full_date":"2026-02-14T20:11:24.858Z","date":"2026-02-14","time":"20:11:24"},{"rt":null,"stimulus":"<p style=\"font-size: 50px; margin: 0; text-align: center;\">+</p>","response":null,"trial_type":"html-keyboard-response","trial_index":204,"plugin_version":"2.1.0","time_elapsed":430679,"subject_id":"90833","group":"Group1","condition":"3_Rep","full_date":"2026-02-14T20:11:24.858Z","date":"2026-02-14","time":"20:11:24"},{"task":"memory_phase","broad_category":"S","image_png":"S_Shale_08.png","image_id":472,"category_name":"Shale","category":30,"distinct_rating":2.55,"distinct_type":"Bottom","rt":null,"stimulus":"Stimuli_Rocks480/S_Shale_08.png","response":null,"trial_type":"image-keyboard-response","trial_index":205,"plugin_version":"2.1.0","time_elapsed":433183,"subject_id":"90833","group":"Group1","condition":"3_Rep","full_date":"2026-02-14T20:11:24.858Z","date":"2026-02-14","time":"20:11:24"},{"rt":null,"stimulus":"<p style=\"font-size: 50px; margin: 0; text-align: center;\">+</p>","response":null,"trial_type":"html-keyboard-response","trial_index":206,"plugin_version":"2.1.0","time_elapsed":434185,"subject_id":"90833","group":"Group1","condition":"3_Rep","full_date":"2026-02-14T20:11:24.858Z","date":"2026-02-14","time":"20:11:24"},{"task":"memory_phase","broad_category":"S","image_png":"S_Sandstone_15.png","image_id":463,"category_name":"Sandstone","category":29,"distinct_rating":2,"distinct_type":"Bottom","rt":null,"stimulus":"Stimuli_Rocks480/S_Sandstone_15.png","response":null,"trial_type":"image-keyboard-response","trial_index":207,"plugin_version":"2.1.0","time_elapsed":436689,"subject_id":"90833","group":"Group1","condition":"3_Rep","full_date":"2026-02-14T20:11:24.858Z","date":"2026-02-14","time":"20:11:24"},{"rt":2715,"stimulus":"<p style=\"max-width: 760px; margin: auto; font-size: 35px; line-height: 1.5;\">\n                You have completed 2 study phases. \n                Now, we'll show you all the images again 1 more time.\n                <br><br>Press SPACE to continue\n              </p>","response":" ","trial_type":"html-keyboard-response","trial_index":208,"plugin_version":"2.1.0","time_elapsed":439406,"subject_id":"90833","group":"Group1","condition":"3_Rep","full_date":"2026-02-14T20:11:24.858Z","date":"2026-02-14","time":"20:11:24"},{"rt":null,"stimulus":"<p style=\"font-size: 50px; margin: 0; text-align: center;\">+</p>","response":null,"trial_type":"html-keyboard-response","trial_index":209,"plugin_version":"2.1.0","time_elapsed":440409,"subject_id":"90833","group":"Group1","condition":"3_Rep","full_date":"2026-02-14T20:11:24.858Z","date":"2026-02-14","time":"20:11:24"},{"task":"memory_phase","broad_category":"S","image_png":"S_Sandstone_16.png","image_id":464,"category_name":"Sandstone","category":29,"distinct_rating":1.93,"distinct_type":"Bottom","rt":null,"stimulus":"Stimuli_Rocks480/S_Sandstone_16.png","response":null,"trial_type":"image-keyboard-response","trial_index":210,"plugin_version":"2.1.0","time_elapsed":442913,"subject_id":"90833","group":"Group1","condition":"3_Rep","full_date":"2026-02-14T20:11:24.858Z","date":"2026-02-14","time":"20:11:24"},{"rt":null,"stimulus":"<p style=\"font-size: 50px; margin: 0; text-align: center;\">+</p>","response":null,"trial_type":"html-keyboard-response","trial_index":211,"plugin_version":"2.1.0","time_elapsed":443915,"subject_id":"90833","group":"Group1","condition":"3_Rep","full_date":"2026-02-14T20:11:24.858Z","date":"2026-02-14","time":"20:11:24"},{"task":"memory_phase","broad_category":"I","image_png":"I_Andesite_06.png","image_id":6,"category_name":"Andesite","category":1,"distinct_rating":3.17,"distinct_type":"Bottom","rt":null,"stimulus":"Stimuli_Rocks480/I_Andesite_06.png","response":null,"trial_type":"image-keyboard-response","trial_index":212,"plugin_version":"2.1.0","time_elapsed":446420,"subject_id":"90833","group":"Group1","condition":"3_Rep","full_date":"2026-02-14T20:11:24.858Z","date":"2026-02-14","time":"20:11:24"},{"rt":null,"stimulus":"<p style=\"font-size: 50px; margin: 0; text-align: center;\">+</p>","response":null,"trial_type":"html-keyboard-response","trial_index":213,"plugin_version":"2.1.0","time_elapsed":447422,"subject_id":"90833","group":"Group1","condition":"3_Rep","full_date":"2026-02-14T20:11:24.858Z","date":"2026-02-14","time":"20:11:24"},{"task":"memory_phase","broad_category":"S","image_png":"S_Rock Gypsum_04.png","image_id":420,"category_name":"Rock Gypsum","category":27,"distinct_rating":7.61,"distinct_type":"Top","rt":null,"stimulus":"Stimuli_Rocks480/S_Rock Gypsum_04.png","response":null,"trial_type":"image-keyboard-response","trial_index":214,"plugin_version":"2.1.0","time_elapsed":449926,"subject_id":"90833","group":"Group1","condition":"3_Rep","full_date":"2026-02-14T20:11:24.858Z","date":"2026-02-14","time":"20:11:24"},{"rt":null,"stimulus":"<p style=\"font-size: 50px; margin: 0; text-align: center;\">+</p>","response":null,"trial_type":"html-keyboard-response","trial_index":215,"plugin_version":"2.1.0","time_elapsed":450929,"subject_id":"90833","group":"Group1","condition":"3_Rep","full_date":"2026-02-14T20:11:24.858Z","date":"2026-02-14","time":"20:11:24"},{"task":"memory_phase","broad_category":"M","image_png":"M_Phyllite_03.png","image_id":259,"category_name":"Phyllite","category":17,"distinct_rating":2.5,"distinct_type":"Bottom","rt":null,"stimulus":"Stimuli_Rocks480/M_Phyllite_03.png","response":null,"trial_type":"image-keyboard-response","trial_index":216,"plugin_version":"2.1.0","time_elapsed":453433,"subject_id":"90833","group":"Group1","condition":"3_Rep","full_date":"2026-02-14T20:11:24.858Z","date":"2026-02-14","time":"20:11:24"},{"rt":null,"stimulus":"<p style=\"font-size: 50px; margin: 0; text-align: center;\">+</p>","response":null,"trial_type":"html-keyboard-response","trial_index":217,"plugin_version":"2.1.0","time_elapsed":454436,"subject_id":"90833","group":"Group1","condition":"3_Rep","full_date":"2026-02-14T20:11:24.858Z","date":"2026-02-14","time":"20:11:24"},{"task":"memory_phase","broad_category":"M","image_png":"M_Marble_16.png","image_id":240,"category_name":"Marble","category":15,"distinct_rating":2.57,"distinct_type":"Bottom","rt":null,"stimulus":"Stimuli_Rocks480/M_Marble_16.png","response":null,"trial_type":"image-keyboard-response","trial_index":218,"plugin_version":"2.1.0","time_elapsed":456941,"subject_id":"90833","group":"Group1","condition":"3_Rep","full_date":"2026-02-14T20:11:24.858Z","date":"2026-02-14","time":"20:11:24"},{"rt":null,"stimulus":"<p style=\"font-size: 50px; margin: 0; text-align: center;\">+</p>","response":null,"trial_type":"html-keyboard-response","trial_index":219,"plugin_version":"2.1.0","time_elapsed":457944,"subject_id":"90833","group":"Group1","condition":"3_Rep","full_date":"2026-02-14T20:11:24.858Z","date":"2026-02-14","time":"20:11:24"},{"task":"memory_phase","broad_category":"M","image_png":"M_Slate_15.png","image_id":319,"category_name":"Slate","category":20,"distinct_rating":2.13,"distinct_type":"Bottom","rt":null,"stimulus":"Stimuli_Rocks480/M_Slate_15.png","response":null,"trial_type":"image-keyboard-response","trial_index":220,"plugin_version":"2.1.0","time_elapsed":460448,"subject_id":"90833","group":"Group1","condition":"3_Rep","full_date":"2026-02-14T20:11:24.858Z","date":"2026-02-14","time":"20:11:24"},{"rt":null,"stimulus":"<p style=\"font-size: 50px; margin: 0; text-align: center;\">+</p>","response":null,"trial_type":"html-keyboard-response","trial_index":221,"plugin_version":"2.1.0","time_elapsed":461451,"subject_id":"90833","group":"Group1","condition":"3_Rep","full_date":"2026-02-14T20:11:24.858Z","date":"2026-02-14","time":"20:11:24"},{"task":"memory_phase","broad_category":"S","image_png":"S_Conglomerate_05.png","image_id":373,"category_name":"Conglomerate","category":24,"distinct_rating":7.32,"distinct_type":"Top","rt":null,"stimulus":"Stimuli_Rocks480/S_Conglomerate_05.png","response":null,"trial_type":"image-keyboard-response","trial_index":222,"plugin_version":"2.1.0","time_elapsed":463955,"subject_id":"90833","group":"Group1","condition":"3_Rep","full_date":"2026-02-14T20:11:24.858Z","date":"2026-02-14","time":"20:11:24"},{"rt":null,"stimulus":"<p style=\"font-size: 50px; margin: 0; text-align: center;\">+</p>","response":null,"trial_type":"html-keyboard-response","trial_index":223,"plugin_version":"2.1.0","time_elapsed":464958,"subject_id":"90833","group":"Group1","condition":"3_Rep","full_date":"2026-02-14T20:11:24.858Z","date":"2026-02-14","time":"20:11:24"},{"task":"memory_phase","broad_category":"M","image_png":"M_Phyllite_07.png","image_id":263,"category_name":"Phyllite","category":17,"distinct_rating":2.59,"distinct_type":"Bottom","rt":null,"stimulus":"Stimuli_Rocks480/M_Phyllite_07.png","response":null,"trial_type":"image-keyboard-response","trial_index":224,"plugin_version":"2.1.0","time_elapsed":467462,"subject_id":"90833","group":"Group1","condition":"3_Rep","full_date":"2026-02-14T20:11:24.858Z","date":"2026-02-14","time":"20:11:24"},{"rt":null,"stimulus":"<p style=\"font-size: 50px; margin: 0; text-align: center;\">+</p>","response":null,"trial_type":"html-keyboard-response","trial_index":225,"plugin_version":"2.1.0","time_elapsed":468465,"subject_id":"90833","group":"Group1","condition":"3_Rep","full_date":"2026-02-14T20:11:24.858Z","date":"2026-02-14","time":"20:11:24"},{"task":"memory_phase","broad_category":"M","image_png":"M_Quartzite_05.png","image_id":277,"category_name":"Quartzite","category":18,"distinct_rating":2.23,"distinct_type":"Bottom","rt":null,"stimulus":"Stimuli_Rocks480/M_Quartzite_05.png","response":null,"trial_type":"image-keyboard-response","trial_index":226,"plugin_version":"2.1.0","time_elapsed":470970,"subject_id":"90833","group":"Group1","condition":"3_Rep","full_date":"2026-02-14T20:11:24.858Z","date":"2026-02-14","time":"20:11:24"},{"rt":null,"stimulus":"<p style=\"font-size: 50px; margin: 0; text-align: center;\">+</p>","response":null,"trial_type":"html-keyboard-response","trial_index":227,"plugin_version":"2.1.0","time_elapsed":471972,"subject_id":"90833","group":"Group1","condition":"3_Rep","full_date":"2026-02-14T20:11:24.858Z","date":"2026-02-14","time":"20:11:24"},{"task":"memory_phase","broad_category":"S","image_png":"S_Rock Salt_01.png","image_id":433,"category_name":"Rock Salt","category":28,"distinct_rating":7.18,"distinct_type":"Top","rt":null,"stimulus":"Stimuli_Rocks480/S_Rock Salt_01.png","response":null,"trial_type":"image-keyboard-response","trial_index":228,"plugin_version":"2.1.0","time_elapsed":474476,"subject_id":"90833","group":"Group1","condition":"3_Rep","full_date":"2026-02-14T20:11:24.858Z","date":"2026-02-14","time":"20:11:24"},{"rt":null,"stimulus":"<p style=\"font-size: 50px; margin: 0; text-align: center;\">+</p>","response":null,"trial_type":"html-keyboard-response","trial_index":229,"plugin_version":"2.1.0","time_elapsed":475480,"subject_id":"90833","group":"Group1","condition":"3_Rep","full_date":"2026-02-14T20:11:24.858Z","date":"2026-02-14","time":"20:11:24"},{"task":"memory_phase","broad_category":"I","image_png":"I_Gabbro_11.png","image_id":59,"category_name":"Gabbro","category":4,"distinct_rating":1.99,"distinct_type":"Bottom","rt":null,"stimulus":"Stimuli_Rocks480/I_Gabbro_11.png","response":null,"trial_type":"image-keyboard-response","trial_index":230,"plugin_version":"2.1.0","time_elapsed":477983,"subject_id":"90833","group":"Group1","condition":"3_Rep","full_date":"2026-02-14T20:11:24.858Z","date":"2026-02-14","time":"20:11:24"},{"rt":null,"stimulus":"<p style=\"font-size: 50px; margin: 0; text-align: center;\">+</p>","response":null,"trial_type":"html-keyboard-response","trial_index":231,"plugin_version":"2.1.0","time_elapsed":478985,"subject_id":"90833","group":"Group1","condition":"3_Rep","full_date":"2026-02-14T20:11:24.858Z","date":"2026-02-14","time":"20:11:24"},{"task":"memory_phase","broad_category":"I","image_png":"I_Pumice_08.png","image_id":136,"category_name":"Pumice","category":9,"distinct_rating":3.1,"distinct_type":"Bottom","rt":null,"stimulus":"Stimuli_Rocks480/I_Pumice_08.png","response":null,"trial_type":"image-keyboard-response","trial_index":232,"plugin_version":"2.1.0","time_elapsed":481489,"subject_id":"90833","group":"Group1","condition":"3_Rep","full_date":"2026-02-14T20:11:24.858Z","date":"2026-02-14","time":"20:11:24"},{"rt":null,"stimulus":"<p style=\"font-size: 50px; margin: 0; text-align: center;\">+</p>","response":null,"trial_type":"html-keyboard-response","trial_index":233,"plugin_version":"2.1.0","time_elapsed":482492,"subject_id":"90833","group":"Group1","condition":"3_Rep","full_date":"2026-02-14T20:11:24.858Z","date":"2026-02-14","time":"20:11:24"},{"task":"memory_phase","broad_category":"I","image_png":"I_Diorite_03.png","image_id":35,"category_name":"Diorite","category":3,"distinct_rating":3.14,"distinct_type":"Bottom","rt":null,"stimulus":"Stimuli_Rocks480/I_Diorite_03.png","response":null,"trial_type":"image-keyboard-response","trial_index":234,"plugin_version":"2.1.0","time_elapsed":484995,"subject_id":"90833","group":"Group1","condition":"3_Rep","full_date":"2026-02-14T20:11:24.858Z","date":"2026-02-14","time":"20:11:24"},{"rt":null,"stimulus":"<p style=\"font-size: 50px; margin: 0; text-align: center;\">+</p>","response":null,"trial_type":"html-keyboard-response","trial_index":235,"plugin_version":"2.1.0","time_elapsed":485998,"subject_id":"90833","group":"Group1","condition":"3_Rep","full_date":"2026-02-14T20:11:24.858Z","date":"2026-02-14","time":"20:11:24"},{"task":"memory_phase","broad_category":"I","image_png":"I_Diorite_04.png","image_id":36,"category_name":"Diorite","category":3,"distinct_rating":2.98,"distinct_type":"Bottom","rt"