[{"width":1512,"height":787,"webaudio":true,"browser":"safari","browser_version":"26.3.1","mobile":false,"os":"Mac OS","fullscreen":true,"vsync_rate":58.65,"webcam":true,"microphone":true,"trial_type":"browser-check","trial_index":0,"plugin_version":"2.1.0","time_elapsed":1032,"subject_id":"92481","group":"Group1","condition":"3_Rep","full_date":"2026-03-12T01:17:32.764Z","date":"2026-03-12","time":"01:17:32"},{"success":true,"timeout":false,"failed_images":[],"failed_audio":[],"failed_video":[],"trial_type":"preload","trial_index":1,"plugin_version":"2.1.0","time_elapsed":2828,"subject_id":"92481","group":"Group1","condition":"3_Rep","full_date":"2026-03-12T01:17:32.764Z","date":"2026-03-12","time":"01:17:32"},{"rt":16885,"url":"SONA_consent_memorability.html","trial_type":"external-html","trial_index":2,"plugin_version":"2.1.0","time_elapsed":19766,"subject_id":"92481","group":"Group1","condition":"3_Rep","full_date":"2026-03-12T01:17:32.764Z","date":"2026-03-12","time":"01:17:32"},{"success":true,"rt":1165,"trial_type":"fullscreen","trial_index":3,"plugin_version":"2.1.0","time_elapsed":21936,"subject_id":"92481","group":"Group1","condition":"3_Rep","full_date":"2026-03-12T01:17:32.764Z","date":"2026-03-12","time":"01:17:32"},{"rt":8373,"stimulus":"<div style=\"max-width: 760px; margin: auto; font-size: 20px; line-height: 1.5;\">\n      <h1 style=\"text-align:center; font-size: 30px;\">Instructions</h1>\n      <p>\n        Welcome to the study on <b>visual memory</b>. This experiment consists of <b>two phases</b>: \n        a <b>study phase</b> and a <b>test phase</b>.\n      </p>\n      <p>\n        In the study phase, you will see a series of rock images along with their category labels.\n        The images will appear one at a time.\n        <b>Your task</b> is to learn the categories to which the rock images belong \n        and to remember each image as accurately as possible.\n      </p> \n      <p>\n        Note that we will repeat the study phase <b>3 times</b>, \n             so you will have multiple opportunities to see and remember each image.\n      </p>\n      <p>\n        After the study phase, <b>your memory will be tested</b>. \n        Additional instructions for the test phase will be provided at that time.\n      </p>\n      <p>\n        If your computer has multiple <b>language settings</b> (e.g., English and another language),\n        please make sure it is set to English before starting.\n      </p>\n      <p>\n        You can track your progress using the <b>completion bar</b> at the top of the screen. \n        Please note that the bar will refresh when the test phase begins \n        to give you an accurate sense of your progress in both phases.\n      </p> \n      <p>\n        Press the button below when you are ready to begin.\n      </p>\n    </div>","response":0,"trial_type":"html-button-response","trial_index":4,"plugin_version":"2.1.0","time_elapsed":30312,"subject_id":"92481","group":"Group1","condition":"3_Rep","full_date":"2026-03-12T01:17:32.764Z","date":"2026-03-12","time":"01:17:32"},{"rt":null,"stimulus":"<p style=\"font-size: 50px; margin: 0; text-align: center;\">+</p>","response":null,"trial_type":"html-keyboard-response","trial_index":5,"plugin_version":"2.1.0","time_elapsed":31316,"subject_id":"92481","group":"Group1","condition":"3_Rep","full_date":"2026-03-12T01:17:32.764Z","date":"2026-03-12","time":"01:17:32"},{"task":"memory_phase","broad_category":"M","image_png":"M_Phyllite_07.png","image_id":263,"category_name":"Phyllite","category":17,"distinct_rating":2.59,"distinct_type":"Bottom","rt":null,"stimulus":"Stimuli_Rocks480/M_Phyllite_07.png","response":null,"trial_type":"image-keyboard-response","trial_index":6,"plugin_version":"2.1.0","time_elapsed":33832,"subject_id":"92481","group":"Group1","condition":"3_Rep","full_date":"2026-03-12T01:17:32.764Z","date":"2026-03-12","time":"01:17:32"},{"rt":null,"stimulus":"<p style=\"font-size: 50px; margin: 0; text-align: center;\">+</p>","response":null,"trial_type":"html-keyboard-response","trial_index":7,"plugin_version":"2.1.0","time_elapsed":34835,"subject_id":"92481","group":"Group1","condition":"3_Rep","full_date":"2026-03-12T01:17:32.764Z","date":"2026-03-12","time":"01:17:32"},{"task":"memory_phase","broad_category":"S","image_png":"S_Rock Gypsum_04.png","image_id":420,"category_name":"Rock Gypsum","category":27,"distinct_rating":7.61,"distinct_type":"Top","rt":null,"stimulus":"Stimuli_Rocks480/S_Rock Gypsum_04.png","response":null,"trial_type":"image-keyboard-response","trial_index":8,"plugin_version":"2.1.0","time_elapsed":37353,"subject_id":"92481","group":"Group1","condition":"3_Rep","full_date":"2026-03-12T01:17:32.764Z","date":"2026-03-12","time":"01:17:32"},{"rt":null,"stimulus":"<p style=\"font-size: 50px; margin: 0; text-align: center;\">+</p>","response":null,"trial_type":"html-keyboard-response","trial_index":9,"plugin_version":"2.1.0","time_elapsed":38356,"subject_id":"92481","group":"Group1","condition":"3_Rep","full_date":"2026-03-12T01:17:32.764Z","date":"2026-03-12","time":"01:17:32"},{"task":"memory_phase","broad_category":"I","image_png":"I_Gabbro_11.png","image_id":59,"category_name":"Gabbro","category":4,"distinct_rating":1.99,"distinct_type":"Bottom","rt":null,"stimulus":"Stimuli_Rocks480/I_Gabbro_11.png","response":null,"trial_type":"image-keyboard-response","trial_index":10,"plugin_version":"2.1.0","time_elapsed":40871,"subject_id":"92481","group":"Group1","condition":"3_Rep","full_date":"2026-03-12T01:17:32.764Z","date":"2026-03-12","time":"01:17:32"},{"rt":null,"stimulus":"<p style=\"font-size: 50px; margin: 0; text-align: center;\">+</p>","response":null,"trial_type":"html-keyboard-response","trial_index":11,"plugin_version":"2.1.0","time_elapsed":41874,"subject_id":"92481","group":"Group1","condition":"3_Rep","full_date":"2026-03-12T01:17:32.764Z","date":"2026-03-12","time":"01:17:32"},{"task":"memory_phase","broad_category":"S","image_png":"S_Rock Salt_01.png","image_id":433,"category_name":"Rock Salt","category":28,"distinct_rating":7.18,"distinct_type":"Top","rt":null,"stimulus":"Stimuli_Rocks480/S_Rock Salt_01.png","response":null,"trial_type":"image-keyboard-response","trial_index":12,"plugin_version":"2.1.0","time_elapsed":44395,"subject_id":"92481","group":"Group1","condition":"3_Rep","full_date":"2026-03-12T01:17:32.764Z","date":"2026-03-12","time":"01:17:32"},{"rt":null,"stimulus":"<p style=\"font-size: 50px; margin: 0; text-align: center;\">+</p>","response":null,"trial_type":"html-keyboard-response","trial_index":13,"plugin_version":"2.1.0","time_elapsed":45398,"subject_id":"92481","group":"Group1","condition":"3_Rep","full_date":"2026-03-12T01:17:32.764Z","date":"2026-03-12","time":"01:17:32"},{"task":"memory_phase","broad_category":"M","image_png":"M_Marble_04.png","image_id":228,"category_name":"Marble","category":15,"distinct_rating":3.15,"distinct_type":"Bottom","rt":null,"stimulus":"Stimuli_Rocks480/M_Marble_04.png","response":null,"trial_type":"image-keyboard-response","trial_index":14,"plugin_version":"2.1.0","time_elapsed":47914,"subject_id":"92481","group":"Group1","condition":"3_Rep","full_date":"2026-03-12T01:17:32.764Z","date":"2026-03-12","time":"01:17:32"},{"rt":null,"stimulus":"<p style=\"font-size: 50px; margin: 0; text-align: center;\">+</p>","response":null,"trial_type":"html-keyboard-response","trial_index":15,"plugin_version":"2.1.0","time_elapsed":48917,"subject_id":"92481","group":"Group1","condition":"3_Rep","full_date":"2026-03-12T01:17:32.764Z","date":"2026-03-12","time":"01:17:32"},{"task":"memory_phase","broad_category":"I","image_png":"I_Pumice_11.png","image_id":139,"category_name":"Pumice","category":9,"distinct_rating":1.74,"distinct_type":"Bottom","rt":null,"stimulus":"Stimuli_Rocks480/I_Pumice_11.png","response":null,"trial_type":"image-keyboard-response","trial_index":16,"plugin_version":"2.1.0","time_elapsed":51428,"subject_id":"92481","group":"Group1","condition":"3_Rep","full_date":"2026-03-12T01:17:32.764Z","date":"2026-03-12","time":"01:17:32"},{"rt":null,"stimulus":"<p style=\"font-size: 50px; margin: 0; text-align: center;\">+</p>","response":null,"trial_type":"html-keyboard-response","trial_index":17,"plugin_version":"2.1.0","time_elapsed":52431,"subject_id":"92481","group":"Group1","condition":"3_Rep","full_date":"2026-03-12T01:17:32.764Z","date":"2026-03-12","time":"01:17:32"},{"task":"memory_phase","broad_category":"S","image_png":"S_Shale_08.png","image_id":472,"category_name":"Shale","category":30,"distinct_rating":2.55,"distinct_type":"Bottom","rt":null,"stimulus":"Stimuli_Rocks480/S_Shale_08.png","response":null,"trial_type":"image-keyboard-response","trial_index":18,"plugin_version":"2.1.0","time_elapsed":54950,"subject_id":"92481","group":"Group1","condition":"3_Rep","full_date":"2026-03-12T01:17:32.764Z","date":"2026-03-12","time":"01:17:32"},{"rt":null,"stimulus":"<p style=\"font-size: 50px; margin: 0; text-align: center;\">+</p>","response":null,"trial_type":"html-keyboard-response","trial_index":19,"plugin_version":"2.1.0","time_elapsed":55952,"subject_id":"92481","group":"Group1","condition":"3_Rep","full_date":"2026-03-12T01:17:32.764Z","date":"2026-03-12","time":"01:17:32"},{"task":"memory_phase","broad_category":"S","image_png":"S_Dolomite_13.png","image_id":397,"category_name":"Dolomite","category":25,"distinct_rating":1.77,"distinct_type":"Bottom","rt":null,"stimulus":"Stimuli_Rocks480/S_Dolomite_13.png","response":null,"trial_type":"image-keyboard-response","trial_index":20,"plugin_version":"2.1.0","time_elapsed":58469,"subject_id":"92481","group":"Group1","condition":"3_Rep","full_date":"2026-03-12T01:17:32.764Z","date":"2026-03-12","time":"01:17:32"},{"rt":null,"stimulus":"<p style=\"font-size: 50px; margin: 0; text-align: center;\">+</p>","response":null,"trial_type":"html-keyboard-response","trial_index":21,"plugin_version":"2.1.0","time_elapsed":59472,"subject_id":"92481","group":"Group1","condition":"3_Rep","full_date":"2026-03-12T01:17:32.764Z","date":"2026-03-12","time":"01:17:32"},{"task":"memory_phase","broad_category":"S","image_png":"S_Shale_12.png","image_id":476,"category_name":"Shale","category":30,"distinct_rating":2.48,"distinct_type":"Bottom","rt":null,"stimulus":"Stimuli_Rocks480/S_Shale_12.png","response":null,"trial_type":"image-keyboard-response","trial_index":22,"plugin_version":"2.1.0","time_elapsed":61991,"subject_id":"92481","group":"Group1","condition":"3_Rep","full_date":"2026-03-12T01:17:32.764Z","date":"2026-03-12","time":"01:17:32"},{"rt":null,"stimulus":"<p style=\"font-size: 50px; margin: 0; text-align: center;\">+</p>","response":null,"trial_type":"html-keyboard-response","trial_index":23,"plugin_version":"2.1.0","time_elapsed":62994,"subject_id":"92481","group":"Group1","condition":"3_Rep","full_date":"2026-03-12T01:17:32.764Z","date":"2026-03-12","time":"01:17:32"},{"task":"memory_phase","broad_category":"S","image_png":"S_Conglomerate_05.png","image_id":373,"category_name":"Conglomerate","category":24,"distinct_rating":7.32,"distinct_type":"Top","rt":null,"stimulus":"Stimuli_Rocks480/S_Conglomerate_05.png","response":null,"trial_type":"image-keyboard-response","trial_index":24,"plugin_version":"2.1.0","time_elapsed":65512,"subject_id":"92481","group":"Group1","condition":"3_Rep","full_date":"2026-03-12T01:17:32.764Z","date":"2026-03-12","time":"01:17:32"},{"rt":null,"stimulus":"<p style=\"font-size: 50px; margin: 0; text-align: center;\">+</p>","response":null,"trial_type":"html-keyboard-response","trial_index":25,"plugin_version":"2.1.0","time_elapsed":66515,"subject_id":"92481","group":"Group1","condition":"3_Rep","full_date":"2026-03-12T01:17:32.764Z","date":"2026-03-12","time":"01:17:32"},{"task":"memory_phase","broad_category":"I","image_png":"I_Gabbro_16.png","image_id":64,"category_name":"Gabbro","category":4,"distinct_rating":2.52,"distinct_type":"Bottom","rt":null,"stimulus":"Stimuli_Rocks480/I_Gabbro_16.png","response":null,"trial_type":"image-keyboard-response","trial_index":26,"plugin_version":"2.1.0","time_elapsed":69031,"subject_id":"92481","group":"Group1","condition":"3_Rep","full_date":"2026-03-12T01:17:32.764Z","date":"2026-03-12","time":"01:17:32"},{"rt":null,"stimulus":"<p style=\"font-size: 50px; margin: 0; text-align: center;\">+</p>","response":null,"trial_type":"html-keyboard-response","trial_index":27,"plugin_version":"2.1.0","time_elapsed":70034,"subject_id":"92481","group":"Group1","condition":"3_Rep","full_date":"2026-03-12T01:17:32.764Z","date":"2026-03-12","time":"01:17:32"},{"task":"memory_phase","broad_category":"M","image_png":"M_Phyllite_10.png","image_id":266,"category_name":"Phyllite","category":17,"distinct_rating":2.6,"distinct_type":"Bottom","rt":null,"stimulus":"Stimuli_Rocks480/M_Phyllite_10.png","response":null,"trial_type":"image-keyboard-response","trial_index":28,"plugin_version":"2.1.0","time_elapsed":72548,"subject_id":"92481","group":"Group1","condition":"3_Rep","full_date":"2026-03-12T01:17:32.764Z","date":"2026-03-12","time":"01:17:32"},{"rt":null,"stimulus":"<p style=\"font-size: 50px; margin: 0; text-align: center;\">+</p>","response":null,"trial_type":"html-keyboard-response","trial_index":29,"plugin_version":"2.1.0","time_elapsed":73551,"subject_id":"92481","group":"Group1","condition":"3_Rep","full_date":"2026-03-12T01:17:32.764Z","date":"2026-03-12","time":"01:17:32"},{"task":"memory_phase","broad_category":"I","image_png":"I_Obsidian_05.png","image_id":85,"category_name":"Obsidian","category":6,"distinct_rating":7.32,"distinct_type":"Top","rt":null,"stimulus":"Stimuli_Rocks480/I_Obsidian_05.png","response":null,"trial_type":"image-keyboard-response","trial_index":30,"plugin_version":"2.1.0","time_elapsed":76070,"subject_id":"92481","group":"Group1","condition":"3_Rep","full_date":"2026-03-12T01:17:32.764Z","date":"2026-03-12","time":"01:17:32"},{"rt":null,"stimulus":"<p style=\"font-size: 50px; margin: 0; text-align: center;\">+</p>","response":null,"trial_type":"html-keyboard-response","trial_index":31,"plugin_version":"2.1.0","time_elapsed":77073,"subject_id":"92481","group":"Group1","condition":"3_Rep","full_date":"2026-03-12T01:17:32.764Z","date":"2026-03-12","time":"01:17:32"},{"task":"memory_phase","broad_category":"M","image_png":"M_Slate_03.png","image_id":307,"category_name":"Slate","category":20,"distinct_rating":1.87,"distinct_type":"Bottom","rt":null,"stimulus":"Stimuli_Rocks480/M_Slate_03.png","response":null,"trial_type":"image-keyboard-response","trial_index":32,"plugin_version":"2.1.0","time_elapsed":79591,"subject_id":"92481","group":"Group1","condition":"3_Rep","full_date":"2026-03-12T01:17:32.764Z","date":"2026-03-12","time":"01:17:32"},{"rt":null,"stimulus":"<p style=\"font-size: 50px; margin: 0; text-align: center;\">+</p>","response":null,"trial_type":"html-keyboard-response","trial_index":33,"plugin_version":"2.1.0","time_elapsed":80594,"subject_id":"92481","group":"Group1","condition":"3_Rep","full_date":"2026-03-12T01:17:32.764Z","date":"2026-03-12","time":"01:17:32"},{"task":"memory_phase","broad_category":"M","image_png":"M_Slate_11.png","image_id":315,"category_name":"Slate","category":20,"distinct_rating":2.75,"distinct_type":"Bottom","rt":null,"stimulus":"Stimuli_Rocks480/M_Slate_11.png","response":null,"trial_type":"image-keyboard-response","trial_index":34,"plugin_version":"2.1.0","time_elapsed":83109,"subject_id":"92481","group":"Group1","condition":"3_Rep","full_date":"2026-03-12T01:17:32.764Z","date":"2026-03-12","time":"01:17:32"},{"rt":null,"stimulus":"<p style=\"font-size: 50px; margin: 0; text-align: center;\">+</p>","response":null,"trial_type":"html-keyboard-response","trial_index":35,"plugin_version":"2.1.0","time_elapsed":84113,"subject_id":"92481","group":"Group1","condition":"3_Rep","full_date":"2026-03-12T01:17:32.764Z","date":"2026-03-12","time":"01:17:32"},{"task":"memory_phase","broad_category":"I","image_png":"I_Pegmatite_10.png","image_id":106,"category_name":"Pegmatite","category":7,"distinct_rating":7.66,"distinct_type":"Top","rt":null,"stimulus":"Stimuli_Rocks480/I_Pegmatite_10.png","response":null,"trial_type":"image-keyboard-response","trial_index":36,"plugin_version":"2.1.0","time_elapsed":86630,"subject_id":"92481","group":"Group1","condition":"3_Rep","full_date":"2026-03-12T01:17:32.764Z","date":"2026-03-12","time":"01:17:32"},{"rt":null,"stimulus":"<p style=\"font-size: 50px; margin: 0; text-align: center;\">+</p>","response":null,"trial_type":"html-keyboard-response","trial_index":37,"plugin_version":"2.1.0","time_elapsed":87633,"subject_id":"92481","group":"Group1","condition":"3_Rep","full_date":"2026-03-12T01:17:32.764Z","date":"2026-03-12","time":"01:17:32"},{"task":"memory_phase","broad_category":"I","image_png":"I_Pegmatite_16.png","image_id":112,"category_name":"Pegmatite","category":7,"distinct_rating":7.03,"distinct_type":"Top","rt":null,"stimulus":"Stimuli_Rocks480/I_Pegmatite_16.png","response":null,"trial_type":"image-keyboard-response","trial_index":38,"plugin_version":"2.1.0","time_elapsed":90150,"subject_id":"92481","group":"Group1","condition":"3_Rep","full_date":"2026-03-12T01:17:32.764Z","date":"2026-03-12","time":"01:17:32"},{"rt":null,"stimulus":"<p style=\"font-size: 50px; margin: 0; text-align: center;\">+</p>","response":null,"trial_type":"html-keyboard-response","trial_index":39,"plugin_version":"2.1.0","time_elapsed":91153,"subject_id":"92481","group":"Group1","condition":"3_Rep","full_date":"2026-03-12T01:17:32.764Z","date":"2026-03-12","time":"01:17:32"},{"task":"memory_phase","broad_category":"I","image_png":"I_Basalt_01.png","image_id":17,"category_name":"Basalt","category":2,"distinct_rating":1.92,"distinct_type":"Bottom","rt":null,"stimulus":"Stimuli_Rocks480/I_Basalt_01.png","response":null,"trial_type":"image-keyboard-response","trial_index":40,"plugin_version":"2.1.0","time_elapsed":93674,"subject_id":"92481","group":"Group1","condition":"3_Rep","full_date":"2026-03-12T01:17:32.764Z","date":"2026-03-12","time":"01:17:32"},{"rt":null,"stimulus":"<p style=\"font-size: 50px; margin: 0; text-align: center;\">+</p>","response":null,"trial_type":"html-keyboard-response","trial_index":41,"plugin_version":"2.1.0","time_elapsed":94677,"subject_id":"92481","group":"Group1","condition":"3_Rep","full_date":"2026-03-12T01:17:32.764Z","date":"2026-03-12","time":"01:17:32"},{"task":"memory_phase","broad_category":"I","image_png":"I_Andesite_10.png","image_id":10,"category_name":"Andesite","category":1,"distinct_rating":3.15,"distinct_type":"Bottom","rt":null,"stimulus":"Stimuli_Rocks480/I_Andesite_10.png","response":null,"trial_type":"image-keyboard-response","trial_index":42,"plugin_version":"2.1.0","time_elapsed":97190,"subject_id":"92481","group":"Group1","condition":"3_Rep","full_date":"2026-03-12T01:17:32.764Z","date":"2026-03-12","time":"01:17:32"},{"rt":null,"stimulus":"<p style=\"font-size: 50px; margin: 0; text-align: center;\">+</p>","response":null,"trial_type":"html-keyboard-response","trial_index":43,"plugin_version":"2.1.0","time_elapsed":98192,"subject_id":"92481","group":"Group1","condition":"3_Rep","full_date":"2026-03-12T01:17:32.764Z","date":"2026-03-12","time":"01:17:32"},{"task":"memory_phase","broad_category":"I","image_png":"I_Diorite_03.png","image_id":35,"category_name":"Diorite","category":3,"distinct_rating":3.14,"distinct_type":"Bottom","rt":null,"stimulus":"Stimuli_Rocks480/I_Diorite_03.png","response":null,"trial_type":"image-keyboard-response","trial_index":44,"plugin_version":"2.1.0","time_elapsed":100714,"subject_id":"92481","group":"Group1","condition":"3_Rep","full_date":"2026-03-12T01:17:32.764Z","date":"2026-03-12","time":"01:17:32"},{"rt":null,"stimulus":"<p style=\"font-size: 50px; margin: 0; text-align: center;\">+</p>","response":null,"trial_type":"html-keyboard-response","trial_index":45,"plugin_version":"2.1.0","time_elapsed":101717,"subject_id":"92481","group":"Group1","condition":"3_Rep","full_date":"2026-03-12T01:17:32.764Z","date":"2026-03-12","time":"01:17:32"},{"task":"memory_phase","broad_category":"S","image_png":"S_Sandstone_15.png","image_id":463,"category_name":"Sandstone","category":29,"distinct_rating":2,"distinct_type":"Bottom","rt":null,"stimulus":"Stimuli_Rocks480/S_Sandstone_15.png","response":null,"trial_type":"image-keyboard-response","trial_index":46,"plugin_version":"2.1.0","time_elapsed":104237,"subject_id":"92481","group":"Group1","condition":"3_Rep","full_date":"2026-03-12T01:17:32.764Z","date":"2026-03-12","time":"01:17:32"},{"rt":null,"stimulus":"<p style=\"font-size: 50px; margin: 0; text-align: center;\">+</p>","response":null,"trial_type":"html-keyboard-response","trial_index":47,"plugin_version":"2.1.0","time_elapsed":105239,"subject_id":"92481","group":"Group1","condition":"3_Rep","full_date":"2026-03-12T01:17:32.764Z","date":"2026-03-12","time":"01:17:32"},{"task":"memory_phase","broad_category":"M","image_png":"M_Gneiss_06.png","image_id":198,"category_name":"Gneiss","category":13,"distinct_rating":2.65,"distinct_type":"Bottom","rt":null,"stimulus":"Stimuli_Rocks480/M_Gneiss_06.png","response":null,"trial_type":"image-keyboard-response","trial_index":48,"plugin_version":"2.1.0","time_elapsed":107761,"subject_id":"92481","group":"Group1","condition":"3_Rep","full_date":"2026-03-12T01:17:32.764Z","date":"2026-03-12","time":"01:17:32"},{"rt":null,"stimulus":"<p style=\"font-size: 50px; margin: 0; text-align: center;\">+</p>","response":null,"trial_type":"html-keyboard-response","trial_index":49,"plugin_version":"2.1.0","time_elapsed":108763,"subject_id":"92481","group":"Group1","condition":"3_Rep","full_date":"2026-03-12T01:17:32.764Z","date":"2026-03-12","time":"01:17:32"},{"task":"memory_phase","broad_category":"I","image_png":"I_Pumice_12.png","image_id":140,"category_name":"Pumice","category":9,"distinct_rating":2.97,"distinct_type":"Bottom","rt":null,"stimulus":"Stimuli_Rocks480/I_Pumice_12.png","response":null,"trial_type":"image-keyboard-response","trial_index":50,"plugin_version":"2.1.0","time_elapsed":111275,"subject_id":"92481","group":"Group1","condition":"3_Rep","full_date":"2026-03-12T01:17:32.764Z","date":"2026-03-12","time":"01:17:32"},{"rt":null,"stimulus":"<p style=\"font-size: 50px; margin: 0; text-align: center;\">+</p>","response":null,"trial_type":"html-keyboard-response","trial_index":51,"plugin_version":"2.1.0","time_elapsed":112278,"subject_id":"92481","group":"Group1","condition":"3_Rep","full_date":"2026-03-12T01:17:32.764Z","date":"2026-03-12","time":"01:17:32"},{"task":"memory_phase","broad_category":"I","image_png":"I_Basalt_09.png","image_id":25,"category_name":"Basalt","category":2,"distinct_rating":1.89,"distinct_type":"Bottom","rt":null,"stimulus":"Stimuli_Rocks480/I_Basalt_09.png","response":null,"trial_type":"image-keyboard-response","trial_index":52,"plugin_version":"2.1.0","time_elapsed":114792,"subject_id":"92481","group":"Group1","condition":"3_Rep","full_date":"2026-03-12T01:17:32.764Z","date":"2026-03-12","time":"01:17:32"},{"rt":null,"stimulus":"<p style=\"font-size: 50px; margin: 0; text-align: center;\">+</p>","response":null,"trial_type":"html-keyboard-response","trial_index":53,"plugin_version":"2.1.0","time_elapsed":115794,"subject_id":"92481","group":"Group1","condition":"3_Rep","full_date":"2026-03-12T01:17:32.764Z","date":"2026-03-12","time":"01:17:32"},{"task":"memory_phase","broad_category":"M","image_png":"M_Slate_15.png","image_id":319,"category_name":"Slate","category":20,"distinct_rating":2.13,"distinct_type":"Bottom","rt":null,"stimulus":"Stimuli_Rocks480/M_Slate_15.png","response":null,"trial_type":"image-keyboard-response","trial_index":54,"plugin_version":"2.1.0","time_elapsed":118306,"subject_id":"92481","group":"Group1","condition":"3_Rep","full_date":"2026-03-12T01:17:32.764Z","date":"2026-03-12","time":"01:17:32"},{"rt":2102,"stimulus":"<p style=\"max-width: 760px; margin: auto; font-size: 35px; line-height: 1.5;\">\n                Press SPACE to continue study phase\n              </p>","response":" ","trial_type":"html-keyboard-response","trial_index":55,"plugin_version":"2.1.0","time_elapsed":120411,"subject_id":"92481","group":"Group1","condition":"3_Rep","full_date":"2026-03-12T01:17:32.764Z","date":"2026-03-12","time":"01:17:32"},{"rt":null,"stimulus":"<p style=\"font-size: 50px; margin: 0; text-align: center;\">+</p>","response":null,"trial_type":"html-keyboard-response","trial_index":56,"plugin_version":"2.1.0","time_elapsed":121414,"subject_id":"92481","group":"Group1","condition":"3_Rep","full_date":"2026-03-12T01:17:32.764Z","date":"2026-03-12","time":"01:17:32"},{"task":"memory_phase","broad_category":"I","image_png":"I_Diorite_05.png","image_id":37,"category_name":"Diorite","category":3,"distinct_rating":3.08,"distinct_type":"Bottom","rt":null,"stimulus":"Stimuli_Rocks480/I_Diorite_05.png","response":null,"trial_type":"image-keyboard-response","trial_index":57,"plugin_version":"2.1.0","time_elapsed":123928,"subject_id":"92481","group":"Group1","condition":"3_Rep","full_date":"2026-03-12T01:17:32.764Z","date":"2026-03-12","time":"01:17:32"},{"rt":null,"stimulus":"<p style=\"font-size: 50px; margin: 0; text-align: center;\">+</p>","response":null,"trial_type":"html-keyboard-response","trial_index":58,"plugin_version":"2.1.0","time_elapsed":124930,"subject_id":"92481","group":"Group1","condition":"3_Rep","full_date":"2026-03-12T01:17:32.764Z","date":"2026-03-12","time":"01:17:32"},{"task":"memory_phase","broad_category":"I","image_png":"I_Andesite_06.png","image_id":6,"category_name":"Andesite","category":1,"distinct_rating":3.17,"distinct_type":"Bottom","rt":null,"stimulus":"Stimuli_Rocks480/I_Andesite_06.png","response":null,"trial_type":"image-keyboard-response","trial_index":59,"plugin_version":"2.1.0","time_elapsed":127445,"subject_id":"92481","group":"Group1","condition":"3_Rep","full_date":"2026-03-12T01:17:32.764Z","date":"2026-03-12","time":"01:17:32"},{"rt":null,"stimulus":"<p style=\"font-size: 50px; margin: 0; text-align: center;\">+</p>","response":null,"trial_type":"html-keyboard-response","trial_index":60,"plugin_version":"2.1.0","time_elapsed":128448,"subject_id":"92481","group":"Group1","condition":"3_Rep","full_date":"2026-03-12T01:17:32.764Z","date":"2026-03-12","time":"01:17:32"},{"task":"memory_phase","broad_category":"M","image_png":"M_Quartzite_05.png","image_id":277,"category_name":"Quartzite","category":18,"distinct_rating":2.23,"distinct_type":"Bottom","rt":null,"stimulus":"Stimuli_Rocks480/M_Quartzite_05.png","response":null,"trial_type":"image-keyboard-response","trial_index":61,"plugin_version":"2.1.0","time_elapsed":130963,"subject_id":"92481","group":"Group1","condition":"3_Rep","full_date":"2026-03-12T01:17:32.764Z","date":"2026-03-12","time":"01:17:32"},{"rt":null,"stimulus":"<p style=\"font-size: 50px; margin: 0; text-align: center;\">+</p>","response":null,"trial_type":"html-keyboard-response","trial_index":62,"plugin_version":"2.1.0","time_elapsed":131966,"subject_id":"92481","group":"Group1","condition":"3_Rep","full_date":"2026-03-12T01:17:32.764Z","date":"2026-03-12","time":"01:17:32"},{"task":"memory_phase","broad_category":"I","image_png":"I_Pumice_08.png","image_id":136,"category_name":"Pumice","category":9,"distinct_rating":3.1,"distinct_type":"Bottom","rt":null,"stimulus":"Stimuli_Rocks480/I_Pumice_08.png","response":null,"trial_type":"image-keyboard-response","trial_index":63,"plugin_version":"2.1.0","time_elapsed":134481,"subject_id":"92481","group":"Group1","condition":"3_Rep","full_date":"2026-03-12T01:17:32.764Z","date":"2026-03-12","time":"01:17:32"},{"rt":null,"stimulus":"<p style=\"font-size: 50px; margin: 0; text-align: center;\">+</p>","response":null,"trial_type":"html-keyboard-response","trial_index":64,"plugin_version":"2.1.0","time_elapsed":135484,"subject_id":"92481","group":"Group1","condition":"3_Rep","full_date":"2026-03-12T01:17:32.764Z","date":"2026-03-12","time":"01:17:32"},{"task":"memory_phase","broad_category":"I","image_png":"I_Diorite_04.png","image_id":36,"category_name":"Diorite","category":3,"distinct_rating":2.98,"distinct_type":"Bottom","rt":null,"stimulus":"Stimuli_Rocks480/I_Diorite_04.png","response":null,"trial_type":"image-keyboard-response","trial_index":65,"plugin_version":"2.1.0","time_elapsed":138003,"subject_id":"92481","group":"Group1","condition":"3_Rep","full_date":"2026-03-12T01:17:32.764Z","date":"2026-03-12","time":"01:17:32"},{"rt":null,"stimulus":"<p style=\"font-size: 50px; margin: 0; text-align: center;\">+</p>","response":null,"trial_type":"html-keyboard-response","trial_index":66,"plugin_version":"2.1.0","time_elapsed":139005,"subject_id":"92481","group":"Group1","condition":"3_Rep","full_date":"2026-03-12T01:17:32.764Z","date":"2026-03-12","time":"01:17:32"},{"task":"memory_phase","broad_category":"I","image_png":"I_Gabbro_08.png","image_id":56,"category_name":"Gabbro","category":4,"distinct_rating":3.02,"distinct_type":"Bottom","rt":null,"stimulus":"Stimuli_Rocks480/I_Gabbro_08.png","response":null,"trial_type":"image-keyboard-response","trial_index":67,"plugin_version":"2.1.0","time_elapsed":141518,"subject_id":"92481","group":"Group1","condition":"3_Rep","full_date":"2026-03-12T01:17:32.764Z","date":"2026-03-12","time":"01:17:32"},{"rt":null,"stimulus":"<p style=\"font-size: 50px; margin: 0; text-align: center;\">+</p>","response":null,"trial_type":"html-keyboard-response","trial_index":68,"plugin_version":"2.1.0","time_elapsed":142521,"subject_id":"92481","group":"Group1","condition":"3_Rep","full_date":"2026-03-12T01:17:32.764Z","date":"2026-03-12","time":"01:17:32"},{"task":"memory_phase","broad_category":"S","image_png":"S_Shale_01.png","image_id":465,"category_name":"Shale","category":30,"distinct_rating":2.7,"distinct_type":"Bottom","rt":null,"stimulus":"Stimuli_Rocks480/S_Shale_01.png","response":null,"trial_type":"image-keyboard-response","trial_index":69,"plugin_version":"2.1.0","time_elapsed":145035,"subject_id":"92481","group":"Group1","condition":"3_Rep","full_date":"2026-03-12T01:17:32.764Z","date":"2026-03-12","time":"01:17:32"},{"rt":null,"stimulus":"<p style=\"font-size: 50px; margin: 0; text-align: center;\">+</p>","response":null,"trial_type":"html-keyboard-response","trial_index":70,"plugin_version":"2.1.0","time_elapsed":146038,"subject_id":"92481","group":"Group1","condition":"3_Rep","full_date":"2026-03-12T01:17:32.764Z","date":"2026-03-12","time":"01:17:32"},{"task":"memory_phase","broad_category":"S","image_png":"S_Sandstone_03.png","image_id":451,"category_name":"Sandstone","category":29,"distinct_rating":1.86,"distinct_type":"Bottom","rt":null,"stimulus":"Stimuli_Rocks480/S_Sandstone_03.png","response":null,"trial_type":"image-keyboard-response","trial_index":71,"plugin_version":"2.1.0","time_elapsed":148556,"subject_id":"92481","group":"Group1","condition":"3_Rep","full_date":"2026-03-12T01:17:32.764Z","date":"2026-03-12","time":"01:17:32"},{"rt":null,"stimulus":"<p style=\"font-size: 50px; margin: 0; text-align: center;\">+</p>","response":null,"trial_type":"html-keyboard-response","trial_index":72,"plugin_version":"2.1.0","time_elapsed":149559,"subject_id":"92481","group":"Group1","condition":"3_Rep","full_date":"2026-03-12T01:17:32.764Z","date":"2026-03-12","time":"01:17:32"},{"task":"memory_phase","broad_category":"I","image_png":"I_Rhyolite_14.png","image_id":158,"category_name":"Rhyolite","category":10,"distinct_rating":2.59,"distinct_type":"Bottom","rt":null,"stimulus":"Stimuli_Rocks480/I_Rhyolite_14.png","response":null,"trial_type":"image-keyboard-response","trial_index":73,"plugin_version":"2.1.0","time_elapsed":152075,"subject_id":"92481","group":"Group1","condition":"3_Rep","full_date":"2026-03-12T01:17:32.764Z","date":"2026-03-12","time":"01:17:32"},{"rt":null,"stimulus":"<p style=\"font-size: 50px; margin: 0; text-align: center;\">+</p>","response":null,"trial_type":"html-keyboard-response","trial_index":74,"plugin_version":"2.1.0","time_elapsed":153078,"subject_id":"92481","group":"Group1","condition":"3_Rep","full_date":"2026-03-12T01:17:32.764Z","date":"2026-03-12","time":"01:17:32"},{"task":"memory_phase","broad_category":"I","image_png":"I_Rhyolite_16.png","image_id":160,"category_name":"Rhyolite","category":10,"distinct_rating":2.19,"distinct_type":"Bottom","rt":null,"stimulus":"Stimuli_Rocks480/I_Rhyolite_16.png","response":null,"trial_type":"image-keyboard-response","trial_index":75,"plugin_version":"2.1.0","time_elapsed":155591,"subject_id":"92481","group":"Group1","condition":"3_Rep","full_date":"2026-03-12T01:17:32.764Z","date":"2026-03-12","time":"01:17:32"},{"rt":null,"stimulus":"<p style=\"font-size: 50px; margin: 0; text-align: center;\">+</p>","response":null,"trial_type":"html-keyboard-response","trial_index":76,"plugin_version":"2.1.0","time_elapsed":156594,"subject_id":"92481","group":"Group1","condition":"3_Rep","full_date":"2026-03-12T01:17:32.764Z","date":"2026-03-12","time":"01:17:32"},{"task":"memory_phase","broad_category":"M","image_png":"M_Marble_16.png","image_id":240,"category_name":"Marble","category":15,"distinct_rating":2.57,"distinct_type":"Bottom","rt":null,"stimulus":"Stimuli_Rocks480/M_Marble_16.png","response":null,"trial_type":"image-keyboard-response","trial_index":77,"plugin_version":"2.1.0","time_elapsed":159111,"subject_id":"92481","group":"Group1","condition":"3_Rep","full_date":"2026-03-12T01:17:32.764Z","date":"2026-03-12","time":"01:17:32"},{"rt":null,"stimulus":"<p style=\"font-size: 50px; margin: 0; text-align: center;\">+</p>","response":null,"trial_type":"html-keyboard-response","trial_index":78,"plugin_version":"2.1.0","time_elapsed":160114,"subject_id":"92481","group":"Group1","condition":"3_Rep","full_date":"2026-03-12T01:17:32.764Z","date":"2026-03-12","time":"01:17:32"},{"task":"memory_phase","broad_category":"S","image_png":"S_Dolomite_14.png","image_id":398,"category_name":"Dolomite","category":25,"distinct_rating":1.43,"distinct_type":"Bottom","rt":null,"stimulus":"Stimuli_Rocks480/S_Dolomite_14.png","response":null,"trial_type":"image-keyboard-response","trial_index":79,"plugin_version":"2.1.0","time_elapsed":162632,"subject_id":"92481","group":"Group1","condition":"3_Rep","full_date":"2026-03-12T01:17:32.764Z","date":"2026-03-12","time":"01:17:32"},{"rt":null,"stimulus":"<p style=\"font-size: 50px; margin: 0; text-align: center;\">+</p>","response":null,"trial_type":"html-keyboard-response","trial_index":80,"plugin_version":"2.1.0","time_elapsed":163635,"subject_id":"92481","group":"Group1","condition":"3_Rep","full_date":"2026-03-12T01:17:32.764Z","date":"2026-03-12","time":"01:17:32"},{"task":"memory_phase","broad_category":"M","image_png":"M_Quartzite_13.png","image_id":285,"category_name":"Quartzite","category":18,"distinct_rating":2.27,"distinct_type":"Bottom","rt":null,"stimulus":"Stimuli_Rocks480/M_Quartzite_13.png","response":null,"trial_type":"image-keyboard-response","trial_index":81,"plugin_version":"2.1.0","time_elapsed":166152,"subject_id":"92481","group":"Group1","condition":"3_Rep","full_date":"2026-03-12T01:17:32.764Z","date":"2026-03-12","time":"01:17:32"},{"rt":null,"stimulus":"<p style=\"font-size: 50px; margin: 0; text-align: center;\">+</p>","response":null,"trial_type":"html-keyboard-response","trial_index":82,"plugin_version":"2.1.0","time_elapsed":167155,"subject_id":"92481","group":"Group1","condition":"3_Rep","full_date":"2026-03-12T01:17:32.764Z","date":"2026-03-12","time":"01:17:32"},{"task":"memory_phase","broad_category":"S","image_png":"S_Chert_10.png","image_id":362,"category_name":"Chert","category":23,"distinct_rating":7.17,"distinct_type":"Top","rt":null,"stimulus":"Stimuli_Rocks480/S_Chert_10.png","response":null,"trial_type":"image-keyboard-response","trial_index":83,"plugin_version":"2.1.0","time_elapsed":169671,"subject_id":"92481","group":"Group1","condition":"3_Rep","full_date":"2026-03-12T01:17:32.764Z","date":"2026-03-12","time":"01:17:32"},{"rt":null,"stimulus":"<p style=\"font-size: 50px; margin: 0; text-align: center;\">+</p>","response":null,"trial_type":"html-keyboard-response","trial_index":84,"plugin_version":"2.1.0","time_elapsed":170674,"subject_id":"92481","group":"Group1","condition":"3_Rep","full_date":"2026-03-12T01:17:32.764Z","date":"2026-03-12","time":"01:17:32"},{"task":"memory_phase","broad_category":"M","image_png":"M_Gneiss_13.png","image_id":205,"category_name":"Gneiss","category":13,"distinct_rating":3.26,"distinct_type":"Bottom","rt":null,"stimulus":"Stimuli_Rocks480/M_Gneiss_13.png","response":null,"trial_type":"image-keyboard-response","trial_index":85,"plugin_version":"2.1.0","time_elapsed":173190,"subject_id":"92481","group":"Group1","condition":"3_Rep","full_date":"2026-03-12T01:17:32.764Z","date":"2026-03-12","time":"01:17:32"},{"rt":null,"stimulus":"<p style=\"font-size: 50px; margin: 0; text-align: center;\">+</p>","response":null,"trial_type":"html-keyboard-response","trial_index":86,"plugin_version":"2.1.0","time_elapsed":174194,"subject_id":"92481","group":"Group1","condition":"3_Rep","full_date":"2026-03-12T01:17:32.764Z","date":"2026-03-12","time":"01:17:32"},{"task":"memory_phase","broad_category":"M","image_png":"M_Phyllite_03.png","image_id":259,"category_name":"Phyllite","category":17,"distinct_rating":2.5,"distinct_type":"Bottom","rt":null,"stimulus":"Stimuli_Rocks480/M_Phyllite_03.png","response":null,"trial_type":"image-keyboard-response","trial_index":87,"plugin_version":"2.1.0","time_elapsed":176712,"subject_id":"92481","group":"Group1","condition":"3_Rep","full_date":"2026-03-12T01:17:32.764Z","date":"2026-03-12","time":"01:17:32"},{"rt":null,"stimulus":"<p style=\"font-size: 50px; margin: 0; text-align: center;\">+</p>","response":null,"trial_type":"html-keyboard-response","trial_index":88,"plugin_version":"2.1.0","time_elapsed":177715,"subject_id":"92481","group":"Group1","condition":"3_Rep","full_date":"2026-03-12T01:17:32.764Z","date":"2026-03-12","time":"01:17:32"},{"task":"memory_phase","broad_category":"S","image_png":"S_Breccia_11.png","image_id":347,"category_name":"Breccia","category":22,"distinct_rating":6.7,"distinct_type":"Top","rt":null,"stimulus":"Stimuli_Rocks480/S_Breccia_11.png","response":null,"trial_type":"image-keyboard-response","trial_index":89,"plugin_version":"2.1.0","time_elapsed":180243,"subject_id":"92481","group":"Group1","condition":"3_Rep","full_date":"2026-03-12T01:17:32.764Z","date":"2026-03-12","time":"01:17:32"},{"rt":null,"stimulus":"<p style=\"font-size: 50px; margin: 0; text-align: center;\">+</p>","response":null,"trial_type":"html-keyboard-response","trial_index":90,"plugin_version":"2.1.0","time_elapsed":181246,"subject_id":"92481","group":"Group1","condition":"3_Rep","full_date":"2026-03-12T01:17:32.764Z","date":"2026-03-12","time":"01:17:32"},{"task":"memory_phase","broad_category":"M","image_png":"M_Quartzite_08.png","image_id":280,"category_name":"Quartzite","category":18,"distinct_rating":2.15,"distinct_type":"Bottom","rt":null,"stimulus":"Stimuli_Rocks480/M_Quartzite_08.png","response":null,"trial_type":"image-keyboard-response","trial_index":91,"plugin_version":"2.1.0","time_elapsed":183762,"subject_id":"92481","group":"Group1","condition":"3_Rep","full_date":"2026-03-12T01:17:32.764Z","date":"2026-03-12","time":"01:17:32"},{"rt":null,"stimulus":"<p style=\"font-size: 50px; margin: 0; text-align: center;\">+</p>","response":null,"trial_type":"html-keyboard-response","trial_index":92,"plugin_version":"2.1.0","time_elapsed":184765,"subject_id":"92481","group":"Group1","condition":"3_Rep","full_date":"2026-03-12T01:17:32.764Z","date":"2026-03-12","time":"01:17:32"},{"task":"memory_phase","broad_category":"I","image_png":"I_Andesite_08.png","image_id":8,"category_name":"Andesite","category":1,"distinct_rating":1.95,"distinct_type":"Bottom","rt":null,"stimulus":"Stimuli_Rocks480/I_Andesite_08.png","response":null,"trial_type":"image-keyboard-response","trial_index":93,"plugin_version":"2.1.0","time_elapsed":187282,"subject_id":"92481","group":"Group1","condition":"3_Rep","full_date":"2026-03-12T01:17:32.764Z","date":"2026-03-12","time":"01:17:32"},{"rt":null,"stimulus":"<p style=\"font-size: 50px; margin: 0; text-align: center;\">+</p>","response":null,"trial_type":"html-keyboard-response","trial_index":94,"plugin_version":"2.1.0","time_elapsed":188285,"subject_id":"92481","group":"Group1","condition":"3_Rep","full_date":"2026-03-12T01:17:32.764Z","date":"2026-03-12","time":"01:17:32"},{"task":"memory_phase","broad_category":"M","image_png":"M_Gneiss_05.png","image_id":197,"category_name":"Gneiss","category":13,"distinct_rating":2.97,"distinct_type":"Bottom","rt":null,"stimulus":"Stimuli_Rocks480/M_Gneiss_05.png","response":null,"trial_type":"image-keyboard-response","trial_index":95,"plugin_version":"2.1.0","time_elapsed":190809,"subject_id":"92481","group":"Group1","condition":"3_Rep","full_date":"2026-03-12T01:17:32.764Z","date":"2026-03-12","time":"01:17:32"},{"rt":null,"stimulus":"<p style=\"font-size: 50px; margin: 0; text-align: center;\">+</p>","response":null,"trial_type":"html-keyboard-response","trial_index":96,"plugin_version":"2.1.0","time_elapsed":191812,"subject_id":"92481","group":"Group1","condition":"3_Rep","full_date":"2026-03-12T01:17:32.764Z","date":"2026-03-12","time":"01:17:32"},{"task":"memory_phase","broad_category":"S","image_png":"S_Sandstone_16.png","image_id":464,"category_name":"Sandstone","category":29,"distinct_rating":1.93,"distinct_type":"Bottom","rt":null,"stimulus":"Stimuli_Rocks480/S_Sandstone_16.png","response":null,"trial_type":"image-keyboard-response","trial_index":97,"plugin_version":"2.1.0","time_elapsed":194324,"subject_id":"92481","group":"Group1","condition":"3_Rep","full_date":"2026-03-12T01:17:32.764Z","date":"2026-03-12","time":"01:17:32"},{"rt":null,"stimulus":"<p style=\"font-size: 50px; margin: 0; text-align: center;\">+</p>","response":null,"trial_type":"html-keyboard-response","trial_index":98,"plugin_version":"2.1.0","time_elapsed":195327,"subject_id":"92481","group":"Group1","condition":"3_Rep","full_date":"2026-03-12T01:17:32.764Z","date":"2026-03-12","time":"01:17:32"},{"task":"memory_phase","broad_category":"I","image_png":"I_Basalt_02.png","image_id":18,"category_name":"Basalt","category":2,"distinct_rating":1.84,"distinct_type":"Bottom","rt":null,"stimulus":"Stimuli_Rocks480/I_Basalt_02.png","response":null,"trial_type":"image-keyboard-response","trial_index":99,"plugin_version":"2.1.0","time_elapsed":197844,"subject_id":"92481","group":"Group1","condition":"3_Rep","full_date":"2026-03-12T01:17:32.764Z","date":"2026-03-12","time":"01:17:32"},{"rt":null,"stimulus":"<p style=\"font-size: 50px; margin: 0; text-align: center;\">+</p>","response":null,"trial_type":"html-keyboard-response","trial_index":100,"plugin_version":"2.1.0","time_elapsed":198847,"subject_id":"92481","group":"Group1","condition":"3_Rep","full_date":"2026-03-12T01:17:32.764Z","date":"2026-03-12","time":"01:17:32"},{"task":"memory_phase","broad_category":"S","image_png":"S_Dolomite_12.png","image_id":396,"category_name":"Dolomite","category":25,"distinct_rating":1.85,"distinct_type":"Bottom","rt":null,"stimulus":"Stimuli_Rocks480/S_Dolomite_12.png","response":null,"trial_type":"image-keyboard-response","trial_index":101,"plugin_version":"2.1.0","time_elapsed":201363,"subject_id":"92481","group":"Group1","condition":"3_Rep","full_date":"2026-03-12T01:17:32.764Z","date":"2026-03-12","time":"01:17:32"},{"rt":null,"stimulus":"<p style=\"font-size: 50px; margin: 0; text-align: center;\">+</p>","response":null,"trial_type":"html-keyboard-response","trial_index":102,"plugin_version":"2.1.0","time_elapsed":202366,"subject_id":"92481","group":"Group1","condition":"3_Rep","full_date":"2026-03-12T01:17:32.764Z","date":"2026-03-12","time":"01:17:32"},{"task":"memory_phase","broad_category":"I","image_png":"I_Rhyolite_11.png","image_id":155,"category_name":"Rhyolite","category":10,"distinct_rating":1.73,"distinct_type":"Bottom","rt":null,"stimulus":"Stimuli_Rocks480/I_Rhyolite_11.png","response":null,"trial_type":"image-keyboard-response","trial_index":103,"plugin_version":"2.1.0","time_elapsed":204880,"subject_id":"92481","group":"Group1","condition":"3_Rep","full_date":"2026-03-12T01:17:32.764Z","date":"2026-03-12","time":"01:17:32"},{"rt":null,"stimulus":"<p style=\"font-size: 50px; margin: 0; text-align: center;\">+</p>","response":null,"trial_type":"html-keyboard-response","trial_index":104,"plugin_version":"2.1.0","time_elapsed":205882,"subject_id":"92481","group":"Group1","condition":"3_Rep","full_date":"2026-03-12T01:17:32.764Z","date":"2026-03-12","time":"01:17:32"},{"task":"memory_phase","broad_category":"M","image_png":"M_Marble_06.png","image_id":230,"category_name":"Marble","category":15,"distinct_rating":3.4,"distinct_type":"Bottom","rt":null,"stimulus":"Stimuli_Rocks480/M_Marble_06.png","response":null,"trial_type":"image-keyboard-response","trial_index":105,"plugin_version":"2.1.0","time_elapsed":208398,"subject_id":"92481","group":"Group1","condition":"3_Rep","full_date":"2026-03-12T01:17:32.764Z","date":"2026-03-12","time":"01:17:32"},{"rt":19193,"stimulus":"<p style=\"max-width: 760px; margin: auto; font-size: 35px; line-height: 1.5;\">\n                You have completed 1 study phase. \n                Now, we'll show you all the images again 2 more times.\n                <br><br>Press SPACE to continue\n              </p>","response":" ","trial_type":"html-keyboard-response","trial_index":106,"plugin_version":"2.1.0","time_elapsed":227593,"subject_id":"92481","group":"Group1","condition":"3_Rep","full_date":"2026-03-12T01:17:32.764Z","date":"2026-03-12","time":"01:17:32"},{"rt":null,"stimulus":"<p style=\"font-size: 50px; margin: 0; text-align: center;\">+</p>","response":null,"trial_type":"html-keyboard-response","trial_index":107,"plugin_version":"2.1.0","time_elapsed":228596,"subject_id":"92481","group":"Group1","condition":"3_Rep","full_date":"2026-03-12T01:17:32.764Z","date":"2026-03-12","time":"01:17:32"},{"task":"memory_phase","broad_category":"M","image_png":"M_Phyllite_03.png","image_id":259,"category_name":"Phyllite","category":17,"distinct_rating":2.5,"distinct_type":"Bottom","rt":null,"stimulus":"Stimuli_Rocks480/M_Phyllite_03.png","response":null,"trial_type":"image-keyboard-response","trial_index":108,"plugin_version":"2.1.0","time_elapsed":231099,"subject_id":"92481","group":"Group1","condition":"3_Rep","full_date":"2026-03-12T01:17:32.764Z","date":"2026-03-12","time":"01:17:32"},{"rt":null,"stimulus":"<p style=\"font-size: 50px; margin: 0; text-align: center;\">+</p>","response":null,"trial_type":"html-keyboard-response","trial_index":109,"plugin_version":"2.1.0","time_elapsed":232102,"subject_id":"92481","group":"Group1","condition":"3_Rep","full_date":"2026-03-12T01:17:32.764Z","date":"2026-03-12","time":"01:17:32"},{"task":"memory_phase","broad_category":"S","image_png":"S_Rock Gypsum_04.png","image_id":420,"category_name":"Rock Gypsum","category":27,"distinct_rating":7.61,"distinct_type":"Top","rt":null,"stimulus":"Stimuli_Rocks480/S_Rock Gypsum_04.png","response":null,"trial_type":"image-keyboard-response","trial_index":110,"plugin_version":"2.1.0","time_elapsed":234616,"subject_id":"92481","group":"Group1","condition":"3_Rep","full_date":"2026-03-12T01:17:32.764Z","date":"2026-03-12","time":"01:17:32"},{"rt":null,"stimulus":"<p style=\"font-size: 50px; margin: 0; text-align: center;\">+</p>","response":null,"trial_type":"html-keyboard-response","trial_index":111,"plugin_version":"2.1.0","time_elapsed":235619,"subject_id":"92481","group":"Group1","condition":"3_Rep","full_date":"2026-03-12T01:17:32.764Z","date":"2026-03-12","time":"01:17:32"},{"task":"memory_phase","broad_category":"S","image_png":"S_Shale_08.png","image_id":472,"category_name":"Shale","category":30,"distinct_rating":2.55,"distinct_type":"Bottom","rt":null,"stimulus":"Stimuli_Rocks480/S_Shale_08.png","response":null,"trial_type":"image-keyboard-response","trial_index":112,"plugin_version":"2.1.0","time_elapsed":238134,"subject_id":"92481","group":"Group1","condition":"3_Rep","full_date":"2026-03-12T01:17:32.764Z","date":"2026-03-12","time":"01:17:32"},{"rt":null,"stimulus":"<p style=\"font-size: 50px; margin: 0; text-align: center;\">+</p>","response":null,"trial_type":"html-keyboard-response","trial_index":113,"plugin_version":"2.1.0","time_elapsed":239136,"subject_id":"92481","group":"Group1","condition":"3_Rep","full_date":"2026-03-12T01:17:32.764Z","date":"2026-03-12","time":"01:17:32"},{"task":"memory_phase","broad_category":"M","image_png":"M_Quartzite_05.png","image_id":277,"category_name":"Quartzite","category":18,"distinct_rating":2.23,"distinct_type":"Bottom","rt":null,"stimulus":"Stimuli_Rocks480/M_Quartzite_05.png","response":null,"trial_type":"image-keyboard-response","trial_index":114,"plugin_version":"2.1.0","time_elapsed":241640,"subject_id":"92481","group":"Group1","condition":"3_Rep","full_date":"2026-03-12T01:17:32.764Z","date":"2026-03-12","time":"01:17:32"},{"rt":null,"stimulus":"<p style=\"font-size: 50px; margin: 0; text-align: center;\">+</p>","response":null,"trial_type":"html-keyboard-response","trial_index":115,"plugin_version":"2.1.0","time_elapsed":242642,"subject_id":"92481","group":"Group1","condition":"3_Rep","full_date":"2026-03-12T01:17:32.764Z","date":"2026-03-12","time":"01:17:32"},{"task":"memory_phase","broad_category":"S","image_png":"S_Breccia_11.png","image_id":347,"category_name":"Breccia","category":22,"distinct_rating":6.7,"distinct_type":"Top","rt":null,"stimulus":"Stimuli_Rocks480/S_Breccia_11.png","response":null,"trial_type":"image-keyboard-response","trial_index":116,"plugin_version":"2.1.0","time_elapsed":245146,"subject_id":"92481","group":"Group1","condition":"3_Rep","full_date":"2026-03-12T01:17:32.764Z","date":"2026-03-12","time":"01:17:32"},{"rt":null,"stimulus":"<p style=\"font-size: 50px; margin: 0; text-align: center;\">+</p>","response":null,"trial_type":"html-keyboard-response","trial_index":117,"plugin_version":"2.1.0","time_elapsed":246148,"subject_id":"92481","group":"Group1","condition":"3_Rep","full_date":"2026-03-12T01:17:32.764Z","date":"2026-03-12","time":"01:17:32"},{"task":"memory_phase","broad_category":"I","image_png":"I_Diorite_04.png","image_id":36,"category_name":"Diorite","category":3,"distinct_rating":2.98,"distinct_type":"Bottom","rt":null,"stimulus":"Stimuli_Rocks480/I_Diorite_04.png","response":null,"trial_type":"image-keyboard-response","trial_index":118,"plugin_version":"2.1.0","time_elapsed":248651,"subject_id":"92481","group":"Group1","condition":"3_Rep","full_date":"2026-03-12T01:17:32.764Z","date":"2026-03-12","time":"01:17:32"},{"rt":null,"stimulus":"<p style=\"font-size: 50px; margin: 0; text-align: center;\">+</p>","response":null,"trial_type":"html-keyboard-response","trial_index":119,"plugin_version":"2.1.0","time_elapsed":249654,"subject_id":"92481","group":"Group1","condition":"3_Rep","full_date":"2026-03-12T01:17:32.764Z","date":"2026-03-12","time":"01:17:32"},{"task":"memory_phase","broad_category":"M","image_png":"M_Quartzite_08.png","image_id":280,"category_name":"Quartzite","category":18,"distinct_rating":2.15,"distinct_type":"Bottom","rt":null,"stimulus":"Stimuli_Rocks480/M_Quartzite_08.png","response":null,"trial_type":"image-keyboard-response","trial_index":120,"plugin_version":"2.1.0","time_elapsed":252157,"subject_id":"92481","group":"Group1","condition":"3_Rep","full_date":"2026-03-12T01:17:32.764Z","date":"2026-03-12","time":"01:17:32"},{"rt":null,"stimulus":"<p style=\"font-size: 50px; margin: 0; text-align: center;\">+</p>","response":null,"trial_type":"html-keyboard-response","trial_index":121,"plugin_version":"2.1.0","time_elapsed":253159,"subject_id":"92481","group":"Group1","condition":"3_Rep","full_date":"2026-03-12T01:17:32.764Z","date":"2026-03-12","time":"01:17:32"},{"task":"memory_phase","broad_category":"M","image_png":"M_Slate_15.png","image_id":319,"category_name":"Slate","category":20,"distinct_rating":2.13,"distinct_type":"Bottom","rt":null,"stimulus":"Stimuli_Rocks480/M_Slate_15.png","response":null,"trial_type":"image-keyboard-response","trial_index":122,"plugin_version":"2.1.0","time_elapsed":255663,"subject_id":"92481","group":"Group1","condition":"3_Rep","full_date":"2026-03-12T01:17:32.764Z","date":"2026-03-12","time":"01:17:32"},{"rt":null,"stimulus":"<p style=\"font-size: 50px; margin: 0; text-align: center;\">+</p>","response":null,"trial_type":"html-keyboard-response","trial_index":123,"plugin_version":"2.1.0","time_elapsed":256665,"subject_id":"92481","group":"Group1","condition":"3_Rep","full_date":"2026-03-12T01:17:32.764Z","date":"2026-03-12","time":"01:17:32"},{"task":"memory_phase","broad_category":"I","image_png":"I_Basalt_01.png","image_id":17,"category_name":"Basalt","category":2,"distinct_rating":1.92,"distinct_type":"Bottom","rt":null,"stimulus":"Stimuli_Rocks480/I_Basalt_01.png","response":null,"trial_type":"image-keyboard-response","trial_index":124,"plugin_version":"2.1.0","time_elapsed":259186,"subject_id":"92481","group":"Group1","condition":"3_Rep","full_date":"2026-03-12T01:17:32.764Z","date":"2026-03-12","time":"01:17:32"},{"rt":null,"stimulus":"<p style=\"font-size: 50px; margin: 0; text-align: center;\">+</p>","response":null,"trial_type":"html-keyboard-response","trial_index":125,"plugin_version":"2.1.0","time_elapsed":260189,"subject_id":"92481","group":"Group1","condition":"3_Rep","full_date":"2026-03-12T01:17:32.764Z","date":"2026-03-12","time":"01:17:32"},{"task":"memory_phase","broad_category":"S","image_png":"S_Sandstone_15.png","image_id":463,"category_name":"Sandstone","category":29,"distinct_rating":2,"distinct_type":"Bottom","rt":null,"stimulus":"Stimuli_Rocks480/S_Sandstone_15.png","response":null,"trial_type":"image-keyboard-response","trial_index":126,"plugin_version":"2.1.0","time_elapsed":262709,"subject_id":"92481","group":"Group1","condition":"3_Rep","full_date":"2026-03-12T01:17:32.764Z","date":"2026-03-12","time":"01:17:32"},{"rt":null,"stimulus":"<p style=\"font-size: 50px; margin: 0; text-align: center;\">+</p>","response":null,"trial_type":"html-keyboard-response","trial_index":127,"plugin_version":"2.1.0","time_elapsed":263711,"subject_id":"92481","group":"Group1","condition":"3_Rep","full_date":"2026-03-12T01:17:32.764Z","date":"2026-03-12","time":"01:17:32"},{"task":"memory_phase","broad_category":"M","image_png":"M_Gneiss_05.png","image_id":197,"category_name":"Gneiss","category":13,"distinct_rating":2.97,"distinct_type":"Bottom","rt":null,"stimulus":"Stimuli_Rocks480/M_Gneiss_05.png","response":null,"trial_type":"image-keyboard-response","trial_index":128,"plugin_version":"2.1.0","time_elapsed":266235,"subject_id":"92481","group":"Group1","condition":"3_Rep","full_date":"2026-03-12T01:17:32.764Z","date":"2026-03-12","time":"01:17:32"},{"rt":null,"stimulus":"<p style=\"font-size: 50px; margin: 0; text-align: center;\">+</p>","response":null,"trial_type":"html-keyboard-response","trial_index":129,"plugin_version":"2.1.0","time_elapsed":267238,"subject_id":"92481","group":"Group1","condition":"3_Rep","full_date":"2026-03-12T01:17:32.764Z","date":"2026-03-12","time":"01:17:32"},{"task":"memory_phase","broad_category":"M","image_png":"M_Phyllite_10.png","image_id":266,"category_name":"Phyllite","category":17,"distinct_rating":2.6,"distinct_type":"Bottom","rt":null,"stimulus":"Stimuli_Rocks480/M_Phyllite_10.png","response":null,"trial_type":"image-keyboard-response","trial_index":130,"plugin_version":"2.1.0","time_elapsed":269752,"subject_id":"92481","group":"Group1","condition":"3_Rep","full_date":"2026-03-12T01:17:32.764Z","date":"2026-03-12","time":"01:17:32"},{"rt":null,"stimulus":"<p style=\"font-size: 50px; margin: 0; text-align: center;\">+</p>","response":null,"trial_type":"html-keyboard-response","trial_index":131,"plugin_version":"2.1.0","time_elapsed":270754,"subject_id":"92481","group":"Group1","condition":"3_Rep","full_date":"2026-03-12T01:17:32.764Z","date":"2026-03-12","time":"01:17:32"},{"task":"memory_phase","broad_category":"S","image_png":"S_Conglomerate_05.png","image_id":373,"category_name":"Conglomerate","category":24,"distinct_rating":7.32,"distinct_type":"Top","rt":null,"stimulus":"Stimuli_Rocks480/S_Conglomerate_05.png","response":null,"trial_type":"image-keyboard-response","trial_index":132,"plugin_version":"2.1.0","time_elapsed":273272,"subject_id":"92481","group":"Group1","condition":"3_Rep","full_date":"2026-03-12T01:17:32.764Z","date":"2026-03-12","time":"01:17:32"},{"rt":null,"stimulus":"<p style=\"font-size: 50px; margin: 0; text-align: center;\">+</p>","response":null,"trial_type":"html-keyboard-response","trial_index":133,"plugin_version":"2.1.0","time_elapsed":274275,"subject_id":"92481","group":"Group1","condition":"3_Rep","full_date":"2026-03-12T01:17:32.764Z","date":"2026-03-12","time":"01:17:32"},{"task":"memory_phase","broad_category":"I","image_png":"I_Gabbro_11.png","image_id":59,"category_name":"Gabbro","category":4,"distinct_rating":1.99,"distinct_type":"Bottom","rt":null,"stimulus":"Stimuli_Rocks480/I_Gabbro_11.png","response":null,"trial_type":"image-keyboard-response","trial_index":134,"plugin_version":"2.1.0","time_elapsed":276790,"subject_id":"92481","group":"Group1","condition":"3_Rep","full_date":"2026-03-12T01:17:32.764Z","date":"2026-03-12","time":"01:17:32"},{"rt":null,"stimulus":"<p style=\"font-size: 50px; margin: 0; text-align: center;\">+</p>","response":null,"trial_type":"html-keyboard-response","trial_index":135,"plugin_version":"2.1.0","time_elapsed":277794,"subject_id":"92481","group":"Group1","condition":"3_Rep","full_date":"2026-03-12T01:17:32.764Z","date":"2026-03-12","time":"01:17:32"},{"task":"memory_phase","broad_category":"I","image_png":"I_Gabbro_08.png","image_id":56,"category_name":"Gabbro","category":4,"distinct_rating":3.02,"distinct_type":"Bottom","rt":null,"stimulus":"Stimuli_Rocks480/I_Gabbro_08.png","response":null,"trial_type":"image-keyboard-response","trial_index":136,"plugin_version":"2.1.0","time_elapsed":280308,"subject_id":"92481","group":"Group1","condition":"3_Rep","full_date":"2026-03-12T01:17:32.764Z","date":"2026-03-12","time":"01:17:32"},{"rt":null,"stimulus":"<p style=\"font-size: 50px; margin: 0; text-align: center;\">+</p>","response":null,"trial_type":"html-keyboard-response","trial_index":137,"plugin_version":"2.1.0","time_elapsed":281310,"subject_id":"92481","group":"Group1","condition":"3_Rep","full_date":"2026-03-12T01:17:32.764Z","date":"2026-03-12","time":"01:17:32"},{"task":"memory_phase","broad_category":"I","image_png":"I_Andesite_06.png","image_id":6,"category_name":"Andesite","category":1,"distinct_rating":3.17,"distinct_type":"Bottom","rt":null,"stimulus":"Stimuli_Rocks480/I_Andesite_06.png","response":null,"trial_type":"image-keyboard-response","trial_index":138,"plugin_version":"2.1.0","time_elapsed":283830,"subject_id":"92481","group":"Group1","condition":"3_Rep","full_date":"2026-03-12T01:17:32.764Z","date":"2026-03-12","time":"01:17:32"},{"rt":null,"stimulus":"<p style=\"font-size: 50px; margin: 0; text-align: center;\">+</p>","response":null,"trial_type":"html-keyboard-response","trial_index":139,"plugin_version":"2.1.0","time_elapsed":284832,"subject_id":"92481","group":"Group1","condition":"3_Rep","full_date":"2026-03-12T01:17:32.764Z","date":"2026-03-12","time":"01:17:32"},{"task":"memory_phase","broad_category":"M","image_png":"M_Slate_11.png","image_id":315,"category_name":"Slate","category":20,"distinct_rating":2.75,"distinct_type":"Bottom","rt":null,"stimulus":"Stimuli_Rocks480/M_Slate_11.png","response":null,"trial_type":"image-keyboard-response","trial_index":140,"plugin_version":"2.1.0","time_elapsed":287346,"subject_id":"92481","group":"Group1","condition":"3_Rep","full_date":"2026-03-12T01:17:32.764Z","date":"2026-03-12","time":"01:17:32"},{"rt":null,"stimulus":"<p style=\"font-size: 50px; margin: 0; text-align: center;\">+</p>","response":null,"trial_type":"html-keyboard-response","trial_index":141,"plugin_version":"2.1.0","time_elapsed":288349,"subject_id":"92481","group":"Group1","condition":"3_Rep","full_date":"2026-03-12T01:17:32.764Z","date":"2026-03-12","time":"01:17:32"},{"task":"memory_phase","broad_category":"I","image_png":"I_Diorite_05.png","image_id":37,"category_name":"Diorite","category":3,"distinct_rating":3.08,"distinct_type":"Bottom","rt":null,"stimulus":"Stimuli_Rocks480/I_Diorite_05.png","response":null,"trial_type":"image-keyboard-response","trial_index":142,"plugin_version":"2.1.0","time_elapsed":290866,"subject_id":"92481","group":"Group1","condition":"3_Rep","full_date":"2026-03-12T01:17:32.764Z","date":"2026-03-12","time":"01:17:32"},{"rt":null,"stimulus":"<p style=\"font-size: 50px; margin: 0; text-align: center;\">+</p>","response":null,"trial_type":"html-keyboard-response","trial_index":143,"plugin_version":"2.1.0","time_elapsed":291869,"subject_id":"92481","group":"Group1","condition":"3_Rep","full_date":"2026-03-12T01:17:32.764Z","date":"2026-03-12","time":"01:17:32"},{"task":"memory_phase","broad_category":"I","image_png":"I_Andesite_08.png","image_id":8,"category_name":"Andesite","category":1,"distinct_rating":1.95,"distinct_type":"Bottom","rt":null,"stimulus":"Stimuli_Rocks480/I_Andesite_08.png","response":null,"trial_type":"image-keyboard-response","trial_index":144,"plugin_version":"2.1.0","time_elapsed":294386,"subject_id":"92481","group":"Group1","condition":"3_Rep","full_date":"2026-03-12T01:17:32.764Z","date":"2026-03-12","time":"01:17:32"},{"rt":null,"stimulus":"<p style=\"font-size: 50px; margin: 0; text-align: center;\">+</p>","response":null,"trial_type":"html-keyboard-response","trial_index":145,"plugin_version":"2.1.0","time_elapsed":295388,"subject_id":"92481","group":"Group1","condition":"3_Rep","full_date":"2026-03-12T01:17:32.764Z","date":"2026-03-12","time":"01:17:32"},{"task":"memory_phase","broad_category":"S","image_png":"S_Shale_01.png","image_id":465,"category_name":"Shale","category":30,"distinct_rating":2.7,"distinct_type":"Bottom","rt":null,"stimulus":"Stimuli_Rocks480/S_Shale_01.png","response":null,"trial_type":"image-keyboard-response","trial_index":146,"plugin_version":"2.1.0","time_elapsed":297903,"subject_id":"92481","group":"Group1","condition":"3_Rep","full_date":"2026-03-12T01:17:32.764Z","date":"2026-03-12","time":"01:17:32"},{"rt":null,"stimulus":"<p style=\"font-size: 50px; margin: 0; text-align: center;\">+</p>","response":null,"trial_type":"html-keyboard-response","trial_index":147,"plugin_version":"2.1.0","time_elapsed":298906,"subject_id":"92481","group":"Group1","condition":"3_Rep","full_date":"2026-03-12T01:17:32.764Z","date":"2026-03-12","time":"01:17:32"},{"task":"memory_phase","broad_category":"M","image_png":"M_Marble_16.png","image_id":240,"category_name":"Marble","category":15,"distinct_rating":2.57,"distinct_type":"Bottom","rt":null,"stimulus":"Stimuli_Rocks480/M_Marble_16.png","response":null,"trial_type":"image-keyboard-response","trial_index":148,"plugin_version":"2.1.0","time_elapsed":301424,"subject_id":"92481","group":"Group1","condition":"3_Rep","full_date":"2026-03-12T01:17:32.764Z","date":"2026-03-12","time":"01:17:32"},{"rt":null,"stimulus":"<p style=\"font-size: 50px; margin: 0; text-align: center;\">+</p>","response":null,"trial_type":"html-keyboard-response","trial_index":149,"plugin_version":"2.1.0","time_elapsed":302425,"subject_id":"92481","group":"Group1","condition":"3_Rep","full_date":"2026-03-12T01:17:32.764Z","date":"2026-03-12","time":"01:17:32"},{"task":"memory_phase","broad_category":"S","image_png":"S_Dolomite_14.png","image_id":398,"category_name":"Dolomite","category":25,"distinct_rating":1.43,"distinct_type":"Bottom","rt":null,"stimulus":"Stimuli_Rocks480/S_Dolomite_14.png","response":null,"trial_type":"image-keyboard-response","trial_index":150,"plugin_version":"2.1.0","time_elapsed":304942,"subject_id":"92481","group":"Group1","condition":"3_Rep","full_date":"2026-03-12T01:17:32.764Z","date":"2026-03-12","time":"01:17:32"},{"rt":null,"stimulus":"<p style=\"font-size: 50px; margin: 0; text-align: center;\">+</p>","response":null,"trial_type":"html-keyboard-response","trial_index":151,"plugin_version":"2.1.0","time_elapsed":305944,"subject_id":"92481","group":"Group1","condition":"3_Rep","full_date":"2026-03-12T01:17:32.764Z","date":"2026-03-12","time":"01:17:32"},{"task":"memory_phase","broad_category":"S","image_png":"S_Shale_12.png","image_id":476,"category_name":"Shale","category":30,"distinct_rating":2.48,"distinct_type":"Bottom","rt":null,"stimulus":"Stimuli_Rocks480/S_Shale_12.png","response":null,"trial_type":"image-keyboard-response","trial_index":152,"plugin_version":"2.1.0","time_elapsed":308463,"subject_id":"92481","group":"Group1","condition":"3_Rep","full_date":"2026-03-12T01:17:32.764Z","date":"2026-03-12","time":"01:17:32"},{"rt":null,"stimulus":"<p style=\"font-size: 50px; margin: 0; text-align: center;\">+</p>","response":null,"trial_type":"html-keyboard-response","trial_index":153,"plugin_version":"2.1.0","time_elapsed":309466,"subject_id":"92481","group":"Group1","condition":"3_Rep","full_date":"2026-03-12T01:17:32.764Z","date":"2026-03-12","time":"01:17:32"},{"task":"memory_phase","broad_category":"I","image_png":"I_Diorite_03.png","image_id":35,"category_name":"Diorite","category":3,"distinct_rating":3.14,"distinct_type":"Bottom","rt":null,"stimulus":"Stimuli_Rocks480/I_Diorite_03.png","response":null,"trial_type":"image-keyboard-response","trial_index":154,"plugin_version":"2.1.0","time_elapsed":311987,"subject_id":"92481","group":"Group1","condition":"3_Rep","full_date":"2026-03-12T01:17:32.764Z","date":"2026-03-12","time":"01:17:32"},{"rt":null,"stimulus":"<p style=\"font-size: 50px; margin: 0; text-align: center;\">+</p>","response":null,"trial_type":"html-keyboard-response","trial_index":155,"plugin_version":"2.1.0","time_elapsed":312989,"subject_id":"92481","group":"Group1","condition":"3_Rep","full_date":"2026-03-12T01:17:32.764Z","date":"2026-03-12","time":"01:17:32"},{"task":"memory_phase","broad_category":"M","image_png":"M_Marble_06.png","image_id":230,"category_name":"Marble","category":15,"distinct_rating":3.4,"distinct_type":"Bottom","rt":null,"stimulus":"Stimuli_Rocks480/M_Marble_06.png","response":null,"trial_type":"image-keyboard-response","trial_index":156,"plugin_version":"2.1.0","time_elapsed":315493,"subject_id":"92481","group":"Group1","condition":"3_Rep","full_date":"2026-03-12T01:17:32.764Z","date":"2026-03-12","time":"01:17:32"},{"rt":8665,"stimulus":"<p style=\"max-width: 760px; margin: auto; font-size: 35px; line-height: 1.5;\">\n                Press SPACE to continue study phase\n              </p>","response":" ","trial_type":"html-keyboard-response","trial_index":157,"plugin_version":"2.1.0","time_elapsed":324159,"subject_id":"92481","group":"Group1","condition":"3_Rep","full_date":"2026-03-12T01:17:32.764Z","date":"2026-03-12","time":"01:17:32"},{"rt":null,"stimulus":"<p style=\"font-size: 50px; margin: 0; text-align: center;\">+</p>","response":null,"trial_type":"html-keyboard-response","trial_index":158,"plugin_version":"2.1.0","time_elapsed":325163,"subject_id":"92481","group":"Group1","condition":"3_Rep","full_date":"2026-03-12T01:17:32.764Z","date":"2026-03-12","time":"01:17:32"},{"task":"memory_phase","broad_category":"M","image_png":"M_Slate_03.png","image_id":307,"category_name":"Slate","category":20,"distinct_rating":1.87,"distinct_type":"Bottom","rt":null,"stimulus":"Stimuli_Rocks480/M_Slate_03.png","response":null,"trial_type":"image-keyboard-response","trial_index":159,"plugin_version":"2.1.0","time_elapsed":327680,"subject_id":"92481","group":"Group1","condition":"3_Rep","full_date":"2026-03-12T01:17:32.764Z","date":"2026-03-12","time":"01:17:32"},{"rt":null,"stimulus":"<p style=\"font-size: 50px; margin: 0; text-align: center;\">+</p>","response":null,"trial_type":"html-keyboard-response","trial_index":160,"plugin_version":"2.1.0","time_elapsed":328682,"subject_id":"92481","group":"Group1","condition":"3_Rep","full_date":"2026-03-12T01:17:32.764Z","date":"2026-03-12","time":"01:17:32"},{"task":"memory_phase","broad_category":"S","image_png":"S_Rock Salt_01.png","image_id":433,"category_name":"Rock Salt","category":28,"distinct_rating":7.18,"distinct_type":"Top","rt":null,"stimulus":"Stimuli_Rocks480/S_Rock Salt_01.png","response":null,"trial_type":"image-keyboard-response","trial_index":161,"plugin_version":"2.1.0","time_elapsed":331205,"subject_id":"92481","group":"Group1","condition":"3_Rep","full_date":"2026-03-12T01:17:32.764Z","date":"2026-03-12","time":"01:17:32"},{"rt":null,"stimulus":"<p style=\"font-size: 50px; margin: 0; text-align: center;\">+</p>","response":null,"trial_type":"html-keyboard-response","trial_index":162,"plugin_version":"2.1.0","time_elapsed":332208,"subject_id":"92481","group":"Group1","condition":"3_Rep","full_date":"2026-03-12T01:17:32.764Z","date":"2026-03-12","time":"01:17:32"},{"task":"memory_phase","broad_category":"I","image_png":"I_Rhyolite_14.png","image_id":158,"category_name":"Rhyolite","category":10,"distinct_rating":2.59,"distinct_type":"Bottom","rt":null,"stimulus":"Stimuli_Rocks480/I_Rhyolite_14.png","response":null,"trial_type":"image-keyboard-response","trial_index":163,"plugin_version":"2.1.0","time_elapsed":334724,"subject_id":"92481","group":"Group1","condition":"3_Rep","full_date":"2026-03-12T01:17:32.764Z","date":"2026-03-12","time":"01:17:32"},{"rt":null,"stimulus":"<p style=\"font-size: 50px; margin: 0; text-align: center;\">+</p>","response":null,"trial_type":"html-keyboard-response","trial_index":164,"plugin_version":"2.1.0","time_elapsed":335727,"subject_id":"92481","group":"Group1","condition":"3_Rep","full_date":"2026-03-12T01:17:32.764Z","date":"2026-03-12","time":"01:17:32"},{"task":"memory_phase","broad_category":"S","image_png":"S_Dolomite_12.png","image_id":396,"category_name":"Dolomite","category":25,"distinct_rating":1.85,"distinct_type":"Bottom","rt":null,"stimulus":"Stimuli_Rocks480/S_Dolomite_12.png","response":null,"trial_type":"image-keyboard-response","trial_index":165,"plugin_version":"2.1.0","time_elapsed":338243,"subject_id":"92481","group":"Group1","condition":"3_Rep","full_date":"2026-03-12T01:17:32.764Z","date":"2026-03-12","time":"01:17:32"},{"rt":null,"stimulus":"<p style=\"font-size: 50px; margin: 0; text-align: center;\">+</p>","response":null,"trial_type":"html-keyboard-response","trial_index":166,"plugin_version":"2.1.0","time_elapsed":339246,"subject_id":"92481","group":"Group1","condition":"3_Rep","full_date":"2026-03-12T01:17:32.764Z","date":"2026-03-12","time":"01:17:32"},{"task":"memory_phase","broad_category":"M","image_png":"M_Marble_04.png","image_id":228,"category_name":"Marble","category":15,"distinct_rating":3.15,"distinct_type":"Bottom","rt":null,"stimulus":"Stimuli_Rocks480/M_Marble_04.png","response":null,"trial_type":"image-keyboard-response","trial_index":167,"plugin_version":"2.1.0","time_elapsed":341762,"subject_id":"92481","group":"Group1","condition":"3_Rep","full_date":"2026-03-12T01:17:32.764Z","date":"2026-03-12","time":"01:17:32"},{"rt":null,"stimulus":"<p style=\"font-size: 50px; margin: 0; text-align: center;\">+</p>","response":null,"trial_type":"html-keyboard-response","trial_index":168,"plugin_version":"2.1.0","time_elapsed":342765,"subject_id":"92481","group":"Group1","condition":"3_Rep","full_date":"2026-03-12T01:17:32.764Z","date":"2026-03-12","time":"01:17:32"},{"task":"memory_phase","broad_category":"I","image_png":"I_Pumice_12.png","image_id":140,"category_name":"Pumice","category":9,"distinct_rating":2.97,"distinct_type":"Bottom","rt":null,"stimulus":"Stimuli_Rocks480/I_Pumice_12.png","response":null,"trial_type":"image-keyboard-response","trial_index":169,"plugin_version":"2.1.0","time_elapsed":345278,"subject_id":"92481","group":"Group1","condition":"3_Rep","full_date":"2026-03-12T01:17:32.764Z","date":"2026-03-12","time":"01:17:32"},{"rt":null,"stimulus":"<p style=\"font-size: 50px; margin: 0; text-align: center;\">+</p>","response":null,"trial_type":"html-keyboard-response","trial_index":170,"plugin_version":"2.1.0","time_elapsed":346280,"subject_id":"92481","group":"Group1","condition":"3_Rep","full_date":"2026-03-12T01:17:32.764Z","date":"2026-03-12","time":"01:17:32"},{"task":"memory_phase","broad_category":"I","image_png":"I_Basalt_09.png","image_id":25,"category_name":"Basalt","category":2,"distinct_rating":1.89,"distinct_type":"Bottom","rt":null,"stimulus":"Stimuli_Rocks480/I_Basalt_09.png","response":null,"trial_type":"image-keyboard-response","trial_index":171,"plugin_version":"2.1.0","time_elapsed":348795,"subject_id":"92481","group":"Group1","condition":"3_Rep","full_date":"2026-03-12T01:17:32.764Z","date":"2026-03-12","time":"01:17:32"},{"rt":null,"stimulus":"<p style=\"font-size: 50px; margin: 0; text-align: center;\">+</p>","response":null,"trial_type":"html-keyboard-response","trial_index":172,"plugin_version":"2.1.0","time_elapsed":349798,"subject_id":"92481","group":"Group1","condition":"3_Rep","full_date":"2026-03-12T01:17:32.764Z","date":"2026-03-12","time":"01:17:32"},{"task":"memory_phase","broad_category":"S","image_png":"S_Dolomite_13.png","image_id":397,"category_name":"Dolomite","category":25,"distinct_rating":1.77,"distinct_type":"Bottom","rt":null,"stimulus":"Stimuli_Rocks480/S_Dolomite_13.png","response":null,"trial_type":"image-keyboard-response","trial_index":173,"plugin_version":"2.1.0","time_elapsed":352314,"subject_id":"92481","group":"Group1","condition":"3_Rep","full_date":"2026-03-12T01:17:32.764Z","date":"2026-03-12","time":"01:17:32"},{"rt":null,"stimulus":"<p style=\"font-size: 50px; margin: 0; text-align: center;\">+</p>","response":null,"trial_type":"html-keyboard-response","trial_index":174,"plugin_version":"2.1.0","time_elapsed":353317,"subject_id":"92481","group":"Group1","condition":"3_Rep","full_date":"2026-03-12T01:17:32.764Z","date":"2026-03-12","time":"01:17:32"},{"task":"memory_phase","broad_category":"M","image_png":"M_Gneiss_13.png","image_id":205,"category_name":"Gneiss","category":13,"distinct_rating":3.26,"distinct_type":"Bottom","rt":null,"stimulus":"Stimuli_Rocks480/M_Gneiss_13.png","response":null,"trial_type":"image-keyboard-response","trial_index":175,"plugin_version":"2.1.0","time_elapsed":355830,"subject_id":"92481","group":"Group1","condition":"3_Rep","full_date":"2026-03-12T01:17:32.764Z","date":"2026-03-12","time":"01:17:32"},{"rt":null,"stimulus":"<p style=\"font-size: 50px; margin: 0; text-align: center;\">+</p>","response":null,"trial_type":"html-keyboard-response","trial_index":176,"plugin_version":"2.1.0","time_elapsed":356833,"subject_id":"92481","group":"Group1","condition":"3_Rep","full_date":"2026-03-12T01:17:32.764Z","date":"2026-03-12","time":"01:17:32"},{"task":"memory_phase","broad_category":"S","image_png":"S_Chert_10.png","image_id":362,"category_name":"Chert","category":23,"distinct_rating":7.17,"distinct_type":"Top","rt":null,"stimulus":"Stimuli_Rocks480/S_Chert_10.png","response":null,"trial_type":"image-keyboard-response","trial_index":177,"plugin_version":"2.1.0","time_elapsed":359347,"subject_id":"92481","group":"Group1","condition":"3_Rep","full_date":"2026-03-12T01:17:32.764Z","date":"2026-03-12","time":"01:17:32"},{"rt":null,"stimulus":"<p style=\"font-size: 50px; margin: 0; text-align: center;\">+</p>","response":null,"trial_type":"html-keyboard-response","trial_index":178,"plugin_version":"2.1.0","time_elapsed":360350,"subject_id":"92481","group":"Group1","condition":"3_Rep","full_date":"2026-03-12T01:17:32.764Z","date":"2026-03-12","time":"01:17:32"},{"task":"memory_phase","broad_category":"I","image_png":"I_Pegmatite_10.png","image_id":106,"category_name":"Pegmatite","category":7,"distinct_rating":7.66,"distinct_type":"Top","rt":null,"stimulus":"Stimuli_Rocks480/I_Pegmatite_10.png","response":null,"trial_type":"image-keyboard-response","trial_index":179,"plugin_version":"2.1.0","time_elapsed":362864,"subject_id":"92481","group":"Group1","condition":"3_Rep","full_date":"2026-03-12T01:17:32.764Z","date":"2026-03-12","time":"01:17:32"},{"rt":null,"stimulus":"<p style=\"font-size: 50px; margin: 0; text-align: center;\">+</p>","response":null,"trial_type":"html-keyboard-response","trial_index":180,"plugin_version":"2.1.0","time_elapsed":363867,"subject_id":"92481","group":"Group1","condition":"3_Rep","full_date":"2026-03-12T01:17:32.764Z","date":"2026-03-12","time":"01:17:32"},{"task":"memory_phase","broad_category":"I","image_png":"I_Pumice_11.png","image_id":139,"category_name":"Pumice","category":9,"distinct_rating":1.74,"distinct_type":"Bottom","rt":null,"stimulus":"Stimuli_Rocks480/I_Pumice_11.png","response":null,"trial_type":"image-keyboard-response","trial_index":181,"plugin_version":"2.1.0","time_elapsed":366378,"subject_id":"92481","group":"Group1","condition":"3_Rep","full_date":"2026-03-12T01:17:32.764Z","date":"2026-03-12","time":"01:17:32"},{"rt":null,"stimulus":"<p style=\"font-size: 50px; margin: 0; text-align: center;\">+</p>","response":null,"trial_type":"html-keyboard-response","trial_index":182,"plugin_version":"2.1.0","time_elapsed":367381,"subject_id":"92481","group":"Group1","condition":"3_Rep","full_date":"2026-03-12T01:17:32.764Z","date":"2026-03-12","time":"01:17:32"},{"task":"memory_phase","broad_category":"S","image_png":"S_Sandstone_03.png","image_id":451,"category_name":"Sandstone","category":29,"distinct_rating":1.86,"distinct_type":"Bottom","rt":null,"stimulus":"Stimuli_Rocks480/S_Sandstone_03.png","response":null,"trial_type":"image-keyboard-response","trial_index":183,"plugin_version":"2.1.0","time_elapsed":369897,"subject_id":"92481","group":"Group1","condition":"3_Rep","full_date":"2026-03-12T01:17:32.764Z","date":"2026-03-12","time":"01:17:32"},{"rt":null,"stimulus":"<p style=\"font-size: 50px; margin: 0; text-align: center;\">+</p>","response":null,"trial_type":"html-keyboard-response","trial_index":184,"plugin_version":"2.1.0","time_elapsed":370900,"subject_id":"92481","group":"Group1","condition":"3_Rep","full_date":"2026-03-12T01:17:32.764Z","date":"2026-03-12","time":"01:17:32"},{"task":"memory_phase","broad_category":"I","image_png":"I_Obsidian_05.png","image_id":85,"category_name":"Obsidian","category":6,"distinct_rating":7.32,"distinct_type":"Top","rt":null,"stimulus":"Stimuli_Rocks480/I_Obsidian_05.png","response":null,"trial_type":"image-keyboard-response","trial_index":185,"plugin_version":"2.1.0","time_elapsed":373418,"subject_id":"92481","group":"Group1","condition":"3_Rep","full_date":"2026-03-12T01:17:32.764Z","date":"2026-03-12","time":"01:17:32"},{"rt":null,"stimulus":"<p style=\"font-size: 50px; margin: 0; text-align: center;\">+</p>","response":null,"trial_type":"html-keyboard-response","trial_index":186,"plugin_version":"2.1.0","time_elapsed":374421,"subject_id":"92481","group":"Group1","condition":"3_Rep","full_date":"2026-03-12T01:17:32.764Z","date":"2026-03-12","time":"01:17:32"},{"task":"memory_phase","broad_category":"I","image_png":"I_Basalt_02.png","image_id":18,"category_name":"Basalt","category":2,"distinct_rating":1.84,"distinct_type":"Bottom","rt":null,"stimulus":"Stimuli_Rocks480/I_Basalt_02.png","response":null,"trial_type":"image-keyboard-response","trial_index":187,"plugin_version":"2.1.0","time_elapsed":376939,"subject_id":"92481","group":"Group1","condition":"3_Rep","full_date":"2026-03-12T01:17:32.764Z","date":"2026-03-12","time":"01:17:32"},{"rt":null,"stimulus":"<p style=\"font-size: 50px; margin: 0; text-align: center;\">+</p>","response":null,"trial_type":"html-keyboard-response","trial_index":188,"plugin_version":"2.1.0","time_elapsed":377941,"subject_id":"92481","group":"Group1","condition":"3_Rep","full_date":"2026-03-12T01:17:32.764Z","date":"2026-03-12","time":"01:17:32"},{"task":"memory_phase","broad_category":"M","image_png":"M_Quartzite_13.png","image_id":285,"category_name":"Quartzite","category":18,"distinct_rating":2.27,"distinct_type":"Bottom","rt":null,"stimulus":"Stimuli_Rocks480/M_Quartzite_13.png","response":null,"trial_type":"image-keyboard-response","trial_index":189,"plugin_version":"2.1.0","time_elapsed":380459,"subject_id":"92481","group":"Group1","condition":"3_Rep","full_date":"2026-03-12T01:17:32.764Z","date":"2026-03-12","time":"01:17:32"},{"rt":null,"stimulus":"<p style=\"font-size: 50px; margin: 0; text-align: center;\">+</p>","response":null,"trial_type":"html-keyboard-response","trial_index":190,"plugin_version":"2.1.0","time_elapsed":381462,"subject_id":"92481","group":"Group1","condition":"3_Rep","full_date":"2026-03-12T01:17:32.764Z","date":"2026-03-12","time":"01:17:32"},{"task":"memory_phase","broad_category":"I","image_png":"I_Gabbro_16.png","image_id":64,"category_name":"Gabbro","category":4,"distinct_rating":2.52,"distinct_type":"Bottom","rt":null,"stimulus":"Stimuli_Rocks480/I_Gabbro_16.png","response":null,"trial_type":"image-keyboard-response","trial_index":191,"plugin_version":"2.1.0","time_elapsed":383977,"subject_id":"92481","group":"Group1","condition":"3_Rep","full_date":"2026-03-12T01:17:32.764Z","date":"2026-03-12","time":"01:17:32"},{"rt":null,"stimulus":"<p style=\"font-size: 50px; margin: 0; text-align: center;\">+</p>","response":null,"trial_type":"html-keyboard-response","trial_index":192,"plugin_version":"2.1.0","time_elapsed":384980,"subject_id":"92481","group":"Group1","condition":"3_Rep","full_date":"2026-03-12T01:17:32.764Z","date":"2026-03-12","time":"01:17:32"},{"task":"memory_phase","broad_category":"M","image_png":"M_Gneiss_06.png","image_id":198,"category_name":"Gneiss","category":13,"distinct_rating":2.65,"distinct_type":"Bottom","rt":null,"stimulus":"Stimuli_Rocks480/M_Gneiss_06.png","response":null,"trial_type":"image-keyboard-response","trial_index":193,"plugin_version":"2.1.0","time_elapsed":387500,"subject_id":"92481","group":"Group1","condition":"3_Rep","full_date":"2026-03-12T01:17:32.764Z","date":"2026-03-12","time":"01:17:32"},{"rt":null,"stimulus":"<p style=\"font-size: 50px; margin: 0; text-align: center;\">+</p>","response":null,"trial_type":"html-keyboard-response","trial_index":194,"plugin_version":"2.1.0","time_elapsed":388503,"subject_id":"92481","group":"Group1","condition":"3_Rep","full_date":"2026-03-12T01:17:32.764Z","date":"2026-03-12","time":"01:17:32"},{"task":"memory_phase","broad_category":"I","image_png":"I_Rhyolite_16.png","image_id":160,"category_name":"Rhyolite","category":10,"distinct_rating":2.19,"distinct_type":"Bottom","rt":null,"stimulus":"Stimuli_Rocks480/I_Rhyolite_16.png","response":null,"trial_type":"image-keyboard-response","trial_index":195,"plugin_version":"2.1.0","time_elapsed":391017,"subject_id":"92481","group":"Group1","condition":"3_Rep","full_date":"2026-03-12T01:17:32.764Z","date":"2026-03-12","time":"01:17:32"},{"rt":null,"stimulus":"<p style=\"font-size: 50px; margin: 0; text-align: center;\">+</p>","response":null,"trial_type":"html-keyboard-response","trial_index":196,"plugin_version":"2.1.0","time_elapsed":392019,"subject_id":"92481","group":"Group1","condition":"3_Rep","full_date":"2026-03-12T01:17:32.764Z","date":"2026-03-12","time":"01:17:32"},{"task":"memory_phase","broad_category":"M","image_png":"M_Phyllite_07.png","image_id":263,"category_name":"Phyllite","category":17,"distinct_rating":2.59,"distinct_type":"Bottom","rt":null,"stimulus":"Stimuli_Rocks480/M_Phyllite_07.png","response":null,"trial_type":"image-keyboard-response","trial_index":197,"plugin_version":"2.1.0","time_elapsed":394532,"subject_id":"92481","group":"Group1","condition":"3_Rep","full_date":"2026-03-12T01:17:32.764Z","date":"2026-03-12","time":"01:17:32"},{"rt":null,"stimulus":"<p style=\"font-size: 50px; margin: 0; text-align: center;\">+</p>","response":null,"trial_type":"html-keyboard-response","trial_index":198,"plugin_version":"2.1.0","time_elapsed":395535,"subject_id":"92481","group":"Group1","condition":"3_Rep","full_date":"2026-03-12T01:17:32.764Z","date":"2026-03-12","time":"01:17:32"},{"task":"memory_phase","broad_category":"I","image_png":"I_Pumice_08.png","image_id":136,"category_name":"Pumice","category":9,"distinct_rating":3.1,"distinct_type":"Bottom","rt":null,"stimulus":"Stimuli_Rocks480/I_Pumice_08.png","response":null,"trial_type":"image-keyboard-response","trial_index":199,"plugin_version":"2.1.0","time_elapsed":398050,"subject_id":"92481","group":"Group1","condition":"3_Rep","full_date":"2026-03-12T01:17:32.764Z","date":"2026-03-12","time":"01:17:32"},{"rt":null,"stimulus":"<p style=\"font-size: 50px; margin: 0; text-align: center;\">+</p>","response":null,"trial_type":"html-keyboard-response","trial_index":200,"plugin_version":"2.1.0","time_elapsed":399053,"subject_id":"92481","group":"Group1","condition":"3_Rep","full_date":"2026-03-12T01:17:32.764Z","date":"2026-03-12","time":"01:17:32"},{"task":"memory_phase","broad_category":"I","image_png":"I_Andesite_10.png","image_id":10,"category_name":"Andesite","category":1,"distinct_rating":3.15,"distinct_type":"Bottom","rt":null,"stimulus":"Stimuli_Rocks480/I_Andesite_10.png","response":null,"trial_type":"image-keyboard-response","trial_index":201,"plugin_version":"2.1.0","time_elapsed":401565,"subject_id":"92481","group":"Group1","condition":"3_Rep","full_date":"2026-03-12T01:17:32.764Z","date":"2026-03-12","time":"01:17:32"},{"rt":null,"stimulus":"<p style=\"font-size: 50px; margin: 0; text-align: center;\">+</p>","response":null,"trial_type":"html-keyboard-response","trial_index":202,"plugin_version":"2.1.0","time_elapsed":402567,"subject_id":"92481","group":"Group1","condition":"3_Rep","full_date":"2026-03-12T01:17:32.764Z","date":"2026-03-12","time":"01:17:32"},{"task":"memory_phase","broad_category":"I","image_png":"I_Pegmatite_16.png","image_id":112,"category_name":"Pegmatite","category":7,"distinct_rating":7.03,"distinct_type":"Top","rt":null,"stimulus":"Stimuli_Rocks480/I_Pegmatite_16.png","response":null,"trial_type":"image-keyboard-response","trial_index":203,"plugin_version":"2.1.0","time_elapsed":405084,"subject_id":"92481","group":"Group1","condition":"3_Rep","full_date":"2026-03-12T01:17:32.764Z","date":"2026-03-12","time":"01:17:32"},{"rt":null,"stimulus":"<p style=\"font-size: 50px; margin: 0; text-align: center;\">+</p>","response":null,"trial_type":"html-keyboard-response","trial_index":204,"plugin_version":"2.1.0","time_elapsed":406087,"subject_id":"92481","group":"Group1","condition":"3_Rep","full_date":"2026-03-12T01:17:32.764Z","date":"2026-03-12","time":"01:17:32"},{"task":"memory_phase","broad_category":"S","image_png":"S_Sandstone_16.png","image_id":464,"category_name":"Sandstone","category":29,"distinct_rating":1.93,"distinct_type":"Bottom","rt":null,"stimulus":"Stimuli_Rocks480/S_Sandstone_16.png","response":null,"trial_type":"image-keyboard-response","trial_index":205,"plugin_version":"2.1.0","time_elapsed":408599,"subject_id":"92481","group":"Group1","condition":"3_Rep","full_date":"2026-03-12T01:17:32.764Z","date":"2026-03-12","time":"01:17:32"},{"rt":null,"stimulus":"<p style=\"font-size: 50px; margin: 0; text-align: center;\">+</p>","response":null,"trial_type":"html-keyboard-response","trial_index":206,"plugin_version":"2.1.0","time_elapsed":409602,"subject_id":"92481","group":"Group1","condition":"3_Rep","full_date":"2026-03-12T01:17:32.764Z","date":"2026-03-12","time":"01:17:32"},{"task":"memory_phase","broad_category":"I","image_png":"I_Rhyolite_11.png","image_id":155,"category_name":"Rhyolite","category":10,"distinct_rating":1.73,"distinct_type":"Bottom","rt":null,"stimulus":"Stimuli_Rocks480/I_Rhyolite_11.png","response":null,"trial_type":"image-keyboard-response","trial_index":207,"plugin_version":"2.1.0","time_elapsed":412115,"subject_id":"92481","group":"Group1","condition":"3_Rep","full_date":"2026-03-12T01:17:32.764Z","date":"2026-03-12","time":"01:17:32"},{"rt":5810,"stimulus":"<p style=\"max-width: 760px; margin: auto; font-size: 35px; line-height: 1.5;\">\n                You have completed 2 study phases. \n                Now, we'll show you all the images again 1 more time.\n                <br><br>Press SPACE to continue\n              </p>","response":" ","trial_type":"html-keyboard-response","trial_index":208,"plugin_version":"2.1.0","time_elapsed":417927,"subject_id":"92481","group":"Group1","condition":"3_Rep","full_date":"2026-03-12T01:17:32.764Z","date":"2026-03-12","time":"01:17:32"},{"rt":null,"stimulus":"<p style=\"font-size: 50px; margin: 0; text-align: center;\">+</p>","response":null,"trial_type":"html-keyboard-response","trial_index":209,"plugin_version":"2.1.0","time_elapsed":418931,"subject_id":"92481","group":"Group1","condition":"3_Rep","full_date":"2026-03-12T01:17:32.764Z","date":"2026-03-12","time":"01:17:32"},{"task":"memory_phase","broad_category":"M","image_png":"M_Marble_04.png","image_id":228,"category_name":"Marble","category":15,"distinct_rating":3.15,"distinct_type":"Bottom","rt":null,"stimulus":"Stimuli_Rocks480/M_Marble_04.png","response":null,"trial_type":"image-keyboard-response","trial_index":210,"plugin_version":"2.1.0","time_elapsed":421434,"subject_id":"92481","group":"Group1","condition":"3_Rep","full_date":"2026-03-12T01:17:32.764Z","date":"2026-03-12","time":"01:17:32"},{"rt":null,"stimulus":"<p style=\"font-size: 50px; margin: 0; text-align: center;\">+</p>","response":null,"trial_type":"html-keyboard-response","trial_index":211,"plugin_version":"2.1.0","time_elapsed":422437,"subject_id":"92481","group":"Group1","condition":"3_Rep","full_date":"2026-03-12T01:17:32.764Z","date":"2026-03-12","time":"01:17:32"},{"task":"memory_phase","broad_category":"I","image_png":"I_Basalt_09.png","image_id":25,"category_name":"Basalt","category":2,"distinct_rating":1.89,"distinct_type":"Bottom","rt":null,"stimulus":"Stimuli_Rocks480/I_Basalt_09.png","response":null,"trial_type":"image-keyboard-response","trial_index":212,"plugin_version":"2.1.0","time_elapsed":424940,"subject_id":"92481","group":"Group1","condition":"3_Rep","full_date":"2026-03-12T01:17:32.764Z","date":"2026-03-12","time":"01:17:32"},{"rt":null,"stimulus":"<p style=\"font-size: 50px; margin: 0; text-align: center;\">+</p>","response":null,"trial_type":"html-keyboard-response","trial_index":213,"plugin_version":"2.1.0","time_elapsed":425943,"subject_id":"92481","group":"Group1","condition":"3_Rep","full_date":"2026-03-12T01:17:32.764Z","date":"2026-03-12","time":"01:17:32"},{"task":"memory_phase","broad_category":"S","image_png":"S_Sandstone_03.png","image_id":451,"category_name":"Sandstone","category":29,"distinct_rating":1.86,"distinct_type":"Bottom","rt":null,"stimulus":"Stimuli_Rocks480/S_Sandstone_03.png","response":null,"trial_type":"image-keyboard-response","trial_index":214,"plugin_version":"2.1.0","time_elapsed":428446,"subject_id":"92481","group":"Group1","condition":"3_Rep","full_date":"2026-03-12T01:17:32.764Z","date":"2026-03-12","time":"01:17:32"},{"rt":null,"stimulus":"<p style=\"font-size: 50px; margin: 0; text-align: center;\">+</p>","response":null,"trial_type":"html-keyboard-response","trial_index":215,"plugin_version":"2.1.0","time_elapsed":429448,"subject_id":"92481","group":"Group1","condition":"3_Rep","full_date":"2026-03-12T01:17:32.764Z","date":"2026-03-12","time":"01:17:32"},{"task":"memory_phase","broad_category":"I","image_png":"I_Rhyolite_11.png","image_id":155,"category_name":"Rhyolite","category":10,"distinct_rating":1.73,"distinct_type":"Bottom","rt":null,"stimulus":"Stimuli_Rocks480/I_Rhyolite_11.png","response":null,"trial_type":"image-keyboard-response","trial_index":216,"plugin_version":"2.1.0","time_elapsed":431956,"subject_id":"92481","group":"Group1","condition":"3_Rep","full_date":"2026-03-12T01:17:32.764Z","date":"2026-03-12","time":"01:17:32"},{"rt":null,"stimulus":"<p style=\"font-size: 50px; margin: 0; text-align: center;\">+</p>","response":null,"trial_type":"html-keyboard-response","trial_index":217,"plugin_version":"2.1.0","time_elapsed":432959,"subject_id":"92481","group":"Group1","condition":"3_Rep","full_date":"2026-03-12T01:17:32.764Z","date":"2026-03-12","time":"01:17:32"},{"task":"memory_phase","broad_category":"S","image_png":"S_Chert_10.png","image_id":362,"category_name":"Chert","category":23,"distinct_rating":7.17,"distinct_type":"Top","rt":null,"stimulus":"Stimuli_Rocks480/S_Chert_10.png","response":null,"trial_type":"image-keyboard-response","trial_index":218,"plugin_version":"2.1.0","time_elapsed":435464,"subject_id":"92481","group":"Group1","condition":"3_Rep","full_date":"2026-03-12T01:17:32.764Z","date":"2026-03-12","time":"01:17:32"},{"rt":null,"stimulus":"<p style=\"font-size: 50px; margin: 0; text-align: center;\">+</p>","response":null,"trial_type":"html-keyboard-response","trial_index":219,"plugin_version":"2.1.0","time_elapsed":436467,"subject_id":"92481","group":"Group1","condition":"3_Rep","full_date":"2026-03-12T01:17:32.764Z","date":"2026-03-12","time":"01:17:32"},{"task":"memory_phase","broad_category":"I","image_png":"I_Pumice_12.png","image_id":140,"category_name":"Pumice","category":9,"distinct_rating":2.97,"distinct_type":"Bottom","rt":null,"stimulus":"Stimuli_Rocks480/I_Pumice_12.png","response":null,"trial_type":"image-keyboard-response","trial_index":220,"plugin_version":"2.1.0","time_elapsed":438970,"subject_id":"92481","group":"Group1","condition":"3_Rep","full_date":"2026-03-12T01:17:32.764Z","date":"2026-03-12","time":"01:17:32"},{"rt":null,"stimulus":"<p style=\"font-size: 50px; margin: 0; text-align: center;\">+</p>","response":null,"trial_type":"html-keyboard-response","trial_index":221,"plugin_version":"2.1.0","time_elapsed":439972,"subject_id":"92481","group":"Group1","condition":"3_Rep","full_date":"2026-03-12T01:17:32.764Z","date":"2026-03-12","time":"01:17:32"},{"task":"memory_phase","broad_category":"M","image_png":"M_Slate_11.png","image_id":315,"category_name":"Slate","category":20,"distinct_rating":2.75,"distinct_type":"Bottom","rt":null,"stimulus":"Stimuli_Rocks480/M_Slate_11.png","response":null,"trial_type":"image-keyboard-response","trial_index":222,"plugin_version":"2.1.0","time_elapsed":442485,"subject_id":"92481","group":"Group1","condition":"3_Rep","full_date":"2026-03-12T01:17:32.764Z","date":"2026-03-12","time":"01:17:32"},{"rt":null,"stimulus":"<p style=\"font-size: 50px; margin: 0; text-align: center;\">+</p>","response":null,"trial_type":"html-keyboard-response","trial_index":223,"plugin_version":"2.1.0","time_elapsed":443488,"subject_id":"92481","group":"Group1","condition":"3_Rep","full_date":"2026-03-12T01:17:32.764Z","date":"2026-03-12","time":"01:17:32"},{"task":"memory_phase","broad_category":"S","image_png":"S_Rock Salt_01.png","image_id":433,"category_name":"Rock Salt","category":28,"distinct_rating":7.18,"distinct_type":"Top","rt":null,"stimulus":"Stimuli_Rocks480/S_Rock Salt_01.png","response":null,"trial_type":"image-keyboard-response","trial_index":224,"plugin_version":"2.1.0","time_elapsed":445991,"subject_id":"92481","group":"Group1","condition":"3_Rep","full_date":"2026-03-12T01:17:32.764Z","date":"2026-03-12","time":"01:17:32"},{"rt":null,"stimulus":"<p style=\"font-size: 50px; margin: 0; text-align: center;\">+</p>","response":null,"trial_type":"html-keyboard-response","trial_index":225,"plugin_version":"2.1.0","time_elapsed":446994,"subject_id":"92481","group":"Group1","condition":"3_Rep","full_date":"2026-03-12T01:17:32.764Z","date":"2026-03-12","time":"01:17:32"},{"task":"memory_phase","broad_category":"S","image_png":"S_Sandstone_15.png","image_id":463,"category_name":"Sandstone","category":29,"distinct_rating":2,"distinct_type":"Bottom","rt":null,"stimulus":"Stimuli_Rocks480/S_Sandstone_15.png","response":null,"trial_type":"image-keyboard-response","trial_index":226,"plugin_version":"2.1.0","time_elapsed":449509,"subject_id":"92481","group":"Group1","condition":"3_Rep","full_date":"2026-03-12T01:17:32.764Z","date":"2026-03-12","time":"01:17:32"},{"rt":null,"stimulus":"<p style=\"font-size: 50px; margin: 0; text-align: center;\">+</p>","response":null,"trial_type":"html-keyboard-response","trial_index":227,"plugin_version":"2.1.0","time_elapsed":450511,"subject_id":"92481","group":"Group1","condition":"3_Rep","full_date":"2026-03-12T01:17:32.764Z","date":"2026-03-12","time":"01:17:32"},{"task":"memory_phase","broad_category":"I","image_png":"I_Basalt_01.png","image_id":17,"category_name":"Basalt","category":2,"distinct_rating":1.92,"distinct_type":"Bottom","rt":null,"stimulus":"Stimuli_Rocks480/I_Basalt_01.png","response":null,"trial_type":"image-keyboard-response","trial_index":228,"plugin_version":"2.1.0","time_elapsed":453027,"subject_id":"92481","group":"Group1","condition":"3_Rep","full_date":"2026-03-12T01:17:32.764Z","date":"2026-03-12","time":"01:17:32"},{"rt":null,"stimulus":"<p style=\"font-size: 50px; margin: 0; text-align: center;\">+</p>","response":null,"trial_type":"html-keyboard-response","trial_index":229,"plugin_version":"2.1.0","time_elapsed":454028,"subject_id":"92481","group":"Group1","condition":"3_Rep","full_date":"2026-03-12T01:17:32.764Z","date":"2026-03-12","time":"01:17:32"},{"task":"memory_phase","broad_category":"M","image_png":"M_Phyllite_07.png","image_id":263,"category_name":"Phyllite","category":17,"distinct_rating":2.59,"distinct_type":"Bottom","rt":null,"stimulus":"Stimuli_Rocks480/M_Phyllite_07.png","response":null,"trial_type":"image-keyboard-response","trial_index":230,"plugin_version":"2.1.0","time_elapsed":456540,"subject_id":"92481","group":"Group1","condition":"3_Rep","full_date":"2026-03-12T01:17:32.764Z","date":"2026-03-12","time":"01:17:32"},{"rt":null,"stimulus":"<p style=\"font-size: 50px; margin: 0; text-align: center;\">+</p>","response":null,"trial_type":"html-keyboard-response","trial_index":231,"plugin_version":"2.1.0","time_elapsed":457542,"subject_id":"92481","group":"Group1","condition":"3_Rep","full_date":"2026-03-12T01:17:32.764Z","date":"2026-03-12","time":"01:17:32"},{"task":"memory_phase","broad_category":"I","image_png":"I_Basalt_02.png","image_id":18,"category_name":"Basalt","category":2,"distinct_rating":1.84,"distinct_type":"Bottom","rt":null,"stimulus":"Stimuli_Rocks480/I_Basalt_02.png","response":null,"trial_type":"image-keyboard-response","trial_index":232,"plugin_version":"2.1.0","time_elapsed":460056,"subject_id":"92481","group":"Group1","condition":"3_Rep","full_date":"2026-03-12T01:17:32.764Z","date":"2026-03-12","time":"01:17:32"},{"rt":null,"stimulus":"<p style=\"font-size: 50px; margin: 0; text-align: center;\">+</p>","response":null,"trial_type":"html-keyboard-response","trial_index":233,"plugin_version":"2.1.0","time_elapsed":461058,"subject_id":"92481","group":"Group1","condition":"3_Rep","full_date":"2026-03-12T01:17:32.764Z","date":"2026-03-12","time":"01:17:32"},{"task":"memory_phase","broad_category":"S","image_png":"S_Shale_01.png","image_id":465,"category_name":"Shale","category":30,"distinct_rating":2.7,"distinct_type":"Bottom","rt":null,"stimulus":"Stimuli_Rocks480/S_Shale_01.png","response":null,"trial_type":"image-keyboard-response","trial_index":234,"plugin_version":"2.1.0","time_elapsed":463571,"subject_id":"92481","group":"Group1","condition":"3_Rep","full_date":"2026-03-12T01:17:32.764Z","date":"2026-03-12","time":"01:17:32"},{"rt":null,"stimulus":"<p style=\"font-size: 50px; margin: 0; text-align: center;\">+</p>","response":null,"trial_type":"html-keyboard-response","trial_index":235,"plugin_version":"2.1.0","time_elapsed":464573,"subject_id":"92481","group":"Group1","condition":"3_Rep","full_date":"2026-03-12T01:17:32.764Z","date":"2026-03-12","time":"01:17:32"},{"task":"memory_phase","broad_category":"M","image_png":"M_Phyllite_10.png","image_id":266,"category_name":"Phyllite","category":17,"distinct_rating":2.6,"distinct_type":"Bottom","rt":null,"stimulus":"Stimuli_Rocks480/M_Phyllite_10.png","response":null,"