[{"width":1440,"height":811,"webaudio":true,"browser":"chrome","browser_version":"144.0.0","mobile":false,"os":"Mac OS","fullscreen":true,"vsync_rate":60.24,"webcam":true,"microphone":true,"trial_type":"browser-check","trial_index":0,"plugin_version":"2.1.0","time_elapsed":1002,"subject_id":"90812","group":"Group2","condition":"3_Rep","full_date":"2026-02-11T17:51:18.718Z","date":"2026-02-11","time":"17:51:18"},{"success":true,"timeout":false,"failed_images":[],"failed_audio":[],"failed_video":[],"trial_type":"preload","trial_index":1,"plugin_version":"2.1.0","time_elapsed":8425,"subject_id":"90812","group":"Group2","condition":"3_Rep","full_date":"2026-02-11T17:51:18.718Z","date":"2026-02-11","time":"17:51:18"},{"rt":11852,"url":"SONA_consent_memorability.html","trial_type":"external-html","trial_index":2,"plugin_version":"2.1.0","time_elapsed":20332,"subject_id":"90812","group":"Group2","condition":"3_Rep","full_date":"2026-02-11T17:51:18.718Z","date":"2026-02-11","time":"17:51:18"},{"success":true,"rt":1207840,"trial_type":"fullscreen","trial_index":3,"plugin_version":"2.1.0","time_elapsed":5077434,"subject_id":"90812","group":"Group2","condition":"3_Rep","full_date":"2026-02-11T17:51:18.718Z","date":"2026-02-11","time":"17:51:18"},{"rt":16177,"stimulus":"<div style=\"max-width: 760px; margin: auto; font-size: 20px; line-height: 1.5;\">\n      <h1 style=\"text-align:center; font-size: 30px;\">Instructions</h1>\n      <p>\n        Welcome to the study on <b>visual memory</b>. This experiment consists of <b>two phases</b>: \n        a <b>study phase</b> and a <b>test phase</b>.\n      </p>\n      <p>\n        In the study phase, you will see a series of rock images along with their category labels.\n        The images will appear one at a time.\n        <b>Your task</b> is to learn the categories to which the rock images belong \n        and to remember each image as accurately as possible.\n      </p> \n      <p>\n        Note that we will repeat the study phase <b>3 times</b>, \n             so you will have multiple opportunities to see and remember each image.\n      </p>\n      <p>\n        After the study phase, <b>your memory will be tested</b>. \n        Additional instructions for the test phase will be provided at that time.\n      </p>\n      <p>\n        If your computer has multiple <b>language settings</b> (e.g., English and another language),\n        please make sure it is set to English before starting.\n      </p>\n      <p>\n        You can track your progress using the <b>completion bar</b> at the top of the screen. \n        Please note that the bar will refresh when the test phase begins \n        to give you an accurate sense of your progress in both phases.\n      </p> \n      <p>\n        Press the button below when you are ready to begin.\n      </p>\n    </div>","response":0,"trial_type":"html-button-response","trial_index":4,"plugin_version":"2.1.0","time_elapsed":5093614,"subject_id":"90812","group":"Group2","condition":"3_Rep","full_date":"2026-02-11T17:51:18.718Z","date":"2026-02-11","time":"17:51:18"},{"rt":null,"stimulus":"<p style=\"font-size: 50px; margin: 0; text-align: center;\">+</p>","response":null,"trial_type":"html-keyboard-response","trial_index":5,"plugin_version":"2.1.0","time_elapsed":5094619,"subject_id":"90812","group":"Group2","condition":"3_Rep","full_date":"2026-02-11T17:51:18.718Z","date":"2026-02-11","time":"17:51:18"},{"task":"memory_phase","broad_category":"S","image_png":"S_Shale_07.png","image_id":471,"category_name":"Shale","category":30,"distinct_rating":2.73,"distinct_type":"Bottom","rt":null,"stimulus":"Stimuli_Rocks480/S_Shale_07.png","response":null,"trial_type":"image-keyboard-response","trial_index":6,"plugin_version":"2.1.0","time_elapsed":5097125,"subject_id":"90812","group":"Group2","condition":"3_Rep","full_date":"2026-02-11T17:51:18.718Z","date":"2026-02-11","time":"17:51:18"},{"rt":null,"stimulus":"<p style=\"font-size: 50px; margin: 0; text-align: center;\">+</p>","response":null,"trial_type":"html-keyboard-response","trial_index":7,"plugin_version":"2.1.0","time_elapsed":5098128,"subject_id":"90812","group":"Group2","condition":"3_Rep","full_date":"2026-02-11T17:51:18.718Z","date":"2026-02-11","time":"17:51:18"},{"task":"memory_phase","broad_category":"S","image_png":"S_Shale_02.png","image_id":466,"category_name":"Shale","category":30,"distinct_rating":2.9,"distinct_type":"Bottom","rt":null,"stimulus":"Stimuli_Rocks480/S_Shale_02.png","response":null,"trial_type":"image-keyboard-response","trial_index":8,"plugin_version":"2.1.0","time_elapsed":5100632,"subject_id":"90812","group":"Group2","condition":"3_Rep","full_date":"2026-02-11T17:51:18.718Z","date":"2026-02-11","time":"17:51:18"},{"rt":null,"stimulus":"<p style=\"font-size: 50px; margin: 0; text-align: center;\">+</p>","response":null,"trial_type":"html-keyboard-response","trial_index":9,"plugin_version":"2.1.0","time_elapsed":5101635,"subject_id":"90812","group":"Group2","condition":"3_Rep","full_date":"2026-02-11T17:51:18.718Z","date":"2026-02-11","time":"17:51:18"},{"task":"memory_phase","broad_category":"M","image_png":"M_Quartzite_15.png","image_id":287,"category_name":"Quartzite","category":18,"distinct_rating":2.19,"distinct_type":"Bottom","rt":null,"stimulus":"Stimuli_Rocks480/M_Quartzite_15.png","response":null,"trial_type":"image-keyboard-response","trial_index":10,"plugin_version":"2.1.0","time_elapsed":5104139,"subject_id":"90812","group":"Group2","condition":"3_Rep","full_date":"2026-02-11T17:51:18.718Z","date":"2026-02-11","time":"17:51:18"},{"rt":null,"stimulus":"<p style=\"font-size: 50px; margin: 0; text-align: center;\">+</p>","response":null,"trial_type":"html-keyboard-response","trial_index":11,"plugin_version":"2.1.0","time_elapsed":5105142,"subject_id":"90812","group":"Group2","condition":"3_Rep","full_date":"2026-02-11T17:51:18.718Z","date":"2026-02-11","time":"17:51:18"},{"task":"memory_phase","broad_category":"S","image_png":"S_Rock Salt_15.png","image_id":447,"category_name":"Rock Salt","category":28,"distinct_rating":7.79,"distinct_type":"Top","rt":null,"stimulus":"Stimuli_Rocks480/S_Rock Salt_15.png","response":null,"trial_type":"image-keyboard-response","trial_index":12,"plugin_version":"2.1.0","time_elapsed":5107645,"subject_id":"90812","group":"Group2","condition":"3_Rep","full_date":"2026-02-11T17:51:18.718Z","date":"2026-02-11","time":"17:51:18"},{"rt":null,"stimulus":"<p style=\"font-size: 50px; margin: 0; text-align: center;\">+</p>","response":null,"trial_type":"html-keyboard-response","trial_index":13,"plugin_version":"2.1.0","time_elapsed":5108649,"subject_id":"90812","group":"Group2","condition":"3_Rep","full_date":"2026-02-11T17:51:18.718Z","date":"2026-02-11","time":"17:51:18"},{"task":"memory_phase","broad_category":"S","image_png":"S_Sandstone_08.png","image_id":456,"category_name":"Sandstone","category":29,"distinct_rating":1.5,"distinct_type":"Bottom","rt":null,"stimulus":"Stimuli_Rocks480/S_Sandstone_08.png","response":null,"trial_type":"image-keyboard-response","trial_index":14,"plugin_version":"2.1.0","time_elapsed":5111152,"subject_id":"90812","group":"Group2","condition":"3_Rep","full_date":"2026-02-11T17:51:18.718Z","date":"2026-02-11","time":"17:51:18"},{"rt":null,"stimulus":"<p style=\"font-size: 50px; margin: 0; text-align: center;\">+</p>","response":null,"trial_type":"html-keyboard-response","trial_index":15,"plugin_version":"2.1.0","time_elapsed":5112154,"subject_id":"90812","group":"Group2","condition":"3_Rep","full_date":"2026-02-11T17:51:18.718Z","date":"2026-02-11","time":"17:51:18"},{"task":"memory_phase","broad_category":"M","image_png":"M_Phyllite_13.png","image_id":269,"category_name":"Phyllite","category":17,"distinct_rating":2.8,"distinct_type":"Bottom","rt":null,"stimulus":"Stimuli_Rocks480/M_Phyllite_13.png","response":null,"trial_type":"image-keyboard-response","trial_index":16,"plugin_version":"2.1.0","time_elapsed":5114657,"subject_id":"90812","group":"Group2","condition":"3_Rep","full_date":"2026-02-11T17:51:18.718Z","date":"2026-02-11","time":"17:51:18"},{"rt":null,"stimulus":"<p style=\"font-size: 50px; margin: 0; text-align: center;\">+</p>","response":null,"trial_type":"html-keyboard-response","trial_index":17,"plugin_version":"2.1.0","time_elapsed":5115660,"subject_id":"90812","group":"Group2","condition":"3_Rep","full_date":"2026-02-11T17:51:18.718Z","date":"2026-02-11","time":"17:51:18"},{"task":"memory_phase","broad_category":"I","image_png":"I_Pegmatite_03.png","image_id":99,"category_name":"Pegmatite","category":7,"distinct_rating":7.24,"distinct_type":"Top","rt":null,"stimulus":"Stimuli_Rocks480/I_Pegmatite_03.png","response":null,"trial_type":"image-keyboard-response","trial_index":18,"plugin_version":"2.1.0","time_elapsed":5118163,"subject_id":"90812","group":"Group2","condition":"3_Rep","full_date":"2026-02-11T17:51:18.718Z","date":"2026-02-11","time":"17:51:18"},{"rt":null,"stimulus":"<p style=\"font-size: 50px; margin: 0; text-align: center;\">+</p>","response":null,"trial_type":"html-keyboard-response","trial_index":19,"plugin_version":"2.1.0","time_elapsed":5119166,"subject_id":"90812","group":"Group2","condition":"3_Rep","full_date":"2026-02-11T17:51:18.718Z","date":"2026-02-11","time":"17:51:18"},{"task":"memory_phase","broad_category":"I","image_png":"I_Andesite_03.png","image_id":3,"category_name":"Andesite","category":1,"distinct_rating":3.17,"distinct_type":"Bottom","rt":null,"stimulus":"Stimuli_Rocks480/I_Andesite_03.png","response":null,"trial_type":"image-keyboard-response","trial_index":20,"plugin_version":"2.1.0","time_elapsed":5121669,"subject_id":"90812","group":"Group2","condition":"3_Rep","full_date":"2026-02-11T17:51:18.718Z","date":"2026-02-11","time":"17:51:18"},{"rt":null,"stimulus":"<p style=\"font-size: 50px; margin: 0; text-align: center;\">+</p>","response":null,"trial_type":"html-keyboard-response","trial_index":21,"plugin_version":"2.1.0","time_elapsed":5122671,"subject_id":"90812","group":"Group2","condition":"3_Rep","full_date":"2026-02-11T17:51:18.718Z","date":"2026-02-11","time":"17:51:18"},{"task":"memory_phase","broad_category":"I","image_png":"I_Obsidian_06.png","image_id":86,"category_name":"Obsidian","category":6,"distinct_rating":8.01,"distinct_type":"Top","rt":null,"stimulus":"Stimuli_Rocks480/I_Obsidian_06.png","response":null,"trial_type":"image-keyboard-response","trial_index":22,"plugin_version":"2.1.0","time_elapsed":5125174,"subject_id":"90812","group":"Group2","condition":"3_Rep","full_date":"2026-02-11T17:51:18.718Z","date":"2026-02-11","time":"17:51:18"},{"rt":null,"stimulus":"<p style=\"font-size: 50px; margin: 0; text-align: center;\">+</p>","response":null,"trial_type":"html-keyboard-response","trial_index":23,"plugin_version":"2.1.0","time_elapsed":5126176,"subject_id":"90812","group":"Group2","condition":"3_Rep","full_date":"2026-02-11T17:51:18.718Z","date":"2026-02-11","time":"17:51:18"},{"task":"memory_phase","broad_category":"S","image_png":"S_Chert_13.png","image_id":365,"category_name":"Chert","category":23,"distinct_rating":6.57,"distinct_type":"Top","rt":null,"stimulus":"Stimuli_Rocks480/S_Chert_13.png","response":null,"trial_type":"image-keyboard-response","trial_index":24,"plugin_version":"2.1.0","time_elapsed":5128680,"subject_id":"90812","group":"Group2","condition":"3_Rep","full_date":"2026-02-11T17:51:18.718Z","date":"2026-02-11","time":"17:51:18"},{"rt":null,"stimulus":"<p style=\"font-size: 50px; margin: 0; text-align: center;\">+</p>","response":null,"trial_type":"html-keyboard-response","trial_index":25,"plugin_version":"2.1.0","time_elapsed":5129683,"subject_id":"90812","group":"Group2","condition":"3_Rep","full_date":"2026-02-11T17:51:18.718Z","date":"2026-02-11","time":"17:51:18"},{"task":"memory_phase","broad_category":"I","image_png":"I_Pumice_01.png","image_id":129,"category_name":"Pumice","category":9,"distinct_rating":3.25,"distinct_type":"Bottom","rt":null,"stimulus":"Stimuli_Rocks480/I_Pumice_01.png","response":null,"trial_type":"image-keyboard-response","trial_index":26,"plugin_version":"2.1.0","time_elapsed":5132186,"subject_id":"90812","group":"Group2","condition":"3_Rep","full_date":"2026-02-11T17:51:18.718Z","date":"2026-02-11","time":"17:51:18"},{"rt":null,"stimulus":"<p style=\"font-size: 50px; margin: 0; text-align: center;\">+</p>","response":null,"trial_type":"html-keyboard-response","trial_index":27,"plugin_version":"2.1.0","time_elapsed":5133189,"subject_id":"90812","group":"Group2","condition":"3_Rep","full_date":"2026-02-11T17:51:18.718Z","date":"2026-02-11","time":"17:51:18"},{"task":"memory_phase","broad_category":"M","image_png":"M_Slate_14.png","image_id":318,"category_name":"Slate","category":20,"distinct_rating":2.58,"distinct_type":"Bottom","rt":null,"stimulus":"Stimuli_Rocks480/M_Slate_14.png","response":null,"trial_type":"image-keyboard-response","trial_index":28,"plugin_version":"2.1.0","time_elapsed":5135691,"subject_id":"90812","group":"Group2","condition":"3_Rep","full_date":"2026-02-11T17:51:18.718Z","date":"2026-02-11","time":"17:51:18"},{"rt":null,"stimulus":"<p style=\"font-size: 50px; margin: 0; text-align: center;\">+</p>","response":null,"trial_type":"html-keyboard-response","trial_index":29,"plugin_version":"2.1.0","time_elapsed":5136693,"subject_id":"90812","group":"Group2","condition":"3_Rep","full_date":"2026-02-11T17:51:18.718Z","date":"2026-02-11","time":"17:51:18"},{"task":"memory_phase","broad_category":"I","image_png":"I_Andesite_04.png","image_id":4,"category_name":"Andesite","category":1,"distinct_rating":3.18,"distinct_type":"Bottom","rt":null,"stimulus":"Stimuli_Rocks480/I_Andesite_04.png","response":null,"trial_type":"image-keyboard-response","trial_index":30,"plugin_version":"2.1.0","time_elapsed":5139197,"subject_id":"90812","group":"Group2","condition":"3_Rep","full_date":"2026-02-11T17:51:18.718Z","date":"2026-02-11","time":"17:51:18"},{"rt":null,"stimulus":"<p style=\"font-size: 50px; margin: 0; text-align: center;\">+</p>","response":null,"trial_type":"html-keyboard-response","trial_index":31,"plugin_version":"2.1.0","time_elapsed":5140199,"subject_id":"90812","group":"Group2","condition":"3_Rep","full_date":"2026-02-11T17:51:18.718Z","date":"2026-02-11","time":"17:51:18"},{"task":"memory_phase","broad_category":"S","image_png":"S_Dolomite_01.png","image_id":385,"category_name":"Dolomite","category":25,"distinct_rating":1.43,"distinct_type":"Bottom","rt":null,"stimulus":"Stimuli_Rocks480/S_Dolomite_01.png","response":null,"trial_type":"image-keyboard-response","trial_index":32,"plugin_version":"2.1.0","time_elapsed":5142702,"subject_id":"90812","group":"Group2","condition":"3_Rep","full_date":"2026-02-11T17:51:18.718Z","date":"2026-02-11","time":"17:51:18"},{"rt":null,"stimulus":"<p style=\"font-size: 50px; margin: 0; text-align: center;\">+</p>","response":null,"trial_type":"html-keyboard-response","trial_index":33,"plugin_version":"2.1.0","time_elapsed":5143704,"subject_id":"90812","group":"Group2","condition":"3_Rep","full_date":"2026-02-11T17:51:18.718Z","date":"2026-02-11","time":"17:51:18"},{"task":"memory_phase","broad_category":"S","image_png":"S_Dolomite_16.png","image_id":400,"category_name":"Dolomite","category":25,"distinct_rating":1.71,"distinct_type":"Bottom","rt":null,"stimulus":"Stimuli_Rocks480/S_Dolomite_16.png","response":null,"trial_type":"image-keyboard-response","trial_index":34,"plugin_version":"2.1.0","time_elapsed":5146208,"subject_id":"90812","group":"Group2","condition":"3_Rep","full_date":"2026-02-11T17:51:18.718Z","date":"2026-02-11","time":"17:51:18"},{"rt":null,"stimulus":"<p style=\"font-size: 50px; margin: 0; text-align: center;\">+</p>","response":null,"trial_type":"html-keyboard-response","trial_index":35,"plugin_version":"2.1.0","time_elapsed":5147210,"subject_id":"90812","group":"Group2","condition":"3_Rep","full_date":"2026-02-11T17:51:18.718Z","date":"2026-02-11","time":"17:51:18"},{"task":"memory_phase","broad_category":"I","image_png":"I_Rhyolite_10.png","image_id":154,"category_name":"Rhyolite","category":10,"distinct_rating":2.88,"distinct_type":"Bottom","rt":null,"stimulus":"Stimuli_Rocks480/I_Rhyolite_10.png","response":null,"trial_type":"image-keyboard-response","trial_index":36,"plugin_version":"2.1.0","time_elapsed":5149713,"subject_id":"90812","group":"Group2","condition":"3_Rep","full_date":"2026-02-11T17:51:18.718Z","date":"2026-02-11","time":"17:51:18"},{"rt":null,"stimulus":"<p style=\"font-size: 50px; margin: 0; text-align: center;\">+</p>","response":null,"trial_type":"html-keyboard-response","trial_index":37,"plugin_version":"2.1.0","time_elapsed":5150716,"subject_id":"90812","group":"Group2","condition":"3_Rep","full_date":"2026-02-11T17:51:18.718Z","date":"2026-02-11","time":"17:51:18"},{"task":"memory_phase","broad_category":"S","image_png":"S_Shale_03.png","image_id":467,"category_name":"Shale","category":30,"distinct_rating":1.95,"distinct_type":"Bottom","rt":null,"stimulus":"Stimuli_Rocks480/S_Shale_03.png","response":null,"trial_type":"image-keyboard-response","trial_index":38,"plugin_version":"2.1.0","time_elapsed":5153218,"subject_id":"90812","group":"Group2","condition":"3_Rep","full_date":"2026-02-11T17:51:18.718Z","date":"2026-02-11","time":"17:51:18"},{"rt":null,"stimulus":"<p style=\"font-size: 50px; margin: 0; text-align: center;\">+</p>","response":null,"trial_type":"html-keyboard-response","trial_index":39,"plugin_version":"2.1.0","time_elapsed":5154221,"subject_id":"90812","group":"Group2","condition":"3_Rep","full_date":"2026-02-11T17:51:18.718Z","date":"2026-02-11","time":"17:51:18"},{"task":"memory_phase","broad_category":"M","image_png":"M_Marble_14.png","image_id":238,"category_name":"Marble","category":15,"distinct_rating":3.31,"distinct_type":"Bottom","rt":null,"stimulus":"Stimuli_Rocks480/M_Marble_14.png","response":null,"trial_type":"image-keyboard-response","trial_index":40,"plugin_version":"2.1.0","time_elapsed":5156724,"subject_id":"90812","group":"Group2","condition":"3_Rep","full_date":"2026-02-11T17:51:18.718Z","date":"2026-02-11","time":"17:51:18"},{"rt":null,"stimulus":"<p style=\"font-size: 50px; margin: 0; text-align: center;\">+</p>","response":null,"trial_type":"html-keyboard-response","trial_index":41,"plugin_version":"2.1.0","time_elapsed":5157726,"subject_id":"90812","group":"Group2","condition":"3_Rep","full_date":"2026-02-11T17:51:18.718Z","date":"2026-02-11","time":"17:51:18"},{"task":"memory_phase","broad_category":"I","image_png":"I_Basalt_08.png","image_id":24,"category_name":"Basalt","category":2,"distinct_rating":2.31,"distinct_type":"Bottom","rt":null,"stimulus":"Stimuli_Rocks480/I_Basalt_08.png","response":null,"trial_type":"image-keyboard-response","trial_index":42,"plugin_version":"2.1.0","time_elapsed":5160230,"subject_id":"90812","group":"Group2","condition":"3_Rep","full_date":"2026-02-11T17:51:18.718Z","date":"2026-02-11","time":"17:51:18"},{"rt":null,"stimulus":"<p style=\"font-size: 50px; margin: 0; text-align: center;\">+</p>","response":null,"trial_type":"html-keyboard-response","trial_index":43,"plugin_version":"2.1.0","time_elapsed":5161232,"subject_id":"90812","group":"Group2","condition":"3_Rep","full_date":"2026-02-11T17:51:18.718Z","date":"2026-02-11","time":"17:51:18"},{"task":"memory_phase","broad_category":"M","image_png":"M_Marble_03.png","image_id":227,"category_name":"Marble","category":15,"distinct_rating":2.67,"distinct_type":"Bottom","rt":null,"stimulus":"Stimuli_Rocks480/M_Marble_03.png","response":null,"trial_type":"image-keyboard-response","trial_index":44,"plugin_version":"2.1.0","time_elapsed":5163736,"subject_id":"90812","group":"Group2","condition":"3_Rep","full_date":"2026-02-11T17:51:18.718Z","date":"2026-02-11","time":"17:51:18"},{"rt":null,"stimulus":"<p style=\"font-size: 50px; margin: 0; text-align: center;\">+</p>","response":null,"trial_type":"html-keyboard-response","trial_index":45,"plugin_version":"2.1.0","time_elapsed":5164738,"subject_id":"90812","group":"Group2","condition":"3_Rep","full_date":"2026-02-11T17:51:18.718Z","date":"2026-02-11","time":"17:51:18"},{"task":"memory_phase","broad_category":"I","image_png":"I_Basalt_13.png","image_id":29,"category_name":"Basalt","category":2,"distinct_rating":2.68,"distinct_type":"Bottom","rt":null,"stimulus":"Stimuli_Rocks480/I_Basalt_13.png","response":null,"trial_type":"image-keyboard-response","trial_index":46,"plugin_version":"2.1.0","time_elapsed":5167241,"subject_id":"90812","group":"Group2","condition":"3_Rep","full_date":"2026-02-11T17:51:18.718Z","date":"2026-02-11","time":"17:51:18"},{"rt":null,"stimulus":"<p style=\"font-size: 50px; margin: 0; text-align: center;\">+</p>","response":null,"trial_type":"html-keyboard-response","trial_index":47,"plugin_version":"2.1.0","time_elapsed":5168243,"subject_id":"90812","group":"Group2","condition":"3_Rep","full_date":"2026-02-11T17:51:18.718Z","date":"2026-02-11","time":"17:51:18"},{"task":"memory_phase","broad_category":"S","image_png":"S_Sandstone_04.png","image_id":452,"category_name":"Sandstone","category":29,"distinct_rating":1.8,"distinct_type":"Bottom","rt":null,"stimulus":"Stimuli_Rocks480/S_Sandstone_04.png","response":null,"trial_type":"image-keyboard-response","trial_index":48,"plugin_version":"2.1.0","time_elapsed":5170746,"subject_id":"90812","group":"Group2","condition":"3_Rep","full_date":"2026-02-11T17:51:18.718Z","date":"2026-02-11","time":"17:51:18"},{"rt":null,"stimulus":"<p style=\"font-size: 50px; margin: 0; text-align: center;\">+</p>","response":null,"trial_type":"html-keyboard-response","trial_index":49,"plugin_version":"2.1.0","time_elapsed":5171748,"subject_id":"90812","group":"Group2","condition":"3_Rep","full_date":"2026-02-11T17:51:18.718Z","date":"2026-02-11","time":"17:51:18"},{"task":"memory_phase","broad_category":"I","image_png":"I_Pegmatite_11.png","image_id":107,"category_name":"Pegmatite","category":7,"distinct_rating":7.11,"distinct_type":"Top","rt":null,"stimulus":"Stimuli_Rocks480/I_Pegmatite_11.png","response":null,"trial_type":"image-keyboard-response","trial_index":50,"plugin_version":"2.1.0","time_elapsed":5174251,"subject_id":"90812","group":"Group2","condition":"3_Rep","full_date":"2026-02-11T17:51:18.718Z","date":"2026-02-11","time":"17:51:18"},{"rt":null,"stimulus":"<p style=\"font-size: 50px; margin: 0; text-align: center;\">+</p>","response":null,"trial_type":"html-keyboard-response","trial_index":51,"plugin_version":"2.1.0","time_elapsed":5175253,"subject_id":"90812","group":"Group2","condition":"3_Rep","full_date":"2026-02-11T17:51:18.718Z","date":"2026-02-11","time":"17:51:18"},{"task":"memory_phase","broad_category":"I","image_png":"I_Gabbro_02.png","image_id":50,"category_name":"Gabbro","category":4,"distinct_rating":2.73,"distinct_type":"Bottom","rt":null,"stimulus":"Stimuli_Rocks480/I_Gabbro_02.png","response":null,"trial_type":"image-keyboard-response","trial_index":52,"plugin_version":"2.1.0","time_elapsed":5177756,"subject_id":"90812","group":"Group2","condition":"3_Rep","full_date":"2026-02-11T17:51:18.718Z","date":"2026-02-11","time":"17:51:18"},{"rt":null,"stimulus":"<p style=\"font-size: 50px; margin: 0; text-align: center;\">+</p>","response":null,"trial_type":"html-keyboard-response","trial_index":53,"plugin_version":"2.1.0","time_elapsed":5178759,"subject_id":"90812","group":"Group2","condition":"3_Rep","full_date":"2026-02-11T17:51:18.718Z","date":"2026-02-11","time":"17:51:18"},{"task":"memory_phase","broad_category":"S","image_png":"S_Dolomite_07.png","image_id":391,"category_name":"Dolomite","category":25,"distinct_rating":1.73,"distinct_type":"Bottom","rt":null,"stimulus":"Stimuli_Rocks480/S_Dolomite_07.png","response":null,"trial_type":"image-keyboard-response","trial_index":54,"plugin_version":"2.1.0","time_elapsed":5181262,"subject_id":"90812","group":"Group2","condition":"3_Rep","full_date":"2026-02-11T17:51:18.718Z","date":"2026-02-11","time":"17:51:18"},{"rt":1799,"stimulus":"<p style=\"max-width: 760px; margin: auto; font-size: 35px; line-height: 1.5;\">\n                Press SPACE to continue study phase\n              </p>","response":" ","trial_type":"html-keyboard-response","trial_index":55,"plugin_version":"2.1.0","time_elapsed":5183062,"subject_id":"90812","group":"Group2","condition":"3_Rep","full_date":"2026-02-11T17:51:18.718Z","date":"2026-02-11","time":"17:51:18"},{"rt":null,"stimulus":"<p style=\"font-size: 50px; margin: 0; text-align: center;\">+</p>","response":null,"trial_type":"html-keyboard-response","trial_index":56,"plugin_version":"2.1.0","time_elapsed":5184064,"subject_id":"90812","group":"Group2","condition":"3_Rep","full_date":"2026-02-11T17:51:18.718Z","date":"2026-02-11","time":"17:51:18"},{"task":"memory_phase","broad_category":"M","image_png":"M_Slate_04.png","image_id":308,"category_name":"Slate","category":20,"distinct_rating":2.2,"distinct_type":"Bottom","rt":null,"stimulus":"Stimuli_Rocks480/M_Slate_04.png","response":null,"trial_type":"image-keyboard-response","trial_index":57,"plugin_version":"2.1.0","time_elapsed":5186568,"subject_id":"90812","group":"Group2","condition":"3_Rep","full_date":"2026-02-11T17:51:18.718Z","date":"2026-02-11","time":"17:51:18"},{"rt":null,"stimulus":"<p style=\"font-size: 50px; margin: 0; text-align: center;\">+</p>","response":null,"trial_type":"html-keyboard-response","trial_index":58,"plugin_version":"2.1.0","time_elapsed":5187570,"subject_id":"90812","group":"Group2","condition":"3_Rep","full_date":"2026-02-11T17:51:18.718Z","date":"2026-02-11","time":"17:51:18"},{"task":"memory_phase","broad_category":"S","image_png":"S_Conglomerate_14.png","image_id":382,"category_name":"Conglomerate","category":24,"distinct_rating":6.86,"distinct_type":"Top","rt":null,"stimulus":"Stimuli_Rocks480/S_Conglomerate_14.png","response":null,"trial_type":"image-keyboard-response","trial_index":59,"plugin_version":"2.1.0","time_elapsed":5190073,"subject_id":"90812","group":"Group2","condition":"3_Rep","full_date":"2026-02-11T17:51:18.718Z","date":"2026-02-11","time":"17:51:18"},{"rt":null,"stimulus":"<p style=\"font-size: 50px; margin: 0; text-align: center;\">+</p>","response":null,"trial_type":"html-keyboard-response","trial_index":60,"plugin_version":"2.1.0","time_elapsed":5191075,"subject_id":"90812","group":"Group2","condition":"3_Rep","full_date":"2026-02-11T17:51:18.718Z","date":"2026-02-11","time":"17:51:18"},{"task":"memory_phase","broad_category":"I","image_png":"I_Peridotite_13.png","image_id":125,"category_name":"Peridotite","category":8,"distinct_rating":7.28,"distinct_type":"Top","rt":null,"stimulus":"Stimuli_Rocks480/I_Peridotite_13.png","response":null,"trial_type":"image-keyboard-response","trial_index":61,"plugin_version":"2.1.0","time_elapsed":5193579,"subject_id":"90812","group":"Group2","condition":"3_Rep","full_date":"2026-02-11T17:51:18.718Z","date":"2026-02-11","time":"17:51:18"},{"rt":null,"stimulus":"<p style=\"font-size: 50px; margin: 0; text-align: center;\">+</p>","response":null,"trial_type":"html-keyboard-response","trial_index":62,"plugin_version":"2.1.0","time_elapsed":5194581,"subject_id":"90812","group":"Group2","condition":"3_Rep","full_date":"2026-02-11T17:51:18.718Z","date":"2026-02-11","time":"17:51:18"},{"task":"memory_phase","broad_category":"M","image_png":"M_Quartzite_07.png","image_id":279,"category_name":"Quartzite","category":18,"distinct_rating":1.97,"distinct_type":"Bottom","rt":null,"stimulus":"Stimuli_Rocks480/M_Quartzite_07.png","response":null,"trial_type":"image-keyboard-response","trial_index":63,"plugin_version":"2.1.0","time_elapsed":5197084,"subject_id":"90812","group":"Group2","condition":"3_Rep","full_date":"2026-02-11T17:51:18.718Z","date":"2026-02-11","time":"17:51:18"},{"rt":null,"stimulus":"<p style=\"font-size: 50px; margin: 0; text-align: center;\">+</p>","response":null,"trial_type":"html-keyboard-response","trial_index":64,"plugin_version":"2.1.0","time_elapsed":5198086,"subject_id":"90812","group":"Group2","condition":"3_Rep","full_date":"2026-02-11T17:51:18.718Z","date":"2026-02-11","time":"17:51:18"},{"task":"memory_phase","broad_category":"M","image_png":"M_Phyllite_02.png","image_id":258,"category_name":"Phyllite","category":17,"distinct_rating":2.89,"distinct_type":"Bottom","rt":null,"stimulus":"Stimuli_Rocks480/M_Phyllite_02.png","response":null,"trial_type":"image-keyboard-response","trial_index":65,"plugin_version":"2.1.0","time_elapsed":5200588,"subject_id":"90812","group":"Group2","condition":"3_Rep","full_date":"2026-02-11T17:51:18.718Z","date":"2026-02-11","time":"17:51:18"},{"rt":null,"stimulus":"<p style=\"font-size: 50px; margin: 0; text-align: center;\">+</p>","response":null,"trial_type":"html-keyboard-response","trial_index":66,"plugin_version":"2.1.0","time_elapsed":5201591,"subject_id":"90812","group":"Group2","condition":"3_Rep","full_date":"2026-02-11T17:51:18.718Z","date":"2026-02-11","time":"17:51:18"},{"task":"memory_phase","broad_category":"I","image_png":"I_Diorite_10.png","image_id":42,"category_name":"Diorite","category":3,"distinct_rating":2.84,"distinct_type":"Bottom","rt":null,"stimulus":"Stimuli_Rocks480/I_Diorite_10.png","response":null,"trial_type":"image-keyboard-response","trial_index":67,"plugin_version":"2.1.0","time_elapsed":5204094,"subject_id":"90812","group":"Group2","condition":"3_Rep","full_date":"2026-02-11T17:51:18.718Z","date":"2026-02-11","time":"17:51:18"},{"rt":null,"stimulus":"<p style=\"font-size: 50px; margin: 0; text-align: center;\">+</p>","response":null,"trial_type":"html-keyboard-response","trial_index":68,"plugin_version":"2.1.0","time_elapsed":5205096,"subject_id":"90812","group":"Group2","condition":"3_Rep","full_date":"2026-02-11T17:51:18.718Z","date":"2026-02-11","time":"17:51:18"},{"task":"memory_phase","broad_category":"I","image_png":"I_Pumice_14.png","image_id":142,"category_name":"Pumice","category":9,"distinct_rating":3.22,"distinct_type":"Bottom","rt":null,"stimulus":"Stimuli_Rocks480/I_Pumice_14.png","response":null,"trial_type":"image-keyboard-response","trial_index":69,"plugin_version":"2.1.0","time_elapsed":5207599,"subject_id":"90812","group":"Group2","condition":"3_Rep","full_date":"2026-02-11T17:51:18.718Z","date":"2026-02-11","time":"17:51:18"},{"rt":null,"stimulus":"<p style=\"font-size: 50px; margin: 0; text-align: center;\">+</p>","response":null,"trial_type":"html-keyboard-response","trial_index":70,"plugin_version":"2.1.0","time_elapsed":5208601,"subject_id":"90812","group":"Group2","condition":"3_Rep","full_date":"2026-02-11T17:51:18.718Z","date":"2026-02-11","time":"17:51:18"},{"task":"memory_phase","broad_category":"I","image_png":"I_Diorite_01.png","image_id":33,"category_name":"Diorite","category":3,"distinct_rating":2.97,"distinct_type":"Bottom","rt":null,"stimulus":"Stimuli_Rocks480/I_Diorite_01.png","response":null,"trial_type":"image-keyboard-response","trial_index":71,"plugin_version":"2.1.0","time_elapsed":5211104,"subject_id":"90812","group":"Group2","condition":"3_Rep","full_date":"2026-02-11T17:51:18.718Z","date":"2026-02-11","time":"17:51:18"},{"rt":null,"stimulus":"<p style=\"font-size: 50px; margin: 0; text-align: center;\">+</p>","response":null,"trial_type":"html-keyboard-response","trial_index":72,"plugin_version":"2.1.0","time_elapsed":5212107,"subject_id":"90812","group":"Group2","condition":"3_Rep","full_date":"2026-02-11T17:51:18.718Z","date":"2026-02-11","time":"17:51:18"},{"task":"memory_phase","broad_category":"S","image_png":"S_Sandstone_11.png","image_id":459,"category_name":"Sandstone","category":29,"distinct_rating":1.82,"distinct_type":"Bottom","rt":null,"stimulus":"Stimuli_Rocks480/S_Sandstone_11.png","response":null,"trial_type":"image-keyboard-response","trial_index":73,"plugin_version":"2.1.0","time_elapsed":5214611,"subject_id":"90812","group":"Group2","condition":"3_Rep","full_date":"2026-02-11T17:51:18.718Z","date":"2026-02-11","time":"17:51:18"},{"rt":null,"stimulus":"<p style=\"font-size: 50px; margin: 0; text-align: center;\">+</p>","response":null,"trial_type":"html-keyboard-response","trial_index":74,"plugin_version":"2.1.0","time_elapsed":5215613,"subject_id":"90812","group":"Group2","condition":"3_Rep","full_date":"2026-02-11T17:51:18.718Z","date":"2026-02-11","time":"17:51:18"},{"task":"memory_phase","broad_category":"M","image_png":"M_Gneiss_14.png","image_id":206,"category_name":"Gneiss","category":13,"distinct_rating":3.41,"distinct_type":"Bottom","rt":null,"stimulus":"Stimuli_Rocks480/M_Gneiss_14.png","response":null,"trial_type":"image-keyboard-response","trial_index":75,"plugin_version":"2.1.0","time_elapsed":5218117,"subject_id":"90812","group":"Group2","condition":"3_Rep","full_date":"2026-02-11T17:51:18.718Z","date":"2026-02-11","time":"17:51:18"},{"rt":null,"stimulus":"<p style=\"font-size: 50px; margin: 0; text-align: center;\">+</p>","response":null,"trial_type":"html-keyboard-response","trial_index":76,"plugin_version":"2.1.0","time_elapsed":5219119,"subject_id":"90812","group":"Group2","condition":"3_Rep","full_date":"2026-02-11T17:51:18.718Z","date":"2026-02-11","time":"17:51:18"},{"task":"memory_phase","broad_category":"I","image_png":"I_Gabbro_14.png","image_id":62,"category_name":"Gabbro","category":4,"distinct_rating":2.95,"distinct_type":"Bottom","rt":null,"stimulus":"Stimuli_Rocks480/I_Gabbro_14.png","response":null,"trial_type":"image-keyboard-response","trial_index":77,"plugin_version":"2.1.0","time_elapsed":5221622,"subject_id":"90812","group":"Group2","condition":"3_Rep","full_date":"2026-02-11T17:51:18.718Z","date":"2026-02-11","time":"17:51:18"},{"rt":null,"stimulus":"<p style=\"font-size: 50px; margin: 0; text-align: center;\">+</p>","response":null,"trial_type":"html-keyboard-response","trial_index":78,"plugin_version":"2.1.0","time_elapsed":5222625,"subject_id":"90812","group":"Group2","condition":"3_Rep","full_date":"2026-02-11T17:51:18.718Z","date":"2026-02-11","time":"17:51:18"},{"task":"memory_phase","broad_category":"M","image_png":"M_Gneiss_10.png","image_id":202,"category_name":"Gneiss","category":13,"distinct_rating":3.09,"distinct_type":"Bottom","rt":null,"stimulus":"Stimuli_Rocks480/M_Gneiss_10.png","response":null,"trial_type":"image-keyboard-response","trial_index":79,"plugin_version":"2.1.0","time_elapsed":5225128,"subject_id":"90812","group":"Group2","condition":"3_Rep","full_date":"2026-02-11T17:51:18.718Z","date":"2026-02-11","time":"17:51:18"},{"rt":null,"stimulus":"<p style=\"font-size: 50px; margin: 0; text-align: center;\">+</p>","response":null,"trial_type":"html-keyboard-response","trial_index":80,"plugin_version":"2.1.0","time_elapsed":5226131,"subject_id":"90812","group":"Group2","condition":"3_Rep","full_date":"2026-02-11T17:51:18.718Z","date":"2026-02-11","time":"17:51:18"},{"task":"memory_phase","broad_category":"S","image_png":"S_Rock Salt_13.png","image_id":445,"category_name":"Rock Salt","category":28,"distinct_rating":7.58,"distinct_type":"Top","rt":null,"stimulus":"Stimuli_Rocks480/S_Rock Salt_13.png","response":null,"trial_type":"image-keyboard-response","trial_index":81,"plugin_version":"2.1.0","time_elapsed":5228634,"subject_id":"90812","group":"Group2","condition":"3_Rep","full_date":"2026-02-11T17:51:18.718Z","date":"2026-02-11","time":"17:51:18"},{"rt":null,"stimulus":"<p style=\"font-size: 50px; margin: 0; text-align: center;\">+</p>","response":null,"trial_type":"html-keyboard-response","trial_index":82,"plugin_version":"2.1.0","time_elapsed":5229636,"subject_id":"90812","group":"Group2","condition":"3_Rep","full_date":"2026-02-11T17:51:18.718Z","date":"2026-02-11","time":"17:51:18"},{"task":"memory_phase","broad_category":"I","image_png":"I_Rhyolite_05.png","image_id":149,"category_name":"Rhyolite","category":10,"distinct_rating":3.02,"distinct_type":"Bottom","rt":null,"stimulus":"Stimuli_Rocks480/I_Rhyolite_05.png","response":null,"trial_type":"image-keyboard-response","trial_index":83,"plugin_version":"2.1.0","time_elapsed":5232140,"subject_id":"90812","group":"Group2","condition":"3_Rep","full_date":"2026-02-11T17:51:18.718Z","date":"2026-02-11","time":"17:51:18"},{"rt":null,"stimulus":"<p style=\"font-size: 50px; margin: 0; text-align: center;\">+</p>","response":null,"trial_type":"html-keyboard-response","trial_index":84,"plugin_version":"2.1.0","time_elapsed":5233142,"subject_id":"90812","group":"Group2","condition":"3_Rep","full_date":"2026-02-11T17:51:18.718Z","date":"2026-02-11","time":"17:51:18"},{"task":"memory_phase","broad_category":"M","image_png":"M_Marble_02.png","image_id":226,"category_name":"Marble","category":15,"distinct_rating":3.2,"distinct_type":"Bottom","rt":null,"stimulus":"Stimuli_Rocks480/M_Marble_02.png","response":null,"trial_type":"image-keyboard-response","trial_index":85,"plugin_version":"2.1.0","time_elapsed":5235646,"subject_id":"90812","group":"Group2","condition":"3_Rep","full_date":"2026-02-11T17:51:18.718Z","date":"2026-02-11","time":"17:51:18"},{"rt":null,"stimulus":"<p style=\"font-size: 50px; margin: 0; text-align: center;\">+</p>","response":null,"trial_type":"html-keyboard-response","trial_index":86,"plugin_version":"2.1.0","time_elapsed":5236649,"subject_id":"90812","group":"Group2","condition":"3_Rep","full_date":"2026-02-11T17:51:18.718Z","date":"2026-02-11","time":"17:51:18"},{"task":"memory_phase","broad_category":"I","image_png":"I_Pumice_13.png","image_id":141,"category_name":"Pumice","category":9,"distinct_rating":3.12,"distinct_type":"Bottom","rt":null,"stimulus":"Stimuli_Rocks480/I_Pumice_13.png","response":null,"trial_type":"image-keyboard-response","trial_index":87,"plugin_version":"2.1.0","time_elapsed":5239152,"subject_id":"90812","group":"Group2","condition":"3_Rep","full_date":"2026-02-11T17:51:18.718Z","date":"2026-02-11","time":"17:51:18"},{"rt":null,"stimulus":"<p style=\"font-size: 50px; margin: 0; text-align: center;\">+</p>","response":null,"trial_type":"html-keyboard-response","trial_index":88,"plugin_version":"2.1.0","time_elapsed":5240154,"subject_id":"90812","group":"Group2","condition":"3_Rep","full_date":"2026-02-11T17:51:18.718Z","date":"2026-02-11","time":"17:51:18"},{"task":"memory_phase","broad_category":"I","image_png":"I_Basalt_10.png","image_id":26,"category_name":"Basalt","category":2,"distinct_rating":2.76,"distinct_type":"Bottom","rt":null,"stimulus":"Stimuli_Rocks480/I_Basalt_10.png","response":null,"trial_type":"image-keyboard-response","trial_index":89,"plugin_version":"2.1.0","time_elapsed":5242657,"subject_id":"90812","group":"Group2","condition":"3_Rep","full_date":"2026-02-11T17:51:18.718Z","date":"2026-02-11","time":"17:51:18"},{"rt":null,"stimulus":"<p style=\"font-size: 50px; margin: 0; text-align: center;\">+</p>","response":null,"trial_type":"html-keyboard-response","trial_index":90,"plugin_version":"2.1.0","time_elapsed":5243659,"subject_id":"90812","group":"Group2","condition":"3_Rep","full_date":"2026-02-11T17:51:18.718Z","date":"2026-02-11","time":"17:51:18"},{"task":"memory_phase","broad_category":"I","image_png":"I_Andesite_09.png","image_id":9,"category_name":"Andesite","category":1,"distinct_rating":2.49,"distinct_type":"Bottom","rt":null,"stimulus":"Stimuli_Rocks480/I_Andesite_09.png","response":null,"trial_type":"image-keyboard-response","trial_index":91,"plugin_version":"2.1.0","time_elapsed":5246163,"subject_id":"90812","group":"Group2","condition":"3_Rep","full_date":"2026-02-11T17:51:18.718Z","date":"2026-02-11","time":"17:51:18"},{"rt":null,"stimulus":"<p style=\"font-size: 50px; margin: 0; text-align: center;\">+</p>","response":null,"trial_type":"html-keyboard-response","trial_index":92,"plugin_version":"2.1.0","time_elapsed":5247165,"subject_id":"90812","group":"Group2","condition":"3_Rep","full_date":"2026-02-11T17:51:18.718Z","date":"2026-02-11","time":"17:51:18"},{"task":"memory_phase","broad_category":"M","image_png":"M_Slate_10.png","image_id":314,"category_name":"Slate","category":20,"distinct_rating":1.94,"distinct_type":"Bottom","rt":null,"stimulus":"Stimuli_Rocks480/M_Slate_10.png","response":null,"trial_type":"image-keyboard-response","trial_index":93,"plugin_version":"2.1.0","time_elapsed":5249668,"subject_id":"90812","group":"Group2","condition":"3_Rep","full_date":"2026-02-11T17:51:18.718Z","date":"2026-02-11","time":"17:51:18"},{"rt":null,"stimulus":"<p style=\"font-size: 50px; margin: 0; text-align: center;\">+</p>","response":null,"trial_type":"html-keyboard-response","trial_index":94,"plugin_version":"2.1.0","time_elapsed":5250671,"subject_id":"90812","group":"Group2","condition":"3_Rep","full_date":"2026-02-11T17:51:18.718Z","date":"2026-02-11","time":"17:51:18"},{"task":"memory_phase","broad_category":"M","image_png":"M_Gneiss_15.png","image_id":207,"category_name":"Gneiss","category":13,"distinct_rating":3.11,"distinct_type":"Bottom","rt":null,"stimulus":"Stimuli_Rocks480/M_Gneiss_15.png","response":null,"trial_type":"image-keyboard-response","trial_index":95,"plugin_version":"2.1.0","time_elapsed":5253175,"subject_id":"90812","group":"Group2","condition":"3_Rep","full_date":"2026-02-11T17:51:18.718Z","date":"2026-02-11","time":"17:51:18"},{"rt":null,"stimulus":"<p style=\"font-size: 50px; margin: 0; text-align: center;\">+</p>","response":null,"trial_type":"html-keyboard-response","trial_index":96,"plugin_version":"2.1.0","time_elapsed":5254177,"subject_id":"90812","group":"Group2","condition":"3_Rep","full_date":"2026-02-11T17:51:18.718Z","date":"2026-02-11","time":"17:51:18"},{"task":"memory_phase","broad_category":"I","image_png":"I_Gabbro_12.png","image_id":60,"category_name":"Gabbro","category":4,"distinct_rating":2.6,"distinct_type":"Bottom","rt":null,"stimulus":"Stimuli_Rocks480/I_Gabbro_12.png","response":null,"trial_type":"image-keyboard-response","trial_index":97,"plugin_version":"2.1.0","time_elapsed":5256681,"subject_id":"90812","group":"Group2","condition":"3_Rep","full_date":"2026-02-11T17:51:18.718Z","date":"2026-02-11","time":"17:51:18"},{"rt":null,"stimulus":"<p style=\"font-size: 50px; margin: 0; text-align: center;\">+</p>","response":null,"trial_type":"html-keyboard-response","trial_index":98,"plugin_version":"2.1.0","time_elapsed":5257684,"subject_id":"90812","group":"Group2","condition":"3_Rep","full_date":"2026-02-11T17:51:18.718Z","date":"2026-02-11","time":"17:51:18"},{"task":"memory_phase","broad_category":"I","image_png":"I_Diorite_15.png","image_id":47,"category_name":"Diorite","category":3,"distinct_rating":3.05,"distinct_type":"Bottom","rt":null,"stimulus":"Stimuli_Rocks480/I_Diorite_15.png","response":null,"trial_type":"image-keyboard-response","trial_index":99,"plugin_version":"2.1.0","time_elapsed":5260187,"subject_id":"90812","group":"Group2","condition":"3_Rep","full_date":"2026-02-11T17:51:18.718Z","date":"2026-02-11","time":"17:51:18"},{"rt":null,"stimulus":"<p style=\"font-size: 50px; margin: 0; text-align: center;\">+</p>","response":null,"trial_type":"html-keyboard-response","trial_index":100,"plugin_version":"2.1.0","time_elapsed":5261190,"subject_id":"90812","group":"Group2","condition":"3_Rep","full_date":"2026-02-11T17:51:18.718Z","date":"2026-02-11","time":"17:51:18"},{"task":"memory_phase","broad_category":"M","image_png":"M_Quartzite_12.png","image_id":284,"category_name":"Quartzite","category":18,"distinct_rating":1.92,"distinct_type":"Bottom","rt":null,"stimulus":"Stimuli_Rocks480/M_Quartzite_12.png","response":null,"trial_type":"image-keyboard-response","trial_index":101,"plugin_version":"2.1.0","time_elapsed":5263694,"subject_id":"90812","group":"Group2","condition":"3_Rep","full_date":"2026-02-11T17:51:18.718Z","date":"2026-02-11","time":"17:51:18"},{"rt":null,"stimulus":"<p style=\"font-size: 50px; margin: 0; text-align: center;\">+</p>","response":null,"trial_type":"html-keyboard-response","trial_index":102,"plugin_version":"2.1.0","time_elapsed":5264696,"subject_id":"90812","group":"Group2","condition":"3_Rep","full_date":"2026-02-11T17:51:18.718Z","date":"2026-02-11","time":"17:51:18"},{"task":"memory_phase","broad_category":"M","image_png":"M_Phyllite_05.png","image_id":261,"category_name":"Phyllite","category":17,"distinct_rating":2.14,"distinct_type":"Bottom","rt":null,"stimulus":"Stimuli_Rocks480/M_Phyllite_05.png","response":null,"trial_type":"image-keyboard-response","trial_index":103,"plugin_version":"2.1.0","time_elapsed":5267199,"subject_id":"90812","group":"Group2","condition":"3_Rep","full_date":"2026-02-11T17:51:18.718Z","date":"2026-02-11","time":"17:51:18"},{"rt":null,"stimulus":"<p style=\"font-size: 50px; margin: 0; text-align: center;\">+</p>","response":null,"trial_type":"html-keyboard-response","trial_index":104,"plugin_version":"2.1.0","time_elapsed":5268201,"subject_id":"90812","group":"Group2","condition":"3_Rep","full_date":"2026-02-11T17:51:18.718Z","date":"2026-02-11","time":"17:51:18"},{"task":"memory_phase","broad_category":"I","image_png":"I_Rhyolite_08.png","image_id":152,"category_name":"Rhyolite","category":10,"distinct_rating":1.38,"distinct_type":"Bottom","rt":null,"stimulus":"Stimuli_Rocks480/I_Rhyolite_08.png","response":null,"trial_type":"image-keyboard-response","trial_index":105,"plugin_version":"2.1.0","time_elapsed":5270704,"subject_id":"90812","group":"Group2","condition":"3_Rep","full_date":"2026-02-11T17:51:18.718Z","date":"2026-02-11","time":"17:51:18"},{"rt":3760,"stimulus":"<p style=\"max-width: 760px; margin: auto; font-size: 35px; line-height: 1.5;\">\n                You have completed 1 study phase. \n                Now, we'll show you all the images again 2 more times.\n                <br><br>Press SPACE to continue\n              </p>","response":" ","trial_type":"html-keyboard-response","trial_index":106,"plugin_version":"2.1.0","time_elapsed":5274465,"subject_id":"90812","group":"Group2","condition":"3_Rep","full_date":"2026-02-11T17:51:18.718Z","date":"2026-02-11","time":"17:51:18"},{"rt":null,"stimulus":"<p style=\"font-size: 50px; margin: 0; text-align: center;\">+</p>","response":null,"trial_type":"html-keyboard-response","trial_index":107,"plugin_version":"2.1.0","time_elapsed":5275466,"subject_id":"90812","group":"Group2","condition":"3_Rep","full_date":"2026-02-11T17:51:18.718Z","date":"2026-02-11","time":"17:51:18"},{"task":"memory_phase","broad_category":"I","image_png":"I_Pegmatite_03.png","image_id":99,"category_name":"Pegmatite","category":7,"distinct_rating":7.24,"distinct_type":"Top","rt":null,"stimulus":"Stimuli_Rocks480/I_Pegmatite_03.png","response":null,"trial_type":"image-keyboard-response","trial_index":108,"plugin_version":"2.1.0","time_elapsed":5277970,"subject_id":"90812","group":"Group2","condition":"3_Rep","full_date":"2026-02-11T17:51:18.718Z","date":"2026-02-11","time":"17:51:18"},{"rt":null,"stimulus":"<p style=\"font-size: 50px; margin: 0; text-align: center;\">+</p>","response":null,"trial_type":"html-keyboard-response","trial_index":109,"plugin_version":"2.1.0","time_elapsed":5278972,"subject_id":"90812","group":"Group2","condition":"3_Rep","full_date":"2026-02-11T17:51:18.718Z","date":"2026-02-11","time":"17:51:18"},{"task":"memory_phase","broad_category":"M","image_png":"M_Phyllite_13.png","image_id":269,"category_name":"Phyllite","category":17,"distinct_rating":2.8,"distinct_type":"Bottom","rt":null,"stimulus":"Stimuli_Rocks480/M_Phyllite_13.png","response":null,"trial_type":"image-keyboard-response","trial_index":110,"plugin_version":"2.1.0","time_elapsed":5281476,"subject_id":"90812","group":"Group2","condition":"3_Rep","full_date":"2026-02-11T17:51:18.718Z","date":"2026-02-11","time":"17:51:18"},{"rt":null,"stimulus":"<p style=\"font-size: 50px; margin: 0; text-align: center;\">+</p>","response":null,"trial_type":"html-keyboard-response","trial_index":111,"plugin_version":"2.1.0","time_elapsed":5282479,"subject_id":"90812","group":"Group2","condition":"3_Rep","full_date":"2026-02-11T17:51:18.718Z","date":"2026-02-11","time":"17:51:18"},{"task":"memory_phase","broad_category":"S","image_png":"S_Shale_03.png","image_id":467,"category_name":"Shale","category":30,"distinct_rating":1.95,"distinct_type":"Bottom","rt":null,"stimulus":"Stimuli_Rocks480/S_Shale_03.png","response":null,"trial_type":"image-keyboard-response","trial_index":112,"plugin_version":"2.1.0","time_elapsed":5284982,"subject_id":"90812","group":"Group2","condition":"3_Rep","full_date":"2026-02-11T17:51:18.718Z","date":"2026-02-11","time":"17:51:18"},{"rt":null,"stimulus":"<p style=\"font-size: 50px; margin: 0; text-align: center;\">+</p>","response":null,"trial_type":"html-keyboard-response","trial_index":113,"plugin_version":"2.1.0","time_elapsed":5285984,"subject_id":"90812","group":"Group2","condition":"3_Rep","full_date":"2026-02-11T17:51:18.718Z","date":"2026-02-11","time":"17:51:18"},{"task":"memory_phase","broad_category":"S","image_png":"S_Conglomerate_14.png","image_id":382,"category_name":"Conglomerate","category":24,"distinct_rating":6.86,"distinct_type":"Top","rt":null,"stimulus":"Stimuli_Rocks480/S_Conglomerate_14.png","response":null,"trial_type":"image-keyboard-response","trial_index":114,"plugin_version":"2.1.0","time_elapsed":5288488,"subject_id":"90812","group":"Group2","condition":"3_Rep","full_date":"2026-02-11T17:51:18.718Z","date":"2026-02-11","time":"17:51:18"},{"rt":null,"stimulus":"<p style=\"font-size: 50px; margin: 0; text-align: center;\">+</p>","response":null,"trial_type":"html-keyboard-response","trial_index":115,"plugin_version":"2.1.0","time_elapsed":5289491,"subject_id":"90812","group":"Group2","condition":"3_Rep","full_date":"2026-02-11T17:51:18.718Z","date":"2026-02-11","time":"17:51:18"},{"task":"memory_phase","broad_category":"M","image_png":"M_Quartzite_12.png","image_id":284,"category_name":"Quartzite","category":18,"distinct_rating":1.92,"distinct_type":"Bottom","rt":null,"stimulus":"Stimuli_Rocks480/M_Quartzite_12.png","response":null,"trial_type":"image-keyboard-response","trial_index":116,"plugin_version":"2.1.0","time_elapsed":5291994,"subject_id":"90812","group":"Group2","condition":"3_Rep","full_date":"2026-02-11T17:51:18.718Z","date":"2026-02-11","time":"17:51:18"},{"rt":null,"stimulus":"<p style=\"font-size: 50px; margin: 0; text-align: center;\">+</p>","response":null,"trial_type":"html-keyboard-response","trial_index":117,"plugin_version":"2.1.0","time_elapsed":5292996,"subject_id":"90812","group":"Group2","condition":"3_Rep","full_date":"2026-02-11T17:51:18.718Z","date":"2026-02-11","time":"17:51:18"},{"task":"memory_phase","broad_category":"M","image_png":"M_Phyllite_05.png","image_id":261,"category_name":"Phyllite","category":17,"distinct_rating":2.14,"distinct_type":"Bottom","rt":null,"stimulus":"Stimuli_Rocks480/M_Phyllite_05.png","response":null,"trial_type":"image-keyboard-response","trial_index":118,"plugin_version":"2.1.0","time_elapsed":5295499,"subject_id":"90812","group":"Group2","condition":"3_Rep","full_date":"2026-02-11T17:51:18.718Z","date":"2026-02-11","time":"17:51:18"},{"rt":null,"stimulus":"<p style=\"font-size: 50px; margin: 0; text-align: center;\">+</p>","response":null,"trial_type":"html-keyboard-response","trial_index":119,"plugin_version":"2.1.0","time_elapsed":5296501,"subject_id":"90812","group":"Group2","condition":"3_Rep","full_date":"2026-02-11T17:51:18.718Z","date":"2026-02-11","time":"17:51:18"},{"task":"memory_phase","broad_category":"I","image_png":"I_Diorite_10.png","image_id":42,"category_name":"Diorite","category":3,"distinct_rating":2.84,"distinct_type":"Bottom","rt":null,"stimulus":"Stimuli_Rocks480/I_Diorite_10.png","response":null,"trial_type":"image-keyboard-response","trial_index":120,"plugin_version":"2.1.0","time_elapsed":5299005,"subject_id":"90812","group":"Group2","condition":"3_Rep","full_date":"2026-02-11T17:51:18.718Z","date":"2026-02-11","time":"17:51:18"},{"rt":null,"stimulus":"<p style=\"font-size: 50px; margin: 0; text-align: center;\">+</p>","response":null,"trial_type":"html-keyboard-response","trial_index":121,"plugin_version":"2.1.0","time_elapsed":5300007,"subject_id":"90812","group":"Group2","condition":"3_Rep","full_date":"2026-02-11T17:51:18.718Z","date":"2026-02-11","time":"17:51:18"},{"task":"memory_phase","broad_category":"M","image_png":"M_Gneiss_14.png","image_id":206,"category_name":"Gneiss","category":13,"distinct_rating":3.41,"distinct_type":"Bottom","rt":null,"stimulus":"Stimuli_Rocks480/M_Gneiss_14.png","response":null,"trial_type":"image-keyboard-response","trial_index":122,"plugin_version":"2.1.0","time_elapsed":5302510,"subject_id":"90812","group":"Group2","condition":"3_Rep","full_date":"2026-02-11T17:51:18.718Z","date":"2026-02-11","time":"17:51:18"},{"rt":null,"stimulus":"<p style=\"font-size: 50px; margin: 0; text-align: center;\">+</p>","response":null,"trial_type":"html-keyboard-response","trial_index":123,"plugin_version":"2.1.0","time_elapsed":5303513,"subject_id":"90812","group":"Group2","condition":"3_Rep","full_date":"2026-02-11T17:51:18.718Z","date":"2026-02-11","time":"17:51:18"},{"task":"memory_phase","broad_category":"I","image_png":"I_Obsidian_06.png","image_id":86,"category_name":"Obsidian","category":6,"distinct_rating":8.01,"distinct_type":"Top","rt":null,"stimulus":"Stimuli_Rocks480/I_Obsidian_06.png","response":null,"trial_type":"image-keyboard-response","trial_index":124,"plugin_version":"2.1.0","time_elapsed":5306017,"subject_id":"90812","group":"Group2","condition":"3_Rep","full_date":"2026-02-11T17:51:18.718Z","date":"2026-02-11","time":"17:51:18"},{"rt":null,"stimulus":"<p style=\"font-size: 50px; margin: 0; text-align: center;\">+</p>","response":null,"trial_type":"html-keyboard-response","trial_index":125,"plugin_version":"2.1.0","time_elapsed":5307020,"subject_id":"90812","group":"Group2","condition":"3_Rep","full_date":"2026-02-11T17:51:18.718Z","date":"2026-02-11","time":"17:51:18"},{"task":"memory_phase","broad_category":"M","image_png":"M_Gneiss_10.png","image_id":202,"category_name":"Gneiss","category":13,"distinct_rating":3.09,"distinct_type":"Bottom","rt":null,"stimulus":"Stimuli_Rocks480/M_Gneiss_10.png","response":null,"trial_type":"image-keyboard-response","trial_index":126,"plugin_version":"2.1.0","time_elapsed":5309523,"subject_id":"90812","group":"Group2","condition":"3_Rep","full_date":"2026-02-11T17:51:18.718Z","date":"2026-02-11","time":"17:51:18"},{"rt":null,"stimulus":"<p style=\"font-size: 50px; margin: 0; text-align: center;\">+</p>","response":null,"trial_type":"html-keyboard-response","trial_index":127,"plugin_version":"2.1.0","time_elapsed":5310525,"subject_id":"90812","group":"Group2","condition":"3_Rep","full_date":"2026-02-11T17:51:18.718Z","date":"2026-02-11","time":"17:51:18"},{"task":"memory_phase","broad_category":"S","image_png":"S_Rock Salt_13.png","image_id":445,"category_name":"Rock Salt","category":28,"distinct_rating":7.58,"distinct_type":"Top","rt":null,"stimulus":"Stimuli_Rocks480/S_Rock Salt_13.png","response":null,"trial_type":"image-keyboard-response","trial_index":128,"plugin_version":"2.1.0","time_elapsed":5313028,"subject_id":"90812","group":"Group2","condition":"3_Rep","full_date":"2026-02-11T17:51:18.718Z","date":"2026-02-11","time":"17:51:18"},{"rt":null,"stimulus":"<p style=\"font-size: 50px; margin: 0; text-align: center;\">+</p>","response":null,"trial_type":"html-keyboard-response","trial_index":129,"plugin_version":"2.1.0","time_elapsed":5314031,"subject_id":"90812","group":"Group2","condition":"3_Rep","full_date":"2026-02-11T17:51:18.718Z","date":"2026-02-11","time":"17:51:18"},{"task":"memory_phase","broad_category":"S","image_png":"S_Dolomite_01.png","image_id":385,"category_name":"Dolomite","category":25,"distinct_rating":1.43,"distinct_type":"Bottom","rt":null,"stimulus":"Stimuli_Rocks480/S_Dolomite_01.png","response":null,"trial_type":"image-keyboard-response","trial_index":130,"plugin_version":"2.1.0","time_elapsed":5316534,"subject_id":"90812","group":"Group2","condition":"3_Rep","full_date":"2026-02-11T17:51:18.718Z","date":"2026-02-11","time":"17:51:18"},{"rt":null,"stimulus":"<p style=\"font-size: 50px; margin: 0; text-align: center;\">+</p>","response":null,"trial_type":"html-keyboard-response","trial_index":131,"plugin_version":"2.1.0","time_elapsed":5317536,"subject_id":"90812","group":"Group2","condition":"3_Rep","full_date":"2026-02-11T17:51:18.718Z","date":"2026-02-11","time":"17:51:18"},{"task":"memory_phase","broad_category":"S","image_png":"S_Sandstone_11.png","image_id":459,"category_name":"Sandstone","category":29,"distinct_rating":1.82,"distinct_type":"Bottom","rt":null,"stimulus":"Stimuli_Rocks480/S_Sandstone_11.png","response":null,"trial_type":"image-keyboard-response","trial_index":132,"plugin_version":"2.1.0","time_elapsed":5320040,"subject_id":"90812","group":"Group2","condition":"3_Rep","full_date":"2026-02-11T17:51:18.718Z","date":"2026-02-11","time":"17:51:18"},{"rt":null,"stimulus":"<p style=\"font-size: 50px; margin: 0; text-align: center;\">+</p>","response":null,"trial_type":"html-keyboard-response","trial_index":133,"plugin_version":"2.1.0","time_elapsed":5321043,"subject_id":"90812","group":"Group2","condition":"3_Rep","full_date":"2026-02-11T17:51:18.718Z","date":"2026-02-11","time":"17:51:18"},{"task":"memory_phase","broad_category":"I","image_png":"I_Gabbro_14.png","image_id":62,"category_name":"Gabbro","category":4,"distinct_rating":2.95,"distinct_type":"Bottom","rt":null,"stimulus":"Stimuli_Rocks480/I_Gabbro_14.png","response":null,"trial_type":"image-keyboard-response","trial_index":134,"plugin_version":"2.1.0","time_elapsed":5323546,"subject_id":"90812","group":"Group2","condition":"3_Rep","full_date":"2026-02-11T17:51:18.718Z","date":"2026-02-11","time":"17:51:18"},{"rt":null,"stimulus":"<p style=\"font-size: 50px; margin: 0; text-align: center;\">+</p>","response":null,"trial_type":"html-keyboard-response","trial_index":135,"plugin_version":"2.1.0","time_elapsed":5324548,"subject_id":"90812","group":"Group2","condition":"3_Rep","full_date":"2026-02-11T17:51:18.718Z","date":"2026-02-11","time":"17:51:18"},{"task":"memory_phase","broad_category":"I","image_png":"I_Basalt_13.png","image_id":29,"category_name":"Basalt","category":2,"distinct_rating":2.68,"distinct_type":"Bottom","rt":null,"stimulus":"Stimuli_Rocks480/I_Basalt_13.png","response":null,"trial_type":"image-keyboard-response","trial_index":136,"plugin_version":"2.1.0","time_elapsed":5327051,"subject_id":"90812","group":"Group2","condition":"3_Rep","full_date":"2026-02-11T17:51:18.718Z","date":"2026-02-11","time":"17:51:18"},{"rt":null,"stimulus":"<p style=\"font-size: 50px; margin: 0; text-align: center;\">+</p>","response":null,"trial_type":"html-keyboard-response","trial_index":137,"plugin_version":"2.1.0","time_elapsed":5328053,"subject_id":"90812","group":"Group2","condition":"3_Rep","full_date":"2026-02-11T17:51:18.718Z","date":"2026-02-11","time":"17:51:18"},{"task":"memory_phase","broad_category":"S","image_png":"S_Dolomite_07.png","image_id":391,"category_name":"Dolomite","category":25,"distinct_rating":1.73,"distinct_type":"Bottom","rt":null,"stimulus":"Stimuli_Rocks480/S_Dolomite_07.png","response":null,"trial_type":"image-keyboard-response","trial_index":138,"plugin_version":"2.1.0","time_elapsed":5330556,"subject_id":"90812","group":"Group2","condition":"3_Rep","full_date":"2026-02-11T17:51:18.718Z","date":"2026-02-11","time":"17:51:18"},{"rt":null,"stimulus":"<p style=\"font-size: 50px; margin: 0; text-align: center;\">+</p>","response":null,"trial_type":"html-keyboard-response","trial_index":139,"plugin_version":"2.1.0","time_elapsed":5331559,"subject_id":"90812","group":"Group2","condition":"3_Rep","full_date":"2026-02-11T17:51:18.718Z","date":"2026-02-11","time":"17:51:18"},{"task":"memory_phase","broad_category":"I","image_png":"I_Pumice_14.png","image_id":142,"category_name":"Pumice","category":9,"distinct_rating":3.22,"distinct_type":"Bottom","rt":null,"stimulus":"Stimuli_Rocks480/I_Pumice_14.png","response":null,"trial_type":"image-keyboard-response","trial_index":140,"plugin_version":"2.1.0","time_elapsed":5334062,"subject_id":"90812","group":"Group2","condition":"3_Rep","full_date":"2026-02-11T17:51:18.718Z","date":"2026-02-11","time":"17:51:18"},{"rt":null,"stimulus":"<p style=\"font-size: 50px; margin: 0; text-align: center;\">+</p>","response":null,"trial_type":"html-keyboard-response","trial_index":141,"plugin_version":"2.1.0","time_elapsed":5335063,"subject_id":"90812","group":"Group2","condition":"3_Rep","full_date":"2026-02-11T17:51:18.718Z","date":"2026-02-11","time":"17:51:18"},{"task":"memory_phase","broad_category":"I","image_png":"I_Rhyolite_10.png","image_id":154,"category_name":"Rhyolite","category":10,"distinct_rating":2.88,"distinct_type":"Bottom","rt":null,"stimulus":"Stimuli_Rocks480/I_Rhyolite_10.png","response":null,"trial_type":"image-keyboard-response","trial_index":142,"plugin_version":"2.1.0","time_elapsed":5337566,"subject_id":"90812","group":"Group2","condition":"3_Rep","full_date":"2026-02-11T17:51:18.718Z","date":"2026-02-11","time":"17:51:18"},{"rt":null,"stimulus":"<p style=\"font-size: 50px; margin: 0; text-align: center;\">+</p>","response":null,"trial_type":"html-keyboard-response","trial_index":143,"plugin_version":"2.1.0","time_elapsed":5338569,"subject_id":"90812","group":"Group2","condition":"3_Rep","full_date":"2026-02-11T17:51:18.718Z","date":"2026-02-11","time":"17:51:18"},{"task":"memory_phase","broad_category":"I","image_png":"I_Rhyolite_08.png","image_id":152,"category_name":"Rhyolite","category":10,"distinct_rating":1.38,"distinct_type":"Bottom","rt":null,"stimulus":"Stimuli_Rocks480/I_Rhyolite_08.png","response":null,"trial_type":"image-keyboard-response","trial_index":144,"plugin_version":"2.1.0","time_elapsed":5341073,"subject_id":"90812","group":"Group2","condition":"3_Rep","full_date":"2026-02-11T17:51:18.718Z","date":"2026-02-11","time":"17:51:18"},{"rt":null,"stimulus":"<p style=\"font-size: 50px; margin: 0; text-align: center;\">+</p>","response":null,"trial_type":"html-keyboard-response","trial_index":145,"plugin_version":"2.1.0","time_elapsed":5342075,"subject_id":"90812","group":"Group2","condition":"3_Rep","full_date":"2026-02-11T17:51:18.718Z","date":"2026-02-11","time":"17:51:18"},{"task":"memory_phase","broad_category":"I","image_png":"I_Pumice_13.png","image_id":141,"category_name":"Pumice","category":9,"distinct_rating":3.12,"distinct_type":"Bottom","rt":null,"stimulus":"Stimuli_Rocks480/I_Pumice_13.png","response":null,"trial_type":"image-keyboard-response","trial_index":146,"plugin_version":"2.1.0","time_elapsed":5344579,"subject_id":"90812","group":"Group2","condition":"3_Rep","full_date":"2026-02-11T17:51:18.718Z","date":"2026-02-11","time":"17:51:18"},{"rt":null,"stimulus":"<p style=\"font-size: 50px; margin: 0; text-align: center;\">+</p>","response":null,"trial_type":"html-keyboard-response","trial_index":147,"plugin_version":"2.1.0","time_elapsed":5345581,"subject_id":"90812","group":"Group2","condition":"3_Rep","full_date":"2026-02-11T17:51:18.718Z","date":"2026-02-11","time":"17:51:18"},{"task":"memory_phase","broad_category":"I","image_png":"I_Peridotite_13.png","image_id":125,"category_name":"Peridotite","category":8,"distinct_rating":7.28,"distinct_type":"Top","rt":null,"stimulus":"Stimuli_Rocks480/I_Peridotite_13.png","response":null,"trial_type":"image-keyboard-response","trial_index":148,"plugin_version":"2.1.0","time_elapsed":5348085,"subject_id":"90812","group":"Group2","condition":"3_Rep","full_date":"2026-02-11T17:51:18.718Z","date":"2026-02-11","time":"17:51:18"},{"rt":null,"stimulus":"<p style=\"font-size: 50px; margin: 0; text-align: center;\">+</p>","response":null,"trial_type":"html-keyboard-response","trial_index":149,"plugin_version":"2.1.0","time_elapsed":5349087,"subject_id":"90812","group":"Group2","condition":"3_Rep","full_date":"2026-02-11T17:51:18.718Z","date":"2026-02-11","time":"17:51:18"},{"task":"memory_phase","broad_category":"I","image_png":"I_Pumice_01.png","image_id":129,"category_name":"Pumice","category":9,"distinct_rating":3.25,"distinct_type":"Bottom","rt":null,"stimulus":"Stimuli_Rocks480/I_Pumice_01.png","response":null,"trial_type":"image-keyboard-response","trial_index":150,"plugin_version":"2.1.0","time_elapsed":5351590,"subject_id":"90812","group":"Group2","condition":"3_Rep","full_date":"2026-02-11T17:51:18.718Z","date":"2026-02-11","time":"17:51:18"},{"rt":null,"stimulus":"<p style=\"font-size: 50px; margin: 0; text-align: center;\">+</p>","response":null,"trial_type":"html-keyboard-response","trial_index":151,"plugin_version":"2.1.0","time_elapsed":5352593,"subject_id":"90812","group":"Group2","condition":"3_Rep","full_date":"2026-02-11T17:51:18.718Z","date":"2026-02-11","time":"17:51:18"},{"task":"memory_phase","broad_category":"I","image_png":"I_Rhyolite_05.png","image_id":149,"category_name":"Rhyolite","category":10,"distinct_rating":3.02,"distinct_type":"Bottom","rt":null,"stimulus":"Stimuli_Rocks480/I_Rhyolite_05.png","response":null,"trial_type":"image-keyboard-response","trial_index":152,"plugin_version":"2.1.0","time_elapsed":5355096,"subject_id":"90812","group":"Group2","condition":"3_Rep","full_date":"2026-02-11T17:51:18.718Z","date":"2026-02-11","time":"17:51:18"},{"rt":null,"stimulus":"<p style=\"font-size: 50px; margin: 0; text-align: center;\">+</p>","response":null,"trial_type":"html-keyboard-response","trial_index":153,"plugin_version":"2.1.0","time_elapsed":5356099,"subject_id":"90812","group":"Group2","condition":"3_Rep","full_date":"2026-02-11T17:51:18.718Z","date":"2026-02-11","time":"17:51:18"},{"task":"memory_phase","broad_category":"S","image_png":"S_Sandstone_08.png","image_id":456,"category_name":"Sandstone","category":29,"distinct_rating":1.5,"distinct_type":"Bottom","rt":null,"stimulus":"Stimuli_Rocks480/S_Sandstone_08.png","response":null,"trial_type":"image-keyboard-response","trial_index":154,"plugin_version":"2.1.0","time_elapsed":5358602,"subject_id":"90812","group":"Group2","condition":"3_Rep","full_date":"2026-02-11T17:51:18.718Z","date":"2026-02-11","time":"17:51:18"},{"rt":null,"stimulus":"<p style=\"font-size: 50px; margin: 0; text-align: center;\">+</p>","response":null,"trial_type":"html-keyboard-response","trial_index":155,"plugin_version":"2.1.0","time_elapsed":5359603,"subject_id":"90812","group":"Group2","condition":"3_Rep","full_date":"2026-02-11T17:51:18.718Z","date":"2026-02-11","time":"17:51:18"},{"task":"memory_phase","broad_category":"M","image_png":"M_Marble_03.png","image_id":227,"category_name":"Marble","category":15,"distinct_rating":2.67,"distinct_type":"Bottom","rt":null,"stimulus":"Stimuli_Rocks480/M_Marble_03.png","response":null,"trial_type":"image-keyboard-response","trial_index":156,"plugin_version":"2.1.0","time_elapsed":5362107,"subject_id":"90812","group":"Group2","condition":"3_Rep","full_date":"2026-02-11T17:51:18.718Z","date":"2026-02-11","time":"17:51:18"},{"rt":2379,"stimulus":"<p style=\"max-width: 760px; margin: auto; font-size: 35px; line-height: 1.5;\">\n                Press SPACE to continue study phase\n              </p>","response":" ","trial_type":"html-keyboard-response","trial_index":157,"plugin_version":"2.1.0","time_elapsed":5364487,"subject_id":"90812","group":"Group2","condition":"3_Rep","full_date":"2026-02-11T17:51:18.718Z","date":"2026-02-11","time":"17:51:18"},{"rt":null,"stimulus":"<p style=\"font-size: 50px; margin: 0; text-align: center;\">+</p>","response":null,"trial_type":"html-keyboard-response","trial_index":158,"plugin_version":"2.1.0","time_elapsed":5365489,"subject_id":"90812","group":"Group2","condition":"3_Rep","full_date":"2026-02-11T17:51:18.718Z","date":"2026-02-11","time":"17:51:18"},{"task":"memory_phase","broad_category":"M","image_png":"M_Slate_04.png","image_id":308,"category_name":"Slate","category":20,"distinct_rating":2.2,"distinct_type":"Bottom","rt":null,"stimulus":"Stimuli_Rocks480/M_Slate_04.png","response":null,"trial_type":"image-keyboard-response","trial_index":159,"plugin_version":"2.1.0","time_elapsed":5367992,"subject_id":"90812","group":"Group2","condition":"3_Rep","full_date":"2026-02-11T17:51:18.718Z","date":"2026-02-11","time":"17:51:18"},{"rt":null,"stimulus":"<p style=\"font-size: 50px; margin: 0; text-align: center;\">+</p>","response":null,"trial_type":"html-keyboard-response","trial_index":160,"plugin_version":"2.1.0","time_elapsed":5368995,"subject_id":"90812","group":"Group2","condition":"3_Rep","full_date":"2026-02-11T17:51:18.718Z","date":"2026-02-11","time":"17:51:18"},{"task":"memory_phase","broad_category":"M","image_png":"M_Gneiss_15.png","image_id":207,"category_name":"Gneiss","category":13,"distinct_rating":3.11,"distinct_type":"Bottom","rt":null,"stimulus":"Stimuli_Rocks480/M_Gneiss_15.png","response":null,"trial_type":"image-keyboard-response","trial_index":161,"plugin_version":"2.1.0","time_elapsed":5371497,"subject_id":"90812","group":"Group2","condition":"3_Rep","full_date":"2026-02-11T17:51:18.718Z","date":"2026-02-11","time":"17:51:18"},{"rt":null,"stimulus":"<p style=\"font-size: 50px; margin: 0; text-align: center;\">+</p>","response":null,"trial_type":"html-keyboard-response","trial_index":162,"plugin_version":"2.1.0","time_elapsed":5372499,"subject_id":"90812","group":"Group2","condition":"3_Rep","full_date":"2026-02-11T17:51:18.718Z","date":"2026-02-11","time":"17:51:18"},{"task":"memory_phase","broad_category":"M","image_png":"M_Quartzite_07.png","image_id":279,"category_name":"Quartzite","category":18,"distinct_rating":1.97,"distinct_type":"Bottom","rt":null,"stimulus":"Stimuli_Rocks480/M_Quartzite_07.png","response":null,"trial_type":"image-keyboard-response","trial_index":163,"plugin_version":"2.1.0","time_elapsed":5375002,"subject_id":"90812","group":"Group2","condition":"3_Rep","full_date":"2026-02-11T17:51:18.718Z","date":"2026-02-11","time":"17:51:18"},{"rt":null,"stimulus":"<p style=\"font-size: 50px; margin: 0; text-align: center;\">+</p>","response":null,"trial_type":"html-keyboard-response","trial_index":164,"plugin_version":"2.1.0","time_elapsed":5376005,"subject_id":"90812","group":"Group2","condition":"3_Rep","full_date":"2026-02-11T17:51:18.718Z","date":"2026-02-11","time":"17:51:18"},{"task":"memory_phase","broad_category":"I","image_png":"I_Andesite_04.png","image_id":4,"category_name":"Andesite","category":1,"distinct_rating":3.18,"distinct_type":"Bottom","rt":null,"stimulus":"Stimuli_Rocks480/I_Andesite_04.png","response":null,"trial_type":"image-keyboard-response","trial_index":165,"plugin_version":"2.1.0","time_elapsed":5378509,"subject_id":"90812","group":"Group2","condition":"3_Rep","full_date":"2026-02-11T17:51:18.718Z","date":"2026-02-11","time":"17:51:18"},{"rt":null,"stimulus":"<p style=\"font-size: 50px; margin: 0; text-align: center;\">+</p>","response":null,"trial_type":"html-keyboard-response","trial_index":166,"plugin_version":"2.1.0","time_elapsed":5379512,"subject_id":"90812","group":"Group2","condition":"3_Rep","full_date":"2026-02-11T17:51:18.718Z","date":"2026-02-11","time":"17:51:18"},{"task":"memory_phase","broad_category":"I","image_png":"I_Diorite_01.png","image_id":33,"category_name":"Diorite","category":3,"distinct_rating":2.97,"distinct_type":"Bottom","rt":null,"stimulus":"Stimuli_Rocks480/I_Diorite_01.png","response":null,"trial_type":"image-keyboard-response","trial_index":167,"plugin_version":"2.1.0","time_elapsed":5382015,"subject_id":"90812","group":"Group2","condition":"3_Rep","full_date":"2026-02-11T17:51:18.718Z","date":"2026-02-11","time":"17:51:18"},{"rt":null,"stimulus":"<p style=\"font-size: 50px; margin: 0; text-align: center;\">+</p>","response":null,"trial_type":"html-keyboard-response","trial_index":168,"plugin_version":"2.1.0","time_elapsed":5383017,"subject_id":"90812","group":"Group2","condition":"3_Rep","full_date":"2026-02-11T17:51:18.718Z","date":"2026-02-11","time":"17:51:18"},{"task":"memory_phase","broad_category":"M","image_png":"M_Phyllite_02.png","image_id":258,"category_name":"Phyllite","category":17,"distinct_rating":2.89,"distinct_type":"Bottom","rt":null,"stimulus":"Stimuli_Rocks480/M_Phyllite_02.png","response":null,"trial_type":"image-keyboard-response","trial_index":169,"plugin_version":"2.1.0","time_elapsed":5385520,"subject_id":"90812","group":"Group2","condition":"3_Rep","full_date":"2026-02-11T17:51:18.718Z","date":"2026-02-11","time":"17:51:18"},{"rt":null,"stimulus":"<p style=\"font-size: 50px; margin: 0; text-align: center;\">+</p>","response":null,"trial_type":"html-keyboard-response","trial_index":170,"plugin_version":"2.1.0","time_elapsed":5386523,"subject_id":"90812","group":"Group2","condition":"3_Rep","full_date":"2026-02-11T17:51:18.718Z","date":"2026-02-11","time":"17:51:18"},{"task":"memory_phase","broad_category":"I","image_png":"I_Diorite_15.png","image_id":47,"category_name":"Diorite","category":3,"distinct_rating":3.05,"distinct_type":"Bottom","rt":null,"stimulus":"Stimuli_Rocks480/I_Diorite_15.png","response":null,"trial_type":"image-keyboard-response","trial_index":171,"plugin_version":"2.1.0","time_elapsed":5389027,"subject_id":"90812","group":"Group2","condition":"3_Rep","full_date":"2026-02-11T17:51:18.718Z","date":"2026-02-11","time":"17:51:18"},{"rt":null,"stimulus":"<p style=\"font-size: 50px; margin: 0; text-align: center;\">+</p>","response":null,"trial_type":"html-keyboard-response","trial_index":172,"plugin_version":"2.1.0","time_elapsed":5390030,"subject_id":"90812","group":"Group2","condition":"3_Rep","full_date":"2026-02-11T17:51:18.718Z","date":"2026-02-11","time":"17:51:18"},{"task":"memory_phase","broad_category":"I","image_png":"I_Gabbro_12.png","image_id":60,"category_name":"Gabbro","category":4,"distinct_rating":2.6,"distinct_type":"Bottom","rt":null,"stimulus":"Stimuli_Rocks480/I_Gabbro_12.png","response":null,"trial_type":"image-keyboard-response","trial_index":173,"plugin_version":"2.1.0","time_elapsed":5392533,"subject_id":"90812","group":"Group2","condition":"3_Rep","full_date":"2026-02-11T17:51:18.718Z","date":"2026-02-11","time":"17:51:18"},{"rt":null,"stimulus":"<p style=\"font-size: 50px; margin: 0; text-align: center;\">+</p>","response":null,"trial_type":"html-keyboard-response","trial_index":174,"plugin_version":"2.1.0","time_elapsed":5393535,"subject_id":"90812","group":"Group2","condition":"3_Rep","full_date":"2026-02-11T17:51:18.718Z","date":"2026-02-11","time":"17:51:18"},{"task":"memory_phase","broad_category":"S","image_png":"S_Chert_13.png","image_id":365,"category_name":"Chert","category":23,"distinct_rating":6.57,"distinct_type":"Top","rt":null,"stimulus":"Stimuli_Rocks480/S_Chert_13.png","response":null,"trial_type":"image-keyboard-response","trial_index":175,"plugin_version":"2.1.0","time_elapsed":5396039,"subject_id":"90812","group":"Group2","condition":"3_Rep","full_date":"2026-02-11T17:51:18.718Z","date":"2026-02-11","time":"17:51:18"},{"rt":null,"stimulus":"<p style=\"font-size: 50px; margin: 0; text-align: center;\">+</p>","response":null,"trial_type":"html-keyboard-response","trial_index":176,"plugin_version":"2.1.0","time_elapsed":5397042,"subject_id":"90812","group":"Group2","condition":"3_Rep","full_date":"2026-02-11T17:51:18.718Z","date":"2026-02-11","time":"17:51:18"},{"task":"memory_phase","broad_category":"M","image_png":"M_Marble_02.png","image_id":226,"category_name":"Marble","category":15,"distinct_rating":3.2,"distinct_type":"Bottom","rt":null,"stimulus":"Stimuli_Rocks480/M_Marble_02.png","response":null,"trial_type":"image-keyboard-response","trial_index":177,"plugin_version":"2.1.0","time_elapsed":5399545,"subject_id":"90812","group":"Group2","condition":"3_Rep","full_date":"2026-02-11T17:51:18.718Z","date":"2026-02-11","time":"17:51:18"},{"rt":null,"stimulus":"<p style=\"font-size: 50px; margin: 0; text-align: center;\">+</p>","response":null,"trial_type":"html-keyboard-response","trial_index":178,"plugin_version":"2.1.0","time_elapsed":5400548,"subject_id":"90812","group":"Group2","condition":"3_Rep","full_date":"2026-02-11T17:51:18.718Z","date":"2026-02-11","time":"17:51:18"},{"task":"memory_phase","broad_category":"M","image_png":"M_Slate_10.png","image_id":314,"category_name":"Slate","category":20,"distinct_rating":1.94,"distinct_type":"Bottom","rt":null,"stimulus":"Stimuli_Rocks480/M_Slate_10.png","response":null,"trial_type":"image-keyboard-response","trial_index":179,"plugin_version":"2.1.0","time_elapsed":5403050,"subject_id":"90812","group":"Group2","condition":"3_Rep","full_date":"2026-02-11T17:51:18.718Z","date":"2026-02-11","time":"17:51:18"},{"rt":null,"stimulus":"<p style=\"font-size: 50px; margin: 0; text-align: center;\">+</p>","response":null,"trial_type":"html-keyboard-response","trial_index":180,"plugin_version":"2.1.0","time_elapsed":5404053,"subject_id":"90812","group":"Group2","condition":"3_Rep","full_date":"2026-02-11T17:51:18.718Z","date":"2026-02-11","time":"17:51:18"},{"task":"memory_phase","broad_category":"I","image_png":"I_Basalt_10.png","image_id":26,"category_name":"Basalt","category":2,"distinct_rating":2.76,"distinct_type":"Bottom","rt":null,"stimulus":"Stimuli_Rocks480/I_Basalt_10.png","response":null,"trial_type":"image-keyboard-response","trial_index":181,"plugin_version":"2.1.0","time_elapsed":5406556,"subject_id":"90812","group":"Group2","condition":"3_Rep","full_date":"2026-02-11T17:51:18.718Z","date":"2026-02-11","time":"17:51:18"},{"rt":null,"stimulus":"<p style=\"font-size: 50px; margin: 0; text-align: center;\">+</p>","response":null,"trial_type":"html-keyboard-response","trial_index":182,"plugin_version":"2.1.0","time_elapsed":5407559,"subject_id":"90812","group":"Group2","condition":"3_Rep","full_date":"2026-02-11T17:51:18.718Z","date":"2026-02-11","time":"17:51:18"},{"task":"memory_phase","broad_category":"M","image_png":"M_Quartzite_15.png","image_id":287,"category_name":"Quartzite","category":18,"distinct_rating":2.19,"distinct_type":"Bottom","rt":null,"stimulus":"Stimuli_Rocks480/M_Quartzite_15.png","response":null,"trial_type":"image-keyboard-response","trial_index":183,"plugin_version":"2.1.0","time_elapsed":5410062,"subject_id":"90812","group":"Group2","condition":"3_Rep","full_date":"2026-02-11T17:51:18.718Z","date":"2026-02-11","time":"17:51:18"},{"rt":null,"stimulus":"<p style=\"font-size: 50px; margin: 0; text-align: center;\">+</p>","response":null,"trial_type":"html-keyboard-response","trial_index":184,"plugin_version":"2.1.0","time_elapsed":5411065,"subject_id":"90812","group":"Group2","condition":"3_Rep","full_date":"2026-02-11T17:51:18.718Z","date":"2026-02-11","time":"17:51:18"},{"task":"memory_phase","broad_category":"M","image_png":"M_Marble_14.png","image_id":238,"category_name":"Marble","category":15,"distinct_rating":3.31,"distinct_type":"Bottom","rt":null,"stimulus":"Stimuli_Rocks480/M_Marble_14.png","response":null,"trial_type":"image-keyboard-response","trial_index":185,"plugin_version":"2.1.0","time_elapsed":5413569,"subject_id":"90812","group":"Group2","condition":"3_Rep","full_date":"2026-02-11T17:51:18.718Z","date":"2026-02-11","time":"17:51:18"},{"rt":null,"stimulus":"<p style=\"font-size: 50px; margin: 0; text-align: center;\">+</p>","response":null,"trial_type":"html-keyboard-response","trial_index":186,"plugin_version":"2.1.0","time_elapsed":5414571,"subject_id":"90812","group":"Group2","condition":"3_Rep","full_date":"2026-02-11T17:51:18.718Z","date":"2026-02-11","time":"17:51:18"},{"task":"memory_phase","broad_category":"S","image_png":"S_Shale_07.png","image_id":471,"category_name":"Shale","category":30,"distinct_rating":2.73,"distinct_type":"Bottom","rt":null,"stimulus":"Stimuli_Rocks480/S_Shale_07.png","response":null,"trial_type":"image-keyboard-response","trial_index":187,"plugin_version":"2.1.0","time_elapsed":5417074,"subject_id":"90812","group":"Group2","condition":"3_Rep","full_date":"2026-02-11T17:51:18.718Z","date":"2026-02-11","time":"17:51:18"},{"rt":null,"stimulus":"<p style=\"font-size: 50px; margin: 0; text-align: center;\">+</p>","response":null,"trial_type":"html-keyboard-response","trial_index":188,"plugin_version":"2.1.0","time_elapsed":5418076,"subject_id":"90812","group":"Group2","condition":"3_Rep","full_date":"2026-02-11T17:51:18.718Z","date":"2026-02-11","time":"17:51:18"},{"task":"memory_phase","broad_category":"M","image_png":"M_Slate_14.png","image_id":318,"category_name":"Slate","category":20,"distinct_rating":2.58,"distinct_type":"Bottom","rt":null,"stimulus":"Stimuli_Rocks480/M_Slate_14.png","response":null,"trial_type":"image-keyboard-response","trial_index":189,"plugin_version":"2.1.0","time_elapsed":5420580,"subject_id":"90812","group":"Group2","condition":"3_Rep","full_date":"2026-02-11T17:51:18.718Z","date":"2026-02-11","time":"17:51:18"},{"rt":null,"stimulus":"<p style=\"font-size: 50px; margin: 0; text-align: center;\">+</p>","response":null,"trial_type":"html-keyboard-response","trial_index":190,"plugin_version":"2.1.0","time_elapsed":5421582,"subject_id":"90812","group":"Group2","condition":"3_Rep","full_date":"2026-02-11T17:51:18.718Z","date":"2026-02-11","time":"17:51:18"},{"task":"memory_phase","broad_category":"S","image_png":"S_Sandstone_04.png","image_id":452,"category_name":"Sandstone","category":29,"distinct_rating":1.8,"distinct_type":"Bottom","rt":null,"stimulus":"Stimuli_Rocks480/S_Sandstone_04.png","response":null,"trial_type":"image-keyboard-response","trial_index":191,"plugin_version":"2.1.0","time_elapsed":5424085,"subject_id":"90812","group":"Group2","condition":"3_Rep","full_date":"2026-02-11T17:51:18.718Z","date":"2026-02-11","time":"17:51:18"},{"rt":null,"stimulus":"<p style=\"font-size: 50px; margin: 0; text-align: center;\">+</p>","response":null,"trial_type":"html-keyboard-response","trial_index":192,"plugin_version":"2.1.0","time_elapsed":5425088,"subject_id":"90812","group":"Group2","condition":"3_Rep","full_date":"2026-02-11T17:51:18.718Z","date":"2026-02-11","time":"17:51:18"},{"task":"memory_phase","broad_category":"I","image_png":"I_Basalt_08.png","image_id":24,"category_name":"Basalt","category":2,"distinct_rating":2.31,"distinct_type":"Bottom","rt":null,"stimulus":"Stimuli_Rocks480/I_Basalt_08.png","response":null,"trial_type":"image-keyboard-response","trial_index":193,"plugin_version":"2.1.0","time_elapsed":5427591,"subject_id":"90812","group":"Group2","condition":"3_Rep","full_date":"2026-02-11T17:51:18.718Z","date":"2026-02-11","time":"17:51:18"},{"rt":null,"stimulus":"<p style=\"font-size: 50px; margin: 0; text-align: center;\">+</p>","response":null,"trial_type":"html-keyboard-response","trial_index":194,"plugin_version":"2.1.0","time_elapsed":5428593,"subject_id":"90812","group":"Group2","condition":"3_Rep","full_date":"2026-02-11T17:51:18.718Z","date":"2026-02-11","time":"17:51:18"},{"task":"memory_phase","broad_category":"I","image_png":"I_Gabbro_02.png","image_id":50,"category_name":"Gabbro","category":4,"distinct_rating":2.73,"distinct_type":"Bottom","rt":null,"stimulus":"Stimuli_Rocks480/I_Gabbro_02.png","response":null,"trial_type":"image-keyboard-response","trial_index":195,"plugin_version":"2.1.0","time_elapsed":5431096,"subject_id":"90812","group":"Group2","condition":"3_Rep","full_date":"2026-02-11T17:51:18.718Z","date":"2026-02-11","time":"17:51:18"},{"rt":null,"stimulus":"<p style=\"font-size: 50px; margin: 0; text-align: center;\">+</p>","response":null,"trial_type":"html-keyboard-response","trial_index":196,"plugin_version":"2.1.0","time_elapsed":5432099,"subject_id":"90812","group":"Group2","condition":"3_Rep","full_date":"2026-02-11T17:51:18.718Z","date":"2026-02-11","time":"17:51:18"},{"task":"memory_phase","broad_category":"S","image_png":"S_Dolomite_16.png","image_id":400,"category_name":"Dolomite","category":25,"distinct_rating":1.71,"distinct_type":"Bottom","rt":null,"stimulus":"Stimuli_Rocks480/S_Dolomite_16.png","response":null,"trial_type":"image-keyboard-response","trial_index":197,"plugin_version":"2.1.0","time_elapsed":5434602,"subject_id":"90812","group":"Group2","condition":"3_Rep","full_date":"2026-02-11T17:51:18.718Z","date":"2026-02-11","time":"17:51:18"},{"rt":null,"stimulus":"<p style=\"font-size: 50px; margin: 0; text-align: center;\">+</p>","response":null,"trial_type":"html-keyboard-response","trial_index":198,"plugin_version":"2.1.0","time_elapsed":5435604,"subject_id":"90812","group":"Group2","condition":"3_Rep","full_date":"2026-02-11T17:51:18.718Z","date":"2026-02-11","time":"17:51:18"},{"task":"memory_phase","broad_category":"I","image_png":"I_Andesite_09.png","image_id":9,"category_name":"Andesite","category":1,"distinct_rating":2.49,"distinct_type":"Bottom","rt":null,"stimulus":"Stimuli_Rocks480/I_Andesite_09.png","response":null,"trial_type":"image-keyboard-response","trial_index":199,"plugin_version":"2.1.0","time_elapsed":5438108,"subject_id":"90812","group":"Group2","condition":"3_Rep","full_date":"2026-02-11T17:51:18.718Z","date":"2026-02-11","time":"17:51:18"},{"rt":null,"stimulus":"<p style=\"font-size: 50px; margin: 0; text-align: center;\">+</p>","response":null,"trial_type":"html-keyboard-response","trial_index":200,"plugin_version":"2.1.0","time_elapsed":5439110,"subject_id":"90812","group":"Group2","condition":"3_Rep","full_date":"2026-02-11T17:51:18.718Z","date":"2026-02-11","time":"17:51:18"},{"task":"memory_phase","broad_category":"S","image_png":"S_Shale_02.png","image_id":466,"category_name":"Shale","category":30,"distinct_rating":2.9,"distinct_type":"Bottom","rt":null,"stimulus":"Stimuli_Rocks480/S_Shale_02.png","response":null,"trial_type":"image-keyboard-response","trial_index":201,"plugin_version":"2.1.0","time_elapsed":5441613,"subject_id":"90812","group":"Group2","condition":"3_Rep","full_date":"2026-02-11T17:51:18.718Z","date":"2026-02-11","time":"17:51:18"},{"rt":null,"stimulus":"<p style=\"font-size: 50px; margin: 0; text-align: center;\">+</p>","response":null,"trial_type":"html-keyboard-response","trial_index":202,"plugin_version":"2.1.0","time_elapsed":5442616,"subject_id":"90812","group":"Group2","condition":"3_Rep","full_date":"2026-02-11T17:51:18.718Z","date":"2026-02-11","time":"17:51:18"},{"task":"memory_phase","broad_category":"I","image_png":"I_Pegmatite_11.png","image_id":107,"category_name":"Pegmatite","category":7,"distinct_rating":7.11,"distinct_type":"Top","rt":null,"stimulus":"Stimuli_Rocks480/I_Pegmatite_11.png","response":null,"trial_type":"image-keyboard-response","trial_index":203,"plugin_version":"2.1.0","time_elapsed":5445119,"subject_id":"90812","group":"Group2","condition":"3_Rep","full_date":"2026-02-11T17:51:18.718Z","date":"2026-02-11","time":"17:51:18"},{"rt":null,"stimulus":"<p style=\"font-size: 50px; margin: 0; text-align: center;\">+</p>","response":null,"trial_type":"html-keyboard-response","trial_index":204,"plugin_version":"2.1.0","time_elapsed":5446122,"subject_id":"90812","group":"Group2","condition":"3_Rep","full_date":"2026-02-11T17:51:18.718Z","date":"2026-02-11","time":"17:51:18"},{"task":"memory_phase","broad_category":"I","image_png":"I_Andesite_03.png","image_id":3,"category_name":"Andesite","category":1,"distinct_rating":3.17,"distinct_type":"Bottom","rt":null,"stimulus":"Stimuli_Rocks480/I_Andesite_03.png","response":null,"trial_type":"image-keyboard-response","trial_index":205,"plugin_version":"2.1.0","time_elapsed":5448625,"subject_id":"90812","group":"Group2","condition":"3_Rep","full_date":"2026-02-11T17:51:18.718Z","date":"2026-02-11","time":"17:51:18"},{"rt":null,"stimulus":"<p style=\"font-size: 50px; margin: 0; text-align: center;\">+</p>","response":null,"trial_type":"html-keyboard-response","trial_index":206,"plugin_version":"2.1.0","time_elapsed":5449627,"subject_id":"90812","group":"Group2","condition":"3_Rep","full_date":"2026-02-11T17:51:18.718Z","date":"2026-02-11","time":"17:51:18"},{"task":"memory_phase","broad_category":"S","image_png":"S_Rock Salt_15.png","image_id":447,"category_name":"Rock Salt","category":28,"distinct_rating":7.79,"distinct_type":"Top","rt":null,"stimulus":"Stimuli_Rocks480/S_Rock Salt_15.png","response":null,"trial_type":"image-keyboard-response","trial_index":207,"plugin_version":"2.1.0","time_elapsed":5452131,"subject_id":"90812","group":"Group2","condition":"3_Rep","full_date":"2026-02-11T17:51:18.718Z","date":"2026-02-11","time":"17:51:18"},{"rt":39187,"stimulus":"<p style=\"max-width: 760px; margin: auto; font-size: 35px; line-height: 1.5;\">\n                You have completed 2 study phases. \n                Now, we'll show you all the images again 1 more time.\n                <br><br>Press SPACE to continue\n              </p>","response":" ","trial_type":"html-keyboard-response","trial_index":208,"plugin_version":"2.1.0","time_elapsed":5491319,"subject_id":"90812","group":"Group2","condition":"3_Rep","full_date":"2026-02-11T17:51:18.718Z","date":"2026-02-11","time":"17:51:18"},{"rt":null,"stimulus":"<p style=\"font-size: 50px; margin: 0; text-align: center;\">+</p>","response":null,"trial_type":"html-keyboard-response","trial_index":209,"plugin_version":"2.1.0","time_elapsed":5492322,"subject_id":"90812","group":"Group2","condition":"3_Rep","full_date":"2026-02-11T17:51:18.718Z","date":"2026-02-11","time":"17:51:18"},{"task":"memory_phase","broad_category":"S","image_png":"S_Shale_03.png","image_id":467,"category_name":"Shale","category":30,"distinct_rating":1.95,"distinct_type":"Bottom","rt":null,"stimulus":"Stimuli_Rocks480/S_Shale_03.png","response":null,"trial_type":"image-keyboard-response","trial_index":210,"plugin_version":"2.1.0","time_elapsed":5494825,"subject_id":"90812","group":"Group2","condition":"3_Rep","full_date":"2026-02-11T17:51:18.718Z","date":"2026-02-11","time":"17:51:18"},{"rt":null,"stimulus":"<p style=\"font-size: 50px; margin: 0; text-align: center;\">+</p>","response":null,"trial_type":"html-keyboard-response","trial_index":211,"plugin_version":"2.1.0","time_elapsed":5495828,"subject_id":"90812","group":"Group2","condition":"3_Rep","full_date":"2026-02-11T17:51:18.718Z","date":"2026-02-11","time":"17:51:18"},{"task":"memory_phase","broad_category":"M","image_png":"M_Marble_14.png","image_id":238,"category_name":"Marble","category":15,"distinct_rating":3.31,"distinct_type":"Bottom","rt":null,"stimulus":"Stimuli_Rocks480/M_Marble_14.png","response":null,"trial_type":"image-keyboard-response","trial_index":212,"plugin_version":"2.1.0","time_elapsed":5498331,"subject_id":"90812","group":"Group2","condition":"3_Rep","full_date":"2026-02-11T17:51:18.718Z","date":"2026-02-11","time":"17:51:18"},{"rt":null,"stimulus":"<p style=\"font-size: 50px; margin: 0; text-align: center;\">+</p>","response":null,"trial_type":"html-keyboard-response","trial_index":213,"plugin_version":"2.1.0","time_elapsed":5499333,"subject_id":"90812","group":"Group2","condition":"3_Rep","full_date":"2026-02-11T17:51:18.718Z","date":"2026-02-11","time":"17:51:18"},{"task":"memory_phase","broad_category":"I","image_png":"I_Rhyolite_08.png","image_id":152,"category_name":"Rhyolite","category":10,"distinct_rating":1.38,"distinct_type":"Bottom","rt":null,"stimulus":"Stimuli_Rocks480/I_Rhyolite_08.png","response":null,"trial_type":"image-keyboard-response","trial_index":214,"plugin_version":"2.1.0","time_elapsed":5501837,"subject_id":"90812","group":"Group2","condition":"3_Rep","full_date":"2026-02-11T17:51:18.718Z","date":"2026-02-11","time":"17:51:18"},{"rt":null,"stimulus":"<p style=\"font-size: 50px; margin: 0; text-align: center;\">+</p>","response":null,"trial_type":"html-keyboard-response","trial_index":215,"plugin_version":"2.1.0","time_elapsed":5502839,"subject_id":"90812","group":"Group2","condition":"3_Rep","full_date":"2026-02-11T17:51:18.718Z","date":"2026-02-11","time":"17:51:18"},{"task":"memory_phase","broad_category":"I","image_png":"I_Basalt_08.png","image_id":24,"category_name":"Basalt","category":2,"distinct_rating":2.31,"distinct_type":"Bottom","rt":null,"stimulus":"Stimuli_Rocks480/I_Basalt_08.png","response":null,"trial_type":"image-keyboard-response","trial_index":216,"plugin_version":"2.1.0","time_elapsed":5505342,"subject_id":"90812","group":"Group2","condition":"3_Rep","full_date":"2026-02-11T17:51:18.718Z","date":"2026-02-11","time":"17:51:18"},{"rt":null,"stimulus":"<p style=\"font-size: 50px; margin: 0; text-align: center;\">+</p>","response":null,"trial_type":"html-keyboard-response","trial_index":217,"plugin_version":"2.1.0","time_elapsed":5506345,"subject_id":"90812","group":"Group2","condition":"3_Rep","full_date":"2026-02-11T17:51:18.718Z","date":"2026-02-11","time":"17:51:18"},{"task":"memory_phase","broad_category":"M","image_png":"M_Phyllite_13.png","image_id":269,"category_name":"Phyllite","category":17,"distinct_rating":2.8,"distinct_type":"Bottom","rt":null,"stimulus":"Stimuli_Rocks480/M_Phyllite_13.png","response":null,"trial_type":"image-keyboard-response","trial_index":218,"plugin_version":"2.1.0","time_elapsed":5508848,"subject_id":"90812","group":"Group2","condition":"3_Rep","full_date":"2026-02-11T17:51:18.718Z","date":"2026-02-11","time":"17:51:18"},{"rt":null,"stimulus":"<p style=\"font-size: 50px; margin: 0; text-align: center;\">+</p>","response":null,"trial_type":"html-keyboard-response","trial_index":219,"plugin_version":"2.1.0","time_elapsed":5509850,"subject_id":"90812","group":"Group2","condition":"3_Rep","full_date":"2026-02-11T17:51:18.718Z","date":"2026-02-11","time":"17:51:18"},{"task":"memory_phase","broad_category":"M","image_png":"M_Quartzite_07.png","image_id":279,"category_name":"Quartzite","category":18,"distinct_rating":1.97,"distinct_type":"Bottom","rt":null,"stimulus":"Stimuli_Rocks480/M_Quartzite_07.png","response":null,"trial_type":"image-keyboard-response","trial_index":220,"plugin_version":"2.1.0","time_elapsed":5512353,"subject_id":"90812","group":"Group2","condition":"3_Rep","full_date":"2026-02-11T17:51:18.718Z","date":"2026-02-11","time":"17:51:18"},{"rt":null,"stimulus":"<p style=\"font-size: 50px; margin: 0; text-align: center;\">+</p>","response":null,"trial_type":"html-keyboard-response","trial_index":221,"plugin_version":"2.1.0","time_elapsed":5513356,"subject_id":"90812","group":"Group2","condition":"3_Rep","full_date":"2026-02-11T17:51:18.718Z","date":"2026-02-11","time":"17:51:18"},{"task":"memory_phase","broad_category":"S","image_png":"S_Shale_02.png","image_id":466,"category_name":"Shale","category":30,"distinct_rating":2.9,"distinct_type":"Bottom","rt":null,"stimulus":"Stimuli_Rocks480/S_Shale_02.png","response":null,"trial_type":"image-keyboard-response","trial_index":222,"plugin_version":"2.1.0","time_elapsed":5515859,"subject_id":"90812","group":"Group2","condition":"3_Rep","full_date":"2026-02-11T17:51:18.718Z","date":"2026-02-11","time":"17:51:18"},{"rt":null,"stimulus":"<p style=\"font-size: 50px; margin: 0; text-align: center;\">+</p>","response":null,"trial_type":"html-keyboard-response","trial_index":223,"plugin_version":"2.1.0","time_elapsed":5516861,"subject_id":"90812","group":"Group2","condition":"3_Rep","full_date":"2026-02-11T17:51:18.718Z","date":"2026-02-11","time":"17:51:18"},{"task":"memory_phase","broad_category":"M","image_png":"M_Marble_03.png","image_id":227,"category_name":"Marble","category":15,"distinct_rating":2.67,"distinct_type":"Bottom","rt":null,"stimulus":"Stimuli_Rocks480/M_Marble_03.png","response":null,"trial_type":"image-keyboard-response","trial_index":224,"plugin_version":"2.1.0","time_elapsed":5519364,"subject_id":"90812","group":"Group2","condition":"3_Rep","full_date":"2026-02-11T17:51:18.718Z","date":"2026-02-11","time":"17:51:18"},{"rt":null,"stimulus":"<p style=\"font-size: 50px; margin: 0; text-align: center;\">+</p>","response":null,"trial_type":"html-keyboard-response","trial_index":225,"plugin_version":"2.1.0","time_elapsed":5520366,"subject_id":"90812","group":"Group2","condition":"3_Rep","full_date":"2026-02-11T17:51:18.718Z","date":"2026-02-11","time":"17:51:18"},{"task":"memory_phase","broad_category":"S","image_png":"S_Sandstone_08.png","image_id":456,"category_name":"Sandstone","category":29,"distinct_rating":1.5,"distinct_type":"Bottom","rt":null,"stimulus":"Stimuli_Rocks480/S_Sandstone_08.png","response":null,"trial_type":"image-keyboard-response","trial_index":226,"plugin_version":"2.1.0","time_elapsed":5522870,"subject_id":"90812","group":"Group2","condition":"3_Rep","full_date":"2026-02-11T17:51:18.718Z","date":"2026-02-11","time":"17:51:18"},{"rt":null,"stimulus":"<p style=\"font-size: 50px; margin: 0; text-align: center;\">+</p>","response":null,"trial_type":"html-keyboard-response","trial_index":227,"plugin_version":"2.1.0","time_elapsed":5523872,"subject_id":"90812","group":"Group2","condition":"3_Rep","full_date":"2026-02-11T17:51:18.718Z","date":"2026-02-11","time":"17:51:18"},{"task":"memory_phase","broad_category":"S","image_png":"S_Sandstone_11.png","image_id":459,"category_name":"Sandstone","category":29,"distinct_rating":1.82,"distinct_type":"Bottom","rt":null,"stimulus":"Stimuli_Rocks480/S_Sandstone_11.png","response":null,"trial_type":"image-keyboard-response","trial_index":228,"plugin_version":"2.1.0","time_elapsed":5526376,"subject_id":"90812","group":"Group2","condition":"3_Rep","full_date":"2026-02-11T17:51:18.718Z","date":"2026-02-11","time":"17:51:18"},{"rt":null,"stimulus":"<p style=\"font-size: 50px; margin: 0; text-align: center;\">+</p>","response":null,"trial_type":"html-keyboard-response","trial_index":229,"plugin_version":"2.1.0","time_elapsed":5527379,"subject_id":"90812","group":"Group2","condition":"3_Rep","full_date":"2026-02-11T17:51:18.718Z","date":"2026-02-11","time":"17:51:18"},{"task":"memory_phase","broad_category":"M","image_png":"M_Quartzite_12.png","image_id":284,"category_name":"Quartzite","category":18,"distinct_rating":1.92,"distinct_type":"Bottom","rt":null,"stimulus":"Stimuli_Rocks480/M_Quartzite_12.png","response":null,"trial_type":"image-keyboard-response","trial_index":230,"plugin_version":"2.1.0","time_elapsed":5529882,"subject_id":"90812","group":"Group2","condition":"3_Rep","full_date":"2026-02-11T17:51:18.718Z","date":"2026-02-11","time":"17:51:18"},{"rt":null,"stimulus":"<p style=\"font-size: 50px; margin: 0; text-align: center;\">+</p>","response":null,"trial_type":"html-keyboard-response","trial_index":231,"plugin_version":"2.1.0","time_elapsed":5530885,"subject_id":"90812","group":"Group2","condition":"3_Rep","full_date":"2026-02-11T17:51:18.718Z","date":"2026-02-11","time":"17:51:18"},{"task":"memory_phase","broad_category":"I","image_png":"I_Andesite_04.png","image_id":4,"category_name":"Andesite","category":1,"distinct_rating":3.18,"distinct_type":"Bottom","rt":null,"stimulus":"Stimuli_Rocks480/I_Andesite_04.png","response":null,"trial_type":"image-keyboard-response","trial_index":232,"plugin_version":"2.1.0","time_elapsed":5533388,"subject_id":"90812","group":"Group2","condition":"3_Rep","full_date":"2026-02-11T17:51:18.718Z","date":"2026-02-11","time":"17:51:18"},{"rt":null,"stimulus":"<p style=\"font-size: 50px; margin: 0; text-align: center;\">+</p>","response":null,"trial_type":"html-keyboard-response","trial_index":233,"plugin_version":"2.1.0","time_elapsed":5534390,"subject_id":"90812","group":"Group2","condition":"3_Rep","full_date":"2026-02-11T17:51:18.718Z","date":"2026-02-11","time":"17:51:18"},{"task":"memory_phase","broad_category":"I","image_png":"I_Pegmatite_03.png","image_id":99,"category_name":"Pegmatite","category":7,"distinct_rating":7.24,"distinct_type":"Top","rt":null,"stimulus":"Stimuli_Rocks480/I_Pegmatite_03.png","response":null,"trial_type":"image-keyboard-response","trial_index":234,"plugin_version":"2.1.0","time_elapsed":5536894,"subject_id":"90812","group":"Group2","condition":"3_Rep","full_date":"2026-02-11T17:51:18.718Z","date":"2026-02-11","time":"17:51:18"},{"rt":null,"stimulus":"<p style=\"font-size: 50px; margin: 0; text-align: center;\">+</p>","response":null,"trial_type":"html-keyboard-response","trial_index":235,"plugin_version":"2.1.0","time_elapsed":5537897,"subject_id":"90812","group":"Group2","condition":"3_Rep","full_date":"2026-