[{"width":1536,"height":731,"webaudio":true,"browser":"firefox","browser_version":"147.0.0","mobile":false,"os":"Windows 10","fullscreen":true,"vsync_rate":60.48,"webcam":true,"microphone":true,"trial_type":"browser-check","trial_index":0,"plugin_version":"2.1.0","time_elapsed":1016,"subject_id":"92523","group":"Group2","condition":"3_Rep","full_date":"2026-02-19T18:41:41.208Z","date":"2026-02-19","time":"18:41:41"},{"success":true,"timeout":false,"failed_images":[],"failed_audio":[],"failed_video":[],"trial_type":"preload","trial_index":1,"plugin_version":"2.1.0","time_elapsed":2816,"subject_id":"92523","group":"Group2","condition":"3_Rep","full_date":"2026-02-19T18:41:41.208Z","date":"2026-02-19","time":"18:41:41"},{"rt":58438,"url":"SONA_consent_memorability.html","trial_type":"external-html","trial_index":2,"plugin_version":"2.1.0","time_elapsed":61309,"subject_id":"92523","group":"Group2","condition":"3_Rep","full_date":"2026-02-19T18:41:41.208Z","date":"2026-02-19","time":"18:41:41"},{"success":true,"rt":20106,"trial_type":"fullscreen","trial_index":3,"plugin_version":"2.1.0","time_elapsed":82421,"subject_id":"92523","group":"Group2","condition":"3_Rep","full_date":"2026-02-19T18:41:41.208Z","date":"2026-02-19","time":"18:41:41"},{"rt":45238,"stimulus":"<div style=\"max-width: 760px; margin: auto; font-size: 20px; line-height: 1.5;\">\n      <h1 style=\"text-align:center; font-size: 30px;\">Instructions</h1>\n      <p>\n        Welcome to the study on <b>visual memory</b>. This experiment consists of <b>two phases</b>: \n        a <b>study phase</b> and a <b>test phase</b>.\n      </p>\n      <p>\n        In the study phase, you will see a series of rock images along with their category labels.\n        The images will appear one at a time.\n        <b>Your task</b> is to learn the categories to which the rock images belong \n        and to remember each image as accurately as possible.\n      </p> \n      <p>\n        Note that we will repeat the study phase <b>3 times</b>, \n             so you will have multiple opportunities to see and remember each image.\n      </p>\n      <p>\n        After the study phase, <b>your memory will be tested</b>. \n        Additional instructions for the test phase will be provided at that time.\n      </p>\n      <p>\n        If your computer has multiple <b>language settings</b> (e.g., English and another language),\n        please make sure it is set to English before starting.\n      </p>\n      <p>\n        You can track your progress using the <b>completion bar</b> at the top of the screen. \n        Please note that the bar will refresh when the test phase begins \n        to give you an accurate sense of your progress in both phases.\n      </p> \n      <p>\n        Press the button below when you are ready to begin.\n      </p>\n    </div>","response":0,"trial_type":"html-button-response","trial_index":4,"plugin_version":"2.1.0","time_elapsed":127660,"subject_id":"92523","group":"Group2","condition":"3_Rep","full_date":"2026-02-19T18:41:41.208Z","date":"2026-02-19","time":"18:41:41"},{"rt":null,"stimulus":"<p style=\"font-size: 50px; margin: 0; text-align: center;\">+</p>","response":null,"trial_type":"html-keyboard-response","trial_index":5,"plugin_version":"2.1.0","time_elapsed":128665,"subject_id":"92523","group":"Group2","condition":"3_Rep","full_date":"2026-02-19T18:41:41.208Z","date":"2026-02-19","time":"18:41:41"},{"task":"memory_phase","broad_category":"M","image_png":"M_Phyllite_05.png","image_id":261,"category_name":"Phyllite","category":17,"distinct_rating":2.14,"distinct_type":"Bottom","rt":null,"stimulus":"Stimuli_Rocks480/M_Phyllite_05.png","response":null,"trial_type":"image-keyboard-response","trial_index":6,"plugin_version":"2.1.0","time_elapsed":131188,"subject_id":"92523","group":"Group2","condition":"3_Rep","full_date":"2026-02-19T18:41:41.208Z","date":"2026-02-19","time":"18:41:41"},{"rt":null,"stimulus":"<p style=\"font-size: 50px; margin: 0; text-align: center;\">+</p>","response":null,"trial_type":"html-keyboard-response","trial_index":7,"plugin_version":"2.1.0","time_elapsed":132192,"subject_id":"92523","group":"Group2","condition":"3_Rep","full_date":"2026-02-19T18:41:41.208Z","date":"2026-02-19","time":"18:41:41"},{"task":"memory_phase","broad_category":"M","image_png":"M_Gneiss_10.png","image_id":202,"category_name":"Gneiss","category":13,"distinct_rating":3.09,"distinct_type":"Bottom","rt":null,"stimulus":"Stimuli_Rocks480/M_Gneiss_10.png","response":null,"trial_type":"image-keyboard-response","trial_index":8,"plugin_version":"2.1.0","time_elapsed":134702,"subject_id":"92523","group":"Group2","condition":"3_Rep","full_date":"2026-02-19T18:41:41.208Z","date":"2026-02-19","time":"18:41:41"},{"rt":null,"stimulus":"<p style=\"font-size: 50px; margin: 0; text-align: center;\">+</p>","response":null,"trial_type":"html-keyboard-response","trial_index":9,"plugin_version":"2.1.0","time_elapsed":135704,"subject_id":"92523","group":"Group2","condition":"3_Rep","full_date":"2026-02-19T18:41:41.208Z","date":"2026-02-19","time":"18:41:41"},{"task":"memory_phase","broad_category":"I","image_png":"I_Obsidian_06.png","image_id":86,"category_name":"Obsidian","category":6,"distinct_rating":8.01,"distinct_type":"Top","rt":null,"stimulus":"Stimuli_Rocks480/I_Obsidian_06.png","response":null,"trial_type":"image-keyboard-response","trial_index":10,"plugin_version":"2.1.0","time_elapsed":138229,"subject_id":"92523","group":"Group2","condition":"3_Rep","full_date":"2026-02-19T18:41:41.208Z","date":"2026-02-19","time":"18:41:41"},{"rt":null,"stimulus":"<p style=\"font-size: 50px; margin: 0; text-align: center;\">+</p>","response":null,"trial_type":"html-keyboard-response","trial_index":11,"plugin_version":"2.1.0","time_elapsed":139246,"subject_id":"92523","group":"Group2","condition":"3_Rep","full_date":"2026-02-19T18:41:41.208Z","date":"2026-02-19","time":"18:41:41"},{"task":"memory_phase","broad_category":"I","image_png":"I_Basalt_13.png","image_id":29,"category_name":"Basalt","category":2,"distinct_rating":2.68,"distinct_type":"Bottom","rt":null,"stimulus":"Stimuli_Rocks480/I_Basalt_13.png","response":null,"trial_type":"image-keyboard-response","trial_index":12,"plugin_version":"2.1.0","time_elapsed":141767,"subject_id":"92523","group":"Group2","condition":"3_Rep","full_date":"2026-02-19T18:41:41.208Z","date":"2026-02-19","time":"18:41:41"},{"rt":null,"stimulus":"<p style=\"font-size: 50px; margin: 0; text-align: center;\">+</p>","response":null,"trial_type":"html-keyboard-response","trial_index":13,"plugin_version":"2.1.0","time_elapsed":142774,"subject_id":"92523","group":"Group2","condition":"3_Rep","full_date":"2026-02-19T18:41:41.208Z","date":"2026-02-19","time":"18:41:41"},{"task":"memory_phase","broad_category":"S","image_png":"S_Dolomite_07.png","image_id":391,"category_name":"Dolomite","category":25,"distinct_rating":1.73,"distinct_type":"Bottom","rt":null,"stimulus":"Stimuli_Rocks480/S_Dolomite_07.png","response":null,"trial_type":"image-keyboard-response","trial_index":14,"plugin_version":"2.1.0","time_elapsed":145298,"subject_id":"92523","group":"Group2","condition":"3_Rep","full_date":"2026-02-19T18:41:41.208Z","date":"2026-02-19","time":"18:41:41"},{"rt":null,"stimulus":"<p style=\"font-size: 50px; margin: 0; text-align: center;\">+</p>","response":null,"trial_type":"html-keyboard-response","trial_index":15,"plugin_version":"2.1.0","time_elapsed":146314,"subject_id":"92523","group":"Group2","condition":"3_Rep","full_date":"2026-02-19T18:41:41.208Z","date":"2026-02-19","time":"18:41:41"},{"task":"memory_phase","broad_category":"I","image_png":"I_Rhyolite_10.png","image_id":154,"category_name":"Rhyolite","category":10,"distinct_rating":2.88,"distinct_type":"Bottom","rt":null,"stimulus":"Stimuli_Rocks480/I_Rhyolite_10.png","response":null,"trial_type":"image-keyboard-response","trial_index":16,"plugin_version":"2.1.0","time_elapsed":148841,"subject_id":"92523","group":"Group2","condition":"3_Rep","full_date":"2026-02-19T18:41:41.208Z","date":"2026-02-19","time":"18:41:41"},{"rt":null,"stimulus":"<p style=\"font-size: 50px; margin: 0; text-align: center;\">+</p>","response":null,"trial_type":"html-keyboard-response","trial_index":17,"plugin_version":"2.1.0","time_elapsed":149847,"subject_id":"92523","group":"Group2","condition":"3_Rep","full_date":"2026-02-19T18:41:41.208Z","date":"2026-02-19","time":"18:41:41"},{"task":"memory_phase","broad_category":"S","image_png":"S_Dolomite_01.png","image_id":385,"category_name":"Dolomite","category":25,"distinct_rating":1.43,"distinct_type":"Bottom","rt":null,"stimulus":"Stimuli_Rocks480/S_Dolomite_01.png","response":null,"trial_type":"image-keyboard-response","trial_index":18,"plugin_version":"2.1.0","time_elapsed":152364,"subject_id":"92523","group":"Group2","condition":"3_Rep","full_date":"2026-02-19T18:41:41.208Z","date":"2026-02-19","time":"18:41:41"},{"rt":null,"stimulus":"<p style=\"font-size: 50px; margin: 0; text-align: center;\">+</p>","response":null,"trial_type":"html-keyboard-response","trial_index":19,"plugin_version":"2.1.0","time_elapsed":153368,"subject_id":"92523","group":"Group2","condition":"3_Rep","full_date":"2026-02-19T18:41:41.208Z","date":"2026-02-19","time":"18:41:41"},{"task":"memory_phase","broad_category":"M","image_png":"M_Phyllite_02.png","image_id":258,"category_name":"Phyllite","category":17,"distinct_rating":2.89,"distinct_type":"Bottom","rt":null,"stimulus":"Stimuli_Rocks480/M_Phyllite_02.png","response":null,"trial_type":"image-keyboard-response","trial_index":20,"plugin_version":"2.1.0","time_elapsed":155893,"subject_id":"92523","group":"Group2","condition":"3_Rep","full_date":"2026-02-19T18:41:41.208Z","date":"2026-02-19","time":"18:41:41"},{"rt":null,"stimulus":"<p style=\"font-size: 50px; margin: 0; text-align: center;\">+</p>","response":null,"trial_type":"html-keyboard-response","trial_index":21,"plugin_version":"2.1.0","time_elapsed":156897,"subject_id":"92523","group":"Group2","condition":"3_Rep","full_date":"2026-02-19T18:41:41.208Z","date":"2026-02-19","time":"18:41:41"},{"task":"memory_phase","broad_category":"I","image_png":"I_Basalt_08.png","image_id":24,"category_name":"Basalt","category":2,"distinct_rating":2.31,"distinct_type":"Bottom","rt":null,"stimulus":"Stimuli_Rocks480/I_Basalt_08.png","response":null,"trial_type":"image-keyboard-response","trial_index":22,"plugin_version":"2.1.0","time_elapsed":159430,"subject_id":"92523","group":"Group2","condition":"3_Rep","full_date":"2026-02-19T18:41:41.208Z","date":"2026-02-19","time":"18:41:41"},{"rt":null,"stimulus":"<p style=\"font-size: 50px; margin: 0; text-align: center;\">+</p>","response":null,"trial_type":"html-keyboard-response","trial_index":23,"plugin_version":"2.1.0","time_elapsed":160430,"subject_id":"92523","group":"Group2","condition":"3_Rep","full_date":"2026-02-19T18:41:41.208Z","date":"2026-02-19","time":"18:41:41"},{"task":"memory_phase","broad_category":"M","image_png":"M_Phyllite_13.png","image_id":269,"category_name":"Phyllite","category":17,"distinct_rating":2.8,"distinct_type":"Bottom","rt":null,"stimulus":"Stimuli_Rocks480/M_Phyllite_13.png","response":null,"trial_type":"image-keyboard-response","trial_index":24,"plugin_version":"2.1.0","time_elapsed":162943,"subject_id":"92523","group":"Group2","condition":"3_Rep","full_date":"2026-02-19T18:41:41.208Z","date":"2026-02-19","time":"18:41:41"},{"rt":null,"stimulus":"<p style=\"font-size: 50px; margin: 0; text-align: center;\">+</p>","response":null,"trial_type":"html-keyboard-response","trial_index":25,"plugin_version":"2.1.0","time_elapsed":163953,"subject_id":"92523","group":"Group2","condition":"3_Rep","full_date":"2026-02-19T18:41:41.208Z","date":"2026-02-19","time":"18:41:41"},{"task":"memory_phase","broad_category":"M","image_png":"M_Gneiss_15.png","image_id":207,"category_name":"Gneiss","category":13,"distinct_rating":3.11,"distinct_type":"Bottom","rt":null,"stimulus":"Stimuli_Rocks480/M_Gneiss_15.png","response":null,"trial_type":"image-keyboard-response","trial_index":26,"plugin_version":"2.1.0","time_elapsed":166468,"subject_id":"92523","group":"Group2","condition":"3_Rep","full_date":"2026-02-19T18:41:41.208Z","date":"2026-02-19","time":"18:41:41"},{"rt":null,"stimulus":"<p style=\"font-size: 50px; margin: 0; text-align: center;\">+</p>","response":null,"trial_type":"html-keyboard-response","trial_index":27,"plugin_version":"2.1.0","time_elapsed":167473,"subject_id":"92523","group":"Group2","condition":"3_Rep","full_date":"2026-02-19T18:41:41.208Z","date":"2026-02-19","time":"18:41:41"},{"task":"memory_phase","broad_category":"S","image_png":"S_Dolomite_16.png","image_id":400,"category_name":"Dolomite","category":25,"distinct_rating":1.71,"distinct_type":"Bottom","rt":null,"stimulus":"Stimuli_Rocks480/S_Dolomite_16.png","response":null,"trial_type":"image-keyboard-response","trial_index":28,"plugin_version":"2.1.0","time_elapsed":169986,"subject_id":"92523","group":"Group2","condition":"3_Rep","full_date":"2026-02-19T18:41:41.208Z","date":"2026-02-19","time":"18:41:41"},{"rt":null,"stimulus":"<p style=\"font-size: 50px; margin: 0; text-align: center;\">+</p>","response":null,"trial_type":"html-keyboard-response","trial_index":29,"plugin_version":"2.1.0","time_elapsed":170991,"subject_id":"92523","group":"Group2","condition":"3_Rep","full_date":"2026-02-19T18:41:41.208Z","date":"2026-02-19","time":"18:41:41"},{"task":"memory_phase","broad_category":"I","image_png":"I_Andesite_09.png","image_id":9,"category_name":"Andesite","category":1,"distinct_rating":2.49,"distinct_type":"Bottom","rt":null,"stimulus":"Stimuli_Rocks480/I_Andesite_09.png","response":null,"trial_type":"image-keyboard-response","trial_index":30,"plugin_version":"2.1.0","time_elapsed":173511,"subject_id":"92523","group":"Group2","condition":"3_Rep","full_date":"2026-02-19T18:41:41.208Z","date":"2026-02-19","time":"18:41:41"},{"rt":null,"stimulus":"<p style=\"font-size: 50px; margin: 0; text-align: center;\">+</p>","response":null,"trial_type":"html-keyboard-response","trial_index":31,"plugin_version":"2.1.0","time_elapsed":174517,"subject_id":"92523","group":"Group2","condition":"3_Rep","full_date":"2026-02-19T18:41:41.208Z","date":"2026-02-19","time":"18:41:41"},{"task":"memory_phase","broad_category":"M","image_png":"M_Quartzite_15.png","image_id":287,"category_name":"Quartzite","category":18,"distinct_rating":2.19,"distinct_type":"Bottom","rt":null,"stimulus":"Stimuli_Rocks480/M_Quartzite_15.png","response":null,"trial_type":"image-keyboard-response","trial_index":32,"plugin_version":"2.1.0","time_elapsed":177034,"subject_id":"92523","group":"Group2","condition":"3_Rep","full_date":"2026-02-19T18:41:41.208Z","date":"2026-02-19","time":"18:41:41"},{"rt":null,"stimulus":"<p style=\"font-size: 50px; margin: 0; text-align: center;\">+</p>","response":null,"trial_type":"html-keyboard-response","trial_index":33,"plugin_version":"2.1.0","time_elapsed":178041,"subject_id":"92523","group":"Group2","condition":"3_Rep","full_date":"2026-02-19T18:41:41.208Z","date":"2026-02-19","time":"18:41:41"},{"task":"memory_phase","broad_category":"I","image_png":"I_Peridotite_13.png","image_id":125,"category_name":"Peridotite","category":8,"distinct_rating":7.28,"distinct_type":"Top","rt":null,"stimulus":"Stimuli_Rocks480/I_Peridotite_13.png","response":null,"trial_type":"image-keyboard-response","trial_index":34,"plugin_version":"2.1.0","time_elapsed":180564,"subject_id":"92523","group":"Group2","condition":"3_Rep","full_date":"2026-02-19T18:41:41.208Z","date":"2026-02-19","time":"18:41:41"},{"rt":null,"stimulus":"<p style=\"font-size: 50px; margin: 0; text-align: center;\">+</p>","response":null,"trial_type":"html-keyboard-response","trial_index":35,"plugin_version":"2.1.0","time_elapsed":181586,"subject_id":"92523","group":"Group2","condition":"3_Rep","full_date":"2026-02-19T18:41:41.208Z","date":"2026-02-19","time":"18:41:41"},{"task":"memory_phase","broad_category":"M","image_png":"M_Gneiss_14.png","image_id":206,"category_name":"Gneiss","category":13,"distinct_rating":3.41,"distinct_type":"Bottom","rt":null,"stimulus":"Stimuli_Rocks480/M_Gneiss_14.png","response":null,"trial_type":"image-keyboard-response","trial_index":36,"plugin_version":"2.1.0","time_elapsed":184100,"subject_id":"92523","group":"Group2","condition":"3_Rep","full_date":"2026-02-19T18:41:41.208Z","date":"2026-02-19","time":"18:41:41"},{"rt":null,"stimulus":"<p style=\"font-size: 50px; margin: 0; text-align: center;\">+</p>","response":null,"trial_type":"html-keyboard-response","trial_index":37,"plugin_version":"2.1.0","time_elapsed":185108,"subject_id":"92523","group":"Group2","condition":"3_Rep","full_date":"2026-02-19T18:41:41.208Z","date":"2026-02-19","time":"18:41:41"},{"task":"memory_phase","broad_category":"M","image_png":"M_Quartzite_12.png","image_id":284,"category_name":"Quartzite","category":18,"distinct_rating":1.92,"distinct_type":"Bottom","rt":null,"stimulus":"Stimuli_Rocks480/M_Quartzite_12.png","response":null,"trial_type":"image-keyboard-response","trial_index":38,"plugin_version":"2.1.0","time_elapsed":187629,"subject_id":"92523","group":"Group2","condition":"3_Rep","full_date":"2026-02-19T18:41:41.208Z","date":"2026-02-19","time":"18:41:41"},{"rt":null,"stimulus":"<p style=\"font-size: 50px; margin: 0; text-align: center;\">+</p>","response":null,"trial_type":"html-keyboard-response","trial_index":39,"plugin_version":"2.1.0","time_elapsed":188667,"subject_id":"92523","group":"Group2","condition":"3_Rep","full_date":"2026-02-19T18:41:41.208Z","date":"2026-02-19","time":"18:41:41"},{"task":"memory_phase","broad_category":"I","image_png":"I_Gabbro_14.png","image_id":62,"category_name":"Gabbro","category":4,"distinct_rating":2.95,"distinct_type":"Bottom","rt":null,"stimulus":"Stimuli_Rocks480/I_Gabbro_14.png","response":null,"trial_type":"image-keyboard-response","trial_index":40,"plugin_version":"2.1.0","time_elapsed":191189,"subject_id":"92523","group":"Group2","condition":"3_Rep","full_date":"2026-02-19T18:41:41.208Z","date":"2026-02-19","time":"18:41:41"},{"rt":null,"stimulus":"<p style=\"font-size: 50px; margin: 0; text-align: center;\">+</p>","response":null,"trial_type":"html-keyboard-response","trial_index":41,"plugin_version":"2.1.0","time_elapsed":192204,"subject_id":"92523","group":"Group2","condition":"3_Rep","full_date":"2026-02-19T18:41:41.208Z","date":"2026-02-19","time":"18:41:41"},{"task":"memory_phase","broad_category":"M","image_png":"M_Slate_04.png","image_id":308,"category_name":"Slate","category":20,"distinct_rating":2.2,"distinct_type":"Bottom","rt":null,"stimulus":"Stimuli_Rocks480/M_Slate_04.png","response":null,"trial_type":"image-keyboard-response","trial_index":42,"plugin_version":"2.1.0","time_elapsed":194725,"subject_id":"92523","group":"Group2","condition":"3_Rep","full_date":"2026-02-19T18:41:41.208Z","date":"2026-02-19","time":"18:41:41"},{"rt":null,"stimulus":"<p style=\"font-size: 50px; margin: 0; text-align: center;\">+</p>","response":null,"trial_type":"html-keyboard-response","trial_index":43,"plugin_version":"2.1.0","time_elapsed":195735,"subject_id":"92523","group":"Group2","condition":"3_Rep","full_date":"2026-02-19T18:41:41.208Z","date":"2026-02-19","time":"18:41:41"},{"task":"memory_phase","broad_category":"I","image_png":"I_Pumice_14.png","image_id":142,"category_name":"Pumice","category":9,"distinct_rating":3.22,"distinct_type":"Bottom","rt":null,"stimulus":"Stimuli_Rocks480/I_Pumice_14.png","response":null,"trial_type":"image-keyboard-response","trial_index":44,"plugin_version":"2.1.0","time_elapsed":198259,"subject_id":"92523","group":"Group2","condition":"3_Rep","full_date":"2026-02-19T18:41:41.208Z","date":"2026-02-19","time":"18:41:41"},{"rt":null,"stimulus":"<p style=\"font-size: 50px; margin: 0; text-align: center;\">+</p>","response":null,"trial_type":"html-keyboard-response","trial_index":45,"plugin_version":"2.1.0","time_elapsed":199260,"subject_id":"92523","group":"Group2","condition":"3_Rep","full_date":"2026-02-19T18:41:41.208Z","date":"2026-02-19","time":"18:41:41"},{"task":"memory_phase","broad_category":"S","image_png":"S_Shale_07.png","image_id":471,"category_name":"Shale","category":30,"distinct_rating":2.73,"distinct_type":"Bottom","rt":null,"stimulus":"Stimuli_Rocks480/S_Shale_07.png","response":null,"trial_type":"image-keyboard-response","trial_index":46,"plugin_version":"2.1.0","time_elapsed":201779,"subject_id":"92523","group":"Group2","condition":"3_Rep","full_date":"2026-02-19T18:41:41.208Z","date":"2026-02-19","time":"18:41:41"},{"rt":null,"stimulus":"<p style=\"font-size: 50px; margin: 0; text-align: center;\">+</p>","response":null,"trial_type":"html-keyboard-response","trial_index":47,"plugin_version":"2.1.0","time_elapsed":202791,"subject_id":"92523","group":"Group2","condition":"3_Rep","full_date":"2026-02-19T18:41:41.208Z","date":"2026-02-19","time":"18:41:41"},{"task":"memory_phase","broad_category":"S","image_png":"S_Conglomerate_14.png","image_id":382,"category_name":"Conglomerate","category":24,"distinct_rating":6.86,"distinct_type":"Top","rt":null,"stimulus":"Stimuli_Rocks480/S_Conglomerate_14.png","response":null,"trial_type":"image-keyboard-response","trial_index":48,"plugin_version":"2.1.0","time_elapsed":205310,"subject_id":"92523","group":"Group2","condition":"3_Rep","full_date":"2026-02-19T18:41:41.208Z","date":"2026-02-19","time":"18:41:41"},{"rt":null,"stimulus":"<p style=\"font-size: 50px; margin: 0; text-align: center;\">+</p>","response":null,"trial_type":"html-keyboard-response","trial_index":49,"plugin_version":"2.1.0","time_elapsed":206312,"subject_id":"92523","group":"Group2","condition":"3_Rep","full_date":"2026-02-19T18:41:41.208Z","date":"2026-02-19","time":"18:41:41"},{"task":"memory_phase","broad_category":"S","image_png":"S_Sandstone_11.png","image_id":459,"category_name":"Sandstone","category":29,"distinct_rating":1.82,"distinct_type":"Bottom","rt":null,"stimulus":"Stimuli_Rocks480/S_Sandstone_11.png","response":null,"trial_type":"image-keyboard-response","trial_index":50,"plugin_version":"2.1.0","time_elapsed":208841,"subject_id":"92523","group":"Group2","condition":"3_Rep","full_date":"2026-02-19T18:41:41.208Z","date":"2026-02-19","time":"18:41:41"},{"rt":null,"stimulus":"<p style=\"font-size: 50px; margin: 0; text-align: center;\">+</p>","response":null,"trial_type":"html-keyboard-response","trial_index":51,"plugin_version":"2.1.0","time_elapsed":209843,"subject_id":"92523","group":"Group2","condition":"3_Rep","full_date":"2026-02-19T18:41:41.208Z","date":"2026-02-19","time":"18:41:41"},{"task":"memory_phase","broad_category":"S","image_png":"S_Rock Salt_13.png","image_id":445,"category_name":"Rock Salt","category":28,"distinct_rating":7.58,"distinct_type":"Top","rt":null,"stimulus":"Stimuli_Rocks480/S_Rock Salt_13.png","response":null,"trial_type":"image-keyboard-response","trial_index":52,"plugin_version":"2.1.0","time_elapsed":212357,"subject_id":"92523","group":"Group2","condition":"3_Rep","full_date":"2026-02-19T18:41:41.208Z","date":"2026-02-19","time":"18:41:41"},{"rt":null,"stimulus":"<p style=\"font-size: 50px; margin: 0; text-align: center;\">+</p>","response":null,"trial_type":"html-keyboard-response","trial_index":53,"plugin_version":"2.1.0","time_elapsed":213367,"subject_id":"92523","group":"Group2","condition":"3_Rep","full_date":"2026-02-19T18:41:41.208Z","date":"2026-02-19","time":"18:41:41"},{"task":"memory_phase","broad_category":"I","image_png":"I_Basalt_10.png","image_id":26,"category_name":"Basalt","category":2,"distinct_rating":2.76,"distinct_type":"Bottom","rt":null,"stimulus":"Stimuli_Rocks480/I_Basalt_10.png","response":null,"trial_type":"image-keyboard-response","trial_index":54,"plugin_version":"2.1.0","time_elapsed":215886,"subject_id":"92523","group":"Group2","condition":"3_Rep","full_date":"2026-02-19T18:41:41.208Z","date":"2026-02-19","time":"18:41:41"},{"rt":7712,"stimulus":"<p style=\"max-width: 760px; margin: auto; font-size: 35px; line-height: 1.5;\">\n                Press SPACE to continue study phase\n              </p>","response":" ","trial_type":"html-keyboard-response","trial_index":55,"plugin_version":"2.1.0","time_elapsed":223598,"subject_id":"92523","group":"Group2","condition":"3_Rep","full_date":"2026-02-19T18:41:41.208Z","date":"2026-02-19","time":"18:41:41"},{"rt":null,"stimulus":"<p style=\"font-size: 50px; margin: 0; text-align: center;\">+</p>","response":null,"trial_type":"html-keyboard-response","trial_index":56,"plugin_version":"2.1.0","time_elapsed":224600,"subject_id":"92523","group":"Group2","condition":"3_Rep","full_date":"2026-02-19T18:41:41.208Z","date":"2026-02-19","time":"18:41:41"},{"task":"memory_phase","broad_category":"S","image_png":"S_Shale_03.png","image_id":467,"category_name":"Shale","category":30,"distinct_rating":1.95,"distinct_type":"Bottom","rt":null,"stimulus":"Stimuli_Rocks480/S_Shale_03.png","response":null,"trial_type":"image-keyboard-response","trial_index":57,"plugin_version":"2.1.0","time_elapsed":227126,"subject_id":"92523","group":"Group2","condition":"3_Rep","full_date":"2026-02-19T18:41:41.208Z","date":"2026-02-19","time":"18:41:41"},{"rt":null,"stimulus":"<p style=\"font-size: 50px; margin: 0; text-align: center;\">+</p>","response":null,"trial_type":"html-keyboard-response","trial_index":58,"plugin_version":"2.1.0","time_elapsed":228133,"subject_id":"92523","group":"Group2","condition":"3_Rep","full_date":"2026-02-19T18:41:41.208Z","date":"2026-02-19","time":"18:41:41"},{"task":"memory_phase","broad_category":"I","image_png":"I_Pegmatite_03.png","image_id":99,"category_name":"Pegmatite","category":7,"distinct_rating":7.24,"distinct_type":"Top","rt":null,"stimulus":"Stimuli_Rocks480/I_Pegmatite_03.png","response":null,"trial_type":"image-keyboard-response","trial_index":59,"plugin_version":"2.1.0","time_elapsed":230658,"subject_id":"92523","group":"Group2","condition":"3_Rep","full_date":"2026-02-19T18:41:41.208Z","date":"2026-02-19","time":"18:41:41"},{"rt":null,"stimulus":"<p style=\"font-size: 50px; margin: 0; text-align: center;\">+</p>","response":null,"trial_type":"html-keyboard-response","trial_index":60,"plugin_version":"2.1.0","time_elapsed":231661,"subject_id":"92523","group":"Group2","condition":"3_Rep","full_date":"2026-02-19T18:41:41.208Z","date":"2026-02-19","time":"18:41:41"},{"task":"memory_phase","broad_category":"M","image_png":"M_Quartzite_07.png","image_id":279,"category_name":"Quartzite","category":18,"distinct_rating":1.97,"distinct_type":"Bottom","rt":null,"stimulus":"Stimuli_Rocks480/M_Quartzite_07.png","response":null,"trial_type":"image-keyboard-response","trial_index":61,"plugin_version":"2.1.0","time_elapsed":234181,"subject_id":"92523","group":"Group2","condition":"3_Rep","full_date":"2026-02-19T18:41:41.208Z","date":"2026-02-19","time":"18:41:41"},{"rt":null,"stimulus":"<p style=\"font-size: 50px; margin: 0; text-align: center;\">+</p>","response":null,"trial_type":"html-keyboard-response","trial_index":62,"plugin_version":"2.1.0","time_elapsed":235188,"subject_id":"92523","group":"Group2","condition":"3_Rep","full_date":"2026-02-19T18:41:41.208Z","date":"2026-02-19","time":"18:41:41"},{"task":"memory_phase","broad_category":"M","image_png":"M_Marble_03.png","image_id":227,"category_name":"Marble","category":15,"distinct_rating":2.67,"distinct_type":"Bottom","rt":null,"stimulus":"Stimuli_Rocks480/M_Marble_03.png","response":null,"trial_type":"image-keyboard-response","trial_index":63,"plugin_version":"2.1.0","time_elapsed":237712,"subject_id":"92523","group":"Group2","condition":"3_Rep","full_date":"2026-02-19T18:41:41.208Z","date":"2026-02-19","time":"18:41:41"},{"rt":null,"stimulus":"<p style=\"font-size: 50px; margin: 0; text-align: center;\">+</p>","response":null,"trial_type":"html-keyboard-response","trial_index":64,"plugin_version":"2.1.0","time_elapsed":238714,"subject_id":"92523","group":"Group2","condition":"3_Rep","full_date":"2026-02-19T18:41:41.208Z","date":"2026-02-19","time":"18:41:41"},{"task":"memory_phase","broad_category":"S","image_png":"S_Sandstone_04.png","image_id":452,"category_name":"Sandstone","category":29,"distinct_rating":1.8,"distinct_type":"Bottom","rt":null,"stimulus":"Stimuli_Rocks480/S_Sandstone_04.png","response":null,"trial_type":"image-keyboard-response","trial_index":65,"plugin_version":"2.1.0","time_elapsed":241238,"subject_id":"92523","group":"Group2","condition":"3_Rep","full_date":"2026-02-19T18:41:41.208Z","date":"2026-02-19","time":"18:41:41"},{"rt":null,"stimulus":"<p style=\"font-size: 50px; margin: 0; text-align: center;\">+</p>","response":null,"trial_type":"html-keyboard-response","trial_index":66,"plugin_version":"2.1.0","time_elapsed":242249,"subject_id":"92523","group":"Group2","condition":"3_Rep","full_date":"2026-02-19T18:41:41.208Z","date":"2026-02-19","time":"18:41:41"},{"task":"memory_phase","broad_category":"I","image_png":"I_Diorite_10.png","image_id":42,"category_name":"Diorite","category":3,"distinct_rating":2.84,"distinct_type":"Bottom","rt":null,"stimulus":"Stimuli_Rocks480/I_Diorite_10.png","response":null,"trial_type":"image-keyboard-response","trial_index":67,"plugin_version":"2.1.0","time_elapsed":244773,"subject_id":"92523","group":"Group2","condition":"3_Rep","full_date":"2026-02-19T18:41:41.208Z","date":"2026-02-19","time":"18:41:41"},{"rt":null,"stimulus":"<p style=\"font-size: 50px; margin: 0; text-align: center;\">+</p>","response":null,"trial_type":"html-keyboard-response","trial_index":68,"plugin_version":"2.1.0","time_elapsed":245782,"subject_id":"92523","group":"Group2","condition":"3_Rep","full_date":"2026-02-19T18:41:41.208Z","date":"2026-02-19","time":"18:41:41"},{"task":"memory_phase","broad_category":"S","image_png":"S_Shale_02.png","image_id":466,"category_name":"Shale","category":30,"distinct_rating":2.9,"distinct_type":"Bottom","rt":null,"stimulus":"Stimuli_Rocks480/S_Shale_02.png","response":null,"trial_type":"image-keyboard-response","trial_index":69,"plugin_version":"2.1.0","time_elapsed":248302,"subject_id":"92523","group":"Group2","condition":"3_Rep","full_date":"2026-02-19T18:41:41.208Z","date":"2026-02-19","time":"18:41:41"},{"rt":null,"stimulus":"<p style=\"font-size: 50px; margin: 0; text-align: center;\">+</p>","response":null,"trial_type":"html-keyboard-response","trial_index":70,"plugin_version":"2.1.0","time_elapsed":249308,"subject_id":"92523","group":"Group2","condition":"3_Rep","full_date":"2026-02-19T18:41:41.208Z","date":"2026-02-19","time":"18:41:41"},{"task":"memory_phase","broad_category":"S","image_png":"S_Sandstone_08.png","image_id":456,"category_name":"Sandstone","category":29,"distinct_rating":1.5,"distinct_type":"Bottom","rt":null,"stimulus":"Stimuli_Rocks480/S_Sandstone_08.png","response":null,"trial_type":"image-keyboard-response","trial_index":71,"plugin_version":"2.1.0","time_elapsed":251831,"subject_id":"92523","group":"Group2","condition":"3_Rep","full_date":"2026-02-19T18:41:41.208Z","date":"2026-02-19","time":"18:41:41"},{"rt":null,"stimulus":"<p style=\"font-size: 50px; margin: 0; text-align: center;\">+</p>","response":null,"trial_type":"html-keyboard-response","trial_index":72,"plugin_version":"2.1.0","time_elapsed":252838,"subject_id":"92523","group":"Group2","condition":"3_Rep","full_date":"2026-02-19T18:41:41.208Z","date":"2026-02-19","time":"18:41:41"},{"task":"memory_phase","broad_category":"I","image_png":"I_Pumice_01.png","image_id":129,"category_name":"Pumice","category":9,"distinct_rating":3.25,"distinct_type":"Bottom","rt":null,"stimulus":"Stimuli_Rocks480/I_Pumice_01.png","response":null,"trial_type":"image-keyboard-response","trial_index":73,"plugin_version":"2.1.0","time_elapsed":255377,"subject_id":"92523","group":"Group2","condition":"3_Rep","full_date":"2026-02-19T18:41:41.208Z","date":"2026-02-19","time":"18:41:41"},{"rt":null,"stimulus":"<p style=\"font-size: 50px; margin: 0; text-align: center;\">+</p>","response":null,"trial_type":"html-keyboard-response","trial_index":74,"plugin_version":"2.1.0","time_elapsed":256381,"subject_id":"92523","group":"Group2","condition":"3_Rep","full_date":"2026-02-19T18:41:41.208Z","date":"2026-02-19","time":"18:41:41"},{"task":"memory_phase","broad_category":"M","image_png":"M_Slate_14.png","image_id":318,"category_name":"Slate","category":20,"distinct_rating":2.58,"distinct_type":"Bottom","rt":null,"stimulus":"Stimuli_Rocks480/M_Slate_14.png","response":null,"trial_type":"image-keyboard-response","trial_index":75,"plugin_version":"2.1.0","time_elapsed":258897,"subject_id":"92523","group":"Group2","condition":"3_Rep","full_date":"2026-02-19T18:41:41.208Z","date":"2026-02-19","time":"18:41:41"},{"rt":null,"stimulus":"<p style=\"font-size: 50px; margin: 0; text-align: center;\">+</p>","response":null,"trial_type":"html-keyboard-response","trial_index":76,"plugin_version":"2.1.0","time_elapsed":259913,"subject_id":"92523","group":"Group2","condition":"3_Rep","full_date":"2026-02-19T18:41:41.208Z","date":"2026-02-19","time":"18:41:41"},{"task":"memory_phase","broad_category":"I","image_png":"I_Andesite_04.png","image_id":4,"category_name":"Andesite","category":1,"distinct_rating":3.18,"distinct_type":"Bottom","rt":null,"stimulus":"Stimuli_Rocks480/I_Andesite_04.png","response":null,"trial_type":"image-keyboard-response","trial_index":77,"plugin_version":"2.1.0","time_elapsed":262430,"subject_id":"92523","group":"Group2","condition":"3_Rep","full_date":"2026-02-19T18:41:41.208Z","date":"2026-02-19","time":"18:41:41"},{"rt":null,"stimulus":"<p style=\"font-size: 50px; margin: 0; text-align: center;\">+</p>","response":null,"trial_type":"html-keyboard-response","trial_index":78,"plugin_version":"2.1.0","time_elapsed":263435,"subject_id":"92523","group":"Group2","condition":"3_Rep","full_date":"2026-02-19T18:41:41.208Z","date":"2026-02-19","time":"18:41:41"},{"task":"memory_phase","broad_category":"I","image_png":"I_Rhyolite_08.png","image_id":152,"category_name":"Rhyolite","category":10,"distinct_rating":1.38,"distinct_type":"Bottom","rt":null,"stimulus":"Stimuli_Rocks480/I_Rhyolite_08.png","response":null,"trial_type":"image-keyboard-response","trial_index":79,"plugin_version":"2.1.0","time_elapsed":265963,"subject_id":"92523","group":"Group2","condition":"3_Rep","full_date":"2026-02-19T18:41:41.208Z","date":"2026-02-19","time":"18:41:41"},{"rt":null,"stimulus":"<p style=\"font-size: 50px; margin: 0; text-align: center;\">+</p>","response":null,"trial_type":"html-keyboard-response","trial_index":80,"plugin_version":"2.1.0","time_elapsed":266967,"subject_id":"92523","group":"Group2","condition":"3_Rep","full_date":"2026-02-19T18:41:41.208Z","date":"2026-02-19","time":"18:41:41"},{"task":"memory_phase","broad_category":"M","image_png":"M_Slate_10.png","image_id":314,"category_name":"Slate","category":20,"distinct_rating":1.94,"distinct_type":"Bottom","rt":null,"stimulus":"Stimuli_Rocks480/M_Slate_10.png","response":null,"trial_type":"image-keyboard-response","trial_index":81,"plugin_version":"2.1.0","time_elapsed":269479,"subject_id":"92523","group":"Group2","condition":"3_Rep","full_date":"2026-02-19T18:41:41.208Z","date":"2026-02-19","time":"18:41:41"},{"rt":null,"stimulus":"<p style=\"font-size: 50px; margin: 0; text-align: center;\">+</p>","response":null,"trial_type":"html-keyboard-response","trial_index":82,"plugin_version":"2.1.0","time_elapsed":270485,"subject_id":"92523","group":"Group2","condition":"3_Rep","full_date":"2026-02-19T18:41:41.208Z","date":"2026-02-19","time":"18:41:41"},{"task":"memory_phase","broad_category":"M","image_png":"M_Marble_14.png","image_id":238,"category_name":"Marble","category":15,"distinct_rating":3.31,"distinct_type":"Bottom","rt":null,"stimulus":"Stimuli_Rocks480/M_Marble_14.png","response":null,"trial_type":"image-keyboard-response","trial_index":83,"plugin_version":"2.1.0","time_elapsed":273001,"subject_id":"92523","group":"Group2","condition":"3_Rep","full_date":"2026-02-19T18:41:41.208Z","date":"2026-02-19","time":"18:41:41"},{"rt":null,"stimulus":"<p style=\"font-size: 50px; margin: 0; text-align: center;\">+</p>","response":null,"trial_type":"html-keyboard-response","trial_index":84,"plugin_version":"2.1.0","time_elapsed":274013,"subject_id":"92523","group":"Group2","condition":"3_Rep","full_date":"2026-02-19T18:41:41.208Z","date":"2026-02-19","time":"18:41:41"},{"task":"memory_phase","broad_category":"I","image_png":"I_Diorite_15.png","image_id":47,"category_name":"Diorite","category":3,"distinct_rating":3.05,"distinct_type":"Bottom","rt":null,"stimulus":"Stimuli_Rocks480/I_Diorite_15.png","response":null,"trial_type":"image-keyboard-response","trial_index":85,"plugin_version":"2.1.0","time_elapsed":276533,"subject_id":"92523","group":"Group2","condition":"3_Rep","full_date":"2026-02-19T18:41:41.208Z","date":"2026-02-19","time":"18:41:41"},{"rt":null,"stimulus":"<p style=\"font-size: 50px; margin: 0; text-align: center;\">+</p>","response":null,"trial_type":"html-keyboard-response","trial_index":86,"plugin_version":"2.1.0","time_elapsed":277540,"subject_id":"92523","group":"Group2","condition":"3_Rep","full_date":"2026-02-19T18:41:41.208Z","date":"2026-02-19","time":"18:41:41"},{"task":"memory_phase","broad_category":"I","image_png":"I_Gabbro_02.png","image_id":50,"category_name":"Gabbro","category":4,"distinct_rating":2.73,"distinct_type":"Bottom","rt":null,"stimulus":"Stimuli_Rocks480/I_Gabbro_02.png","response":null,"trial_type":"image-keyboard-response","trial_index":87,"plugin_version":"2.1.0","time_elapsed":280062,"subject_id":"92523","group":"Group2","condition":"3_Rep","full_date":"2026-02-19T18:41:41.208Z","date":"2026-02-19","time":"18:41:41"},{"rt":null,"stimulus":"<p style=\"font-size: 50px; margin: 0; text-align: center;\">+</p>","response":null,"trial_type":"html-keyboard-response","trial_index":88,"plugin_version":"2.1.0","time_elapsed":281063,"subject_id":"92523","group":"Group2","condition":"3_Rep","full_date":"2026-02-19T18:41:41.208Z","date":"2026-02-19","time":"18:41:41"},{"task":"memory_phase","broad_category":"S","image_png":"S_Chert_13.png","image_id":365,"category_name":"Chert","category":23,"distinct_rating":6.57,"distinct_type":"Top","rt":null,"stimulus":"Stimuli_Rocks480/S_Chert_13.png","response":null,"trial_type":"image-keyboard-response","trial_index":89,"plugin_version":"2.1.0","time_elapsed":283580,"subject_id":"92523","group":"Group2","condition":"3_Rep","full_date":"2026-02-19T18:41:41.208Z","date":"2026-02-19","time":"18:41:41"},{"rt":null,"stimulus":"<p style=\"font-size: 50px; margin: 0; text-align: center;\">+</p>","response":null,"trial_type":"html-keyboard-response","trial_index":90,"plugin_version":"2.1.0","time_elapsed":284585,"subject_id":"92523","group":"Group2","condition":"3_Rep","full_date":"2026-02-19T18:41:41.208Z","date":"2026-02-19","time":"18:41:41"},{"task":"memory_phase","broad_category":"I","image_png":"I_Diorite_01.png","image_id":33,"category_name":"Diorite","category":3,"distinct_rating":2.97,"distinct_type":"Bottom","rt":null,"stimulus":"Stimuli_Rocks480/I_Diorite_01.png","response":null,"trial_type":"image-keyboard-response","trial_index":91,"plugin_version":"2.1.0","time_elapsed":287113,"subject_id":"92523","group":"Group2","condition":"3_Rep","full_date":"2026-02-19T18:41:41.208Z","date":"2026-02-19","time":"18:41:41"},{"rt":null,"stimulus":"<p style=\"font-size: 50px; margin: 0; text-align: center;\">+</p>","response":null,"trial_type":"html-keyboard-response","trial_index":92,"plugin_version":"2.1.0","time_elapsed":288125,"subject_id":"92523","group":"Group2","condition":"3_Rep","full_date":"2026-02-19T18:41:41.208Z","date":"2026-02-19","time":"18:41:41"},{"task":"memory_phase","broad_category":"I","image_png":"I_Pumice_13.png","image_id":141,"category_name":"Pumice","category":9,"distinct_rating":3.12,"distinct_type":"Bottom","rt":null,"stimulus":"Stimuli_Rocks480/I_Pumice_13.png","response":null,"trial_type":"image-keyboard-response","trial_index":93,"plugin_version":"2.1.0","time_elapsed":290647,"subject_id":"92523","group":"Group2","condition":"3_Rep","full_date":"2026-02-19T18:41:41.208Z","date":"2026-02-19","time":"18:41:41"},{"rt":null,"stimulus":"<p style=\"font-size: 50px; margin: 0; text-align: center;\">+</p>","response":null,"trial_type":"html-keyboard-response","trial_index":94,"plugin_version":"2.1.0","time_elapsed":291657,"subject_id":"92523","group":"Group2","condition":"3_Rep","full_date":"2026-02-19T18:41:41.208Z","date":"2026-02-19","time":"18:41:41"},{"task":"memory_phase","broad_category":"I","image_png":"I_Rhyolite_05.png","image_id":149,"category_name":"Rhyolite","category":10,"distinct_rating":3.02,"distinct_type":"Bottom","rt":null,"stimulus":"Stimuli_Rocks480/I_Rhyolite_05.png","response":null,"trial_type":"image-keyboard-response","trial_index":95,"plugin_version":"2.1.0","time_elapsed":294180,"subject_id":"92523","group":"Group2","condition":"3_Rep","full_date":"2026-02-19T18:41:41.208Z","date":"2026-02-19","time":"18:41:41"},{"rt":null,"stimulus":"<p style=\"font-size: 50px; margin: 0; text-align: center;\">+</p>","response":null,"trial_type":"html-keyboard-response","trial_index":96,"plugin_version":"2.1.0","time_elapsed":295184,"subject_id":"92523","group":"Group2","condition":"3_Rep","full_date":"2026-02-19T18:41:41.208Z","date":"2026-02-19","time":"18:41:41"},{"task":"memory_phase","broad_category":"I","image_png":"I_Gabbro_12.png","image_id":60,"category_name":"Gabbro","category":4,"distinct_rating":2.6,"distinct_type":"Bottom","rt":null,"stimulus":"Stimuli_Rocks480/I_Gabbro_12.png","response":null,"trial_type":"image-keyboard-response","trial_index":97,"plugin_version":"2.1.0","time_elapsed":297706,"subject_id":"92523","group":"Group2","condition":"3_Rep","full_date":"2026-02-19T18:41:41.208Z","date":"2026-02-19","time":"18:41:41"},{"rt":null,"stimulus":"<p style=\"font-size: 50px; margin: 0; text-align: center;\">+</p>","response":null,"trial_type":"html-keyboard-response","trial_index":98,"plugin_version":"2.1.0","time_elapsed":298714,"subject_id":"92523","group":"Group2","condition":"3_Rep","full_date":"2026-02-19T18:41:41.208Z","date":"2026-02-19","time":"18:41:41"},{"task":"memory_phase","broad_category":"I","image_png":"I_Pegmatite_11.png","image_id":107,"category_name":"Pegmatite","category":7,"distinct_rating":7.11,"distinct_type":"Top","rt":null,"stimulus":"Stimuli_Rocks480/I_Pegmatite_11.png","response":null,"trial_type":"image-keyboard-response","trial_index":99,"plugin_version":"2.1.0","time_elapsed":301235,"subject_id":"92523","group":"Group2","condition":"3_Rep","full_date":"2026-02-19T18:41:41.208Z","date":"2026-02-19","time":"18:41:41"},{"rt":null,"stimulus":"<p style=\"font-size: 50px; margin: 0; text-align: center;\">+</p>","response":null,"trial_type":"html-keyboard-response","trial_index":100,"plugin_version":"2.1.0","time_elapsed":302244,"subject_id":"92523","group":"Group2","condition":"3_Rep","full_date":"2026-02-19T18:41:41.208Z","date":"2026-02-19","time":"18:41:41"},{"task":"memory_phase","broad_category":"I","image_png":"I_Andesite_03.png","image_id":3,"category_name":"Andesite","category":1,"distinct_rating":3.17,"distinct_type":"Bottom","rt":null,"stimulus":"Stimuli_Rocks480/I_Andesite_03.png","response":null,"trial_type":"image-keyboard-response","trial_index":101,"plugin_version":"2.1.0","time_elapsed":304762,"subject_id":"92523","group":"Group2","condition":"3_Rep","full_date":"2026-02-19T18:41:41.208Z","date":"2026-02-19","time":"18:41:41"},{"rt":null,"stimulus":"<p style=\"font-size: 50px; margin: 0; text-align: center;\">+</p>","response":null,"trial_type":"html-keyboard-response","trial_index":102,"plugin_version":"2.1.0","time_elapsed":305770,"subject_id":"92523","group":"Group2","condition":"3_Rep","full_date":"2026-02-19T18:41:41.208Z","date":"2026-02-19","time":"18:41:41"},{"task":"memory_phase","broad_category":"S","image_png":"S_Rock Salt_15.png","image_id":447,"category_name":"Rock Salt","category":28,"distinct_rating":7.79,"distinct_type":"Top","rt":null,"stimulus":"Stimuli_Rocks480/S_Rock Salt_15.png","response":null,"trial_type":"image-keyboard-response","trial_index":103,"plugin_version":"2.1.0","time_elapsed":308293,"subject_id":"92523","group":"Group2","condition":"3_Rep","full_date":"2026-02-19T18:41:41.208Z","date":"2026-02-19","time":"18:41:41"},{"rt":null,"stimulus":"<p style=\"font-size: 50px; margin: 0; text-align: center;\">+</p>","response":null,"trial_type":"html-keyboard-response","trial_index":104,"plugin_version":"2.1.0","time_elapsed":309315,"subject_id":"92523","group":"Group2","condition":"3_Rep","full_date":"2026-02-19T18:41:41.208Z","date":"2026-02-19","time":"18:41:41"},{"task":"memory_phase","broad_category":"M","image_png":"M_Marble_02.png","image_id":226,"category_name":"Marble","category":15,"distinct_rating":3.2,"distinct_type":"Bottom","rt":null,"stimulus":"Stimuli_Rocks480/M_Marble_02.png","response":null,"trial_type":"image-keyboard-response","trial_index":105,"plugin_version":"2.1.0","time_elapsed":311829,"subject_id":"92523","group":"Group2","condition":"3_Rep","full_date":"2026-02-19T18:41:41.208Z","date":"2026-02-19","time":"18:41:41"},{"rt":153783,"stimulus":"<p style=\"max-width: 760px; margin: auto; font-size: 35px; line-height: 1.5;\">\n                You have completed 1 study phase. \n                Now, we'll show you all the images again 2 more times.\n                <br><br>Press SPACE to continue\n              </p>","response":" ","trial_type":"html-keyboard-response","trial_index":106,"plugin_version":"2.1.0","time_elapsed":465613,"subject_id":"92523","group":"Group2","condition":"3_Rep","full_date":"2026-02-19T18:41:41.208Z","date":"2026-02-19","time":"18:41:41"},{"rt":null,"stimulus":"<p style=\"font-size: 50px; margin: 0; text-align: center;\">+</p>","response":null,"trial_type":"html-keyboard-response","trial_index":107,"plugin_version":"2.1.0","time_elapsed":466616,"subject_id":"92523","group":"Group2","condition":"3_Rep","full_date":"2026-02-19T18:41:41.208Z","date":"2026-02-19","time":"18:41:41"},{"task":"memory_phase","broad_category":"S","image_png":"S_Conglomerate_14.png","image_id":382,"category_name":"Conglomerate","category":24,"distinct_rating":6.86,"distinct_type":"Top","rt":null,"stimulus":"Stimuli_Rocks480/S_Conglomerate_14.png","response":null,"trial_type":"image-keyboard-response","trial_index":108,"plugin_version":"2.1.0","time_elapsed":469134,"subject_id":"92523","group":"Group2","condition":"3_Rep","full_date":"2026-02-19T18:41:41.208Z","date":"2026-02-19","time":"18:41:41"},{"rt":null,"stimulus":"<p style=\"font-size: 50px; margin: 0; text-align: center;\">+</p>","response":null,"trial_type":"html-keyboard-response","trial_index":109,"plugin_version":"2.1.0","time_elapsed":470138,"subject_id":"92523","group":"Group2","condition":"3_Rep","full_date":"2026-02-19T18:41:41.208Z","date":"2026-02-19","time":"18:41:41"},{"task":"memory_phase","broad_category":"I","image_png":"I_Andesite_09.png","image_id":9,"category_name":"Andesite","category":1,"distinct_rating":2.49,"distinct_type":"Bottom","rt":null,"stimulus":"Stimuli_Rocks480/I_Andesite_09.png","response":null,"trial_type":"image-keyboard-response","trial_index":110,"plugin_version":"2.1.0","time_elapsed":472662,"subject_id":"92523","group":"Group2","condition":"3_Rep","full_date":"2026-02-19T18:41:41.208Z","date":"2026-02-19","time":"18:41:41"},{"rt":null,"stimulus":"<p style=\"font-size: 50px; margin: 0; text-align: center;\">+</p>","response":null,"trial_type":"html-keyboard-response","trial_index":111,"plugin_version":"2.1.0","time_elapsed":473671,"subject_id":"92523","group":"Group2","condition":"3_Rep","full_date":"2026-02-19T18:41:41.208Z","date":"2026-02-19","time":"18:41:41"},{"task":"memory_phase","broad_category":"M","image_png":"M_Marble_14.png","image_id":238,"category_name":"Marble","category":15,"distinct_rating":3.31,"distinct_type":"Bottom","rt":null,"stimulus":"Stimuli_Rocks480/M_Marble_14.png","response":null,"trial_type":"image-keyboard-response","trial_index":112,"plugin_version":"2.1.0","time_elapsed":476195,"subject_id":"92523","group":"Group2","condition":"3_Rep","full_date":"2026-02-19T18:41:41.208Z","date":"2026-02-19","time":"18:41:41"},{"rt":null,"stimulus":"<p style=\"font-size: 50px; margin: 0; text-align: center;\">+</p>","response":null,"trial_type":"html-keyboard-response","trial_index":113,"plugin_version":"2.1.0","time_elapsed":477203,"subject_id":"92523","group":"Group2","condition":"3_Rep","full_date":"2026-02-19T18:41:41.208Z","date":"2026-02-19","time":"18:41:41"},{"task":"memory_phase","broad_category":"S","image_png":"S_Dolomite_01.png","image_id":385,"category_name":"Dolomite","category":25,"distinct_rating":1.43,"distinct_type":"Bottom","rt":null,"stimulus":"Stimuli_Rocks480/S_Dolomite_01.png","response":null,"trial_type":"image-keyboard-response","trial_index":114,"plugin_version":"2.1.0","time_elapsed":479726,"subject_id":"92523","group":"Group2","condition":"3_Rep","full_date":"2026-02-19T18:41:41.208Z","date":"2026-02-19","time":"18:41:41"},{"rt":null,"stimulus":"<p style=\"font-size: 50px; margin: 0; text-align: center;\">+</p>","response":null,"trial_type":"html-keyboard-response","trial_index":115,"plugin_version":"2.1.0","time_elapsed":480733,"subject_id":"92523","group":"Group2","condition":"3_Rep","full_date":"2026-02-19T18:41:41.208Z","date":"2026-02-19","time":"18:41:41"},{"task":"memory_phase","broad_category":"I","image_png":"I_Diorite_15.png","image_id":47,"category_name":"Diorite","category":3,"distinct_rating":3.05,"distinct_type":"Bottom","rt":null,"stimulus":"Stimuli_Rocks480/I_Diorite_15.png","response":null,"trial_type":"image-keyboard-response","trial_index":116,"plugin_version":"2.1.0","time_elapsed":483243,"subject_id":"92523","group":"Group2","condition":"3_Rep","full_date":"2026-02-19T18:41:41.208Z","date":"2026-02-19","time":"18:41:41"},{"rt":null,"stimulus":"<p style=\"font-size: 50px; margin: 0; text-align: center;\">+</p>","response":null,"trial_type":"html-keyboard-response","trial_index":117,"plugin_version":"2.1.0","time_elapsed":484250,"subject_id":"92523","group":"Group2","condition":"3_Rep","full_date":"2026-02-19T18:41:41.208Z","date":"2026-02-19","time":"18:41:41"},{"task":"memory_phase","broad_category":"S","image_png":"S_Rock Salt_13.png","image_id":445,"category_name":"Rock Salt","category":28,"distinct_rating":7.58,"distinct_type":"Top","rt":null,"stimulus":"Stimuli_Rocks480/S_Rock Salt_13.png","response":null,"trial_type":"image-keyboard-response","trial_index":118,"plugin_version":"2.1.0","time_elapsed":486773,"subject_id":"92523","group":"Group2","condition":"3_Rep","full_date":"2026-02-19T18:41:41.208Z","date":"2026-02-19","time":"18:41:41"},{"rt":null,"stimulus":"<p style=\"font-size: 50px; margin: 0; text-align: center;\">+</p>","response":null,"trial_type":"html-keyboard-response","trial_index":119,"plugin_version":"2.1.0","time_elapsed":487779,"subject_id":"92523","group":"Group2","condition":"3_Rep","full_date":"2026-02-19T18:41:41.208Z","date":"2026-02-19","time":"18:41:41"},{"task":"memory_phase","broad_category":"S","image_png":"S_Dolomite_07.png","image_id":391,"category_name":"Dolomite","category":25,"distinct_rating":1.73,"distinct_type":"Bottom","rt":null,"stimulus":"Stimuli_Rocks480/S_Dolomite_07.png","response":null,"trial_type":"image-keyboard-response","trial_index":120,"plugin_version":"2.1.0","time_elapsed":490303,"subject_id":"92523","group":"Group2","condition":"3_Rep","full_date":"2026-02-19T18:41:41.208Z","date":"2026-02-19","time":"18:41:41"},{"rt":null,"stimulus":"<p style=\"font-size: 50px; margin: 0; text-align: center;\">+</p>","response":null,"trial_type":"html-keyboard-response","trial_index":121,"plugin_version":"2.1.0","time_elapsed":491309,"subject_id":"92523","group":"Group2","condition":"3_Rep","full_date":"2026-02-19T18:41:41.208Z","date":"2026-02-19","time":"18:41:41"},{"task":"memory_phase","broad_category":"I","image_png":"I_Gabbro_14.png","image_id":62,"category_name":"Gabbro","category":4,"distinct_rating":2.95,"distinct_type":"Bottom","rt":null,"stimulus":"Stimuli_Rocks480/I_Gabbro_14.png","response":null,"trial_type":"image-keyboard-response","trial_index":122,"plugin_version":"2.1.0","time_elapsed":493832,"subject_id":"92523","group":"Group2","condition":"3_Rep","full_date":"2026-02-19T18:41:41.208Z","date":"2026-02-19","time":"18:41:41"},{"rt":null,"stimulus":"<p style=\"font-size: 50px; margin: 0; text-align: center;\">+</p>","response":null,"trial_type":"html-keyboard-response","trial_index":123,"plugin_version":"2.1.0","time_elapsed":494838,"subject_id":"92523","group":"Group2","condition":"3_Rep","full_date":"2026-02-19T18:41:41.208Z","date":"2026-02-19","time":"18:41:41"},{"task":"memory_phase","broad_category":"I","image_png":"I_Obsidian_06.png","image_id":86,"category_name":"Obsidian","category":6,"distinct_rating":8.01,"distinct_type":"Top","rt":null,"stimulus":"Stimuli_Rocks480/I_Obsidian_06.png","response":null,"trial_type":"image-keyboard-response","trial_index":124,"plugin_version":"2.1.0","time_elapsed":497359,"subject_id":"92523","group":"Group2","condition":"3_Rep","full_date":"2026-02-19T18:41:41.208Z","date":"2026-02-19","time":"18:41:41"},{"rt":null,"stimulus":"<p style=\"font-size: 50px; margin: 0; text-align: center;\">+</p>","response":null,"trial_type":"html-keyboard-response","trial_index":125,"plugin_version":"2.1.0","time_elapsed":498365,"subject_id":"92523","group":"Group2","condition":"3_Rep","full_date":"2026-02-19T18:41:41.208Z","date":"2026-02-19","time":"18:41:41"},{"task":"memory_phase","broad_category":"M","image_png":"M_Marble_03.png","image_id":227,"category_name":"Marble","category":15,"distinct_rating":2.67,"distinct_type":"Bottom","rt":null,"stimulus":"Stimuli_Rocks480/M_Marble_03.png","response":null,"trial_type":"image-keyboard-response","trial_index":126,"plugin_version":"2.1.0","time_elapsed":500885,"subject_id":"92523","group":"Group2","condition":"3_Rep","full_date":"2026-02-19T18:41:41.208Z","date":"2026-02-19","time":"18:41:41"},{"rt":null,"stimulus":"<p style=\"font-size: 50px; margin: 0; text-align: center;\">+</p>","response":null,"trial_type":"html-keyboard-response","trial_index":127,"plugin_version":"2.1.0","time_elapsed":501892,"subject_id":"92523","group":"Group2","condition":"3_Rep","full_date":"2026-02-19T18:41:41.208Z","date":"2026-02-19","time":"18:41:41"},{"task":"memory_phase","broad_category":"M","image_png":"M_Gneiss_10.png","image_id":202,"category_name":"Gneiss","category":13,"distinct_rating":3.09,"distinct_type":"Bottom","rt":null,"stimulus":"Stimuli_Rocks480/M_Gneiss_10.png","response":null,"trial_type":"image-keyboard-response","trial_index":128,"plugin_version":"2.1.0","time_elapsed":504411,"subject_id":"92523","group":"Group2","condition":"3_Rep","full_date":"2026-02-19T18:41:41.208Z","date":"2026-02-19","time":"18:41:41"},{"rt":null,"stimulus":"<p style=\"font-size: 50px; margin: 0; text-align: center;\">+</p>","response":null,"trial_type":"html-keyboard-response","trial_index":129,"plugin_version":"2.1.0","time_elapsed":505418,"subject_id":"92523","group":"Group2","condition":"3_Rep","full_date":"2026-02-19T18:41:41.208Z","date":"2026-02-19","time":"18:41:41"},{"task":"memory_phase","broad_category":"M","image_png":"M_Phyllite_05.png","image_id":261,"category_name":"Phyllite","category":17,"distinct_rating":2.14,"distinct_type":"Bottom","rt":null,"stimulus":"Stimuli_Rocks480/M_Phyllite_05.png","response":null,"trial_type":"image-keyboard-response","trial_index":130,"plugin_version":"2.1.0","time_elapsed":507937,"subject_id":"92523","group":"Group2","condition":"3_Rep","full_date":"2026-02-19T18:41:41.208Z","date":"2026-02-19","time":"18:41:41"},{"rt":null,"stimulus":"<p style=\"font-size: 50px; margin: 0; text-align: center;\">+</p>","response":null,"trial_type":"html-keyboard-response","trial_index":131,"plugin_version":"2.1.0","time_elapsed":508946,"subject_id":"92523","group":"Group2","condition":"3_Rep","full_date":"2026-02-19T18:41:41.208Z","date":"2026-02-19","time":"18:41:41"},{"task":"memory_phase","broad_category":"S","image_png":"S_Shale_07.png","image_id":471,"category_name":"Shale","category":30,"distinct_rating":2.73,"distinct_type":"Bottom","rt":null,"stimulus":"Stimuli_Rocks480/S_Shale_07.png","response":null,"trial_type":"image-keyboard-response","trial_index":132,"plugin_version":"2.1.0","time_elapsed":511466,"subject_id":"92523","group":"Group2","condition":"3_Rep","full_date":"2026-02-19T18:41:41.208Z","date":"2026-02-19","time":"18:41:41"},{"rt":null,"stimulus":"<p style=\"font-size: 50px; margin: 0; text-align: center;\">+</p>","response":null,"trial_type":"html-keyboard-response","trial_index":133,"plugin_version":"2.1.0","time_elapsed":512469,"subject_id":"92523","group":"Group2","condition":"3_Rep","full_date":"2026-02-19T18:41:41.208Z","date":"2026-02-19","time":"18:41:41"},{"task":"memory_phase","broad_category":"M","image_png":"M_Marble_02.png","image_id":226,"category_name":"Marble","category":15,"distinct_rating":3.2,"distinct_type":"Bottom","rt":null,"stimulus":"Stimuli_Rocks480/M_Marble_02.png","response":null,"trial_type":"image-keyboard-response","trial_index":134,"plugin_version":"2.1.0","time_elapsed":514994,"subject_id":"92523","group":"Group2","condition":"3_Rep","full_date":"2026-02-19T18:41:41.208Z","date":"2026-02-19","time":"18:41:41"},{"rt":null,"stimulus":"<p style=\"font-size: 50px; margin: 0; text-align: center;\">+</p>","response":null,"trial_type":"html-keyboard-response","trial_index":135,"plugin_version":"2.1.0","time_elapsed":515999,"subject_id":"92523","group":"Group2","condition":"3_Rep","full_date":"2026-02-19T18:41:41.208Z","date":"2026-02-19","time":"18:41:41"},{"task":"memory_phase","broad_category":"M","image_png":"M_Quartzite_07.png","image_id":279,"category_name":"Quartzite","category":18,"distinct_rating":1.97,"distinct_type":"Bottom","rt":null,"stimulus":"Stimuli_Rocks480/M_Quartzite_07.png","response":null,"trial_type":"image-keyboard-response","trial_index":136,"plugin_version":"2.1.0","time_elapsed":518525,"subject_id":"92523","group":"Group2","condition":"3_Rep","full_date":"2026-02-19T18:41:41.208Z","date":"2026-02-19","time":"18:41:41"},{"rt":null,"stimulus":"<p style=\"font-size: 50px; margin: 0; text-align: center;\">+</p>","response":null,"trial_type":"html-keyboard-response","trial_index":137,"plugin_version":"2.1.0","time_elapsed":519534,"subject_id":"92523","group":"Group2","condition":"3_Rep","full_date":"2026-02-19T18:41:41.208Z","date":"2026-02-19","time":"18:41:41"},{"task":"memory_phase","broad_category":"I","image_png":"I_Pegmatite_03.png","image_id":99,"category_name":"Pegmatite","category":7,"distinct_rating":7.24,"distinct_type":"Top","rt":null,"stimulus":"Stimuli_Rocks480/I_Pegmatite_03.png","response":null,"trial_type":"image-keyboard-response","trial_index":138,"plugin_version":"2.1.0","time_elapsed":522050,"subject_id":"92523","group":"Group2","condition":"3_Rep","full_date":"2026-02-19T18:41:41.208Z","date":"2026-02-19","time":"18:41:41"},{"rt":null,"stimulus":"<p style=\"font-size: 50px; margin: 0; text-align: center;\">+</p>","response":null,"trial_type":"html-keyboard-response","trial_index":139,"plugin_version":"2.1.0","time_elapsed":523052,"subject_id":"92523","group":"Group2","condition":"3_Rep","full_date":"2026-02-19T18:41:41.208Z","date":"2026-02-19","time":"18:41:41"},{"task":"memory_phase","broad_category":"S","image_png":"S_Rock Salt_15.png","image_id":447,"category_name":"Rock Salt","category":28,"distinct_rating":7.79,"distinct_type":"Top","rt":null,"stimulus":"Stimuli_Rocks480/S_Rock Salt_15.png","response":null,"trial_type":"image-keyboard-response","trial_index":140,"plugin_version":"2.1.0","time_elapsed":525572,"subject_id":"92523","group":"Group2","condition":"3_Rep","full_date":"2026-02-19T18:41:41.208Z","date":"2026-02-19","time":"18:41:41"},{"rt":null,"stimulus":"<p style=\"font-size: 50px; margin: 0; text-align: center;\">+</p>","response":null,"trial_type":"html-keyboard-response","trial_index":141,"plugin_version":"2.1.0","time_elapsed":526623,"subject_id":"92523","group":"Group2","condition":"3_Rep","full_date":"2026-02-19T18:41:41.208Z","date":"2026-02-19","time":"18:41:41"},{"task":"memory_phase","broad_category":"I","image_png":"I_Pumice_14.png","image_id":142,"category_name":"Pumice","category":9,"distinct_rating":3.22,"distinct_type":"Bottom","rt":null,"stimulus":"Stimuli_Rocks480/I_Pumice_14.png","response":null,"trial_type":"image-keyboard-response","trial_index":142,"plugin_version":"2.1.0","time_elapsed":529152,"subject_id":"92523","group":"Group2","condition":"3_Rep","full_date":"2026-02-19T18:41:41.208Z","date":"2026-02-19","time":"18:41:41"},{"rt":null,"stimulus":"<p style=\"font-size: 50px; margin: 0; text-align: center;\">+</p>","response":null,"trial_type":"html-keyboard-response","trial_index":143,"plugin_version":"2.1.0","time_elapsed":530160,"subject_id":"92523","group":"Group2","condition":"3_Rep","full_date":"2026-02-19T18:41:41.208Z","date":"2026-02-19","time":"18:41:41"},{"task":"memory_phase","broad_category":"I","image_png":"I_Basalt_10.png","image_id":26,"category_name":"Basalt","category":2,"distinct_rating":2.76,"distinct_type":"Bottom","rt":null,"stimulus":"Stimuli_Rocks480/I_Basalt_10.png","response":null,"trial_type":"image-keyboard-response","trial_index":144,"plugin_version":"2.1.0","time_elapsed":532685,"subject_id":"92523","group":"Group2","condition":"3_Rep","full_date":"2026-02-19T18:41:41.208Z","date":"2026-02-19","time":"18:41:41"},{"rt":null,"stimulus":"<p style=\"font-size: 50px; margin: 0; text-align: center;\">+</p>","response":null,"trial_type":"html-keyboard-response","trial_index":145,"plugin_version":"2.1.0","time_elapsed":533687,"subject_id":"92523","group":"Group2","condition":"3_Rep","full_date":"2026-02-19T18:41:41.208Z","date":"2026-02-19","time":"18:41:41"},{"task":"memory_phase","broad_category":"I","image_png":"I_Gabbro_02.png","image_id":50,"category_name":"Gabbro","category":4,"distinct_rating":2.73,"distinct_type":"Bottom","rt":null,"stimulus":"Stimuli_Rocks480/I_Gabbro_02.png","response":null,"trial_type":"image-keyboard-response","trial_index":146,"plugin_version":"2.1.0","time_elapsed":536200,"subject_id":"92523","group":"Group2","condition":"3_Rep","full_date":"2026-02-19T18:41:41.208Z","date":"2026-02-19","time":"18:41:41"},{"rt":null,"stimulus":"<p style=\"font-size: 50px; margin: 0; text-align: center;\">+</p>","response":null,"trial_type":"html-keyboard-response","trial_index":147,"plugin_version":"2.1.0","time_elapsed":537205,"subject_id":"92523","group":"Group2","condition":"3_Rep","full_date":"2026-02-19T18:41:41.208Z","date":"2026-02-19","time":"18:41:41"},{"task":"memory_phase","broad_category":"M","image_png":"M_Quartzite_12.png","image_id":284,"category_name":"Quartzite","category":18,"distinct_rating":1.92,"distinct_type":"Bottom","rt":null,"stimulus":"Stimuli_Rocks480/M_Quartzite_12.png","response":null,"trial_type":"image-keyboard-response","trial_index":148,"plugin_version":"2.1.0","time_elapsed":539730,"subject_id":"92523","group":"Group2","condition":"3_Rep","full_date":"2026-02-19T18:41:41.208Z","date":"2026-02-19","time":"18:41:41"},{"rt":null,"stimulus":"<p style=\"font-size: 50px; margin: 0; text-align: center;\">+</p>","response":null,"trial_type":"html-keyboard-response","trial_index":149,"plugin_version":"2.1.0","time_elapsed":540736,"subject_id":"92523","group":"Group2","condition":"3_Rep","full_date":"2026-02-19T18:41:41.208Z","date":"2026-02-19","time":"18:41:41"},{"task":"memory_phase","broad_category":"S","image_png":"S_Sandstone_11.png","image_id":459,"category_name":"Sandstone","category":29,"distinct_rating":1.82,"distinct_type":"Bottom","rt":null,"stimulus":"Stimuli_Rocks480/S_Sandstone_11.png","response":null,"trial_type":"image-keyboard-response","trial_index":150,"plugin_version":"2.1.0","time_elapsed":543261,"subject_id":"92523","group":"Group2","condition":"3_Rep","full_date":"2026-02-19T18:41:41.208Z","date":"2026-02-19","time":"18:41:41"},{"rt":null,"stimulus":"<p style=\"font-size: 50px; margin: 0; text-align: center;\">+</p>","response":null,"trial_type":"html-keyboard-response","trial_index":151,"plugin_version":"2.1.0","time_elapsed":544267,"subject_id":"92523","group":"Group2","condition":"3_Rep","full_date":"2026-02-19T18:41:41.208Z","date":"2026-02-19","time":"18:41:41"},{"task":"memory_phase","broad_category":"I","image_png":"I_Basalt_08.png","image_id":24,"category_name":"Basalt","category":2,"distinct_rating":2.31,"distinct_type":"Bottom","rt":null,"stimulus":"Stimuli_Rocks480/I_Basalt_08.png","response":null,"trial_type":"image-keyboard-response","trial_index":152,"plugin_version":"2.1.0","time_elapsed":546796,"subject_id":"92523","group":"Group2","condition":"3_Rep","full_date":"2026-02-19T18:41:41.208Z","date":"2026-02-19","time":"18:41:41"},{"rt":null,"stimulus":"<p style=\"font-size: 50px; margin: 0; text-align: center;\">+</p>","response":null,"trial_type":"html-keyboard-response","trial_index":153,"plugin_version":"2.1.0","time_elapsed":547808,"subject_id":"92523","group":"Group2","condition":"3_Rep","full_date":"2026-02-19T18:41:41.208Z","date":"2026-02-19","time":"18:41:41"},{"task":"memory_phase","broad_category":"I","image_png":"I_Andesite_03.png","image_id":3,"category_name":"Andesite","category":1,"distinct_rating":3.17,"distinct_type":"Bottom","rt":null,"stimulus":"Stimuli_Rocks480/I_Andesite_03.png","response":null,"trial_type":"image-keyboard-response","trial_index":154,"plugin_version":"2.1.0","time_elapsed":550335,"subject_id":"92523","group":"Group2","condition":"3_Rep","full_date":"2026-02-19T18:41:41.208Z","date":"2026-02-19","time":"18:41:41"},{"rt":null,"stimulus":"<p style=\"font-size: 50px; margin: 0; text-align: center;\">+</p>","response":null,"trial_type":"html-keyboard-response","trial_index":155,"plugin_version":"2.1.0","time_elapsed":551344,"subject_id":"92523","group":"Group2","condition":"3_Rep","full_date":"2026-02-19T18:41:41.208Z","date":"2026-02-19","time":"18:41:41"},{"task":"memory_phase","broad_category":"M","image_png":"M_Phyllite_02.png","image_id":258,"category_name":"Phyllite","category":17,"distinct_rating":2.89,"distinct_type":"Bottom","rt":null,"stimulus":"Stimuli_Rocks480/M_Phyllite_02.png","response":null,"trial_type":"image-keyboard-response","trial_index":156,"plugin_version":"2.1.0","time_elapsed":553862,"subject_id":"92523","group":"Group2","condition":"3_Rep","full_date":"2026-02-19T18:41:41.208Z","date":"2026-02-19","time":"18:41:41"},{"rt":3757,"stimulus":"<p style=\"max-width: 760px; margin: auto; font-size: 35px; line-height: 1.5;\">\n                Press SPACE to continue study phase\n              </p>","response":" ","trial_type":"html-keyboard-response","trial_index":157,"plugin_version":"2.1.0","time_elapsed":557619,"subject_id":"92523","group":"Group2","condition":"3_Rep","full_date":"2026-02-19T18:41:41.208Z","date":"2026-02-19","time":"18:41:41"},{"rt":null,"stimulus":"<p style=\"font-size: 50px; margin: 0; text-align: center;\">+</p>","response":null,"trial_type":"html-keyboard-response","trial_index":158,"plugin_version":"2.1.0","time_elapsed":558735,"subject_id":"92523","group":"Group2","condition":"3_Rep","full_date":"2026-02-19T18:41:41.208Z","date":"2026-02-19","time":"18:41:41"},{"task":"memory_phase","broad_category":"S","image_png":"S_Shale_02.png","image_id":466,"category_name":"Shale","category":30,"distinct_rating":2.9,"distinct_type":"Bottom","rt":null,"stimulus":"Stimuli_Rocks480/S_Shale_02.png","response":null,"trial_type":"image-keyboard-response","trial_index":159,"plugin_version":"2.1.0","time_elapsed":561250,"subject_id":"92523","group":"Group2","condition":"3_Rep","full_date":"2026-02-19T18:41:41.208Z","date":"2026-02-19","time":"18:41:41"},{"rt":null,"stimulus":"<p style=\"font-size: 50px; margin: 0; text-align: center;\">+</p>","response":null,"trial_type":"html-keyboard-response","trial_index":160,"plugin_version":"2.1.0","time_elapsed":562264,"subject_id":"92523","group":"Group2","condition":"3_Rep","full_date":"2026-02-19T18:41:41.208Z","date":"2026-02-19","time":"18:41:41"},{"task":"memory_phase","broad_category":"S","image_png":"S_Chert_13.png","image_id":365,"category_name":"Chert","category":23,"distinct_rating":6.57,"distinct_type":"Top","rt":null,"stimulus":"Stimuli_Rocks480/S_Chert_13.png","response":null,"trial_type":"image-keyboard-response","trial_index":161,"plugin_version":"2.1.0","time_elapsed":564781,"subject_id":"92523","group":"Group2","condition":"3_Rep","full_date":"2026-02-19T18:41:41.208Z","date":"2026-02-19","time":"18:41:41"},{"rt":null,"stimulus":"<p style=\"font-size: 50px; margin: 0; text-align: center;\">+</p>","response":null,"trial_type":"html-keyboard-response","trial_index":162,"plugin_version":"2.1.0","time_elapsed":565789,"subject_id":"92523","group":"Group2","condition":"3_Rep","full_date":"2026-02-19T18:41:41.208Z","date":"2026-02-19","time":"18:41:41"},{"task":"memory_phase","broad_category":"I","image_png":"I_Rhyolite_10.png","image_id":154,"category_name":"Rhyolite","category":10,"distinct_rating":2.88,"distinct_type":"Bottom","rt":null,"stimulus":"Stimuli_Rocks480/I_Rhyolite_10.png","response":null,"trial_type":"image-keyboard-response","trial_index":163,"plugin_version":"2.1.0","time_elapsed":568313,"subject_id":"92523","group":"Group2","condition":"3_Rep","full_date":"2026-02-19T18:41:41.208Z","date":"2026-02-19","time":"18:41:41"},{"rt":null,"stimulus":"<p style=\"font-size: 50px; margin: 0; text-align: center;\">+</p>","response":null,"trial_type":"html-keyboard-response","trial_index":164,"plugin_version":"2.1.0","time_elapsed":569319,"subject_id":"92523","group":"Group2","condition":"3_Rep","full_date":"2026-02-19T18:41:41.208Z","date":"2026-02-19","time":"18:41:41"},{"task":"memory_phase","broad_category":"S","image_png":"S_Dolomite_16.png","image_id":400,"category_name":"Dolomite","category":25,"distinct_rating":1.71,"distinct_type":"Bottom","rt":null,"stimulus":"Stimuli_Rocks480/S_Dolomite_16.png","response":null,"trial_type":"image-keyboard-response","trial_index":165,"plugin_version":"2.1.0","time_elapsed":571837,"subject_id":"92523","group":"Group2","condition":"3_Rep","full_date":"2026-02-19T18:41:41.208Z","date":"2026-02-19","time":"18:41:41"},{"rt":null,"stimulus":"<p style=\"font-size: 50px; margin: 0; text-align: center;\">+</p>","response":null,"trial_type":"html-keyboard-response","trial_index":166,"plugin_version":"2.1.0","time_elapsed":572852,"subject_id":"92523","group":"Group2","condition":"3_Rep","full_date":"2026-02-19T18:41:41.208Z","date":"2026-02-19","time":"18:41:41"},{"task":"memory_phase","broad_category":"M","image_png":"M_Gneiss_14.png","image_id":206,"category_name":"Gneiss","category":13,"distinct_rating":3.41,"distinct_type":"Bottom","rt":null,"stimulus":"Stimuli_Rocks480/M_Gneiss_14.png","response":null,"trial_type":"image-keyboard-response","trial_index":167,"plugin_version":"2.1.0","time_elapsed":575371,"subject_id":"92523","group":"Group2","condition":"3_Rep","full_date":"2026-02-19T18:41:41.208Z","date":"2026-02-19","time":"18:41:41"},{"rt":null,"stimulus":"<p style=\"font-size: 50px; margin: 0; text-align: center;\">+</p>","response":null,"trial_type":"html-keyboard-response","trial_index":168,"plugin_version":"2.1.0","time_elapsed":576383,"subject_id":"92523","group":"Group2","condition":"3_Rep","full_date":"2026-02-19T18:41:41.208Z","date":"2026-02-19","time":"18:41:41"},{"task":"memory_phase","broad_category":"I","image_png":"I_Andesite_04.png","image_id":4,"category_name":"Andesite","category":1,"distinct_rating":3.18,"distinct_type":"Bottom","rt":null,"stimulus":"Stimuli_Rocks480/I_Andesite_04.png","response":null,"trial_type":"image-keyboard-response","trial_index":169,"plugin_version":"2.1.0","time_elapsed":578904,"subject_id":"92523","group":"Group2","condition":"3_Rep","full_date":"2026-02-19T18:41:41.208Z","date":"2026-02-19","time":"18:41:41"},{"rt":null,"stimulus":"<p style=\"font-size: 50px; margin: 0; text-align: center;\">+</p>","response":null,"trial_type":"html-keyboard-response","trial_index":170,"plugin_version":"2.1.0","time_elapsed":579911,"subject_id":"92523","group":"Group2","condition":"3_Rep","full_date":"2026-02-19T18:41:41.208Z","date":"2026-02-19","time":"18:41:41"},{"task":"memory_phase","broad_category":"M","image_png":"M_Slate_14.png","image_id":318,"category_name":"Slate","category":20,"distinct_rating":2.58,"distinct_type":"Bottom","rt":null,"stimulus":"Stimuli_Rocks480/M_Slate_14.png","response":null,"trial_type":"image-keyboard-response","trial_index":171,"plugin_version":"2.1.0","time_elapsed":582425,"subject_id":"92523","group":"Group2","condition":"3_Rep","full_date":"2026-02-19T18:41:41.208Z","date":"2026-02-19","time":"18:41:41"},{"rt":null,"stimulus":"<p style=\"font-size: 50px; margin: 0; text-align: center;\">+</p>","response":null,"trial_type":"html-keyboard-response","trial_index":172,"plugin_version":"2.1.0","time_elapsed":583437,"subject_id":"92523","group":"Group2","condition":"3_Rep","full_date":"2026-02-19T18:41:41.208Z","date":"2026-02-19","time":"18:41:41"},{"task":"memory_phase","broad_category":"I","image_png":"I_Rhyolite_08.png","image_id":152,"category_name":"Rhyolite","category":10,"distinct_rating":1.38,"distinct_type":"Bottom","rt":null,"stimulus":"Stimuli_Rocks480/I_Rhyolite_08.png","response":null,"trial_type":"image-keyboard-response","trial_index":173,"plugin_version":"2.1.0","time_elapsed":585962,"subject_id":"92523","group":"Group2","condition":"3_Rep","full_date":"2026-02-19T18:41:41.208Z","date":"2026-02-19","time":"18:41:41"},{"rt":null,"stimulus":"<p style=\"font-size: 50px; margin: 0; text-align: center;\">+</p>","response":null,"trial_type":"html-keyboard-response","trial_index":174,"plugin_version":"2.1.0","time_elapsed":586977,"subject_id":"92523","group":"Group2","condition":"3_Rep","full_date":"2026-02-19T18:41:41.208Z","date":"2026-02-19","time":"18:41:41"},{"task":"memory_phase","broad_category":"I","image_png":"I_Gabbro_12.png","image_id":60,"category_name":"Gabbro","category":4,"distinct_rating":2.6,"distinct_type":"Bottom","rt":null,"stimulus":"Stimuli_Rocks480/I_Gabbro_12.png","response":null,"trial_type":"image-keyboard-response","trial_index":175,"plugin_version":"2.1.0","time_elapsed":589499,"subject_id":"92523","group":"Group2","condition":"3_Rep","full_date":"2026-02-19T18:41:41.208Z","date":"2026-02-19","time":"18:41:41"},{"rt":null,"stimulus":"<p style=\"font-size: 50px; margin: 0; text-align: center;\">+</p>","response":null,"trial_type":"html-keyboard-response","trial_index":176,"plugin_version":"2.1.0","time_elapsed":590510,"subject_id":"92523","group":"Group2","condition":"3_Rep","full_date":"2026-02-19T18:41:41.208Z","date":"2026-02-19","time":"18:41:41"},{"task":"memory_phase","broad_category":"I","image_png":"I_Rhyolite_05.png","image_id":149,"category_name":"Rhyolite","category":10,"distinct_rating":3.02,"distinct_type":"Bottom","rt":null,"stimulus":"Stimuli_Rocks480/I_Rhyolite_05.png","response":null,"trial_type":"image-keyboard-response","trial_index":177,"plugin_version":"2.1.0","time_elapsed":593034,"subject_id":"92523","group":"Group2","condition":"3_Rep","full_date":"2026-02-19T18:41:41.208Z","date":"2026-02-19","time":"18:41:41"},{"rt":null,"stimulus":"<p style=\"font-size: 50px; margin: 0; text-align: center;\">+</p>","response":null,"trial_type":"html-keyboard-response","trial_index":178,"plugin_version":"2.1.0","time_elapsed":594038,"subject_id":"92523","group":"Group2","condition":"3_Rep","full_date":"2026-02-19T18:41:41.208Z","date":"2026-02-19","time":"18:41:41"},{"task":"memory_phase","broad_category":"S","image_png":"S_Sandstone_04.png","image_id":452,"category_name":"Sandstone","category":29,"distinct_rating":1.8,"distinct_type":"Bottom","rt":null,"stimulus":"Stimuli_Rocks480/S_Sandstone_04.png","response":null,"trial_type":"image-keyboard-response","trial_index":179,"plugin_version":"2.1.0","time_elapsed":596556,"subject_id":"92523","group":"Group2","condition":"3_Rep","full_date":"2026-02-19T18:41:41.208Z","date":"2026-02-19","time":"18:41:41"},{"rt":null,"stimulus":"<p style=\"font-size: 50px; margin: 0; text-align: center;\">+</p>","response":null,"trial_type":"html-keyboard-response","trial_index":180,"plugin_version":"2.1.0","time_elapsed":597559,"subject_id":"92523","group":"Group2","condition":"3_Rep","full_date":"2026-02-19T18:41:41.208Z","date":"2026-02-19","time":"18:41:41"},{"task":"memory_phase","broad_category":"M","image_png":"M_Slate_10.png","image_id":314,"category_name":"Slate","category":20,"distinct_rating":1.94,"distinct_type":"Bottom","rt":null,"stimulus":"Stimuli_Rocks480/M_Slate_10.png","response":null,"trial_type":"image-keyboard-response","trial_index":181,"plugin_version":"2.1.0","time_elapsed":600072,"subject_id":"92523","group":"Group2","condition":"3_Rep","full_date":"2026-02-19T18:41:41.208Z","date":"2026-02-19","time":"18:41:41"},{"rt":null,"stimulus":"<p style=\"font-size: 50px; margin: 0; text-align: center;\">+</p>","response":null,"trial_type":"html-keyboard-response","trial_index":182,"plugin_version":"2.1.0","time_elapsed":601074,"subject_id":"92523","group":"Group2","condition":"3_Rep","full_date":"2026-02-19T18:41:41.208Z","date":"2026-02-19","time":"18:41:41"},{"task":"memory_phase","broad_category":"S","image_png":"S_Shale_03.png","image_id":467,"category_name":"Shale","category":30,"distinct_rating":1.95,"distinct_type":"Bottom","rt":null,"stimulus":"Stimuli_Rocks480/S_Shale_03.png","response":null,"trial_type":"image-keyboard-response","trial_index":183,"plugin_version":"2.1.0","time_elapsed":603592,"subject_id":"92523","group":"Group2","condition":"3_Rep","full_date":"2026-02-19T18:41:41.208Z","date":"2026-02-19","time":"18:41:41"},{"rt":null,"stimulus":"<p style=\"font-size: 50px; margin: 0; text-align: center;\">+</p>","response":null,"trial_type":"html-keyboard-response","trial_index":184,"plugin_version":"2.1.0","time_elapsed":604596,"subject_id":"92523","group":"Group2","condition":"3_Rep","full_date":"2026-02-19T18:41:41.208Z","date":"2026-02-19","time":"18:41:41"},{"task":"memory_phase","broad_category":"I","image_png":"I_Pegmatite_11.png","image_id":107,"category_name":"Pegmatite","category":7,"distinct_rating":7.11,"distinct_type":"Top","rt":null,"stimulus":"Stimuli_Rocks480/I_Pegmatite_11.png","response":null,"trial_type":"image-keyboard-response","trial_index":185,"plugin_version":"2.1.0","time_elapsed":607129,"subject_id":"92523","group":"Group2","condition":"3_Rep","full_date":"2026-02-19T18:41:41.208Z","date":"2026-02-19","time":"18:41:41"},{"rt":null,"stimulus":"<p style=\"font-size: 50px; margin: 0; text-align: center;\">+</p>","response":null,"trial_type":"html-keyboard-response","trial_index":186,"plugin_version":"2.1.0","time_elapsed":608141,"subject_id":"92523","group":"Group2","condition":"3_Rep","full_date":"2026-02-19T18:41:41.208Z","date":"2026-02-19","time":"18:41:41"},{"task":"memory_phase","broad_category":"S","image_png":"S_Sandstone_08.png","image_id":456,"category_name":"Sandstone","category":29,"distinct_rating":1.5,"distinct_type":"Bottom","rt":null,"stimulus":"Stimuli_Rocks480/S_Sandstone_08.png","response":null,"trial_type":"image-keyboard-response","trial_index":187,"plugin_version":"2.1.0","time_elapsed":610657,"subject_id":"92523","group":"Group2","condition":"3_Rep","full_date":"2026-02-19T18:41:41.208Z","date":"2026-02-19","time":"18:41:41"},{"rt":null,"stimulus":"<p style=\"font-size: 50px; margin: 0; text-align: center;\">+</p>","response":null,"trial_type":"html-keyboard-response","trial_index":188,"plugin_version":"2.1.0","time_elapsed":611667,"subject_id":"92523","group":"Group2","condition":"3_Rep","full_date":"2026-02-19T18:41:41.208Z","date":"2026-02-19","time":"18:41:41"},{"task":"memory_phase","broad_category":"M","image_png":"M_Phyllite_13.png","image_id":269,"category_name":"Phyllite","category":17,"distinct_rating":2.8,"distinct_type":"Bottom","rt":null,"stimulus":"Stimuli_Rocks480/M_Phyllite_13.png","response":null,"trial_type":"image-keyboard-response","trial_index":189,"plugin_version":"2.1.0","time_elapsed":614184,"subject_id":"92523","group":"Group2","condition":"3_Rep","full_date":"2026-02-19T18:41:41.208Z","date":"2026-02-19","time":"18:41:41"},{"rt":null,"stimulus":"<p style=\"font-size: 50px; margin: 0; text-align: center;\">+</p>","response":null,"trial_type":"html-keyboard-response","trial_index":190,"plugin_version":"2.1.0","time_elapsed":615190,"subject_id":"92523","group":"Group2","condition":"3_Rep","full_date":"2026-02-19T18:41:41.208Z","date":"2026-02-19","time":"18:41:41"},{"task":"memory_phase","broad_category":"I","image_png":"I_Diorite_01.png","image_id":33,"category_name":"Diorite","category":3,"distinct_rating":2.97,"distinct_type":"Bottom","rt":null,"stimulus":"Stimuli_Rocks480/I_Diorite_01.png","response":null,"trial_type":"image-keyboard-response","trial_index":191,"plugin_version":"2.1.0","time_elapsed":617707,"subject_id":"92523","group":"Group2","condition":"3_Rep","full_date":"2026-02-19T18:41:41.208Z","date":"2026-02-19","time":"18:41:41"},{"rt":null,"stimulus":"<p style=\"font-size: 50px; margin: 0; text-align: center;\">+</p>","response":null,"trial_type":"html-keyboard-response","trial_index":192,"plugin_version":"2.1.0","time_elapsed":618709,"subject_id":"92523","group":"Group2","condition":"3_Rep","full_date":"2026-02-19T18:41:41.208Z","date":"2026-02-19","time":"18:41:41"},{"task":"memory_phase","broad_category":"I","image_png":"I_Diorite_10.png","image_id":42,"category_name":"Diorite","category":3,"distinct_rating":2.84,"distinct_type":"Bottom","rt":null,"stimulus":"Stimuli_Rocks480/I_Diorite_10.png","response":null,"trial_type":"image-keyboard-response","trial_index":193,"plugin_version":"2.1.0","time_elapsed":621226,"subject_id":"92523","group":"Group2","condition":"3_Rep","full_date":"2026-02-19T18:41:41.208Z","date":"2026-02-19","time":"18:41:41"},{"rt":null,"stimulus":"<p style=\"font-size: 50px; margin: 0; text-align: center;\">+</p>","response":null,"trial_type":"html-keyboard-response","trial_index":194,"plugin_version":"2.1.0","time_elapsed":622230,"subject_id":"92523","group":"Group2","condition":"3_Rep","full_date":"2026-02-19T18:41:41.208Z","date":"2026-02-19","time":"18:41:41"},{"task":"memory_phase","broad_category":"M","image_png":"M_Quartzite_15.png","image_id":287,"category_name":"Quartzite","category":18,"distinct_rating":2.19,"distinct_type":"Bottom","rt":null,"stimulus":"Stimuli_Rocks480/M_Quartzite_15.png","response":null,"trial_type":"image-keyboard-response","trial_index":195,"plugin_version":"2.1.0","time_elapsed":624745,"subject_id":"92523","group":"Group2","condition":"3_Rep","full_date":"2026-02-19T18:41:41.208Z","date":"2026-02-19","time":"18:41:41"},{"rt":null,"stimulus":"<p style=\"font-size: 50px; margin: 0; text-align: center;\">+</p>","response":null,"trial_type":"html-keyboard-response","trial_index":196,"plugin_version":"2.1.0","time_elapsed":625747,"subject_id":"92523","group":"Group2","condition":"3_Rep","full_date":"2026-02-19T18:41:41.208Z","date":"2026-02-19","time":"18:41:41"},{"task":"memory_phase","broad_category":"M","image_png":"M_Gneiss_15.png","image_id":207,"category_name":"Gneiss","category":13,"distinct_rating":3.11,"distinct_type":"Bottom","rt":null,"stimulus":"Stimuli_Rocks480/M_Gneiss_15.png","response":null,"trial_type":"image-keyboard-response","trial_index":197,"plugin_version":"2.1.0","time_elapsed":628264,"subject_id":"92523","group":"Group2","condition":"3_Rep","full_date":"2026-02-19T18:41:41.208Z","date":"2026-02-19","time":"18:41:41"},{"rt":null,"stimulus":"<p style=\"font-size: 50px; margin: 0; text-align: center;\">+</p>","response":null,"trial_type":"html-keyboard-response","trial_index":198,"plugin_version":"2.1.0","time_elapsed":629267,"subject_id":"92523","group":"Group2","condition":"3_Rep","full_date":"2026-02-19T18:41:41.208Z","date":"2026-02-19","time":"18:41:41"},{"task":"memory_phase","broad_category":"I","image_png":"I_Peridotite_13.png","image_id":125,"category_name":"Peridotite","category":8,"distinct_rating":7.28,"distinct_type":"Top","rt":null,"stimulus":"Stimuli_Rocks480/I_Peridotite_13.png","response":null,"trial_type":"image-keyboard-response","trial_index":199,"plugin_version":"2.1.0","time_elapsed":631788,"subject_id":"92523","group":"Group2","condition":"3_Rep","full_date":"2026-02-19T18:41:41.208Z","date":"2026-02-19","time":"18:41:41"},{"rt":null,"stimulus":"<p style=\"font-size: 50px; margin: 0; text-align: center;\">+</p>","response":null,"trial_type":"html-keyboard-response","trial_index":200,"plugin_version":"2.1.0","time_elapsed":632793,"subject_id":"92523","group":"Group2","condition":"3_Rep","full_date":"2026-02-19T18:41:41.208Z","date":"2026-02-19","time":"18:41:41"},{"task":"memory_phase","broad_category":"I","image_png":"I_Pumice_01.png","image_id":129,"category_name":"Pumice","category":9,"distinct_rating":3.25,"distinct_type":"Bottom","rt":null,"stimulus":"Stimuli_Rocks480/I_Pumice_01.png","response":null,"trial_type":"image-keyboard-response","trial_index":201,"plugin_version":"2.1.0","time_elapsed":635309,"subject_id":"92523","group":"Group2","condition":"3_Rep","full_date":"2026-02-19T18:41:41.208Z","date":"2026-02-19","time":"18:41:41"},{"rt":null,"stimulus":"<p style=\"font-size: 50px; margin: 0; text-align: center;\">+</p>","response":null,"trial_type":"html-keyboard-response","trial_index":202,"plugin_version":"2.1.0","time_elapsed":636318,"subject_id":"92523","group":"Group2","condition":"3_Rep","full_date":"2026-02-19T18:41:41.208Z","date":"2026-02-19","time":"18:41:41"},{"task":"memory_phase","broad_category":"M","image_png":"M_Slate_04.png","image_id":308,"category_name":"Slate","category":20,"distinct_rating":2.2,"distinct_type":"Bottom","rt":null,"stimulus":"Stimuli_Rocks480/M_Slate_04.png","response":null,"trial_type":"image-keyboard-response","trial_index":203,"plugin_version":"2.1.0","time_elapsed":638833,"subject_id":"92523","group":"Group2","condition":"3_Rep","full_date":"2026-02-19T18:41:41.208Z","date":"2026-02-19","time":"18:41:41"},{"rt":null,"stimulus":"<p style=\"font-size: 50px; margin: 0; text-align: center;\">+</p>","response":null,"trial_type":"html-keyboard-response","trial_index":204,"plugin_version":"2.1.0","time_elapsed":639841,"subject_id":"92523","group":"Group2","condition":"3_Rep","full_date":"2026-02-19T18:41:41.208Z","date":"2026-02-19","time":"18:41:41"},{"task":"memory_phase","broad_category":"I","image_png":"I_Pumice_13.png","image_id":141,"category_name":"Pumice","category":9,"distinct_rating":3.12,"distinct_type":"Bottom","rt":null,"stimulus":"Stimuli_Rocks480/I_Pumice_13.png","response":null,"trial_type":"image-keyboard-response","trial_index":205,"plugin_version":"2.1.0","time_elapsed":642357,"subject_id":"92523","group":"Group2","condition":"3_Rep","full_date":"2026-02-19T18:41:41.208Z","date":"2026-02-19","time":"18:41:41"},{"rt":null,"stimulus":"<p style=\"font-size: 50px; margin: 0; text-align: center;\">+</p>","response":null,"trial_type":"html-keyboard-response","trial_index":206,"plugin_version":"2.1.0","time_elapsed":643368,"subject_id":"92523","group":"Group2","condition":"3_Rep","full_date":"2026-02-19T18:41:41.208Z","date":"2026-02-19","time":"18:41:41"},{"task":"memory_phase","broad_category":"I","image_png":"I_Basalt_13.png","image_id":29,"category_name":"Basalt","category":2,"distinct_rating":2.68,"distinct_type":"Bottom","rt":null,"stimulus":"Stimuli_Rocks480/I_Basalt_13.png","response":null,"trial_type":"image-keyboard-response","trial_index":207,"plugin_version":"2.1.0","time_elapsed":645888,"subject_id":"92523","group":"Group2","condition":"3_Rep","full_date":"2026-02-19T18:41:41.208Z","date":"2026-02-19","time":"18:41:41"},{"rt":162192,"stimulus":"<p style=\"max-width: 760px; margin: auto; font-size: 35px; line-height: 1.5;\">\n                You have completed 2 study phases. \n                Now, we'll show you all the images again 1 more time.\n                <br><br>Press SPACE to continue\n              </p>","response":" ","trial_type":"html-keyboard-response","trial_index":208,"plugin_version":"2.1.0","time_elapsed":808080,"subject_id":"92523","group":"Group2","condition":"3_Rep","full_date":"2026-02-19T18:41:41.208Z","date":"2026-02-19","time":"18:41:41"},{"rt":null,"stimulus":"<p style=\"font-size: 50px; margin: 0; text-align: center;\">+</p>","response":null,"trial_type":"html-keyboard-response","trial_index":209,"plugin_version":"2.1.0","time_elapsed":809088,"subject_id":"92523","group":"Group2","condition":"3_Rep","full_date":"2026-02-19T18:41:41.208Z","date":"2026-02-19","time":"18:41:41"},{"task":"memory_phase","broad_category":"I","image_png":"I_Pegmatite_11.png","image_id":107,"category_name":"Pegmatite","category":7,"distinct_rating":7.11,"distinct_type":"Top","rt":null,"stimulus":"Stimuli_Rocks480/I_Pegmatite_11.png","response":null,"trial_type":"image-keyboard-response","trial_index":210,"plugin_version":"2.1.0","time_elapsed":811863,"subject_id":"92523","group":"Group2","condition":"3_Rep","full_date":"2026-02-19T18:41:41.208Z","date":"2026-02-19","time":"18:41:41"},{"rt":null,"stimulus":"<p style=\"font-size: 50px; margin: 0; text-align: center;\">+</p>","response":null,"trial_type":"html-keyboard-response","trial_index":211,"plugin_version":"2.1.0","time_elapsed":812879,"subject_id":"92523","group":"Group2","condition":"3_Rep","full_date":"2026-02-19T18:41:41.208Z","date":"2026-02-19","time":"18:41:41"},{"task":"memory_phase","broad_category":"I","image_png":"I_Obsidian_06.png","image_id":86,"category_name":"Obsidian","category":6,"distinct_rating":8.01,"distinct_type":"Top","rt":null,"stimulus":"Stimuli_Rocks480/I_Obsidian_06.png","response":null,"trial_type":"image-keyboard-response","trial_index":212,"plugin_version":"2.1.0","time_elapsed":815397,"subject_id":"92523","group":"Group2","condition":"3_Rep","full_date":"2026-02-19T18:41:41.208Z","date":"2026-02-19","time":"18:41:41"},{"rt":null,"stimulus":"<p style=\"font-size: 50px; margin: 0; text-align: center;\">+</p>","response":null,"trial_type":"html-keyboard-response","trial_index":213,"plugin_version":"2.1.0","time_elapsed":816410,"subject_id":"92523","group":"Group2","condition":"3_Rep","full_date":"2026-02-19T18:41:41.208Z","date":"2026-02-19","time":"18:41:41"},{"task":"memory_phase","broad_category":"S","image_png":"S_Shale_02.png","image_id":466,"category_name":"Shale","category":30,"distinct_rating":2.9,"distinct_type":"Bottom","rt":null,"stimulus":"Stimuli_Rocks480/S_Shale_02.png","response":null,"trial_type":"image-keyboard-response","trial_index":214,"plugin_version":"2.1.0","time_elapsed":818923,"subject_id":"92523","group":"Group2","condition":"3_Rep","full_date":"2026-02-19T18:41:41.208Z","date":"2026-02-19","time":"18:41:41"},{"rt":null,"stimulus":"<p style=\"font-size: 50px; margin: 0; text-align: center;\">+</p>","response":null,"trial_type":"html-keyboard-response","trial_index":215,"plugin_version":"2.1.0","time_elapsed":819936,"subject_id":"92523","group":"Group2","condition":"3_Rep","full_date":"2026-02-19T18:41:41.208Z","date":"2026-02-19","time":"18:41:41"},{"task":"memory_phase","broad_category":"M","image_png":"M_Phyllite_05.png","image_id":261,"category_name":"Phyllite","category":17,"distinct_rating":2.14,"distinct_type":"Bottom","rt":null,"stimulus":"Stimuli_Rocks480/M_Phyllite_05.png","response":null,"trial_type":"image-keyboard-response","trial_index":216,"plugin_version":"2.1.0","time_elapsed":822487,"subject_id":"92523","group":"Group2","condition":"3_Rep","full_date":"2026-02-19T18:41:41.208Z","date":"2026-02-19","time":"18:41:41"},{"rt":null,"stimulus":"<p style=\"font-size: 50px; margin: 0; text-align: center;\">+</p>","response":null,"trial_type":"html-keyboard-response","trial_index":217,"plugin_version":"2.1.0","time_elapsed":823499,"subject_id":"92523","group":"Group2","condition":"3_Rep","full_date":"2026-02-19T18:41:41.208Z","date":"2026-02-19","time":"18:41:41"},{"task":"memory_phase","broad_category":"S","image_png":"S_Chert_13.png","image_id":365,"category_name":"Chert","category":23,"distinct_rating":6.57,"distinct_type":"Top","rt":null,"stimulus":"Stimuli_Rocks480/S_Chert_13.png","response":null,"trial_type":"image-keyboard-response","trial_index":218,"plugin_version":"2.1.0","time_elapsed":826017,"subject_id":"92523","group":"Group2","condition":"3_Rep","full_date":"2026-02-19T18:41:41.208Z","date":"2026-02-19","time":"18:41:41"},{"rt":null,"stimulus":"<p style=\"font-size: 50px; margin: 0; text-align: center;\">+</p>","response":null,"trial_type":"html-keyboard-response","trial_index":219,"plugin_version":"2.1.0","time_elapsed":827023,"subject_id":"92523","group":"Group2","condition":"3_Rep","full_date":"2026-02-19T18:41:41.208Z","date":"2026-02-19","time":"18:41:41"},{"task":"memory_phase","broad_category":"I","image_png":"I_Andesite_03.png","image_id":3,"category_name":"Andesite","category":1,"distinct_rating":3.17,"distinct_type":"Bottom","rt":null,"stimulus":"Stimuli_Rocks480/I_Andesite_03.png","response":null,"trial_type":"image-keyboard-response","trial_index":220,"plugin_version":"2.1.0","time_elapsed":829541,"subject_id":"92523","group":"Group2","condition":"3_Rep","full_date":"2026-02-19T18:41:41.208Z","date":"2026-02-19","time":"18:41:41"},{"rt":null,"stimulus":"<p style=\"font-size: 50px; margin: 0; text-align: center;\">+</p>","response":null,"trial_type":"html-keyboard-response","trial_index":221,"plugin_version":"2.1.0","time_elapsed":830552,"subject_id":"92523","group":"Group2","condition":"3_Rep","full_date":"2026-02-19T18:41:41.208Z","date":"2026-02-19","time":"18:41:41"},{"task":"memory_phase","broad_category":"S","image_png":"S_Shale_03.png","image_id":467,"category_name":"Shale","category":30,"distinct_rating":1.95,"distinct_type":"Bottom","rt":null,"stimulus":"Stimuli_Rocks480/S_Shale_03.png","response":null,"trial_type":"image-keyboard-response","trial_index":222,"plugin_version":"2.1.0","time_elapsed":833081,"subject_id":"92523","group":"Group2","condition":"3_Rep","full_date":"2026-02-19T18:41:41.208Z","date":"2026-02-19","time":"18:41:41"},{"rt":null,"stimulus":"<p style=\"font-size: 50px; margin: 0; text-align: center;\">+</p>","response":null,"trial_type":"html-keyboard-response","trial_index":223,"plugin_version":"2.1.0","time_elapsed":834090,"subject_id":"92523","group":"Group2","condition":"3_Rep","full_date":"2026-02-19T18:41:41.208Z","date":"2026-02-19","time":"18:41:41"},{"task":"memory_phase","broad_category":"I","image_png":"I_Peridotite_13.png","image_id":125,"category_name":"Peridotite","category":8,"distinct_rating":7.28,"distinct_type":"Top","rt":null,"stimulus":"Stimuli_Rocks480/I_Peridotite_13.png","response":null,"trial_type":"image-keyboard-response","trial_index":224,"plugin_version":"2.1.0","time_elapsed":836607,"subject_id":"92523","group":"Group2","condition":"3_Rep","full_date":"2026-02-19T18:41:41.208Z","date":"2026-02-19","time":"18:41:41"},{"rt":null,"stimulus":"<p style=\"font-size: 50px; margin: 0; text-align: center;\">+</p>","response":null,"trial_type":"html-keyboard-response","trial_index":225,"plugin_version":"2.1.0","time_elapsed":837610,"subject_id":"92523","group":"Group2","condition":"3_Rep","full_date":"2026-02-19T18:41:41.208Z","date":"2026-02-19","time":"18:41:41"},{"task":"memory_phase","broad_category":"M","image_png":"M_Marble_14.png","image_id":238,"category_name":"Marble","category":15,"distinct_rating":3.31,"distinct_type":"Bottom","rt":null,"stimulus":"Stimuli_Rocks480/M_Marble_14.png","response":null,"trial_type":"image-keyboard-response","trial_index":226,"plugin_version":"2.1.0","time_elapsed":840128,"subject_id":"92523","group":"Group2","condition":"3_Rep","full_date":"2026-02-19T18:41:41.208Z","date":"2026-02-19","time":"18:41:41"},{"rt":null,"stimulus":"<p style=\"font-size: 50px; margin: 0; text-align: center;\">+</p>","response":null,"trial_type":"html-keyboard-response","trial_index":227,"plugin_version":"2.1.0","time_elapsed":841131,"subject_id":"92523","group":"Group2","condition":"3_Rep","full_date":"2026-02-19T18:41:41.208Z","date":"2026-02-19","time":"18:41:41"},{"task":"memory_phase","broad_category":"I","image_png":"I_Andesite_04.png","image_id":4,"category_name":"Andesite","category":1,"distinct_rating":3.18,"distinct_type":"Bottom","rt":null,"stimulus":"Stimuli_Rocks480/I_Andesite_04.png","response":null,"trial_type":"image-keyboard-response","trial_index":228,"plugin_version":"2.1.0","time_elapsed":843650,"subject_id":"92523","group":"Group2","condition":"3_Rep","full_date":"2026-02-19T18:41:41.208Z","date":"2026-02-19","time":"18:41:41"},{"rt":null,"stimulus":"<p style=\"font-size: 50px; margin: 0; text-align: center;\">+</p>","response":null,"trial_type":"html-keyboard-response","trial_index":229,"plugin_version":"2.1.0","time_elapsed":844653,"subject_id":"92523","group":"Group2","condition":"3_Rep","full_date":"2026-02-19T18:41:41.208Z","date":"2026-02-19","time":"18:41:41"},{"task":"memory_phase","broad_category":"S","image_png":"S_Sandstone_08.png","image_id":456,"category_name":"Sandstone","category":29,"distinct_rating":1.5,"distinct_type":"Bottom","rt":null,"stimulus":"Stimuli_Rocks480/S_Sandstone_08.png","response":null,"trial_type":"image-keyboard-response","trial_index":230,"plugin_version":"2.1.0","time_elapsed":847172,"subject_id":"92523","group":"Group2","condition":"3_Rep","full_date":"2026-02-19T18:41:41.208Z","date":"2026-02-19","time":"18:41:41"},{"rt":null,"stimulus":"<p style=\"font-size: 50px; margin: 0; text-align: center;\">+</p>","response":null,"trial_type":"html-keyboard-response","trial_index":231,"plugin_version":"2.1.0","time_elapsed":848174,"subject_id":"92523","group":"Group2","condition":"3_Rep","full_date":"2026-02-19T18:41:41.208Z","date":"2026-02-19","time":"18:41:41"},{"task":"memory_phase","broad_category":"M","image_png":"M_Quartzite_15.png","image_id":287,"category_name":"Quartzite","category":18,"distinct_rating":2.19,"distinct_type":"Bottom","rt":null,"stimulus":"Stimuli_Rocks480/M_Quartzite_15.png","response":null,"trial_type":"image-keyboard-response","trial_index":232,"plugin_version":"2.1.0","time_elapsed":850699,"subject_id":"92523","group":"Group2","condition":"3_Rep","full_date":"2026-02-19T18:41:41.208Z","date":"2026-02-19","time":"18:41:41"},{"rt":null,"stimulus":"<p style=\"font-size: 50px; margin: 0; text-align: center;\">+</p>","response":null,"trial_type":"html-keyboard-response","trial_index":233,"plugin_version":"2.1.0","time_elapsed":851706,"subject_id":"92523","group":"Group2","condition":"3_Rep","full_date":"2026-02-19T18:41:41.208Z","date":"2026-02-19","time":"18:41:41"},{"task":"memory_phase","broad_category":"S","image_png":"S_Dolomite_01.png","image_id":385,"category_name":"Dolomite","category":25,"distinct_rating":1.43,"distinct_type":"Bottom","rt":null,"stimulus":"Stimuli_Rocks480/S_Dolomite_01.png","response":null,"trial_type":"image-keyboard-response","trial_index":234,"plugin_version":"2.1.0","time_elapsed":854230,"subject_id":"92523","group":"Group2","condition":"3_Rep","full_date":"2026-02-19T18:41:41.208Z","date":"2026-02-19","time":"18:41:41"},{"rt":null,"stimulus":"<p style=\"font-size: 50px; margin: 0; text-align: center;\">+</p>","response":null,"trial_type":"html-keyboard-response","trial_index":235,"plugin_version":"2.1.0","time_elapsed":855244,"subject_id":"92523","group":"Group2","condition":"3_Rep","full_date":"2026-02-19T18:41:41.208Z","date":"2026-02-19","time":"18:41:41"},{"task":"memory_phase","broad_category":"I","image_png":"I_Pegmatite_03.png","image_id":99,"category_name":"Pegmatite","category":7,"distinct_rating":7.24,"distinct_type":"Top"