[{"width":1710,"height":989,"webaudio":true,"browser":"safari","browser_version":"18.5.0","mobile":false,"os":"Mac OS","fullscreen":true,"vsync_rate":59.23,"webcam":true,"microphone":true,"trial_type":"browser-check","trial_index":0,"plugin_version":"2.1.0","time_elapsed":1019,"subject_id":"90950","group":"Group2","condition":"3_Rep","full_date":"2026-02-05T18:24:37.056Z","date":"2026-02-05","time":"18:24:37"},{"success":true,"timeout":false,"failed_images":[],"failed_audio":[],"failed_video":[],"trial_type":"preload","trial_index":1,"plugin_version":"2.1.0","time_elapsed":8694,"subject_id":"90950","group":"Group2","condition":"3_Rep","full_date":"2026-02-05T18:24:37.056Z","date":"2026-02-05","time":"18:24:37"},{"rt":13270,"url":"SONA_consent_memorability.html","trial_type":"external-html","trial_index":2,"plugin_version":"2.1.0","time_elapsed":22020,"subject_id":"90950","group":"Group2","condition":"3_Rep","full_date":"2026-02-05T18:24:37.056Z","date":"2026-02-05","time":"18:24:37"},{"success":true,"rt":1434,"trial_type":"fullscreen","trial_index":3,"plugin_version":"2.1.0","time_elapsed":24458,"subject_id":"90950","group":"Group2","condition":"3_Rep","full_date":"2026-02-05T18:24:37.056Z","date":"2026-02-05","time":"18:24:37"},{"rt":1392,"stimulus":"<div style=\"max-width: 760px; margin: auto; font-size: 20px; line-height: 1.5;\">\n      <h1 style=\"text-align:center; font-size: 30px;\">Instructions</h1>\n      <p>\n        Welcome to the study on <b>visual memory</b>. This experiment consists of <b>two phases</b>: \n        a <b>study phase</b> and a <b>test phase</b>.\n      </p>\n      <p>\n        In the study phase, you will see a series of rock images along with their category labels.\n        The images will appear one at a time.\n        <b>Your task</b> is to learn the categories to which the rock images belong \n        and to remember each image as accurately as possible.\n      </p> \n      <p>\n        Note that we will repeat the study phase <b>3 times</b>, \n             so you will have multiple opportunities to see and remember each image.\n      </p>\n      <p>\n        After the study phase, <b>your memory will be tested</b>. \n        Additional instructions for the test phase will be provided at that time.\n      </p>\n      <p>\n        If your computer has multiple <b>language settings</b> (e.g., English and another language),\n        please make sure it is set to English before starting.\n      </p>\n      <p>\n        You can track your progress using the <b>completion bar</b> at the top of the screen. \n        Please note that the bar will refresh when the test phase begins \n        to give you an accurate sense of your progress in both phases.\n      </p> \n      <p>\n        Press the button below when you are ready to begin.\n      </p>\n    </div>","response":0,"trial_type":"html-button-response","trial_index":4,"plugin_version":"2.1.0","time_elapsed":25854,"subject_id":"90950","group":"Group2","condition":"3_Rep","full_date":"2026-02-05T18:24:37.056Z","date":"2026-02-05","time":"18:24:37"},{"rt":null,"stimulus":"<p style=\"font-size: 50px; margin: 0; text-align: center;\">+</p>","response":null,"trial_type":"html-keyboard-response","trial_index":5,"plugin_version":"2.1.0","time_elapsed":26858,"subject_id":"90950","group":"Group2","condition":"3_Rep","full_date":"2026-02-05T18:24:37.056Z","date":"2026-02-05","time":"18:24:37"},{"task":"memory_phase","broad_category":"M","image_png":"M_Marble_02.png","image_id":226,"category_name":"Marble","category":15,"distinct_rating":3.2,"distinct_type":"Bottom","rt":null,"stimulus":"Stimuli_Rocks480/M_Marble_02.png","response":null,"trial_type":"image-keyboard-response","trial_index":6,"plugin_version":"2.1.0","time_elapsed":29375,"subject_id":"90950","group":"Group2","condition":"3_Rep","full_date":"2026-02-05T18:24:37.056Z","date":"2026-02-05","time":"18:24:37"},{"rt":null,"stimulus":"<p style=\"font-size: 50px; margin: 0; text-align: center;\">+</p>","response":null,"trial_type":"html-keyboard-response","trial_index":7,"plugin_version":"2.1.0","time_elapsed":30378,"subject_id":"90950","group":"Group2","condition":"3_Rep","full_date":"2026-02-05T18:24:37.056Z","date":"2026-02-05","time":"18:24:37"},{"task":"memory_phase","broad_category":"S","image_png":"S_Dolomite_16.png","image_id":400,"category_name":"Dolomite","category":25,"distinct_rating":1.71,"distinct_type":"Bottom","rt":null,"stimulus":"Stimuli_Rocks480/S_Dolomite_16.png","response":null,"trial_type":"image-keyboard-response","trial_index":8,"plugin_version":"2.1.0","time_elapsed":32893,"subject_id":"90950","group":"Group2","condition":"3_Rep","full_date":"2026-02-05T18:24:37.056Z","date":"2026-02-05","time":"18:24:37"},{"rt":null,"stimulus":"<p style=\"font-size: 50px; margin: 0; text-align: center;\">+</p>","response":null,"trial_type":"html-keyboard-response","trial_index":9,"plugin_version":"2.1.0","time_elapsed":33895,"subject_id":"90950","group":"Group2","condition":"3_Rep","full_date":"2026-02-05T18:24:37.056Z","date":"2026-02-05","time":"18:24:37"},{"task":"memory_phase","broad_category":"I","image_png":"I_Peridotite_13.png","image_id":125,"category_name":"Peridotite","category":8,"distinct_rating":7.28,"distinct_type":"Top","rt":null,"stimulus":"Stimuli_Rocks480/I_Peridotite_13.png","response":null,"trial_type":"image-keyboard-response","trial_index":10,"plugin_version":"2.1.0","time_elapsed":36413,"subject_id":"90950","group":"Group2","condition":"3_Rep","full_date":"2026-02-05T18:24:37.056Z","date":"2026-02-05","time":"18:24:37"},{"rt":null,"stimulus":"<p style=\"font-size: 50px; margin: 0; text-align: center;\">+</p>","response":null,"trial_type":"html-keyboard-response","trial_index":11,"plugin_version":"2.1.0","time_elapsed":37416,"subject_id":"90950","group":"Group2","condition":"3_Rep","full_date":"2026-02-05T18:24:37.056Z","date":"2026-02-05","time":"18:24:37"},{"task":"memory_phase","broad_category":"I","image_png":"I_Gabbro_14.png","image_id":62,"category_name":"Gabbro","category":4,"distinct_rating":2.95,"distinct_type":"Bottom","rt":null,"stimulus":"Stimuli_Rocks480/I_Gabbro_14.png","response":null,"trial_type":"image-keyboard-response","trial_index":12,"plugin_version":"2.1.0","time_elapsed":39934,"subject_id":"90950","group":"Group2","condition":"3_Rep","full_date":"2026-02-05T18:24:37.056Z","date":"2026-02-05","time":"18:24:37"},{"rt":null,"stimulus":"<p style=\"font-size: 50px; margin: 0; text-align: center;\">+</p>","response":null,"trial_type":"html-keyboard-response","trial_index":13,"plugin_version":"2.1.0","time_elapsed":40937,"subject_id":"90950","group":"Group2","condition":"3_Rep","full_date":"2026-02-05T18:24:37.056Z","date":"2026-02-05","time":"18:24:37"},{"task":"memory_phase","broad_category":"M","image_png":"M_Phyllite_02.png","image_id":258,"category_name":"Phyllite","category":17,"distinct_rating":2.89,"distinct_type":"Bottom","rt":null,"stimulus":"Stimuli_Rocks480/M_Phyllite_02.png","response":null,"trial_type":"image-keyboard-response","trial_index":14,"plugin_version":"2.1.0","time_elapsed":43453,"subject_id":"90950","group":"Group2","condition":"3_Rep","full_date":"2026-02-05T18:24:37.056Z","date":"2026-02-05","time":"18:24:37"},{"rt":null,"stimulus":"<p style=\"font-size: 50px; margin: 0; text-align: center;\">+</p>","response":null,"trial_type":"html-keyboard-response","trial_index":15,"plugin_version":"2.1.0","time_elapsed":44456,"subject_id":"90950","group":"Group2","condition":"3_Rep","full_date":"2026-02-05T18:24:37.056Z","date":"2026-02-05","time":"18:24:37"},{"task":"memory_phase","broad_category":"I","image_png":"I_Diorite_10.png","image_id":42,"category_name":"Diorite","category":3,"distinct_rating":2.84,"distinct_type":"Bottom","rt":null,"stimulus":"Stimuli_Rocks480/I_Diorite_10.png","response":null,"trial_type":"image-keyboard-response","trial_index":16,"plugin_version":"2.1.0","time_elapsed":46971,"subject_id":"90950","group":"Group2","condition":"3_Rep","full_date":"2026-02-05T18:24:37.056Z","date":"2026-02-05","time":"18:24:37"},{"rt":null,"stimulus":"<p style=\"font-size: 50px; margin: 0; text-align: center;\">+</p>","response":null,"trial_type":"html-keyboard-response","trial_index":17,"plugin_version":"2.1.0","time_elapsed":47974,"subject_id":"90950","group":"Group2","condition":"3_Rep","full_date":"2026-02-05T18:24:37.056Z","date":"2026-02-05","time":"18:24:37"},{"task":"memory_phase","broad_category":"S","image_png":"S_Sandstone_11.png","image_id":459,"category_name":"Sandstone","category":29,"distinct_rating":1.82,"distinct_type":"Bottom","rt":null,"stimulus":"Stimuli_Rocks480/S_Sandstone_11.png","response":null,"trial_type":"image-keyboard-response","trial_index":18,"plugin_version":"2.1.0","time_elapsed":50494,"subject_id":"90950","group":"Group2","condition":"3_Rep","full_date":"2026-02-05T18:24:37.056Z","date":"2026-02-05","time":"18:24:37"},{"rt":null,"stimulus":"<p style=\"font-size: 50px; margin: 0; text-align: center;\">+</p>","response":null,"trial_type":"html-keyboard-response","trial_index":19,"plugin_version":"2.1.0","time_elapsed":51496,"subject_id":"90950","group":"Group2","condition":"3_Rep","full_date":"2026-02-05T18:24:37.056Z","date":"2026-02-05","time":"18:24:37"},{"task":"memory_phase","broad_category":"M","image_png":"M_Slate_04.png","image_id":308,"category_name":"Slate","category":20,"distinct_rating":2.2,"distinct_type":"Bottom","rt":null,"stimulus":"Stimuli_Rocks480/M_Slate_04.png","response":null,"trial_type":"image-keyboard-response","trial_index":20,"plugin_version":"2.1.0","time_elapsed":54011,"subject_id":"90950","group":"Group2","condition":"3_Rep","full_date":"2026-02-05T18:24:37.056Z","date":"2026-02-05","time":"18:24:37"},{"rt":null,"stimulus":"<p style=\"font-size: 50px; margin: 0; text-align: center;\">+</p>","response":null,"trial_type":"html-keyboard-response","trial_index":21,"plugin_version":"2.1.0","time_elapsed":55014,"subject_id":"90950","group":"Group2","condition":"3_Rep","full_date":"2026-02-05T18:24:37.056Z","date":"2026-02-05","time":"18:24:37"},{"task":"memory_phase","broad_category":"M","image_png":"M_Gneiss_10.png","image_id":202,"category_name":"Gneiss","category":13,"distinct_rating":3.09,"distinct_type":"Bottom","rt":null,"stimulus":"Stimuli_Rocks480/M_Gneiss_10.png","response":null,"trial_type":"image-keyboard-response","trial_index":22,"plugin_version":"2.1.0","time_elapsed":57531,"subject_id":"90950","group":"Group2","condition":"3_Rep","full_date":"2026-02-05T18:24:37.056Z","date":"2026-02-05","time":"18:24:37"},{"rt":null,"stimulus":"<p style=\"font-size: 50px; margin: 0; text-align: center;\">+</p>","response":null,"trial_type":"html-keyboard-response","trial_index":23,"plugin_version":"2.1.0","time_elapsed":58533,"subject_id":"90950","group":"Group2","condition":"3_Rep","full_date":"2026-02-05T18:24:37.056Z","date":"2026-02-05","time":"18:24:37"},{"task":"memory_phase","broad_category":"S","image_png":"S_Conglomerate_14.png","image_id":382,"category_name":"Conglomerate","category":24,"distinct_rating":6.86,"distinct_type":"Top","rt":null,"stimulus":"Stimuli_Rocks480/S_Conglomerate_14.png","response":null,"trial_type":"image-keyboard-response","trial_index":24,"plugin_version":"2.1.0","time_elapsed":61048,"subject_id":"90950","group":"Group2","condition":"3_Rep","full_date":"2026-02-05T18:24:37.056Z","date":"2026-02-05","time":"18:24:37"},{"rt":null,"stimulus":"<p style=\"font-size: 50px; margin: 0; text-align: center;\">+</p>","response":null,"trial_type":"html-keyboard-response","trial_index":25,"plugin_version":"2.1.0","time_elapsed":62051,"subject_id":"90950","group":"Group2","condition":"3_Rep","full_date":"2026-02-05T18:24:37.056Z","date":"2026-02-05","time":"18:24:37"},{"task":"memory_phase","broad_category":"I","image_png":"I_Rhyolite_10.png","image_id":154,"category_name":"Rhyolite","category":10,"distinct_rating":2.88,"distinct_type":"Bottom","rt":null,"stimulus":"Stimuli_Rocks480/I_Rhyolite_10.png","response":null,"trial_type":"image-keyboard-response","trial_index":26,"plugin_version":"2.1.0","time_elapsed":64571,"subject_id":"90950","group":"Group2","condition":"3_Rep","full_date":"2026-02-05T18:24:37.056Z","date":"2026-02-05","time":"18:24:37"},{"rt":null,"stimulus":"<p style=\"font-size: 50px; margin: 0; text-align: center;\">+</p>","response":null,"trial_type":"html-keyboard-response","trial_index":27,"plugin_version":"2.1.0","time_elapsed":65573,"subject_id":"90950","group":"Group2","condition":"3_Rep","full_date":"2026-02-05T18:24:37.056Z","date":"2026-02-05","time":"18:24:37"},{"task":"memory_phase","broad_category":"S","image_png":"S_Sandstone_08.png","image_id":456,"category_name":"Sandstone","category":29,"distinct_rating":1.5,"distinct_type":"Bottom","rt":null,"stimulus":"Stimuli_Rocks480/S_Sandstone_08.png","response":null,"trial_type":"image-keyboard-response","trial_index":28,"plugin_version":"2.1.0","time_elapsed":68089,"subject_id":"90950","group":"Group2","condition":"3_Rep","full_date":"2026-02-05T18:24:37.056Z","date":"2026-02-05","time":"18:24:37"},{"rt":null,"stimulus":"<p style=\"font-size: 50px; margin: 0; text-align: center;\">+</p>","response":null,"trial_type":"html-keyboard-response","trial_index":29,"plugin_version":"2.1.0","time_elapsed":69092,"subject_id":"90950","group":"Group2","condition":"3_Rep","full_date":"2026-02-05T18:24:37.056Z","date":"2026-02-05","time":"18:24:37"},{"task":"memory_phase","broad_category":"I","image_png":"I_Andesite_03.png","image_id":3,"category_name":"Andesite","category":1,"distinct_rating":3.17,"distinct_type":"Bottom","rt":null,"stimulus":"Stimuli_Rocks480/I_Andesite_03.png","response":null,"trial_type":"image-keyboard-response","trial_index":30,"plugin_version":"2.1.0","time_elapsed":71606,"subject_id":"90950","group":"Group2","condition":"3_Rep","full_date":"2026-02-05T18:24:37.056Z","date":"2026-02-05","time":"18:24:37"},{"rt":null,"stimulus":"<p style=\"font-size: 50px; margin: 0; text-align: center;\">+</p>","response":null,"trial_type":"html-keyboard-response","trial_index":31,"plugin_version":"2.1.0","time_elapsed":72608,"subject_id":"90950","group":"Group2","condition":"3_Rep","full_date":"2026-02-05T18:24:37.056Z","date":"2026-02-05","time":"18:24:37"},{"task":"memory_phase","broad_category":"I","image_png":"I_Diorite_01.png","image_id":33,"category_name":"Diorite","category":3,"distinct_rating":2.97,"distinct_type":"Bottom","rt":null,"stimulus":"Stimuli_Rocks480/I_Diorite_01.png","response":null,"trial_type":"image-keyboard-response","trial_index":32,"plugin_version":"2.1.0","time_elapsed":75127,"subject_id":"90950","group":"Group2","condition":"3_Rep","full_date":"2026-02-05T18:24:37.056Z","date":"2026-02-05","time":"18:24:37"},{"rt":null,"stimulus":"<p style=\"font-size: 50px; margin: 0; text-align: center;\">+</p>","response":null,"trial_type":"html-keyboard-response","trial_index":33,"plugin_version":"2.1.0","time_elapsed":76130,"subject_id":"90950","group":"Group2","condition":"3_Rep","full_date":"2026-02-05T18:24:37.056Z","date":"2026-02-05","time":"18:24:37"},{"task":"memory_phase","broad_category":"I","image_png":"I_Basalt_10.png","image_id":26,"category_name":"Basalt","category":2,"distinct_rating":2.76,"distinct_type":"Bottom","rt":null,"stimulus":"Stimuli_Rocks480/I_Basalt_10.png","response":null,"trial_type":"image-keyboard-response","trial_index":34,"plugin_version":"2.1.0","time_elapsed":78646,"subject_id":"90950","group":"Group2","condition":"3_Rep","full_date":"2026-02-05T18:24:37.056Z","date":"2026-02-05","time":"18:24:37"},{"rt":null,"stimulus":"<p style=\"font-size: 50px; margin: 0; text-align: center;\">+</p>","response":null,"trial_type":"html-keyboard-response","trial_index":35,"plugin_version":"2.1.0","time_elapsed":79649,"subject_id":"90950","group":"Group2","condition":"3_Rep","full_date":"2026-02-05T18:24:37.056Z","date":"2026-02-05","time":"18:24:37"},{"task":"memory_phase","broad_category":"M","image_png":"M_Gneiss_14.png","image_id":206,"category_name":"Gneiss","category":13,"distinct_rating":3.41,"distinct_type":"Bottom","rt":null,"stimulus":"Stimuli_Rocks480/M_Gneiss_14.png","response":null,"trial_type":"image-keyboard-response","trial_index":36,"plugin_version":"2.1.0","time_elapsed":82164,"subject_id":"90950","group":"Group2","condition":"3_Rep","full_date":"2026-02-05T18:24:37.056Z","date":"2026-02-05","time":"18:24:37"},{"rt":null,"stimulus":"<p style=\"font-size: 50px; margin: 0; text-align: center;\">+</p>","response":null,"trial_type":"html-keyboard-response","trial_index":37,"plugin_version":"2.1.0","time_elapsed":83166,"subject_id":"90950","group":"Group2","condition":"3_Rep","full_date":"2026-02-05T18:24:37.056Z","date":"2026-02-05","time":"18:24:37"},{"task":"memory_phase","broad_category":"I","image_png":"I_Pumice_14.png","image_id":142,"category_name":"Pumice","category":9,"distinct_rating":3.22,"distinct_type":"Bottom","rt":null,"stimulus":"Stimuli_Rocks480/I_Pumice_14.png","response":null,"trial_type":"image-keyboard-response","trial_index":38,"plugin_version":"2.1.0","time_elapsed":85682,"subject_id":"90950","group":"Group2","condition":"3_Rep","full_date":"2026-02-05T18:24:37.056Z","date":"2026-02-05","time":"18:24:37"},{"rt":null,"stimulus":"<p style=\"font-size: 50px; margin: 0; text-align: center;\">+</p>","response":null,"trial_type":"html-keyboard-response","trial_index":39,"plugin_version":"2.1.0","time_elapsed":86685,"subject_id":"90950","group":"Group2","condition":"3_Rep","full_date":"2026-02-05T18:24:37.056Z","date":"2026-02-05","time":"18:24:37"},{"task":"memory_phase","broad_category":"M","image_png":"M_Marble_14.png","image_id":238,"category_name":"Marble","category":15,"distinct_rating":3.31,"distinct_type":"Bottom","rt":null,"stimulus":"Stimuli_Rocks480/M_Marble_14.png","response":null,"trial_type":"image-keyboard-response","trial_index":40,"plugin_version":"2.1.0","time_elapsed":89201,"subject_id":"90950","group":"Group2","condition":"3_Rep","full_date":"2026-02-05T18:24:37.056Z","date":"2026-02-05","time":"18:24:37"},{"rt":null,"stimulus":"<p style=\"font-size: 50px; margin: 0; text-align: center;\">+</p>","response":null,"trial_type":"html-keyboard-response","trial_index":41,"plugin_version":"2.1.0","time_elapsed":90203,"subject_id":"90950","group":"Group2","condition":"3_Rep","full_date":"2026-02-05T18:24:37.056Z","date":"2026-02-05","time":"18:24:37"},{"task":"memory_phase","broad_category":"M","image_png":"M_Slate_14.png","image_id":318,"category_name":"Slate","category":20,"distinct_rating":2.58,"distinct_type":"Bottom","rt":null,"stimulus":"Stimuli_Rocks480/M_Slate_14.png","response":null,"trial_type":"image-keyboard-response","trial_index":42,"plugin_version":"2.1.0","time_elapsed":92718,"subject_id":"90950","group":"Group2","condition":"3_Rep","full_date":"2026-02-05T18:24:37.056Z","date":"2026-02-05","time":"18:24:37"},{"rt":null,"stimulus":"<p style=\"font-size: 50px; margin: 0; text-align: center;\">+</p>","response":null,"trial_type":"html-keyboard-response","trial_index":43,"plugin_version":"2.1.0","time_elapsed":93720,"subject_id":"90950","group":"Group2","condition":"3_Rep","full_date":"2026-02-05T18:24:37.056Z","date":"2026-02-05","time":"18:24:37"},{"task":"memory_phase","broad_category":"S","image_png":"S_Dolomite_07.png","image_id":391,"category_name":"Dolomite","category":25,"distinct_rating":1.73,"distinct_type":"Bottom","rt":null,"stimulus":"Stimuli_Rocks480/S_Dolomite_07.png","response":null,"trial_type":"image-keyboard-response","trial_index":44,"plugin_version":"2.1.0","time_elapsed":96238,"subject_id":"90950","group":"Group2","condition":"3_Rep","full_date":"2026-02-05T18:24:37.056Z","date":"2026-02-05","time":"18:24:37"},{"rt":null,"stimulus":"<p style=\"font-size: 50px; margin: 0; text-align: center;\">+</p>","response":null,"trial_type":"html-keyboard-response","trial_index":45,"plugin_version":"2.1.0","time_elapsed":97240,"subject_id":"90950","group":"Group2","condition":"3_Rep","full_date":"2026-02-05T18:24:37.056Z","date":"2026-02-05","time":"18:24:37"},{"task":"memory_phase","broad_category":"S","image_png":"S_Rock Salt_13.png","image_id":445,"category_name":"Rock Salt","category":28,"distinct_rating":7.58,"distinct_type":"Top","rt":null,"stimulus":"Stimuli_Rocks480/S_Rock Salt_13.png","response":null,"trial_type":"image-keyboard-response","trial_index":46,"plugin_version":"2.1.0","time_elapsed":99757,"subject_id":"90950","group":"Group2","condition":"3_Rep","full_date":"2026-02-05T18:24:37.056Z","date":"2026-02-05","time":"18:24:37"},{"rt":null,"stimulus":"<p style=\"font-size: 50px; margin: 0; text-align: center;\">+</p>","response":null,"trial_type":"html-keyboard-response","trial_index":47,"plugin_version":"2.1.0","time_elapsed":100760,"subject_id":"90950","group":"Group2","condition":"3_Rep","full_date":"2026-02-05T18:24:37.056Z","date":"2026-02-05","time":"18:24:37"},{"task":"memory_phase","broad_category":"S","image_png":"S_Shale_03.png","image_id":467,"category_name":"Shale","category":30,"distinct_rating":1.95,"distinct_type":"Bottom","rt":null,"stimulus":"Stimuli_Rocks480/S_Shale_03.png","response":null,"trial_type":"image-keyboard-response","trial_index":48,"plugin_version":"2.1.0","time_elapsed":103276,"subject_id":"90950","group":"Group2","condition":"3_Rep","full_date":"2026-02-05T18:24:37.056Z","date":"2026-02-05","time":"18:24:37"},{"rt":null,"stimulus":"<p style=\"font-size: 50px; margin: 0; text-align: center;\">+</p>","response":null,"trial_type":"html-keyboard-response","trial_index":49,"plugin_version":"2.1.0","time_elapsed":104279,"subject_id":"90950","group":"Group2","condition":"3_Rep","full_date":"2026-02-05T18:24:37.056Z","date":"2026-02-05","time":"18:24:37"},{"task":"memory_phase","broad_category":"I","image_png":"I_Andesite_04.png","image_id":4,"category_name":"Andesite","category":1,"distinct_rating":3.18,"distinct_type":"Bottom","rt":null,"stimulus":"Stimuli_Rocks480/I_Andesite_04.png","response":null,"trial_type":"image-keyboard-response","trial_index":50,"plugin_version":"2.1.0","time_elapsed":106795,"subject_id":"90950","group":"Group2","condition":"3_Rep","full_date":"2026-02-05T18:24:37.056Z","date":"2026-02-05","time":"18:24:37"},{"rt":null,"stimulus":"<p style=\"font-size: 50px; margin: 0; text-align: center;\">+</p>","response":null,"trial_type":"html-keyboard-response","trial_index":51,"plugin_version":"2.1.0","time_elapsed":107797,"subject_id":"90950","group":"Group2","condition":"3_Rep","full_date":"2026-02-05T18:24:37.056Z","date":"2026-02-05","time":"18:24:37"},{"task":"memory_phase","broad_category":"M","image_png":"M_Gneiss_15.png","image_id":207,"category_name":"Gneiss","category":13,"distinct_rating":3.11,"distinct_type":"Bottom","rt":null,"stimulus":"Stimuli_Rocks480/M_Gneiss_15.png","response":null,"trial_type":"image-keyboard-response","trial_index":52,"plugin_version":"2.1.0","time_elapsed":110308,"subject_id":"90950","group":"Group2","condition":"3_Rep","full_date":"2026-02-05T18:24:37.056Z","date":"2026-02-05","time":"18:24:37"},{"rt":null,"stimulus":"<p style=\"font-size: 50px; margin: 0; text-align: center;\">+</p>","response":null,"trial_type":"html-keyboard-response","trial_index":53,"plugin_version":"2.1.0","time_elapsed":111310,"subject_id":"90950","group":"Group2","condition":"3_Rep","full_date":"2026-02-05T18:24:37.056Z","date":"2026-02-05","time":"18:24:37"},{"task":"memory_phase","broad_category":"I","image_png":"I_Pumice_13.png","image_id":141,"category_name":"Pumice","category":9,"distinct_rating":3.12,"distinct_type":"Bottom","rt":null,"stimulus":"Stimuli_Rocks480/I_Pumice_13.png","response":null,"trial_type":"image-keyboard-response","trial_index":54,"plugin_version":"2.1.0","time_elapsed":113828,"subject_id":"90950","group":"Group2","condition":"3_Rep","full_date":"2026-02-05T18:24:37.056Z","date":"2026-02-05","time":"18:24:37"},{"rt":2545,"stimulus":"<p style=\"max-width: 760px; margin: auto; font-size: 35px; line-height: 1.5;\">\n                Press SPACE to continue study phase\n              </p>","response":" ","trial_type":"html-keyboard-response","trial_index":55,"plugin_version":"2.1.0","time_elapsed":116376,"subject_id":"90950","group":"Group2","condition":"3_Rep","full_date":"2026-02-05T18:24:37.056Z","date":"2026-02-05","time":"18:24:37"},{"rt":null,"stimulus":"<p style=\"font-size: 50px; margin: 0; text-align: center;\">+</p>","response":null,"trial_type":"html-keyboard-response","trial_index":56,"plugin_version":"2.1.0","time_elapsed":117379,"subject_id":"90950","group":"Group2","condition":"3_Rep","full_date":"2026-02-05T18:24:37.056Z","date":"2026-02-05","time":"18:24:37"},{"task":"memory_phase","broad_category":"M","image_png":"M_Marble_03.png","image_id":227,"category_name":"Marble","category":15,"distinct_rating":2.67,"distinct_type":"Bottom","rt":null,"stimulus":"Stimuli_Rocks480/M_Marble_03.png","response":null,"trial_type":"image-keyboard-response","trial_index":57,"plugin_version":"2.1.0","time_elapsed":119895,"subject_id":"90950","group":"Group2","condition":"3_Rep","full_date":"2026-02-05T18:24:37.056Z","date":"2026-02-05","time":"18:24:37"},{"rt":null,"stimulus":"<p style=\"font-size: 50px; margin: 0; text-align: center;\">+</p>","response":null,"trial_type":"html-keyboard-response","trial_index":58,"plugin_version":"2.1.0","time_elapsed":120897,"subject_id":"90950","group":"Group2","condition":"3_Rep","full_date":"2026-02-05T18:24:37.056Z","date":"2026-02-05","time":"18:24:37"},{"task":"memory_phase","broad_category":"S","image_png":"S_Shale_02.png","image_id":466,"category_name":"Shale","category":30,"distinct_rating":2.9,"distinct_type":"Bottom","rt":null,"stimulus":"Stimuli_Rocks480/S_Shale_02.png","response":null,"trial_type":"image-keyboard-response","trial_index":59,"plugin_version":"2.1.0","time_elapsed":123410,"subject_id":"90950","group":"Group2","condition":"3_Rep","full_date":"2026-02-05T18:24:37.056Z","date":"2026-02-05","time":"18:24:37"},{"rt":null,"stimulus":"<p style=\"font-size: 50px; margin: 0; text-align: center;\">+</p>","response":null,"trial_type":"html-keyboard-response","trial_index":60,"plugin_version":"2.1.0","time_elapsed":124412,"subject_id":"90950","group":"Group2","condition":"3_Rep","full_date":"2026-02-05T18:24:37.056Z","date":"2026-02-05","time":"18:24:37"},{"task":"memory_phase","broad_category":"I","image_png":"I_Pegmatite_11.png","image_id":107,"category_name":"Pegmatite","category":7,"distinct_rating":7.11,"distinct_type":"Top","rt":null,"stimulus":"Stimuli_Rocks480/I_Pegmatite_11.png","response":null,"trial_type":"image-keyboard-response","trial_index":61,"plugin_version":"2.1.0","time_elapsed":126930,"subject_id":"90950","group":"Group2","condition":"3_Rep","full_date":"2026-02-05T18:24:37.056Z","date":"2026-02-05","time":"18:24:37"},{"rt":null,"stimulus":"<p style=\"font-size: 50px; margin: 0; text-align: center;\">+</p>","response":null,"trial_type":"html-keyboard-response","trial_index":62,"plugin_version":"2.1.0","time_elapsed":127932,"subject_id":"90950","group":"Group2","condition":"3_Rep","full_date":"2026-02-05T18:24:37.056Z","date":"2026-02-05","time":"18:24:37"},{"task":"memory_phase","broad_category":"S","image_png":"S_Dolomite_01.png","image_id":385,"category_name":"Dolomite","category":25,"distinct_rating":1.43,"distinct_type":"Bottom","rt":null,"stimulus":"Stimuli_Rocks480/S_Dolomite_01.png","response":null,"trial_type":"image-keyboard-response","trial_index":63,"plugin_version":"2.1.0","time_elapsed":130453,"subject_id":"90950","group":"Group2","condition":"3_Rep","full_date":"2026-02-05T18:24:37.056Z","date":"2026-02-05","time":"18:24:37"},{"rt":null,"stimulus":"<p style=\"font-size: 50px; margin: 0; text-align: center;\">+</p>","response":null,"trial_type":"html-keyboard-response","trial_index":64,"plugin_version":"2.1.0","time_elapsed":131456,"subject_id":"90950","group":"Group2","condition":"3_Rep","full_date":"2026-02-05T18:24:37.056Z","date":"2026-02-05","time":"18:24:37"},{"task":"memory_phase","broad_category":"S","image_png":"S_Shale_07.png","image_id":471,"category_name":"Shale","category":30,"distinct_rating":2.73,"distinct_type":"Bottom","rt":null,"stimulus":"Stimuli_Rocks480/S_Shale_07.png","response":null,"trial_type":"image-keyboard-response","trial_index":65,"plugin_version":"2.1.0","time_elapsed":133971,"subject_id":"90950","group":"Group2","condition":"3_Rep","full_date":"2026-02-05T18:24:37.056Z","date":"2026-02-05","time":"18:24:37"},{"rt":null,"stimulus":"<p style=\"font-size: 50px; margin: 0; text-align: center;\">+</p>","response":null,"trial_type":"html-keyboard-response","trial_index":66,"plugin_version":"2.1.0","time_elapsed":134974,"subject_id":"90950","group":"Group2","condition":"3_Rep","full_date":"2026-02-05T18:24:37.056Z","date":"2026-02-05","time":"18:24:37"},{"task":"memory_phase","broad_category":"M","image_png":"M_Phyllite_13.png","image_id":269,"category_name":"Phyllite","category":17,"distinct_rating":2.8,"distinct_type":"Bottom","rt":null,"stimulus":"Stimuli_Rocks480/M_Phyllite_13.png","response":null,"trial_type":"image-keyboard-response","trial_index":67,"plugin_version":"2.1.0","time_elapsed":137491,"subject_id":"90950","group":"Group2","condition":"3_Rep","full_date":"2026-02-05T18:24:37.056Z","date":"2026-02-05","time":"18:24:37"},{"rt":null,"stimulus":"<p style=\"font-size: 50px; margin: 0; text-align: center;\">+</p>","response":null,"trial_type":"html-keyboard-response","trial_index":68,"plugin_version":"2.1.0","time_elapsed":138493,"subject_id":"90950","group":"Group2","condition":"3_Rep","full_date":"2026-02-05T18:24:37.056Z","date":"2026-02-05","time":"18:24:37"},{"task":"memory_phase","broad_category":"I","image_png":"I_Andesite_09.png","image_id":9,"category_name":"Andesite","category":1,"distinct_rating":2.49,"distinct_type":"Bottom","rt":null,"stimulus":"Stimuli_Rocks480/I_Andesite_09.png","response":null,"trial_type":"image-keyboard-response","trial_index":69,"plugin_version":"2.1.0","time_elapsed":141008,"subject_id":"90950","group":"Group2","condition":"3_Rep","full_date":"2026-02-05T18:24:37.056Z","date":"2026-02-05","time":"18:24:37"},{"rt":null,"stimulus":"<p style=\"font-size: 50px; margin: 0; text-align: center;\">+</p>","response":null,"trial_type":"html-keyboard-response","trial_index":70,"plugin_version":"2.1.0","time_elapsed":142011,"subject_id":"90950","group":"Group2","condition":"3_Rep","full_date":"2026-02-05T18:24:37.056Z","date":"2026-02-05","time":"18:24:37"},{"task":"memory_phase","broad_category":"I","image_png":"I_Rhyolite_05.png","image_id":149,"category_name":"Rhyolite","category":10,"distinct_rating":3.02,"distinct_type":"Bottom","rt":null,"stimulus":"Stimuli_Rocks480/I_Rhyolite_05.png","response":null,"trial_type":"image-keyboard-response","trial_index":71,"plugin_version":"2.1.0","time_elapsed":144529,"subject_id":"90950","group":"Group2","condition":"3_Rep","full_date":"2026-02-05T18:24:37.056Z","date":"2026-02-05","time":"18:24:37"},{"rt":null,"stimulus":"<p style=\"font-size: 50px; margin: 0; text-align: center;\">+</p>","response":null,"trial_type":"html-keyboard-response","trial_index":72,"plugin_version":"2.1.0","time_elapsed":145531,"subject_id":"90950","group":"Group2","condition":"3_Rep","full_date":"2026-02-05T18:24:37.056Z","date":"2026-02-05","time":"18:24:37"},{"task":"memory_phase","broad_category":"M","image_png":"M_Quartzite_15.png","image_id":287,"category_name":"Quartzite","category":18,"distinct_rating":2.19,"distinct_type":"Bottom","rt":null,"stimulus":"Stimuli_Rocks480/M_Quartzite_15.png","response":null,"trial_type":"image-keyboard-response","trial_index":73,"plugin_version":"2.1.0","time_elapsed":148048,"subject_id":"90950","group":"Group2","condition":"3_Rep","full_date":"2026-02-05T18:24:37.056Z","date":"2026-02-05","time":"18:24:37"},{"rt":null,"stimulus":"<p style=\"font-size: 50px; margin: 0; text-align: center;\">+</p>","response":null,"trial_type":"html-keyboard-response","trial_index":74,"plugin_version":"2.1.0","time_elapsed":149051,"subject_id":"90950","group":"Group2","condition":"3_Rep","full_date":"2026-02-05T18:24:37.056Z","date":"2026-02-05","time":"18:24:37"},{"task":"memory_phase","broad_category":"M","image_png":"M_Quartzite_12.png","image_id":284,"category_name":"Quartzite","category":18,"distinct_rating":1.92,"distinct_type":"Bottom","rt":null,"stimulus":"Stimuli_Rocks480/M_Quartzite_12.png","response":null,"trial_type":"image-keyboard-response","trial_index":75,"plugin_version":"2.1.0","time_elapsed":151566,"subject_id":"90950","group":"Group2","condition":"3_Rep","full_date":"2026-02-05T18:24:37.056Z","date":"2026-02-05","time":"18:24:37"},{"rt":null,"stimulus":"<p style=\"font-size: 50px; margin: 0; text-align: center;\">+</p>","response":null,"trial_type":"html-keyboard-response","trial_index":76,"plugin_version":"2.1.0","time_elapsed":152568,"subject_id":"90950","group":"Group2","condition":"3_Rep","full_date":"2026-02-05T18:24:37.056Z","date":"2026-02-05","time":"18:24:37"},{"task":"memory_phase","broad_category":"I","image_png":"I_Pegmatite_03.png","image_id":99,"category_name":"Pegmatite","category":7,"distinct_rating":7.24,"distinct_type":"Top","rt":null,"stimulus":"Stimuli_Rocks480/I_Pegmatite_03.png","response":null,"trial_type":"image-keyboard-response","trial_index":77,"plugin_version":"2.1.0","time_elapsed":155084,"subject_id":"90950","group":"Group2","condition":"3_Rep","full_date":"2026-02-05T18:24:37.056Z","date":"2026-02-05","time":"18:24:37"},{"rt":null,"stimulus":"<p style=\"font-size: 50px; margin: 0; text-align: center;\">+</p>","response":null,"trial_type":"html-keyboard-response","trial_index":78,"plugin_version":"2.1.0","time_elapsed":156086,"subject_id":"90950","group":"Group2","condition":"3_Rep","full_date":"2026-02-05T18:24:37.056Z","date":"2026-02-05","time":"18:24:37"},{"task":"memory_phase","broad_category":"I","image_png":"I_Gabbro_12.png","image_id":60,"category_name":"Gabbro","category":4,"distinct_rating":2.6,"distinct_type":"Bottom","rt":null,"stimulus":"Stimuli_Rocks480/I_Gabbro_12.png","response":null,"trial_type":"image-keyboard-response","trial_index":79,"plugin_version":"2.1.0","time_elapsed":158604,"subject_id":"90950","group":"Group2","condition":"3_Rep","full_date":"2026-02-05T18:24:37.056Z","date":"2026-02-05","time":"18:24:37"},{"rt":null,"stimulus":"<p style=\"font-size: 50px; margin: 0; text-align: center;\">+</p>","response":null,"trial_type":"html-keyboard-response","trial_index":80,"plugin_version":"2.1.0","time_elapsed":159606,"subject_id":"90950","group":"Group2","condition":"3_Rep","full_date":"2026-02-05T18:24:37.056Z","date":"2026-02-05","time":"18:24:37"},{"task":"memory_phase","broad_category":"I","image_png":"I_Basalt_13.png","image_id":29,"category_name":"Basalt","category":2,"distinct_rating":2.68,"distinct_type":"Bottom","rt":null,"stimulus":"Stimuli_Rocks480/I_Basalt_13.png","response":null,"trial_type":"image-keyboard-response","trial_index":81,"plugin_version":"2.1.0","time_elapsed":162122,"subject_id":"90950","group":"Group2","condition":"3_Rep","full_date":"2026-02-05T18:24:37.056Z","date":"2026-02-05","time":"18:24:37"},{"rt":null,"stimulus":"<p style=\"font-size: 50px; margin: 0; text-align: center;\">+</p>","response":null,"trial_type":"html-keyboard-response","trial_index":82,"plugin_version":"2.1.0","time_elapsed":163124,"subject_id":"90950","group":"Group2","condition":"3_Rep","full_date":"2026-02-05T18:24:37.056Z","date":"2026-02-05","time":"18:24:37"},{"task":"memory_phase","broad_category":"S","image_png":"S_Rock Salt_15.png","image_id":447,"category_name":"Rock Salt","category":28,"distinct_rating":7.79,"distinct_type":"Top","rt":null,"stimulus":"Stimuli_Rocks480/S_Rock Salt_15.png","response":null,"trial_type":"image-keyboard-response","trial_index":83,"plugin_version":"2.1.0","time_elapsed":165637,"subject_id":"90950","group":"Group2","condition":"3_Rep","full_date":"2026-02-05T18:24:37.056Z","date":"2026-02-05","time":"18:24:37"},{"rt":null,"stimulus":"<p style=\"font-size: 50px; margin: 0; text-align: center;\">+</p>","response":null,"trial_type":"html-keyboard-response","trial_index":84,"plugin_version":"2.1.0","time_elapsed":166639,"subject_id":"90950","group":"Group2","condition":"3_Rep","full_date":"2026-02-05T18:24:37.056Z","date":"2026-02-05","time":"18:24:37"},{"task":"memory_phase","broad_category":"I","image_png":"I_Rhyolite_08.png","image_id":152,"category_name":"Rhyolite","category":10,"distinct_rating":1.38,"distinct_type":"Bottom","rt":null,"stimulus":"Stimuli_Rocks480/I_Rhyolite_08.png","response":null,"trial_type":"image-keyboard-response","trial_index":85,"plugin_version":"2.1.0","time_elapsed":169156,"subject_id":"90950","group":"Group2","condition":"3_Rep","full_date":"2026-02-05T18:24:37.056Z","date":"2026-02-05","time":"18:24:37"},{"rt":null,"stimulus":"<p style=\"font-size: 50px; margin: 0; text-align: center;\">+</p>","response":null,"trial_type":"html-keyboard-response","trial_index":86,"plugin_version":"2.1.0","time_elapsed":170158,"subject_id":"90950","group":"Group2","condition":"3_Rep","full_date":"2026-02-05T18:24:37.056Z","date":"2026-02-05","time":"18:24:37"},{"task":"memory_phase","broad_category":"S","image_png":"S_Sandstone_04.png","image_id":452,"category_name":"Sandstone","category":29,"distinct_rating":1.8,"distinct_type":"Bottom","rt":null,"stimulus":"Stimuli_Rocks480/S_Sandstone_04.png","response":null,"trial_type":"image-keyboard-response","trial_index":87,"plugin_version":"2.1.0","time_elapsed":172674,"subject_id":"90950","group":"Group2","condition":"3_Rep","full_date":"2026-02-05T18:24:37.056Z","date":"2026-02-05","time":"18:24:37"},{"rt":null,"stimulus":"<p style=\"font-size: 50px; margin: 0; text-align: center;\">+</p>","response":null,"trial_type":"html-keyboard-response","trial_index":88,"plugin_version":"2.1.0","time_elapsed":173676,"subject_id":"90950","group":"Group2","condition":"3_Rep","full_date":"2026-02-05T18:24:37.056Z","date":"2026-02-05","time":"18:24:37"},{"task":"memory_phase","broad_category":"I","image_png":"I_Diorite_15.png","image_id":47,"category_name":"Diorite","category":3,"distinct_rating":3.05,"distinct_type":"Bottom","rt":null,"stimulus":"Stimuli_Rocks480/I_Diorite_15.png","response":null,"trial_type":"image-keyboard-response","trial_index":89,"plugin_version":"2.1.0","time_elapsed":176189,"subject_id":"90950","group":"Group2","condition":"3_Rep","full_date":"2026-02-05T18:24:37.056Z","date":"2026-02-05","time":"18:24:37"},{"rt":null,"stimulus":"<p style=\"font-size: 50px; margin: 0; text-align: center;\">+</p>","response":null,"trial_type":"html-keyboard-response","trial_index":90,"plugin_version":"2.1.0","time_elapsed":177191,"subject_id":"90950","group":"Group2","condition":"3_Rep","full_date":"2026-02-05T18:24:37.056Z","date":"2026-02-05","time":"18:24:37"},{"task":"memory_phase","broad_category":"M","image_png":"M_Quartzite_07.png","image_id":279,"category_name":"Quartzite","category":18,"distinct_rating":1.97,"distinct_type":"Bottom","rt":null,"stimulus":"Stimuli_Rocks480/M_Quartzite_07.png","response":null,"trial_type":"image-keyboard-response","trial_index":91,"plugin_version":"2.1.0","time_elapsed":179710,"subject_id":"90950","group":"Group2","condition":"3_Rep","full_date":"2026-02-05T18:24:37.056Z","date":"2026-02-05","time":"18:24:37"},{"rt":null,"stimulus":"<p style=\"font-size: 50px; margin: 0; text-align: center;\">+</p>","response":null,"trial_type":"html-keyboard-response","trial_index":92,"plugin_version":"2.1.0","time_elapsed":180712,"subject_id":"90950","group":"Group2","condition":"3_Rep","full_date":"2026-02-05T18:24:37.056Z","date":"2026-02-05","time":"18:24:37"},{"task":"memory_phase","broad_category":"I","image_png":"I_Gabbro_02.png","image_id":50,"category_name":"Gabbro","category":4,"distinct_rating":2.73,"distinct_type":"Bottom","rt":null,"stimulus":"Stimuli_Rocks480/I_Gabbro_02.png","response":null,"trial_type":"image-keyboard-response","trial_index":93,"plugin_version":"2.1.0","time_elapsed":183226,"subject_id":"90950","group":"Group2","condition":"3_Rep","full_date":"2026-02-05T18:24:37.056Z","date":"2026-02-05","time":"18:24:37"},{"rt":null,"stimulus":"<p style=\"font-size: 50px; margin: 0; text-align: center;\">+</p>","response":null,"trial_type":"html-keyboard-response","trial_index":94,"plugin_version":"2.1.0","time_elapsed":184229,"subject_id":"90950","group":"Group2","condition":"3_Rep","full_date":"2026-02-05T18:24:37.056Z","date":"2026-02-05","time":"18:24:37"},{"task":"memory_phase","broad_category":"M","image_png":"M_Phyllite_05.png","image_id":261,"category_name":"Phyllite","category":17,"distinct_rating":2.14,"distinct_type":"Bottom","rt":null,"stimulus":"Stimuli_Rocks480/M_Phyllite_05.png","response":null,"trial_type":"image-keyboard-response","trial_index":95,"plugin_version":"2.1.0","time_elapsed":186743,"subject_id":"90950","group":"Group2","condition":"3_Rep","full_date":"2026-02-05T18:24:37.056Z","date":"2026-02-05","time":"18:24:37"},{"rt":null,"stimulus":"<p style=\"font-size: 50px; margin: 0; text-align: center;\">+</p>","response":null,"trial_type":"html-keyboard-response","trial_index":96,"plugin_version":"2.1.0","time_elapsed":187745,"subject_id":"90950","group":"Group2","condition":"3_Rep","full_date":"2026-02-05T18:24:37.056Z","date":"2026-02-05","time":"18:24:37"},{"task":"memory_phase","broad_category":"I","image_png":"I_Obsidian_06.png","image_id":86,"category_name":"Obsidian","category":6,"distinct_rating":8.01,"distinct_type":"Top","rt":null,"stimulus":"Stimuli_Rocks480/I_Obsidian_06.png","response":null,"trial_type":"image-keyboard-response","trial_index":97,"plugin_version":"2.1.0","time_elapsed":190262,"subject_id":"90950","group":"Group2","condition":"3_Rep","full_date":"2026-02-05T18:24:37.056Z","date":"2026-02-05","time":"18:24:37"},{"rt":null,"stimulus":"<p style=\"font-size: 50px; margin: 0; text-align: center;\">+</p>","response":null,"trial_type":"html-keyboard-response","trial_index":98,"plugin_version":"2.1.0","time_elapsed":191265,"subject_id":"90950","group":"Group2","condition":"3_Rep","full_date":"2026-02-05T18:24:37.056Z","date":"2026-02-05","time":"18:24:37"},{"task":"memory_phase","broad_category":"S","image_png":"S_Chert_13.png","image_id":365,"category_name":"Chert","category":23,"distinct_rating":6.57,"distinct_type":"Top","rt":null,"stimulus":"Stimuli_Rocks480/S_Chert_13.png","response":null,"trial_type":"image-keyboard-response","trial_index":99,"plugin_version":"2.1.0","time_elapsed":193777,"subject_id":"90950","group":"Group2","condition":"3_Rep","full_date":"2026-02-05T18:24:37.056Z","date":"2026-02-05","time":"18:24:37"},{"rt":null,"stimulus":"<p style=\"font-size: 50px; margin: 0; text-align: center;\">+</p>","response":null,"trial_type":"html-keyboard-response","trial_index":100,"plugin_version":"2.1.0","time_elapsed":194779,"subject_id":"90950","group":"Group2","condition":"3_Rep","full_date":"2026-02-05T18:24:37.056Z","date":"2026-02-05","time":"18:24:37"},{"task":"memory_phase","broad_category":"I","image_png":"I_Basalt_08.png","image_id":24,"category_name":"Basalt","category":2,"distinct_rating":2.31,"distinct_type":"Bottom","rt":null,"stimulus":"Stimuli_Rocks480/I_Basalt_08.png","response":null,"trial_type":"image-keyboard-response","trial_index":101,"plugin_version":"2.1.0","time_elapsed":197301,"subject_id":"90950","group":"Group2","condition":"3_Rep","full_date":"2026-02-05T18:24:37.056Z","date":"2026-02-05","time":"18:24:37"},{"rt":null,"stimulus":"<p style=\"font-size: 50px; margin: 0; text-align: center;\">+</p>","response":null,"trial_type":"html-keyboard-response","trial_index":102,"plugin_version":"2.1.0","time_elapsed":198303,"subject_id":"90950","group":"Group2","condition":"3_Rep","full_date":"2026-02-05T18:24:37.056Z","date":"2026-02-05","time":"18:24:37"},{"task":"memory_phase","broad_category":"I","image_png":"I_Pumice_01.png","image_id":129,"category_name":"Pumice","category":9,"distinct_rating":3.25,"distinct_type":"Bottom","rt":null,"stimulus":"Stimuli_Rocks480/I_Pumice_01.png","response":null,"trial_type":"image-keyboard-response","trial_index":103,"plugin_version":"2.1.0","time_elapsed":200819,"subject_id":"90950","group":"Group2","condition":"3_Rep","full_date":"2026-02-05T18:24:37.056Z","date":"2026-02-05","time":"18:24:37"},{"rt":null,"stimulus":"<p style=\"font-size: 50px; margin: 0; text-align: center;\">+</p>","response":null,"trial_type":"html-keyboard-response","trial_index":104,"plugin_version":"2.1.0","time_elapsed":201821,"subject_id":"90950","group":"Group2","condition":"3_Rep","full_date":"2026-02-05T18:24:37.056Z","date":"2026-02-05","time":"18:24:37"},{"task":"memory_phase","broad_category":"M","image_png":"M_Slate_10.png","image_id":314,"category_name":"Slate","category":20,"distinct_rating":1.94,"distinct_type":"Bottom","rt":null,"stimulus":"Stimuli_Rocks480/M_Slate_10.png","response":null,"trial_type":"image-keyboard-response","trial_index":105,"plugin_version":"2.1.0","time_elapsed":204333,"subject_id":"90950","group":"Group2","condition":"3_Rep","full_date":"2026-02-05T18:24:37.056Z","date":"2026-02-05","time":"18:24:37"},{"rt":4581,"stimulus":"<p style=\"max-width: 760px; margin: auto; font-size: 35px; line-height: 1.5;\">\n                You have completed 1 study phase. \n                Now, we'll show you all the images again 2 more times.\n                <br><br>Press SPACE to continue\n              </p>","response":" ","trial_type":"html-keyboard-response","trial_index":106,"plugin_version":"2.1.0","time_elapsed":208916,"subject_id":"90950","group":"Group2","condition":"3_Rep","full_date":"2026-02-05T18:24:37.056Z","date":"2026-02-05","time":"18:24:37"},{"rt":null,"stimulus":"<p style=\"font-size: 50px; margin: 0; text-align: center;\">+</p>","response":null,"trial_type":"html-keyboard-response","trial_index":107,"plugin_version":"2.1.0","time_elapsed":209919,"subject_id":"90950","group":"Group2","condition":"3_Rep","full_date":"2026-02-05T18:24:37.056Z","date":"2026-02-05","time":"18:24:37"},{"task":"memory_phase","broad_category":"I","image_png":"I_Diorite_15.png","image_id":47,"category_name":"Diorite","category":3,"distinct_rating":3.05,"distinct_type":"Bottom","rt":null,"stimulus":"Stimuli_Rocks480/I_Diorite_15.png","response":null,"trial_type":"image-keyboard-response","trial_index":108,"plugin_version":"2.1.0","time_elapsed":212423,"subject_id":"90950","group":"Group2","condition":"3_Rep","full_date":"2026-02-05T18:24:37.056Z","date":"2026-02-05","time":"18:24:37"},{"rt":null,"stimulus":"<p style=\"font-size: 50px; margin: 0; text-align: center;\">+</p>","response":null,"trial_type":"html-keyboard-response","trial_index":109,"plugin_version":"2.1.0","time_elapsed":213425,"subject_id":"90950","group":"Group2","condition":"3_Rep","full_date":"2026-02-05T18:24:37.056Z","date":"2026-02-05","time":"18:24:37"},{"task":"memory_phase","broad_category":"M","image_png":"M_Phyllite_02.png","image_id":258,"category_name":"Phyllite","category":17,"distinct_rating":2.89,"distinct_type":"Bottom","rt":null,"stimulus":"Stimuli_Rocks480/M_Phyllite_02.png","response":null,"trial_type":"image-keyboard-response","trial_index":110,"plugin_version":"2.1.0","time_elapsed":215941,"subject_id":"90950","group":"Group2","condition":"3_Rep","full_date":"2026-02-05T18:24:37.056Z","date":"2026-02-05","time":"18:24:37"},{"rt":null,"stimulus":"<p style=\"font-size: 50px; margin: 0; text-align: center;\">+</p>","response":null,"trial_type":"html-keyboard-response","trial_index":111,"plugin_version":"2.1.0","time_elapsed":216944,"subject_id":"90950","group":"Group2","condition":"3_Rep","full_date":"2026-02-05T18:24:37.056Z","date":"2026-02-05","time":"18:24:37"},{"task":"memory_phase","broad_category":"M","image_png":"M_Marble_02.png","image_id":226,"category_name":"Marble","category":15,"distinct_rating":3.2,"distinct_type":"Bottom","rt":null,"stimulus":"Stimuli_Rocks480/M_Marble_02.png","response":null,"trial_type":"image-keyboard-response","trial_index":112,"plugin_version":"2.1.0","time_elapsed":219460,"subject_id":"90950","group":"Group2","condition":"3_Rep","full_date":"2026-02-05T18:24:37.056Z","date":"2026-02-05","time":"18:24:37"},{"rt":null,"stimulus":"<p style=\"font-size: 50px; margin: 0; text-align: center;\">+</p>","response":null,"trial_type":"html-keyboard-response","trial_index":113,"plugin_version":"2.1.0","time_elapsed":220464,"subject_id":"90950","group":"Group2","condition":"3_Rep","full_date":"2026-02-05T18:24:37.056Z","date":"2026-02-05","time":"18:24:37"},{"task":"memory_phase","broad_category":"M","image_png":"M_Quartzite_15.png","image_id":287,"category_name":"Quartzite","category":18,"distinct_rating":2.19,"distinct_type":"Bottom","rt":null,"stimulus":"Stimuli_Rocks480/M_Quartzite_15.png","response":null,"trial_type":"image-keyboard-response","trial_index":114,"plugin_version":"2.1.0","time_elapsed":222981,"subject_id":"90950","group":"Group2","condition":"3_Rep","full_date":"2026-02-05T18:24:37.056Z","date":"2026-02-05","time":"18:24:37"},{"rt":null,"stimulus":"<p style=\"font-size: 50px; margin: 0; text-align: center;\">+</p>","response":null,"trial_type":"html-keyboard-response","trial_index":115,"plugin_version":"2.1.0","time_elapsed":223984,"subject_id":"90950","group":"Group2","condition":"3_Rep","full_date":"2026-02-05T18:24:37.056Z","date":"2026-02-05","time":"18:24:37"},{"task":"memory_phase","broad_category":"I","image_png":"I_Diorite_10.png","image_id":42,"category_name":"Diorite","category":3,"distinct_rating":2.84,"distinct_type":"Bottom","rt":null,"stimulus":"Stimuli_Rocks480/I_Diorite_10.png","response":null,"trial_type":"image-keyboard-response","trial_index":116,"plugin_version":"2.1.0","time_elapsed":226500,"subject_id":"90950","group":"Group2","condition":"3_Rep","full_date":"2026-02-05T18:24:37.056Z","date":"2026-02-05","time":"18:24:37"},{"rt":null,"stimulus":"<p style=\"font-size: 50px; margin: 0; text-align: center;\">+</p>","response":null,"trial_type":"html-keyboard-response","trial_index":117,"plugin_version":"2.1.0","time_elapsed":227502,"subject_id":"90950","group":"Group2","condition":"3_Rep","full_date":"2026-02-05T18:24:37.056Z","date":"2026-02-05","time":"18:24:37"},{"task":"memory_phase","broad_category":"I","image_png":"I_Andesite_04.png","image_id":4,"category_name":"Andesite","category":1,"distinct_rating":3.18,"distinct_type":"Bottom","rt":null,"stimulus":"Stimuli_Rocks480/I_Andesite_04.png","response":null,"trial_type":"image-keyboard-response","trial_index":118,"plugin_version":"2.1.0","time_elapsed":230019,"subject_id":"90950","group":"Group2","condition":"3_Rep","full_date":"2026-02-05T18:24:37.056Z","date":"2026-02-05","time":"18:24:37"},{"rt":null,"stimulus":"<p style=\"font-size: 50px; margin: 0; text-align: center;\">+</p>","response":null,"trial_type":"html-keyboard-response","trial_index":119,"plugin_version":"2.1.0","time_elapsed":231021,"subject_id":"90950","group":"Group2","condition":"3_Rep","full_date":"2026-02-05T18:24:37.056Z","date":"2026-02-05","time":"18:24:37"},{"task":"memory_phase","broad_category":"I","image_png":"I_Pegmatite_11.png","image_id":107,"category_name":"Pegmatite","category":7,"distinct_rating":7.11,"distinct_type":"Top","rt":null,"stimulus":"Stimuli_Rocks480/I_Pegmatite_11.png","response":null,"trial_type":"image-keyboard-response","trial_index":120,"plugin_version":"2.1.0","time_elapsed":233541,"subject_id":"90950","group":"Group2","condition":"3_Rep","full_date":"2026-02-05T18:24:37.056Z","date":"2026-02-05","time":"18:24:37"},{"rt":null,"stimulus":"<p style=\"font-size: 50px; margin: 0; text-align: center;\">+</p>","response":null,"trial_type":"html-keyboard-response","trial_index":121,"plugin_version":"2.1.0","time_elapsed":234543,"subject_id":"90950","group":"Group2","condition":"3_Rep","full_date":"2026-02-05T18:24:37.056Z","date":"2026-02-05","time":"18:24:37"},{"task":"memory_phase","broad_category":"I","image_png":"I_Rhyolite_10.png","image_id":154,"category_name":"Rhyolite","category":10,"distinct_rating":2.88,"distinct_type":"Bottom","rt":null,"stimulus":"Stimuli_Rocks480/I_Rhyolite_10.png","response":null,"trial_type":"image-keyboard-response","trial_index":122,"plugin_version":"2.1.0","time_elapsed":237064,"subject_id":"90950","group":"Group2","condition":"3_Rep","full_date":"2026-02-05T18:24:37.056Z","date":"2026-02-05","time":"18:24:37"},{"rt":null,"stimulus":"<p style=\"font-size: 50px; margin: 0; text-align: center;\">+</p>","response":null,"trial_type":"html-keyboard-response","trial_index":123,"plugin_version":"2.1.0","time_elapsed":238066,"subject_id":"90950","group":"Group2","condition":"3_Rep","full_date":"2026-02-05T18:24:37.056Z","date":"2026-02-05","time":"18:24:37"},{"task":"memory_phase","broad_category":"I","image_png":"I_Basalt_10.png","image_id":26,"category_name":"Basalt","category":2,"distinct_rating":2.76,"distinct_type":"Bottom","rt":null,"stimulus":"Stimuli_Rocks480/I_Basalt_10.png","response":null,"trial_type":"image-keyboard-response","trial_index":124,"plugin_version":"2.1.0","time_elapsed":240582,"subject_id":"90950","group":"Group2","condition":"3_Rep","full_date":"2026-02-05T18:24:37.056Z","date":"2026-02-05","time":"18:24:37"},{"rt":null,"stimulus":"<p style=\"font-size: 50px; margin: 0; text-align: center;\">+</p>","response":null,"trial_type":"html-keyboard-response","trial_index":125,"plugin_version":"2.1.0","time_elapsed":241584,"subject_id":"90950","group":"Group2","condition":"3_Rep","full_date":"2026-02-05T18:24:37.056Z","date":"2026-02-05","time":"18:24:37"},{"task":"memory_phase","broad_category":"S","image_png":"S_Dolomite_01.png","image_id":385,"category_name":"Dolomite","category":25,"distinct_rating":1.43,"distinct_type":"Bottom","rt":null,"stimulus":"Stimuli_Rocks480/S_Dolomite_01.png","response":null,"trial_type":"image-keyboard-response","trial_index":126,"plugin_version":"2.1.0","time_elapsed":244103,"subject_id":"90950","group":"Group2","condition":"3_Rep","full_date":"2026-02-05T18:24:37.056Z","date":"2026-02-05","time":"18:24:37"},{"rt":null,"stimulus":"<p style=\"font-size: 50px; margin: 0; text-align: center;\">+</p>","response":null,"trial_type":"html-keyboard-response","trial_index":127,"plugin_version":"2.1.0","time_elapsed":245106,"subject_id":"90950","group":"Group2","condition":"3_Rep","full_date":"2026-02-05T18:24:37.056Z","date":"2026-02-05","time":"18:24:37"},{"task":"memory_phase","broad_category":"S","image_png":"S_Conglomerate_14.png","image_id":382,"category_name":"Conglomerate","category":24,"distinct_rating":6.86,"distinct_type":"Top","rt":null,"stimulus":"Stimuli_Rocks480/S_Conglomerate_14.png","response":null,"trial_type":"image-keyboard-response","trial_index":128,"plugin_version":"2.1.0","time_elapsed":247621,"subject_id":"90950","group":"Group2","condition":"3_Rep","full_date":"2026-02-05T18:24:37.056Z","date":"2026-02-05","time":"18:24:37"},{"rt":null,"stimulus":"<p style=\"font-size: 50px; margin: 0; text-align: center;\">+</p>","response":null,"trial_type":"html-keyboard-response","trial_index":129,"plugin_version":"2.1.0","time_elapsed":248623,"subject_id":"90950","group":"Group2","condition":"3_Rep","full_date":"2026-02-05T18:24:37.056Z","date":"2026-02-05","time":"18:24:37"},{"task":"memory_phase","broad_category":"M","image_png":"M_Phyllite_13.png","image_id":269,"category_name":"Phyllite","category":17,"distinct_rating":2.8,"distinct_type":"Bottom","rt":null,"stimulus":"Stimuli_Rocks480/M_Phyllite_13.png","response":null,"trial_type":"image-keyboard-response","trial_index":130,"plugin_version":"2.1.0","time_elapsed":251138,"subject_id":"90950","group":"Group2","condition":"3_Rep","full_date":"2026-02-05T18:24:37.056Z","date":"2026-02-05","time":"18:24:37"},{"rt":null,"stimulus":"<p style=\"font-size: 50px; margin: 0; text-align: center;\">+</p>","response":null,"trial_type":"html-keyboard-response","trial_index":131,"plugin_version":"2.1.0","time_elapsed":252140,"subject_id":"90950","group":"Group2","condition":"3_Rep","full_date":"2026-02-05T18:24:37.056Z","date":"2026-02-05","time":"18:24:37"},{"task":"memory_phase","broad_category":"I","image_png":"I_Diorite_01.png","image_id":33,"category_name":"Diorite","category":3,"distinct_rating":2.97,"distinct_type":"Bottom","rt":null,"stimulus":"Stimuli_Rocks480/I_Diorite_01.png","response":null,"trial_type":"image-keyboard-response","trial_index":132,"plugin_version":"2.1.0","time_elapsed":254658,"subject_id":"90950","group":"Group2","condition":"3_Rep","full_date":"2026-02-05T18:24:37.056Z","date":"2026-02-05","time":"18:24:37"},{"rt":null,"stimulus":"<p style=\"font-size: 50px; margin: 0; text-align: center;\">+</p>","response":null,"trial_type":"html-keyboard-response","trial_index":133,"plugin_version":"2.1.0","time_elapsed":255661,"subject_id":"90950","group":"Group2","condition":"3_Rep","full_date":"2026-02-05T18:24:37.056Z","date":"2026-02-05","time":"18:24:37"},{"task":"memory_phase","broad_category":"S","image_png":"S_Shale_03.png","image_id":467,"category_name":"Shale","category":30,"distinct_rating":1.95,"distinct_type":"Bottom","rt":null,"stimulus":"Stimuli_Rocks480/S_Shale_03.png","response":null,"trial_type":"image-keyboard-response","trial_index":134,"plugin_version":"2.1.0","time_elapsed":258176,"subject_id":"90950","group":"Group2","condition":"3_Rep","full_date":"2026-02-05T18:24:37.056Z","date":"2026-02-05","time":"18:24:37"},{"rt":null,"stimulus":"<p style=\"font-size: 50px; margin: 0; text-align: center;\">+</p>","response":null,"trial_type":"html-keyboard-response","trial_index":135,"plugin_version":"2.1.0","time_elapsed":259179,"subject_id":"90950","group":"Group2","condition":"3_Rep","full_date":"2026-02-05T18:24:37.056Z","date":"2026-02-05","time":"18:24:37"},{"task":"memory_phase","broad_category":"M","image_png":"M_Marble_03.png","image_id":227,"category_name":"Marble","category":15,"distinct_rating":2.67,"distinct_type":"Bottom","rt":null,"stimulus":"Stimuli_Rocks480/M_Marble_03.png","response":null,"trial_type":"image-keyboard-response","trial_index":136,"plugin_version":"2.1.0","time_elapsed":261694,"subject_id":"90950","group":"Group2","condition":"3_Rep","full_date":"2026-02-05T18:24:37.056Z","date":"2026-02-05","time":"18:24:37"},{"rt":null,"stimulus":"<p style=\"font-size: 50px; margin: 0; text-align: center;\">+</p>","response":null,"trial_type":"html-keyboard-response","trial_index":137,"plugin_version":"2.1.0","time_elapsed":262696,"subject_id":"90950","group":"Group2","condition":"3_Rep","full_date":"2026-02-05T18:24:37.056Z","date":"2026-02-05","time":"18:24:37"},{"task":"memory_phase","broad_category":"S","image_png":"S_Chert_13.png","image_id":365,"category_name":"Chert","category":23,"distinct_rating":6.57,"distinct_type":"Top","rt":null,"stimulus":"Stimuli_Rocks480/S_Chert_13.png","response":null,"trial_type":"image-keyboard-response","trial_index":138,"plugin_version":"2.1.0","time_elapsed":265200,"subject_id":"90950","group":"Group2","condition":"3_Rep","full_date":"2026-02-05T18:24:37.056Z","date":"2026-02-05","time":"18:24:37"},{"rt":null,"stimulus":"<p style=\"font-size: 50px; margin: 0; text-align: center;\">+</p>","response":null,"trial_type":"html-keyboard-response","trial_index":139,"plugin_version":"2.1.0","time_elapsed":266203,"subject_id":"90950","group":"Group2","condition":"3_Rep","full_date":"2026-02-05T18:24:37.056Z","date":"2026-02-05","time":"18:24:37"},{"task":"memory_phase","broad_category":"I","image_png":"I_Gabbro_02.png","image_id":50,"category_name":"Gabbro","category":4,"distinct_rating":2.73,"distinct_type":"Bottom","rt":null,"stimulus":"Stimuli_Rocks480/I_Gabbro_02.png","response":null,"trial_type":"image-keyboard-response","trial_index":140,"plugin_version":"2.1.0","time_elapsed":268706,"subject_id":"90950","group":"Group2","condition":"3_Rep","full_date":"2026-02-05T18:24:37.056Z","date":"2026-02-05","time":"18:24:37"},{"rt":null,"stimulus":"<p style=\"font-size: 50px; margin: 0; text-align: center;\">+</p>","response":null,"trial_type":"html-keyboard-response","trial_index":141,"plugin_version":"2.1.0","time_elapsed":269708,"subject_id":"90950","group":"Group2","condition":"3_Rep","full_date":"2026-02-05T18:24:37.056Z","date":"2026-02-05","time":"18:24:37"},{"task":"memory_phase","broad_category":"I","image_png":"I_Peridotite_13.png","image_id":125,"category_name":"Peridotite","category":8,"distinct_rating":7.28,"distinct_type":"Top","rt":null,"stimulus":"Stimuli_Rocks480/I_Peridotite_13.png","response":null,"trial_type":"image-keyboard-response","trial_index":142,"plugin_version":"2.1.0","time_elapsed":272227,"subject_id":"90950","group":"Group2","condition":"3_Rep","full_date":"2026-02-05T18:24:37.056Z","date":"2026-02-05","time":"18:24:37"},{"rt":null,"stimulus":"<p style=\"font-size: 50px; margin: 0; text-align: center;\">+</p>","response":null,"trial_type":"html-keyboard-response","trial_index":143,"plugin_version":"2.1.0","time_elapsed":273229,"subject_id":"90950","group":"Group2","condition":"3_Rep","full_date":"2026-02-05T18:24:37.056Z","date":"2026-02-05","time":"18:24:37"},{"task":"memory_phase","broad_category":"S","image_png":"S_Sandstone_11.png","image_id":459,"category_name":"Sandstone","category":29,"distinct_rating":1.82,"distinct_type":"Bottom","rt":null,"stimulus":"Stimuli_Rocks480/S_Sandstone_11.png","response":null,"trial_type":"image-keyboard-response","trial_index":144,"plugin_version":"2.1.0","time_elapsed":275748,"subject_id":"90950","group":"Group2","condition":"3_Rep","full_date":"2026-02-05T18:24:37.056Z","date":"2026-02-05","time":"18:24:37"},{"rt":null,"stimulus":"<p style=\"font-size: 50px; margin: 0; text-align: center;\">+</p>","response":null,"trial_type":"html-keyboard-response","trial_index":145,"plugin_version":"2.1.0","time_elapsed":276750,"subject_id":"90950","group":"Group2","condition":"3_Rep","full_date":"2026-02-05T18:24:37.056Z","date":"2026-02-05","time":"18:24:37"},{"task":"memory_phase","broad_category":"I","image_png":"I_Pumice_14.png","image_id":142,"category_name":"Pumice","category":9,"distinct_rating":3.22,"distinct_type":"Bottom","rt":null,"stimulus":"Stimuli_Rocks480/I_Pumice_14.png","response":null,"trial_type":"image-keyboard-response","trial_index":146,"plugin_version":"2.1.0","time_elapsed":279265,"subject_id":"90950","group":"Group2","condition":"3_Rep","full_date":"2026-02-05T18:24:37.056Z","date":"2026-02-05","time":"18:24:37"},{"rt":null,"stimulus":"<p style=\"font-size: 50px; margin: 0; text-align: center;\">+</p>","response":null,"trial_type":"html-keyboard-response","trial_index":147,"plugin_version":"2.1.0","time_elapsed":280267,"subject_id":"90950","group":"Group2","condition":"3_Rep","full_date":"2026-02-05T18:24:37.056Z","date":"2026-02-05","time":"18:24:37"},{"task":"memory_phase","broad_category":"S","image_png":"S_Shale_07.png","image_id":471,"category_name":"Shale","category":30,"distinct_rating":2.73,"distinct_type":"Bottom","rt":null,"stimulus":"Stimuli_Rocks480/S_Shale_07.png","response":null,"trial_type":"image-keyboard-response","trial_index":148,"plugin_version":"2.1.0","time_elapsed":282782,"subject_id":"90950","group":"Group2","condition":"3_Rep","full_date":"2026-02-05T18:24:37.056Z","date":"2026-02-05","time":"18:24:37"},{"rt":null,"stimulus":"<p style=\"font-size: 50px; margin: 0; text-align: center;\">+</p>","response":null,"trial_type":"html-keyboard-response","trial_index":149,"plugin_version":"2.1.0","time_elapsed":283784,"subject_id":"90950","group":"Group2","condition":"3_Rep","full_date":"2026-02-05T18:24:37.056Z","date":"2026-02-05","time":"18:24:37"},{"task":"memory_phase","broad_category":"M","image_png":"M_Gneiss_14.png","image_id":206,"category_name":"Gneiss","category":13,"distinct_rating":3.41,"distinct_type":"Bottom","rt":null,"stimulus":"Stimuli_Rocks480/M_Gneiss_14.png","response":null,"trial_type":"image-keyboard-response","trial_index":150,"plugin_version":"2.1.0","time_elapsed":286301,"subject_id":"90950","group":"Group2","condition":"3_Rep","full_date":"2026-02-05T18:24:37.056Z","date":"2026-02-05","time":"18:24:37"},{"rt":null,"stimulus":"<p style=\"font-size: 50px; margin: 0; text-align: center;\">+</p>","response":null,"trial_type":"html-keyboard-response","trial_index":151,"plugin_version":"2.1.0","time_elapsed":287303,"subject_id":"90950","group":"Group2","condition":"3_Rep","full_date":"2026-02-05T18:24:37.056Z","date":"2026-02-05","time":"18:24:37"},{"task":"memory_phase","broad_category":"M","image_png":"M_Slate_10.png","image_id":314,"category_name":"Slate","category":20,"distinct_rating":1.94,"distinct_type":"Bottom","rt":null,"stimulus":"Stimuli_Rocks480/M_Slate_10.png","response":null,"trial_type":"image-keyboard-response","trial_index":152,"plugin_version":"2.1.0","time_elapsed":289817,"subject_id":"90950","group":"Group2","condition":"3_Rep","full_date":"2026-02-05T18:24:37.056Z","date":"2026-02-05","time":"18:24:37"},{"rt":null,"stimulus":"<p style=\"font-size: 50px; margin: 0; text-align: center;\">+</p>","response":null,"trial_type":"html-keyboard-response","trial_index":153,"plugin_version":"2.1.0","time_elapsed":290819,"subject_id":"90950","group":"Group2","condition":"3_Rep","full_date":"2026-02-05T18:24:37.056Z","date":"2026-02-05","time":"18:24:37"},{"task":"memory_phase","broad_category":"I","image_png":"I_Pumice_13.png","image_id":141,"category_name":"Pumice","category":9,"distinct_rating":3.12,"distinct_type":"Bottom","rt":null,"stimulus":"Stimuli_Rocks480/I_Pumice_13.png","response":null,"trial_type":"image-keyboard-response","trial_index":154,"plugin_version":"2.1.0","time_elapsed":293336,"subject_id":"90950","group":"Group2","condition":"3_Rep","full_date":"2026-02-05T18:24:37.056Z","date":"2026-02-05","time":"18:24:37"},{"rt":null,"stimulus":"<p style=\"font-size: 50px; margin: 0; text-align: center;\">+</p>","response":null,"trial_type":"html-keyboard-response","trial_index":155,"plugin_version":"2.1.0","time_elapsed":294339,"subject_id":"90950","group":"Group2","condition":"3_Rep","full_date":"2026-02-05T18:24:37.056Z","date":"2026-02-05","time":"18:24:37"},{"task":"memory_phase","broad_category":"I","image_png":"I_Obsidian_06.png","image_id":86,"category_name":"Obsidian","category":6,"distinct_rating":8.01,"distinct_type":"Top","rt":null,"stimulus":"Stimuli_Rocks480/I_Obsidian_06.png","response":null,"trial_type":"image-keyboard-response","trial_index":156,"plugin_version":"2.1.0","time_elapsed":296856,"subject_id":"90950","group":"Group2","condition":"3_Rep","full_date":"2026-02-05T18:24:37.056Z","date":"2026-02-05","time":"18:24:37"},{"rt":1556,"stimulus":"<p style=\"max-width: 760px; margin: auto; font-size: 35px; line-height: 1.5;\">\n                Press SPACE to continue study phase\n              </p>","response":" ","trial_type":"html-keyboard-response","trial_index":157,"plugin_version":"2.1.0","time_elapsed":298415,"subject_id":"90950","group":"Group2","condition":"3_Rep","full_date":"2026-02-05T18:24:37.056Z","date":"2026-02-05","time":"18:24:37"},{"rt":null,"stimulus":"<p style=\"font-size: 50px; margin: 0; text-align: center;\">+</p>","response":null,"trial_type":"html-keyboard-response","trial_index":158,"plugin_version":"2.1.0","time_elapsed":299418,"subject_id":"90950","group":"Group2","condition":"3_Rep","full_date":"2026-02-05T18:24:37.056Z","date":"2026-02-05","time":"18:24:37"},{"task":"memory_phase","broad_category":"M","image_png":"M_Marble_14.png","image_id":238,"category_name":"Marble","category":15,"distinct_rating":3.31,"distinct_type":"Bottom","rt":null,"stimulus":"Stimuli_Rocks480/M_Marble_14.png","response":null,"trial_type":"image-keyboard-response","trial_index":159,"plugin_version":"2.1.0","time_elapsed":301934,"subject_id":"90950","group":"Group2","condition":"3_Rep","full_date":"2026-02-05T18:24:37.056Z","date":"2026-02-05","time":"18:24:37"},{"rt":null,"stimulus":"<p style=\"font-size: 50px; margin: 0; text-align: center;\">+</p>","response":null,"trial_type":"html-keyboard-response","trial_index":160,"plugin_version":"2.1.0","time_elapsed":302936,"subject_id":"90950","group":"Group2","condition":"3_Rep","full_date":"2026-02-05T18:24:37.056Z","date":"2026-02-05","time":"18:24:37"},{"task":"memory_phase","broad_category":"M","image_png":"M_Quartzite_12.png","image_id":284,"category_name":"Quartzite","category":18,"distinct_rating":1.92,"distinct_type":"Bottom","rt":null,"stimulus":"Stimuli_Rocks480/M_Quartzite_12.png","response":null,"trial_type":"image-keyboard-response","trial_index":161,"plugin_version":"2.1.0","time_elapsed":305451,"subject_id":"90950","group":"Group2","condition":"3_Rep","full_date":"2026-02-05T18:24:37.056Z","date":"2026-02-05","time":"18:24:37"},{"rt":null,"stimulus":"<p style=\"font-size: 50px; margin: 0; text-align: center;\">+</p>","response":null,"trial_type":"html-keyboard-response","trial_index":162,"plugin_version":"2.1.0","time_elapsed":306453,"subject_id":"90950","group":"Group2","condition":"3_Rep","full_date":"2026-02-05T18:24:37.056Z","date":"2026-02-05","time":"18:24:37"},{"task":"memory_phase","broad_category":"I","image_png":"I_Basalt_08.png","image_id":24,"category_name":"Basalt","category":2,"distinct_rating":2.31,"distinct_type":"Bottom","rt":null,"stimulus":"Stimuli_Rocks480/I_Basalt_08.png","response":null,"trial_type":"image-keyboard-response","trial_index":163,"plugin_version":"2.1.0","time_elapsed":308975,"subject_id":"90950","group":"Group2","condition":"3_Rep","full_date":"2026-02-05T18:24:37.056Z","date":"2026-02-05","time":"18:24:37"},{"rt":null,"stimulus":"<p style=\"font-size: 50px; margin: 0; text-align: center;\">+</p>","response":null,"trial_type":"html-keyboard-response","trial_index":164,"plugin_version":"2.1.0","time_elapsed":309978,"subject_id":"90950","group":"Group2","condition":"3_Rep","full_date":"2026-02-05T18:24:37.056Z","date":"2026-02-05","time":"18:24:37"},{"task":"memory_phase","broad_category":"S","image_png":"S_Rock Salt_15.png","image_id":447,"category_name":"Rock Salt","category":28,"distinct_rating":7.79,"distinct_type":"Top","rt":null,"stimulus":"Stimuli_Rocks480/S_Rock Salt_15.png","response":null,"trial_type":"image-keyboard-response","trial_index":165,"plugin_version":"2.1.0","time_elapsed":312494,"subject_id":"90950","group":"Group2","condition":"3_Rep","full_date":"2026-02-05T18:24:37.056Z","date":"2026-02-05","time":"18:24:37"},{"rt":null,"stimulus":"<p style=\"font-size: 50px; margin: 0; text-align: center;\">+</p>","response":null,"trial_type":"html-keyboard-response","trial_index":166,"plugin_version":"2.1.0","time_elapsed":313497,"subject_id":"90950","group":"Group2","condition":"3_Rep","full_date":"2026-02-05T18:24:37.056Z","date":"2026-02-05","time":"18:24:37"},{"task":"memory_phase","broad_category":"I","image_png":"I_Gabbro_14.png","image_id":62,"category_name":"Gabbro","category":4,"distinct_rating":2.95,"distinct_type":"Bottom","rt":null,"stimulus":"Stimuli_Rocks480/I_Gabbro_14.png","response":null,"trial_type":"image-keyboard-response","trial_index":167,"plugin_version":"2.1.0","time_elapsed":316015,"subject_id":"90950","group":"Group2","condition":"3_Rep","full_date":"2026-02-05T18:24:37.056Z","date":"2026-02-05","time":"18:24:37"},{"rt":null,"stimulus":"<p style=\"font-size: 50px; margin: 0; text-align: center;\">+</p>","response":null,"trial_type":"html-keyboard-response","trial_index":168,"plugin_version":"2.1.0","time_elapsed":317017,"subject_id":"90950","group":"Group2","condition":"3_Rep","full_date":"2026-02-05T18:24:37.056Z","date":"2026-02-05","time":"18:24:37"},{"task":"memory_phase","broad_category":"I","image_png":"I_Pumice_01.png","image_id":129,"category_name":"Pumice","category":9,"distinct_rating":3.25,"distinct_type":"Bottom","rt":null,"stimulus":"Stimuli_Rocks480/I_Pumice_01.png","response":null,"trial_type":"image-keyboard-response","trial_index":169,"plugin_version":"2.1.0","time_elapsed":319532,"subject_id":"90950","group":"Group2","condition":"3_Rep","full_date":"2026-02-05T18:24:37.056Z","date":"2026-02-05","time":"18:24:37"},{"rt":null,"stimulus":"<p style=\"font-size: 50px; margin: 0; text-align: center;\">+</p>","response":null,"trial_type":"html-keyboard-response","trial_index":170,"plugin_version":"2.1.0","time_elapsed":320534,"subject_id":"90950","group":"Group2","condition":"3_Rep","full_date":"2026-02-05T18:24:37.056Z","date":"2026-02-05","time":"18:24:37"},{"task":"memory_phase","broad_category":"I","image_png":"I_Pegmatite_03.png","image_id":99,"category_name":"Pegmatite","category":7,"distinct_rating":7.24,"distinct_type":"Top","rt":null,"stimulus":"Stimuli_Rocks480/I_Pegmatite_03.png","response":null,"trial_type":"image-keyboard-response","trial_index":171,"plugin_version":"2.1.0","time_elapsed":323049,"subject_id":"90950","group":"Group2","condition":"3_Rep","full_date":"2026-02-05T18:24:37.056Z","date":"2026-02-05","time":"18:24:37"},{"rt":null,"stimulus":"<p style=\"font-size: 50px; margin: 0; text-align: center;\">+</p>","response":null,"trial_type":"html-keyboard-response","trial_index":172,"plugin_version":"2.1.0","time_elapsed":324051,"subject_id":"90950","group":"Group2","condition":"3_Rep","full_date":"2026-02-05T18:24:37.056Z","date":"2026-02-05","time":"18:24:37"},{"task":"memory_phase","broad_category":"I","image_png":"I_Gabbro_12.png","image_id":60,"category_name":"Gabbro","category":4,"distinct_rating":2.6,"distinct_type":"Bottom","rt":null,"stimulus":"Stimuli_Rocks480/I_Gabbro_12.png","response":null,"trial_type":"image-keyboard-response","trial_index":173,"plugin_version":"2.1.0","time_elapsed":326567,"subject_id":"90950","group":"Group2","condition":"3_Rep","full_date":"2026-02-05T18:24:37.056Z","date":"2026-02-05","time":"18:24:37"},{"rt":null,"stimulus":"<p style=\"font-size: 50px; margin: 0; text-align: center;\">+</p>","response":null,"trial_type":"html-keyboard-response","trial_index":174,"plugin_version":"2.1.0","time_elapsed":327570,"subject_id":"90950","group":"Group2","condition":"3_Rep","full_date":"2026-02-05T18:24:37.056Z","date":"2026-02-05","time":"18:24:37"},{"task":"memory_phase","broad_category":"I","image_png":"I_Rhyolite_05.png","image_id":149,"category_name":"Rhyolite","category":10,"distinct_rating":3.02,"distinct_type":"Bottom","rt":null,"stimulus":"Stimuli_Rocks480/I_Rhyolite_05.png","response":null,"trial_type":"image-keyboard-response","trial_index":175,"plugin_version":"2.1.0","time_elapsed":330089,"subject_id":"90950","group":"Group2","condition":"3_Rep","full_date":"2026-02-05T18:24:37.056Z","date":"2026-02-05","time":"18:24:37"},{"rt":null,"stimulus":"<p style=\"font-size: 50px; margin: 0; text-align: center;\">+</p>","response":null,"trial_type":"html-keyboard-response","trial_index":176,"plugin_version":"2.1.0","time_elapsed":331092,"subject_id":"90950","group":"Group2","condition":"3_Rep","full_date":"2026-02-05T18:24:37.056Z","date":"2026-02-05","time":"18:24:37"},{"task":"memory_phase","broad_category":"I","image_png":"I_Andesite_03.png","image_id":3,"category_name":"Andesite","category":1,"distinct_rating":3.17,"distinct_type":"Bottom","rt":null,"stimulus":"Stimuli_Rocks480/I_Andesite_03.png","response":null,"trial_type":"image-keyboard-response","trial_index":177,"plugin_version":"2.1.0","time_elapsed":333605,"subject_id":"90950","group":"Group2","condition":"3_Rep","full_date":"2026-02-05T18:24:37.056Z","date":"2026-02-05","time":"18:24:37"},{"rt":null,"stimulus":"<p style=\"font-size: 50px; margin: 0; text-align: center;\">+</p>","response":null,"trial_type":"html-keyboard-response","trial_index":178,"plugin_version":"2.1.0","time_elapsed":334607,"subject_id":"90950","group":"Group2","condition":"3_Rep","full_date":"2026-02-05T18:24:37.056Z","date":"2026-02-05","time":"18:24:37"},{"task":"memory_phase","broad_category":"M","image_png":"M_Gneiss_15.png","image_id":207,"category_name":"Gneiss","category":13,"distinct_rating":3.11,"distinct_type":"Bottom","rt":null,"stimulus":"Stimuli_Rocks480/M_Gneiss_15.png","response":null,"trial_type":"image-keyboard-response","trial_index":179,"plugin_version":"2.1.0","time_elapsed":337119,"subject_id":"90950","group":"Group2","condition":"3_Rep","full_date":"2026-02-05T18:24:37.056Z","date":"2026-02-05","time":"18:24:37"},{"rt":null,"stimulus":"<p style=\"font-size: 50px; margin: 0; text-align: center;\">+</p>","response":null,"trial_type":"html-keyboard-response","trial_index":180,"plugin_version":"2.1.0","time_elapsed":338122,"subject_id":"90950","group":"Group2","condition":"3_Rep","full_date":"2026-02-05T18:24:37.056Z","date":"2026-02-05","time":"18:24:37"},{"task":"memory_phase","broad_category":"S","image_png":"S_Sandstone_04.png","image_id":452,"category_name":"Sandstone","category":29,"distinct_rating":1.8,"distinct_type":"Bottom","rt":null,"stimulus":"Stimuli_Rocks480/S_Sandstone_04.png","response":null,"trial_type":"image-keyboard-response","trial_index":181,"plugin_version":"2.1.0","time_elapsed":340638,"subject_id":"90950","group":"Group2","condition":"3_Rep","full_date":"2026-02-05T18:24:37.056Z","date":"2026-02-05","time":"18:24:37"},{"rt":null,"stimulus":"<p style=\"font-size: 50px; margin: 0; text-align: center;\">+</p>","response":null,"trial_type":"html-keyboard-response","trial_index":182,"plugin_version":"2.1.0","time_elapsed":341640,"subject_id":"90950","group":"Group2","condition":"3_Rep","full_date":"2026-02-05T18:24:37.056Z","date":"2026-02-05","time":"18:24:37"},{"task":"memory_phase","broad_category":"M","image_png":"M_Quartzite_07.png","image_id":279,"category_name":"Quartzite","category":18,"distinct_rating":1.97,"distinct_type":"Bottom","rt":null,"stimulus":"Stimuli_Rocks480/M_Quartzite_07.png","response":null,"trial_type":"image-keyboard-response","trial_index":183,"plugin_version":"2.1.0","time_elapsed":344158,"subject_id":"90950","group":"Group2","condition":"3_Rep","full_date":"2026-02-05T18:24:37.056Z","date":"2026-02-05","time":"18:24:37"},{"rt":null,"stimulus":"<p style=\"font-size: 50px; margin: 0; text-align: center;\">+</p>","response":null,"trial_type":"html-keyboard-response","trial_index":184,"plugin_version":"2.1.0","time_elapsed":345160,"subject_id":"90950","group":"Group2","condition":"3_Rep","full_date":"2026-02-05T18:24:37.056Z","date":"2026-02-05","time":"18:24:37"},{"task":"memory_phase","broad_category":"S","image_png":"S_Sandstone_08.png","image_id":456,"category_name":"Sandstone","category":29,"distinct_rating":1.5,"distinct_type":"Bottom","rt":null,"stimulus":"Stimuli_Rocks480/S_Sandstone_08.png","response":null,"trial_type":"image-keyboard-response","trial_index":185,"plugin_version":"2.1.0","time_elapsed":347674,"subject_id":"90950","group":"Group2","condition":"3_Rep","full_date":"2026-02-05T18:24:37.056Z","date":"2026-02-05","time":"18:24:37"},{"rt":null,"stimulus":"<p style=\"font-size: 50px; margin: 0; text-align: center;\">+</p>","response":null,"trial_type":"html-keyboard-response","trial_index":186,"plugin_version":"2.1.0","time_elapsed":348677,"subject_id":"90950","group":"Group2","condition":"3_Rep","full_date":"2026-02-05T18:24:37.056Z","date":"2026-02-05","time":"18:24:37"},{"task":"memory_phase","broad_category":"S","image_png":"S_Dolomite_16.png","image_id":400,"category_name":"Dolomite","category":25,"distinct_rating":1.71,"distinct_type":"Bottom","rt":null,"stimulus":"Stimuli_Rocks480/S_Dolomite_16.png","response":null,"trial_type":"image-keyboard-response","trial_index":187,"plugin_version":"2.1.0","time_elapsed":351192,"subject_id":"90950","group":"Group2","condition":"3_Rep","full_date":"2026-02-05T18:24:37.056Z","date":"2026-02-05","time":"18:24:37"},{"rt":null,"stimulus":"<p style=\"font-size: 50px; margin: 0; text-align: center;\">+</p>","response":null,"trial_type":"html-keyboard-response","trial_index":188,"plugin_version":"2.1.0","time_elapsed":352194,"subject_id":"90950","group":"Group2","condition":"3_Rep","full_date":"2026-02-05T18:24:37.056Z","date":"2026-02-05","time":"18:24:37"},{"task":"memory_phase","broad_category":"M","image_png":"M_Phyllite_05.png","image_id":261,"category_name":"Phyllite","category":17,"distinct_rating":2.14,"distinct_type":"Bottom","rt":null,"stimulus":"Stimuli_Rocks480/M_Phyllite_05.png","response":null,"trial_type":"image-keyboard-response","trial_index":189,"plugin_version":"2.1.0","time_elapsed":354709,"subject_id":"90950","group":"Group2","condition":"3_Rep","full_date":"2026-02-05T18:24:37.056Z","date":"2026-02-05","time":"18:24:37"},{"rt":null,"stimulus":"<p style=\"font-size: 50px; margin: 0; text-align: center;\">+</p>","response":null,"trial_type":"html-keyboard-response","trial_index":190,"plugin_version":"2.1.0","time_elapsed":355711,"subject_id":"90950","group":"Group2","condition":"3_Rep","full_date":"2026-02-05T18:24:37.056Z","date":"2026-02-05","time":"18:24:37"},{"task":"memory_phase","broad_category":"S","image_png":"S_Dolomite_07.png","image_id":391,"category_name":"Dolomite","category":25,"distinct_rating":1.73,"distinct_type":"Bottom","rt":null,"stimulus":"Stimuli_Rocks480/S_Dolomite_07.png","response":null,"trial_type":"image-keyboard-response","trial_index":191,"plugin_version":"2.1.0","time_elapsed":358227,"subject_id":"90950","group":"Group2","condition":"3_Rep","full_date":"2026-02-05T18:24:37.056Z","date":"2026-02-05","time":"18:24:37"},{"rt":null,"stimulus":"<p style=\"font-size: 50px; margin: 0; text-align: center;\">+</p>","response":null,"trial_type":"html-keyboard-response","trial_index":192,"plugin_version":"2.1.0","time_elapsed":359229,"subject_id":"90950","group":"Group2","condition":"3_Rep","full_date":"2026-02-05T18:24:37.056Z","date":"2026-02-05","time":"18:24:37"},{"task":"memory_phase","broad_category":"I","image_png":"I_Rhyolite_08.png","image_id":152,"category_name":"Rhyolite","category":10,"distinct_rating":1.38,"distinct_type":"Bottom","rt":null,"stimulus":"Stimuli_Rocks480/I_Rhyolite_08.png","response":null,"trial_type":"image-keyboard-response","trial_index":193,"plugin_version":"2.1.0","time_elapsed":361745,"subject_id":"90950","group":"Group2","condition":"3_Rep","full_date":"2026-02-05T18:24:37.056Z","date":"2026-02-05","time":"18:24:37"},{"rt":null,"stimulus":"<p style=\"font-size: 50px; margin: 0; text-align: center;\">+</p>","response":null,"trial_type":"html-keyboard-response","trial_index":194,"plugin_version":"2.1.0","time_elapsed":362747,"subject_id":"90950","group":"Group2","condition":"3_Rep","full_date":"2026-02-05T18:24:37.056Z","date":"2026-02-05","time":"18:24:37"},{"task":"memory_phase","broad_category":"S","image_png":"S_Rock Salt_13.png","image_id":445,"category_name":"Rock Salt","category":28,"distinct_rating":7.58,"distinct_type":"Top","rt":null,"stimulus":"Stimuli_Rocks480/S_Rock Salt_13.png","response":null,"trial_type":"image-keyboard-response","trial_index":195,"plugin_version":"2.1.0","time_elapsed":365264,"subject_id":"90950","group":"Group2","condition":"3_Rep","full_date":"2026-02-05T18:24:37.056Z","date":"2026-02-05","time":"18:24:37"},{"rt":null,"stimulus":"<p style=\"font-size: 50px; margin: 0; text-align: center;\">+</p>","response":null,"trial_type":"html-keyboard-response","trial_index":196,"plugin_version":"2.1.0","time_elapsed":366266,"subject_id":"90950","group":"Group2","condition":"3_Rep","full_date":"2026-02-05T18:24:37.056Z","date":"2026-02-05","time":"18:24:37"},{"task":"memory_phase","broad_category":"I","image_png":"I_Basalt_13.png","image_id":29,"category_name":"Basalt","category":2,"distinct_rating":2.68,"distinct_type":"Bottom","rt":null,"stimulus":"Stimuli_Rocks480/I_Basalt_13.png","response":null,"trial_type":"image-keyboard-response","trial_index":197,"plugin_version":"2.1.0","time_elapsed":368780,"subject_id":"90950","group":"Group2","condition":"3_Rep","full_date":"2026-02-05T18:24:37.056Z","date":"2026-02-05","time":"18:24:37"},{"rt":null,"stimulus":"<p style=\"font-size: 50px; margin: 0; text-align: center;\">+</p>","response":null,"trial_type":"html-keyboard-response","trial_index":198,"plugin_version":"2.1.0","time_elapsed":369782,"subject_id":"90950","group":"Group2","condition":"3_Rep","full_date":"2026-02-05T18:24:37.056Z","date":"2026-02-05","time":"18:24:37"},{"task":"memory_phase","broad_category":"M","image_png":"M_Slate_04.png","image_id":308,"category_name":"Slate","category":20,"distinct_rating":2.2,"distinct_type":"Bottom","rt":null,"stimulus":"Stimuli_Rocks480/M_Slate_04.png","response":null,"trial_type":"image-keyboard-response","trial_index":199,"plugin_version":"2.1.0","time_elapsed":372297,"subject_id":"90950","group":"Group2","condition":"3_Rep","full_date":"2026-02-05T18:24:37.056Z","date":"2026-02-05","time":"18:24:37"},{"rt":null,"stimulus":"<p style=\"font-size: 50px; margin: 0; text-align: center;\">+</p>","response":null,"trial_type":"html-keyboard-response","trial_index":200,"plugin_version":"2.1.0","time_elapsed":373299,"subject_id":"90950","group":"Group2","condition":"3_Rep","full_date":"2026-02-05T18:24:37.056Z","date":"2026-02-05","time":"18:24:37"},{"task":"memory_phase","broad_category":"S","image_png":"S_Shale_02.png","image_id":466,"category_name":"Shale","category":30,"distinct_rating":2.9,"distinct_type":"Bottom","rt":null,"stimulus":"Stimuli_Rocks480/S_Shale_02.png","response":null,"trial_type":"image-keyboard-response","trial_index":201,"plugin_version":"2.1.0","time_elapsed":375812,"subject_id":"90950","group":"Group2","condition":"3_Rep","full_date":"2026-02-05T18:24:37.056Z","date":"2026-02-05","time":"18:24:37"},{"rt":null,"stimulus":"<p style=\"font-size: 50px; margin: 0; text-align: center;\">+</p>","response":null,"trial_type":"html-keyboard-response","trial_index":202,"plugin_version":"2.1.0","time_elapsed":376814,"subject_id":"90950","group":"Group2","condition":"3_Rep","full_date":"2026-02-05T18:24:37.056Z","date":"2026-02-05","time":"18:24:37"},{"task":"memory_phase","broad_category":"M","image_png":"M_Slate_14.png","image_id":318,"category_name":"Slate","category":20,"distinct_rating":2.58,"distinct_type":"Bottom","rt":null,"stimulus":"Stimuli_Rocks480/M_Slate_14.png","response":null,"trial_type":"image-keyboard-response","trial_index":203,"plugin_version":"2.1.0","time_elapsed":379328,"subject_id":"90950","group":"Group2","condition":"3_Rep","full_date":"2026-02-05T18:24:37.056Z","date":"2026-02-05","time":"18:24:37"},{"rt":null,"stimulus":"<p style=\"font-size: 50px; margin: 0; text-align: center;\">+</p>","response":null,"trial_type":"html-keyboard-response","trial_index":204,"plugin_version":"2.1.0","time_elapsed":380330,"subject_id":"90950","group":"Group2","condition":"3_Rep","full_date":"2026-02-05T18:24:37.056Z","date":"2026-02-05","time":"18:24:37"},{"task":"memory_phase","broad_category":"M","image_png":"M_Gneiss_10.png","image_id":202,"category_name":"Gneiss","category":13,"distinct_rating":3.09,"distinct_type":"Bottom","rt":null,"stimulus":"Stimuli_Rocks480/M_Gneiss_10.png","response":null,"trial_type":"image-keyboard-response","trial_index":205,"plugin_version":"2.1.0","time_elapsed":382847,"subject_id":"90950","group":"Group2","condition":"3_Rep","full_date":"2026-02-05T18:24:37.056Z","date":"2026-02-05","time":"18:24:37"},{"rt":null,"stimulus":"<p style=\"font-size: 50px; margin: 0; text-align: center;\">+</p>","response":null,"trial_type":"html-keyboard-response","trial_index":206,"plugin_version":"2.1.0","time_elapsed":383849,"subject_id":"90950","group":"Group2","condition":"3_Rep","full_date":"2026-02-05T18:24:37.056Z","date":"2026-02-05","time":"18:24:37"},{"task":"memory_phase","broad_category":"I","image_png":"I_Andesite_09.png","image_id":9,"category_name":"Andesite","category":1,"distinct_rating":2.49,"distinct_type":"Bottom","rt":null,"stimulus":"Stimuli_Rocks480/I_Andesite_09.png","response":null,"trial_type":"image-keyboard-response","trial_index":207,"plugin_version":"2.1.0","time_elapsed":386370,"subject_id":"90950","group":"Group2","condition":"3_Rep","full_date":"2026-02-05T18:24:37.056Z","date":"2026-02-05","time":"18:24:37"},{"rt":2795,"stimulus":"<p style=\"max-width: 760px; margin: auto; font-size: 35px; line-height: 1.5;\">\n                You have completed 2 study phases. \n                Now, we'll show you all the images again 1 more time.\n                <br><br>Press SPACE to continue\n              </p>","response":" ","trial_type":"html-keyboard-response","trial_index":208,"plugin_version":"2.1.0","time_elapsed":389167,"subject_id":"90950","group":"Group2","condition":"3_Rep","full_date":"2026-02-05T18:24:37.056Z","date":"2026-02-05","time":"18:24:37"},{"rt":null,"stimulus":"<p style=\"font-size: 50px; margin: 0; text-align: center;\">+</p>","response":null,"trial_type":"html-keyboard-response","trial_index":209,"plugin_version":"2.1.0","time_elapsed":390169,"subject_id":"90950","group":"Group2","condition":"3_Rep","full_date":"2026-02-05T18:24:37.056Z","date":"2026-02-05","time":"18:24:37"},{"task":"memory_phase","broad_category":"I","image_png":"I_Obsidian_06.png","image_id":86,"category_name":"Obsidian","category":6,"distinct_rating":8.01,"distinct_type":"Top","rt":null,"stimulus":"Stimuli_Rocks480/I_Obsidian_06.png","response":null,"trial_type":"image-keyboard-response","trial_index":210,"plugin_version":"2.1.0","time_elapsed":392687,"subject_id":"90950","group":"Group2","condition":"3_Rep","full_date":"2026-02-05T18:24:37.056Z","date":"2026-02-05","time":"18:24:37"},{"rt":null,"stimulus":"<p style=\"font-size: 50px; margin: 0; text-align: center;\">+</p>","response":null,"trial_type":"html-keyboard-response","trial_index":211,"plugin_version":"2.1.0","time_elapsed":393689,"subject_id":"90950","group":"Group2","condition":"3_Rep","full_date":"2026-02-05T18:24:37.056Z","date":"2026-02-05","time":"18:24:37"},{"task":"memory_phase","broad_category":"I","image_png":"I_Rhyolite_08.png","image_id":152,"category_name":"Rhyolite","category":10,"distinct_rating":1.38,"distinct_type":"Bottom","rt":null,"stimulus":"Stimuli_Rocks480/I_Rhyolite_08.png","response":null,"trial_type":"image-keyboard-response","trial_index":212,"plugin_version":"2.1.0","time_elapsed":396193,"subject_id":"90950","group":"Group2","condition":"3_Rep","full_date":"2026-02-05T18:24:37.056Z","date":"2026-02-05","time":"18:24:37"},{"rt":null,"stimulus":"<p style=\"font-size: 50px; margin: 0; text-align: center;\">+</p>","response":null,"trial_type":"html-keyboard-response","trial_index":213,"plugin_version":"2.1.0","time_elapsed":397196,"subject_id":"90950","group":"Group2","condition":"3_Rep","full_date":"2026-02-05T18:24:37.056Z","date":"2026-02-05","time":"18:24:37"},{"task":"memory_phase","broad_category":"M","image_png":"M_Slate_14.png","image_id":318,"category_name":"Slate","category":20,"distinct_rating":2.58,"distinct_type":"Bottom","rt":null,"stimulus":"Stimuli_Rocks480/M_Slate_14.png","response":null,"trial_type":"image-keyboard-response","trial_index":214,"plugin_version":"2.1.0","time_elapsed":399700,"subject_id":"90950","group":"Group2","condition":"3_Rep","full_date":"2026-02-05T18:24:37.056Z","date":"2026-02-05","time":"18:24:37"},{"rt":null,"stimulus":"<p style=\"font-size: 50px; margin: 0; text-align: center;\">+</p>","response":null,"trial_type":"html-keyboard-response","trial_index":215,"plugin_version":"2.1.0","time_elapsed":400702,"subject_id":"90950","group":"Group2","condition":"3_Rep","full_date":"2026-02-05T18:24:37.056Z","date":"2026-02-05","time":"18:24:37"},{"task":"memory_phase","broad_category":"S","image_png":"S_Dolomite_07.png","image_id":391,"category_name":"Dolomite","category":25,"distinct_rating":1.73,"distinct_type":"Bottom","rt":null,"stimulus":"Stimuli_Rocks480/S_Dolomite_07.png","response":null,"trial_type":"image-keyboard-response","trial_index":216,"plugin_version":"2.1.0","time_elapsed":403206,"subject_id":"90950","group":"Group2","condition":"3_Rep","full_date":"2026-02-05T18:24:37.056Z","date":"2026-02-05","time":"18:24:37"},{"rt":null,"stimulus":"<p style=\"font-size: 50px; margin: 0; text-align: center;\">+</p>","response":null,"trial_type":"html-keyboard-response","trial_index":217,"plugin_version":"2.1.0","time_elapsed":404208,"subject_id":"90950","group":"Group2","condition":"3_Rep","full_date":"2026-02-05T18:24:37.056Z","date":"2026-02-05","time":"18:24:37"},{"task":"memory_phase","broad_category":"S","image_png":"S_Sandstone_11.png","image_id":459,"category_name":"Sandstone","category":29,"distinct_rating":1.82,"distinct_type":"Bottom","rt":null,"stimulus":"Stimuli_Rocks480/S_Sandstone_11.png","response":null,"trial_type":"image-keyboard-response","trial_index":218,"plugin_version":"2.1.0","time_elapsed":406726,"subject_id":"90950","group":"Group2","condition":"3_Rep","full_date":"2026-02-05T18:24:37.056Z","date":"2026-02-05","time":"18:24:37"},{"rt":null,"stimulus":"<p style=\"font-size: 50px; margin: 0; text-align: center;\">+</p>","response":null,"trial_type":"html-keyboard-response","trial_index":219,"plugin_version":"2.1.0","time_elapsed":407729,"subject_id":"90950","group":"Group2","condition":"3_Rep","full_date":"2026-02-05T18:24:37.056Z","date":"2026-02-05","time":"18:24:37"},{"task":"memory_phase","broad_category":"I","image_png":"I_Diorite_10.png","image_id":42,"category_name":"Diorite","category":3,"distinct_rating":2.84,"distinct_type":"Bottom","rt":null,"stimulus":"Stimuli_Rocks480/I_Diorite_10.png","response":null,"trial_type":"image-keyboard-response","trial_index":220,"plugin_version":"2.1.0","time_elapsed":410243,"subject_id":"90950","group":"Group2","condition":"3_Rep","full_date":"2026-02-05T18:24:37.056Z","date":"2026-02-05","time":"18:24:37"},{"rt":null,"stimulus":"<p style=\"font-size: 50px; margin: 0; text-align: center;\">+</p>","response":null,"trial_type":"html-keyboard-response","trial_index":221,"plugin_version":"2.1.0","time_elapsed":411245,"subject_id":"90950","group":"Group2","condition":"3_Rep","full_date":"2026-02-05T18:24:37.056Z","date":"2026-02-05","time":"18:24:37"},{"task":"memory_phase","broad_category":"M","image_png":"M_Phyllite_02.png","image_id":258,"category_name":"Phyllite","category":17,"distinct_rating":2.89,"distinct_type":"Bottom","rt":null,"stimulus":"Stimuli_Rocks480/M_Phyllite_02.png","response":null,"trial_type":"image-keyboard-response","trial_index":222,"plugin_version":"2.1.0","time_elapsed":413763,"subject_id":"90950","group":"Group2","condition":"3_Rep","full_date":"2026-02-05T18:24:37.056Z","date":"2026-02-05","time":"18:24:37"},{"rt":null,"stimulus":"<p style=\"font-size: 50px; margin: 0; text-align: center;\">+</p>","response":null,"trial_type":"html-keyboard-response","trial_index":223,"plugin_version":"2.1.0","time_elapsed":414765,"subject_id":"90950","group":"Group2","condition":"3_Rep","full_date":"2026-02-05T18:24:37.056Z","date":"2026-02-05","time":"18:24:37"},{"task":"memory_phase","broad_category":"I","image_png":"I_Diorite_01.png","image_id":33,"category_name":"Diorite","category":3,"distinct_rating":2.97,"distinct_type":"Bottom","rt":null,"stimulus":"Stimuli_Rocks480/I_Diorite_01.png","response":null,"trial_type":"image-keyboard-response","trial_index":224,"plugin_version":"2.1.0","time_elapsed":417283,"subject_id":"90950","group":"Group2","condition":"3_Rep","full_date":"2026-02-05T18:24:37.056Z","date":"2026-02-05","time":"18:24:37"},{"rt":null,"stimulus":"<p style=\"font-size: 50px; margin: 0; text-align: center;\">+</p>","response":null,"trial_type":"html-keyboard-response","trial_index":225,"plugin_version":"2.1.0","time_elapsed":418285,"subject_id":"90950","group":"Group2","condition":"3_Rep","full_date":"2026-02-05T18:24:37.056Z","date":"2026-02-05","time":"18:24:37"},{"task":"memory_phase","broad_category":"S","image_png":"S_Rock Salt_15.png","image_id":447,"category_name":"Rock Salt","category":28,"distinct_rating":7.79,"distinct_type":"Top","rt":null,"stimulus":"Stimuli_Rocks480/S_Rock Salt_15.png","response":null,"trial_type":"image-keyboard-response","trial_index":226,"plugin_version":"2.1.0","time_elapsed":420801,"subject_id":"90950","group":"Group2","condition":"3_Rep","full_date":"2026-02-05T18:24:37.056Z","date":"2026-02-05","time":"18:24:37"},{"rt":null,"stimulus":"<p style=\"font-size: 50px; margin: 0; text-align: center;\">+</p>","response":null,"trial_type":"html-keyboard-response","trial_index":227,"plugin_version":"2.1.0","time_elapsed":421803,"subject_id":"90950","group":"Group2","condition":"3_Rep","full_date":"2026-02-05T18:24:37.056Z","date":"2026-02-05","time":"18:24:37"},{"task":"memory_phase","broad_category":"M","image_png":"M_Gneiss_14.png","image_id":206,"category_name":"Gneiss","category":13,"distinct_rating":3.41,"distinct_type":"Bottom","rt":null,"stimulus":"Stimuli_Rocks480/M_Gneiss_14.png","response":null,"trial_type":"image-keyboard-response","trial_index":228,"plugin_version":"2.1.0","time_elapsed":424319,"subject_id":"90950","group":"Group2","condition":"3_Rep","full_date":"2026-02-05T18:24:37.056Z","date":"2026-02-05","time":"18:24:37"},{"rt":null,"stimulus":"<p style=\"font-size: 50px; margin: 0; text-align: center;\">+</p>","response":null,"trial_type":"html-keyboard-response","trial_index":229,"plugin_version":"2.1.0","time_elapsed":425322,"subject_id":"90950","group":"Group2","condition":"3_Rep","full_date":"2026-02-05T18:24:37.056Z","date":"2026-02-05","time":"18:24:37"},{"task":"memory_phase","broad_category":"I","image_png":"I_Rhyolite_10.png","image_id":154,"category_name":"Rhyolite","category":10,"distinct_rating":2.88,"distinct_type":"Bottom","rt":null,"stimulus":"Stimuli_Rocks480/I_Rhyolite_10.png","response":null,"trial_type":"image-keyboard-response","trial_index":230,"plugin_version":"2.1.0","time_elapsed":427844,"subject_id":"90950","group":"Group2","condition":"3_Rep","full_date":"2026-02-05T18:24:37.056Z","date":"2026-02-05","time":"18:24:37"},{"rt":null,"stimulus":"<p style=\"font-size: 50px; margin: 0; text-align: center;\">+</p>","response":null,"trial_type":"html-keyboard-response","trial_index":231,"plugin_version":"2.1.0","time_elapsed":428847,"subject_id":"90950","group":"Group2","condition":"3_Rep","full_date":"2026-02-05T18:24:37.056Z","date":"2026-02-05","time":"18:24:37"},{"task":"memory_phase","broad_category":"S","image_png":"S_Rock Salt_13.png","image_id":445,"category_name":"Rock Salt","category":28,"distinct_rating":7.58,"distinct_type":"Top","rt":null,"stimulus":"Stimuli_Rocks480/S_Rock Salt_13.png","response":null,"trial_type":"image-keyboard-response","trial_index":232,"plugin_version":"2.1.0","time_elapsed":431351,"subject_id":"90950","group":"Group2","condition":"3_Rep","full_date":"2026-02-05T18:24:37.056Z","date":"2026-02-05","time":"18:24:37"},{"rt":null,"stimulus":"<p style=\"font-size: 50px; margin: 0; text-align: center;\">+</p>","response":null,"trial_type":"html-keyboard-response","trial_index":233,"plugin_version":"2.1.0","time_elapsed":432353,"subject_id":"90950","group":"Group2","condition":"3_Rep","full_date":"2026-02-05T18:24:37.056Z","date":"2026-02-05","time":"18:24:37"},{"task":"memory_phase","broad_category":"M","image_png":"M_Marble_02.png","image_id":226,"category_name":"Marble","category":15,"distinct_rating":3.2,"distinct_type":"Bottom","rt":null,"stimulus":"Stimuli_Rocks480/M_Marble_02.png","response":null,"trial_type":"image-keyboard-response","trial_index":234,"plugin_version":"2.1.0","time_elapsed":434868,"subject_id":"90950","group":"Group2","condition":"3_Rep","full_date":"2026-02-05T18:24:37.056Z","date":"2026-02-05","time":"18:24:37"},{"rt":null,"stimulus":"<p style=\"font-size: 50px; margin: 0; text-align: center;\">+</p>","response":null,"trial_type":"html-keyboard-response","trial_index":235,"plugin_version":"2.1.0","time_elapsed":435870,"subject_id":"90950","group":"Group2","condition":"3_Rep","full_date":"2026-02-05T18:24:37.056Z","date":"2026-02-05","time":"18:24:37"},{"task":"memory_phase","broad_category":"S","image_png":"S_Conglomerate_14.png","image_id":382,"category_name":"Conglomerate","category":24,"distinct_rating":6.86,"distinct_type":"Top","rt":null,"stimulus":"Stimuli_Rocks480