[{"width":1272,"height":634,"webaudio":true,"browser":"edge-chromium","browser_version":"145.0.0","mobile":false,"os":"Windows 10","fullscreen":true,"vsync_rate":59.89,"webcam":true,"microphone":true,"trial_type":"browser-check","trial_index":0,"plugin_version":"2.1.0","time_elapsed":1015,"subject_id":"91553","group":"Group2","condition":"1_Rep","full_date":"2026-03-14T18:57:20.444Z","date":"2026-03-14","time":"18:57:20"},{"success":true,"timeout":false,"failed_images":[],"failed_audio":[],"failed_video":[],"trial_type":"preload","trial_index":1,"plugin_version":"2.1.0","time_elapsed":1965,"subject_id":"91553","group":"Group2","condition":"1_Rep","full_date":"2026-03-14T18:57:20.444Z","date":"2026-03-14","time":"18:57:20"},{"rt":109799,"url":"SONA_consent_memorability.html","trial_type":"external-html","trial_index":2,"plugin_version":"2.1.0","time_elapsed":111829,"subject_id":"91553","group":"Group2","condition":"1_Rep","full_date":"2026-03-14T18:57:20.444Z","date":"2026-03-14","time":"18:57:20"},{"success":true,"rt":1807,"trial_type":"fullscreen","trial_index":3,"plugin_version":"2.1.0","time_elapsed":114642,"subject_id":"91553","group":"Group2","condition":"1_Rep","full_date":"2026-03-14T18:57:20.444Z","date":"2026-03-14","time":"18:57:20"},{"rt":35841,"stimulus":"<div style=\"max-width: 760px; margin: auto; font-size: 20px; line-height: 1.5;\">\n      <h1 style=\"text-align:center; font-size: 30px;\">Instructions</h1>\n      <p>\n        Welcome to the study on <b>visual memory</b>. This experiment consists of <b>two phases</b>: \n        a <b>study phase</b> and a <b>test phase</b>.\n      </p>\n      <p>\n        In the study phase, you will see a series of rock images along with their category labels.\n        The images will appear one at a time.\n        <b>Your task</b> is to learn the categories to which the rock images belong \n        and to remember each image as accurately as possible.\n      </p> \n      <p>\n        Note that you will see each image only <b>once</b> during the study phase. \n          So, please pay close attention and try to remember each image carefully.\n      </p>\n      <p>\n        After the study phase, <b>your memory will be tested</b>. \n        Additional instructions for the test phase will be provided at that time.\n      </p>\n      <p>\n        If your computer has multiple <b>language settings</b> (e.g., English and another language),\n        please make sure it is set to English before starting.\n      </p>\n      <p>\n        You can track your progress using the <b>completion bar</b> at the top of the screen. \n        Please note that the bar will refresh when the test phase begins \n        to give you an accurate sense of your progress in both phases.\n      </p> \n      <p>\n        Press the button below when you are ready to begin.\n      </p>\n    </div>","response":0,"trial_type":"html-button-response","trial_index":4,"plugin_version":"2.1.0","time_elapsed":150485,"subject_id":"91553","group":"Group2","condition":"1_Rep","full_date":"2026-03-14T18:57:20.444Z","date":"2026-03-14","time":"18:57:20"},{"rt":null,"stimulus":"<p style=\"font-size: 50px; margin: 0; text-align: center;\">+</p>","response":null,"trial_type":"html-keyboard-response","trial_index":5,"plugin_version":"2.1.0","time_elapsed":151489,"subject_id":"91553","group":"Group2","condition":"1_Rep","full_date":"2026-03-14T18:57:20.444Z","date":"2026-03-14","time":"18:57:20"},{"task":"memory_phase","broad_category":"S","image_png":"S_Rock Salt_15.png","image_id":447,"category_name":"Rock Salt","category":28,"distinct_rating":7.79,"distinct_type":"Top","rt":null,"stimulus":"Stimuli_Rocks480/S_Rock Salt_15.png","response":null,"trial_type":"image-keyboard-response","trial_index":6,"plugin_version":"2.1.0","time_elapsed":154006,"subject_id":"91553","group":"Group2","condition":"1_Rep","full_date":"2026-03-14T18:57:20.444Z","date":"2026-03-14","time":"18:57:20"},{"rt":null,"stimulus":"<p style=\"font-size: 50px; margin: 0; text-align: center;\">+</p>","response":null,"trial_type":"html-keyboard-response","trial_index":7,"plugin_version":"2.1.0","time_elapsed":155013,"subject_id":"91553","group":"Group2","condition":"1_Rep","full_date":"2026-03-14T18:57:20.444Z","date":"2026-03-14","time":"18:57:20"},{"task":"memory_phase","broad_category":"S","image_png":"S_Chert_13.png","image_id":365,"category_name":"Chert","category":23,"distinct_rating":6.57,"distinct_type":"Top","rt":null,"stimulus":"Stimuli_Rocks480/S_Chert_13.png","response":null,"trial_type":"image-keyboard-response","trial_index":8,"plugin_version":"2.1.0","time_elapsed":157517,"subject_id":"91553","group":"Group2","condition":"1_Rep","full_date":"2026-03-14T18:57:20.444Z","date":"2026-03-14","time":"18:57:20"},{"rt":null,"stimulus":"<p style=\"font-size: 50px; margin: 0; text-align: center;\">+</p>","response":null,"trial_type":"html-keyboard-response","trial_index":9,"plugin_version":"2.1.0","time_elapsed":158533,"subject_id":"91553","group":"Group2","condition":"1_Rep","full_date":"2026-03-14T18:57:20.444Z","date":"2026-03-14","time":"18:57:20"},{"task":"memory_phase","broad_category":"S","image_png":"S_Dolomite_01.png","image_id":385,"category_name":"Dolomite","category":25,"distinct_rating":1.43,"distinct_type":"Bottom","rt":null,"stimulus":"Stimuli_Rocks480/S_Dolomite_01.png","response":null,"trial_type":"image-keyboard-response","trial_index":10,"plugin_version":"2.1.0","time_elapsed":161049,"subject_id":"91553","group":"Group2","condition":"1_Rep","full_date":"2026-03-14T18:57:20.444Z","date":"2026-03-14","time":"18:57:20"},{"rt":null,"stimulus":"<p style=\"font-size: 50px; margin: 0; text-align: center;\">+</p>","response":null,"trial_type":"html-keyboard-response","trial_index":11,"plugin_version":"2.1.0","time_elapsed":162059,"subject_id":"91553","group":"Group2","condition":"1_Rep","full_date":"2026-03-14T18:57:20.444Z","date":"2026-03-14","time":"18:57:20"},{"task":"memory_phase","broad_category":"I","image_png":"I_Gabbro_02.png","image_id":50,"category_name":"Gabbro","category":4,"distinct_rating":2.73,"distinct_type":"Bottom","rt":null,"stimulus":"Stimuli_Rocks480/I_Gabbro_02.png","response":null,"trial_type":"image-keyboard-response","trial_index":12,"plugin_version":"2.1.0","time_elapsed":164566,"subject_id":"91553","group":"Group2","condition":"1_Rep","full_date":"2026-03-14T18:57:20.444Z","date":"2026-03-14","time":"18:57:20"},{"rt":null,"stimulus":"<p style=\"font-size: 50px; margin: 0; text-align: center;\">+</p>","response":null,"trial_type":"html-keyboard-response","trial_index":13,"plugin_version":"2.1.0","time_elapsed":165579,"subject_id":"91553","group":"Group2","condition":"1_Rep","full_date":"2026-03-14T18:57:20.444Z","date":"2026-03-14","time":"18:57:20"},{"task":"memory_phase","broad_category":"I","image_png":"I_Diorite_10.png","image_id":42,"category_name":"Diorite","category":3,"distinct_rating":2.84,"distinct_type":"Bottom","rt":null,"stimulus":"Stimuli_Rocks480/I_Diorite_10.png","response":null,"trial_type":"image-keyboard-response","trial_index":14,"plugin_version":"2.1.0","time_elapsed":168094,"subject_id":"91553","group":"Group2","condition":"1_Rep","full_date":"2026-03-14T18:57:20.444Z","date":"2026-03-14","time":"18:57:20"},{"rt":null,"stimulus":"<p style=\"font-size: 50px; margin: 0; text-align: center;\">+</p>","response":null,"trial_type":"html-keyboard-response","trial_index":15,"plugin_version":"2.1.0","time_elapsed":169108,"subject_id":"91553","group":"Group2","condition":"1_Rep","full_date":"2026-03-14T18:57:20.444Z","date":"2026-03-14","time":"18:57:20"},{"task":"memory_phase","broad_category":"I","image_png":"I_Andesite_03.png","image_id":3,"category_name":"Andesite","category":1,"distinct_rating":3.17,"distinct_type":"Bottom","rt":null,"stimulus":"Stimuli_Rocks480/I_Andesite_03.png","response":null,"trial_type":"image-keyboard-response","trial_index":16,"plugin_version":"2.1.0","time_elapsed":171616,"subject_id":"91553","group":"Group2","condition":"1_Rep","full_date":"2026-03-14T18:57:20.444Z","date":"2026-03-14","time":"18:57:20"},{"rt":null,"stimulus":"<p style=\"font-size: 50px; margin: 0; text-align: center;\">+</p>","response":null,"trial_type":"html-keyboard-response","trial_index":17,"plugin_version":"2.1.0","time_elapsed":172625,"subject_id":"91553","group":"Group2","condition":"1_Rep","full_date":"2026-03-14T18:57:20.444Z","date":"2026-03-14","time":"18:57:20"},{"task":"memory_phase","broad_category":"I","image_png":"I_Basalt_08.png","image_id":24,"category_name":"Basalt","category":2,"distinct_rating":2.31,"distinct_type":"Bottom","rt":null,"stimulus":"Stimuli_Rocks480/I_Basalt_08.png","response":null,"trial_type":"image-keyboard-response","trial_index":18,"plugin_version":"2.1.0","time_elapsed":175141,"subject_id":"91553","group":"Group2","condition":"1_Rep","full_date":"2026-03-14T18:57:20.444Z","date":"2026-03-14","time":"18:57:20"},{"rt":null,"stimulus":"<p style=\"font-size: 50px; margin: 0; text-align: center;\">+</p>","response":null,"trial_type":"html-keyboard-response","trial_index":19,"plugin_version":"2.1.0","time_elapsed":176151,"subject_id":"91553","group":"Group2","condition":"1_Rep","full_date":"2026-03-14T18:57:20.444Z","date":"2026-03-14","time":"18:57:20"},{"task":"memory_phase","broad_category":"M","image_png":"M_Gneiss_15.png","image_id":207,"category_name":"Gneiss","category":13,"distinct_rating":3.11,"distinct_type":"Bottom","rt":null,"stimulus":"Stimuli_Rocks480/M_Gneiss_15.png","response":null,"trial_type":"image-keyboard-response","trial_index":20,"plugin_version":"2.1.0","time_elapsed":178657,"subject_id":"91553","group":"Group2","condition":"1_Rep","full_date":"2026-03-14T18:57:20.444Z","date":"2026-03-14","time":"18:57:20"},{"rt":null,"stimulus":"<p style=\"font-size: 50px; margin: 0; text-align: center;\">+</p>","response":null,"trial_type":"html-keyboard-response","trial_index":21,"plugin_version":"2.1.0","time_elapsed":179673,"subject_id":"91553","group":"Group2","condition":"1_Rep","full_date":"2026-03-14T18:57:20.444Z","date":"2026-03-14","time":"18:57:20"},{"task":"memory_phase","broad_category":"I","image_png":"I_Pumice_14.png","image_id":142,"category_name":"Pumice","category":9,"distinct_rating":3.22,"distinct_type":"Bottom","rt":null,"stimulus":"Stimuli_Rocks480/I_Pumice_14.png","response":null,"trial_type":"image-keyboard-response","trial_index":22,"plugin_version":"2.1.0","time_elapsed":182179,"subject_id":"91553","group":"Group2","condition":"1_Rep","full_date":"2026-03-14T18:57:20.444Z","date":"2026-03-14","time":"18:57:20"},{"rt":null,"stimulus":"<p style=\"font-size: 50px; margin: 0; text-align: center;\">+</p>","response":null,"trial_type":"html-keyboard-response","trial_index":23,"plugin_version":"2.1.0","time_elapsed":183184,"subject_id":"91553","group":"Group2","condition":"1_Rep","full_date":"2026-03-14T18:57:20.444Z","date":"2026-03-14","time":"18:57:20"},{"task":"memory_phase","broad_category":"I","image_png":"I_Andesite_04.png","image_id":4,"category_name":"Andesite","category":1,"distinct_rating":3.18,"distinct_type":"Bottom","rt":null,"stimulus":"Stimuli_Rocks480/I_Andesite_04.png","response":null,"trial_type":"image-keyboard-response","trial_index":24,"plugin_version":"2.1.0","time_elapsed":185692,"subject_id":"91553","group":"Group2","condition":"1_Rep","full_date":"2026-03-14T18:57:20.444Z","date":"2026-03-14","time":"18:57:20"},{"rt":null,"stimulus":"<p style=\"font-size: 50px; margin: 0; text-align: center;\">+</p>","response":null,"trial_type":"html-keyboard-response","trial_index":25,"plugin_version":"2.1.0","time_elapsed":186708,"subject_id":"91553","group":"Group2","condition":"1_Rep","full_date":"2026-03-14T18:57:20.444Z","date":"2026-03-14","time":"18:57:20"},{"task":"memory_phase","broad_category":"S","image_png":"S_Dolomite_16.png","image_id":400,"category_name":"Dolomite","category":25,"distinct_rating":1.71,"distinct_type":"Bottom","rt":null,"stimulus":"Stimuli_Rocks480/S_Dolomite_16.png","response":null,"trial_type":"image-keyboard-response","trial_index":26,"plugin_version":"2.1.0","time_elapsed":189218,"subject_id":"91553","group":"Group2","condition":"1_Rep","full_date":"2026-03-14T18:57:20.444Z","date":"2026-03-14","time":"18:57:20"},{"rt":null,"stimulus":"<p style=\"font-size: 50px; margin: 0; text-align: center;\">+</p>","response":null,"trial_type":"html-keyboard-response","trial_index":27,"plugin_version":"2.1.0","time_elapsed":190229,"subject_id":"91553","group":"Group2","condition":"1_Rep","full_date":"2026-03-14T18:57:20.444Z","date":"2026-03-14","time":"18:57:20"},{"task":"memory_phase","broad_category":"M","image_png":"M_Marble_02.png","image_id":226,"category_name":"Marble","category":15,"distinct_rating":3.2,"distinct_type":"Bottom","rt":null,"stimulus":"Stimuli_Rocks480/M_Marble_02.png","response":null,"trial_type":"image-keyboard-response","trial_index":28,"plugin_version":"2.1.0","time_elapsed":192732,"subject_id":"91553","group":"Group2","condition":"1_Rep","full_date":"2026-03-14T18:57:20.444Z","date":"2026-03-14","time":"18:57:20"},{"rt":null,"stimulus":"<p style=\"font-size: 50px; margin: 0; text-align: center;\">+</p>","response":null,"trial_type":"html-keyboard-response","trial_index":29,"plugin_version":"2.1.0","time_elapsed":193734,"subject_id":"91553","group":"Group2","condition":"1_Rep","full_date":"2026-03-14T18:57:20.444Z","date":"2026-03-14","time":"18:57:20"},{"task":"memory_phase","broad_category":"M","image_png":"M_Slate_14.png","image_id":318,"category_name":"Slate","category":20,"distinct_rating":2.58,"distinct_type":"Bottom","rt":null,"stimulus":"Stimuli_Rocks480/M_Slate_14.png","response":null,"trial_type":"image-keyboard-response","trial_index":30,"plugin_version":"2.1.0","time_elapsed":196245,"subject_id":"91553","group":"Group2","condition":"1_Rep","full_date":"2026-03-14T18:57:20.444Z","date":"2026-03-14","time":"18:57:20"},{"rt":null,"stimulus":"<p style=\"font-size: 50px; margin: 0; text-align: center;\">+</p>","response":null,"trial_type":"html-keyboard-response","trial_index":31,"plugin_version":"2.1.0","time_elapsed":197257,"subject_id":"91553","group":"Group2","condition":"1_Rep","full_date":"2026-03-14T18:57:20.444Z","date":"2026-03-14","time":"18:57:20"},{"task":"memory_phase","broad_category":"I","image_png":"I_Rhyolite_05.png","image_id":149,"category_name":"Rhyolite","category":10,"distinct_rating":3.02,"distinct_type":"Bottom","rt":null,"stimulus":"Stimuli_Rocks480/I_Rhyolite_05.png","response":null,"trial_type":"image-keyboard-response","trial_index":32,"plugin_version":"2.1.0","time_elapsed":199763,"subject_id":"91553","group":"Group2","condition":"1_Rep","full_date":"2026-03-14T18:57:20.444Z","date":"2026-03-14","time":"18:57:20"},{"rt":null,"stimulus":"<p style=\"font-size: 50px; margin: 0; text-align: center;\">+</p>","response":null,"trial_type":"html-keyboard-response","trial_index":33,"plugin_version":"2.1.0","time_elapsed":200778,"subject_id":"91553","group":"Group2","condition":"1_Rep","full_date":"2026-03-14T18:57:20.444Z","date":"2026-03-14","time":"18:57:20"},{"task":"memory_phase","broad_category":"S","image_png":"S_Sandstone_04.png","image_id":452,"category_name":"Sandstone","category":29,"distinct_rating":1.8,"distinct_type":"Bottom","rt":null,"stimulus":"Stimuli_Rocks480/S_Sandstone_04.png","response":null,"trial_type":"image-keyboard-response","trial_index":34,"plugin_version":"2.1.0","time_elapsed":203292,"subject_id":"91553","group":"Group2","condition":"1_Rep","full_date":"2026-03-14T18:57:20.444Z","date":"2026-03-14","time":"18:57:20"},{"rt":null,"stimulus":"<p style=\"font-size: 50px; margin: 0; text-align: center;\">+</p>","response":null,"trial_type":"html-keyboard-response","trial_index":35,"plugin_version":"2.1.0","time_elapsed":204299,"subject_id":"91553","group":"Group2","condition":"1_Rep","full_date":"2026-03-14T18:57:20.444Z","date":"2026-03-14","time":"18:57:20"},{"task":"memory_phase","broad_category":"I","image_png":"I_Peridotite_13.png","image_id":125,"category_name":"Peridotite","category":8,"distinct_rating":7.28,"distinct_type":"Top","rt":null,"stimulus":"Stimuli_Rocks480/I_Peridotite_13.png","response":null,"trial_type":"image-keyboard-response","trial_index":36,"plugin_version":"2.1.0","time_elapsed":206806,"subject_id":"91553","group":"Group2","condition":"1_Rep","full_date":"2026-03-14T18:57:20.444Z","date":"2026-03-14","time":"18:57:20"},{"rt":null,"stimulus":"<p style=\"font-size: 50px; margin: 0; text-align: center;\">+</p>","response":null,"trial_type":"html-keyboard-response","trial_index":37,"plugin_version":"2.1.0","time_elapsed":207821,"subject_id":"91553","group":"Group2","condition":"1_Rep","full_date":"2026-03-14T18:57:20.444Z","date":"2026-03-14","time":"18:57:20"},{"task":"memory_phase","broad_category":"I","image_png":"I_Rhyolite_10.png","image_id":154,"category_name":"Rhyolite","category":10,"distinct_rating":2.88,"distinct_type":"Bottom","rt":null,"stimulus":"Stimuli_Rocks480/I_Rhyolite_10.png","response":null,"trial_type":"image-keyboard-response","trial_index":38,"plugin_version":"2.1.0","time_elapsed":210326,"subject_id":"91553","group":"Group2","condition":"1_Rep","full_date":"2026-03-14T18:57:20.444Z","date":"2026-03-14","time":"18:57:20"},{"rt":null,"stimulus":"<p style=\"font-size: 50px; margin: 0; text-align: center;\">+</p>","response":null,"trial_type":"html-keyboard-response","trial_index":39,"plugin_version":"2.1.0","time_elapsed":211340,"subject_id":"91553","group":"Group2","condition":"1_Rep","full_date":"2026-03-14T18:57:20.444Z","date":"2026-03-14","time":"18:57:20"},{"task":"memory_phase","broad_category":"M","image_png":"M_Phyllite_02.png","image_id":258,"category_name":"Phyllite","category":17,"distinct_rating":2.89,"distinct_type":"Bottom","rt":null,"stimulus":"Stimuli_Rocks480/M_Phyllite_02.png","response":null,"trial_type":"image-keyboard-response","trial_index":40,"plugin_version":"2.1.0","time_elapsed":213845,"subject_id":"91553","group":"Group2","condition":"1_Rep","full_date":"2026-03-14T18:57:20.444Z","date":"2026-03-14","time":"18:57:20"},{"rt":null,"stimulus":"<p style=\"font-size: 50px; margin: 0; text-align: center;\">+</p>","response":null,"trial_type":"html-keyboard-response","trial_index":41,"plugin_version":"2.1.0","time_elapsed":214855,"subject_id":"91553","group":"Group2","condition":"1_Rep","full_date":"2026-03-14T18:57:20.444Z","date":"2026-03-14","time":"18:57:20"},{"task":"memory_phase","broad_category":"M","image_png":"M_Phyllite_05.png","image_id":261,"category_name":"Phyllite","category":17,"distinct_rating":2.14,"distinct_type":"Bottom","rt":null,"stimulus":"Stimuli_Rocks480/M_Phyllite_05.png","response":null,"trial_type":"image-keyboard-response","trial_index":42,"plugin_version":"2.1.0","time_elapsed":217363,"subject_id":"91553","group":"Group2","condition":"1_Rep","full_date":"2026-03-14T18:57:20.444Z","date":"2026-03-14","time":"18:57:20"},{"rt":null,"stimulus":"<p style=\"font-size: 50px; margin: 0; text-align: center;\">+</p>","response":null,"trial_type":"html-keyboard-response","trial_index":43,"plugin_version":"2.1.0","time_elapsed":218366,"subject_id":"91553","group":"Group2","condition":"1_Rep","full_date":"2026-03-14T18:57:20.444Z","date":"2026-03-14","time":"18:57:20"},{"task":"memory_phase","broad_category":"M","image_png":"M_Quartzite_15.png","image_id":287,"category_name":"Quartzite","category":18,"distinct_rating":2.19,"distinct_type":"Bottom","rt":null,"stimulus":"Stimuli_Rocks480/M_Quartzite_15.png","response":null,"trial_type":"image-keyboard-response","trial_index":44,"plugin_version":"2.1.0","time_elapsed":220871,"subject_id":"91553","group":"Group2","condition":"1_Rep","full_date":"2026-03-14T18:57:20.444Z","date":"2026-03-14","time":"18:57:20"},{"rt":null,"stimulus":"<p style=\"font-size: 50px; margin: 0; text-align: center;\">+</p>","response":null,"trial_type":"html-keyboard-response","trial_index":45,"plugin_version":"2.1.0","time_elapsed":221889,"subject_id":"91553","group":"Group2","condition":"1_Rep","full_date":"2026-03-14T18:57:20.444Z","date":"2026-03-14","time":"18:57:20"},{"task":"memory_phase","broad_category":"S","image_png":"S_Conglomerate_14.png","image_id":382,"category_name":"Conglomerate","category":24,"distinct_rating":6.86,"distinct_type":"Top","rt":null,"stimulus":"Stimuli_Rocks480/S_Conglomerate_14.png","response":null,"trial_type":"image-keyboard-response","trial_index":46,"plugin_version":"2.1.0","time_elapsed":224404,"subject_id":"91553","group":"Group2","condition":"1_Rep","full_date":"2026-03-14T18:57:20.444Z","date":"2026-03-14","time":"18:57:20"},{"rt":null,"stimulus":"<p style=\"font-size: 50px; margin: 0; text-align: center;\">+</p>","response":null,"trial_type":"html-keyboard-response","trial_index":47,"plugin_version":"2.1.0","time_elapsed":225422,"subject_id":"91553","group":"Group2","condition":"1_Rep","full_date":"2026-03-14T18:57:20.444Z","date":"2026-03-14","time":"18:57:20"},{"task":"memory_phase","broad_category":"I","image_png":"I_Obsidian_06.png","image_id":86,"category_name":"Obsidian","category":6,"distinct_rating":8.01,"distinct_type":"Top","rt":null,"stimulus":"Stimuli_Rocks480/I_Obsidian_06.png","response":null,"trial_type":"image-keyboard-response","trial_index":48,"plugin_version":"2.1.0","time_elapsed":227936,"subject_id":"91553","group":"Group2","condition":"1_Rep","full_date":"2026-03-14T18:57:20.444Z","date":"2026-03-14","time":"18:57:20"},{"rt":null,"stimulus":"<p style=\"font-size: 50px; margin: 0; text-align: center;\">+</p>","response":null,"trial_type":"html-keyboard-response","trial_index":49,"plugin_version":"2.1.0","time_elapsed":228944,"subject_id":"91553","group":"Group2","condition":"1_Rep","full_date":"2026-03-14T18:57:20.444Z","date":"2026-03-14","time":"18:57:20"},{"task":"memory_phase","broad_category":"M","image_png":"M_Gneiss_14.png","image_id":206,"category_name":"Gneiss","category":13,"distinct_rating":3.41,"distinct_type":"Bottom","rt":null,"stimulus":"Stimuli_Rocks480/M_Gneiss_14.png","response":null,"trial_type":"image-keyboard-response","trial_index":50,"plugin_version":"2.1.0","time_elapsed":231461,"subject_id":"91553","group":"Group2","condition":"1_Rep","full_date":"2026-03-14T18:57:20.444Z","date":"2026-03-14","time":"18:57:20"},{"rt":null,"stimulus":"<p style=\"font-size: 50px; margin: 0; text-align: center;\">+</p>","response":null,"trial_type":"html-keyboard-response","trial_index":51,"plugin_version":"2.1.0","time_elapsed":232465,"subject_id":"91553","group":"Group2","condition":"1_Rep","full_date":"2026-03-14T18:57:20.444Z","date":"2026-03-14","time":"18:57:20"},{"task":"memory_phase","broad_category":"S","image_png":"S_Shale_03.png","image_id":467,"category_name":"Shale","category":30,"distinct_rating":1.95,"distinct_type":"Bottom","rt":null,"stimulus":"Stimuli_Rocks480/S_Shale_03.png","response":null,"trial_type":"image-keyboard-response","trial_index":52,"plugin_version":"2.1.0","time_elapsed":234975,"subject_id":"91553","group":"Group2","condition":"1_Rep","full_date":"2026-03-14T18:57:20.444Z","date":"2026-03-14","time":"18:57:20"},{"rt":null,"stimulus":"<p style=\"font-size: 50px; margin: 0; text-align: center;\">+</p>","response":null,"trial_type":"html-keyboard-response","trial_index":53,"plugin_version":"2.1.0","time_elapsed":235981,"subject_id":"91553","group":"Group2","condition":"1_Rep","full_date":"2026-03-14T18:57:20.444Z","date":"2026-03-14","time":"18:57:20"},{"task":"memory_phase","broad_category":"I","image_png":"I_Rhyolite_08.png","image_id":152,"category_name":"Rhyolite","category":10,"distinct_rating":1.38,"distinct_type":"Bottom","rt":null,"stimulus":"Stimuli_Rocks480/I_Rhyolite_08.png","response":null,"trial_type":"image-keyboard-response","trial_index":54,"plugin_version":"2.1.0","time_elapsed":238487,"subject_id":"91553","group":"Group2","condition":"1_Rep","full_date":"2026-03-14T18:57:20.444Z","date":"2026-03-14","time":"18:57:20"},{"rt":2456,"stimulus":"<p style=\"max-width: 760px; margin: auto; font-size: 35px; line-height: 1.5;\">\n                Press SPACE to continue study phase\n              </p>","response":" ","trial_type":"html-keyboard-response","trial_index":55,"plugin_version":"2.1.0","time_elapsed":240944,"subject_id":"91553","group":"Group2","condition":"1_Rep","full_date":"2026-03-14T18:57:20.444Z","date":"2026-03-14","time":"18:57:20"},{"rt":null,"stimulus":"<p style=\"font-size: 50px; margin: 0; text-align: center;\">+</p>","response":null,"trial_type":"html-keyboard-response","trial_index":56,"plugin_version":"2.1.0","time_elapsed":241958,"subject_id":"91553","group":"Group2","condition":"1_Rep","full_date":"2026-03-14T18:57:20.444Z","date":"2026-03-14","time":"18:57:20"},{"task":"memory_phase","broad_category":"M","image_png":"M_Phyllite_13.png","image_id":269,"category_name":"Phyllite","category":17,"distinct_rating":2.8,"distinct_type":"Bottom","rt":null,"stimulus":"Stimuli_Rocks480/M_Phyllite_13.png","response":null,"trial_type":"image-keyboard-response","trial_index":57,"plugin_version":"2.1.0","time_elapsed":244465,"subject_id":"91553","group":"Group2","condition":"1_Rep","full_date":"2026-03-14T18:57:20.444Z","date":"2026-03-14","time":"18:57:20"},{"rt":null,"stimulus":"<p style=\"font-size: 50px; margin: 0; text-align: center;\">+</p>","response":null,"trial_type":"html-keyboard-response","trial_index":58,"plugin_version":"2.1.0","time_elapsed":245477,"subject_id":"91553","group":"Group2","condition":"1_Rep","full_date":"2026-03-14T18:57:20.444Z","date":"2026-03-14","time":"18:57:20"},{"task":"memory_phase","broad_category":"I","image_png":"I_Basalt_10.png","image_id":26,"category_name":"Basalt","category":2,"distinct_rating":2.76,"distinct_type":"Bottom","rt":null,"stimulus":"Stimuli_Rocks480/I_Basalt_10.png","response":null,"trial_type":"image-keyboard-response","trial_index":59,"plugin_version":"2.1.0","time_elapsed":247987,"subject_id":"91553","group":"Group2","condition":"1_Rep","full_date":"2026-03-14T18:57:20.444Z","date":"2026-03-14","time":"18:57:20"},{"rt":null,"stimulus":"<p style=\"font-size: 50px; margin: 0; text-align: center;\">+</p>","response":null,"trial_type":"html-keyboard-response","trial_index":60,"plugin_version":"2.1.0","time_elapsed":248995,"subject_id":"91553","group":"Group2","condition":"1_Rep","full_date":"2026-03-14T18:57:20.444Z","date":"2026-03-14","time":"18:57:20"},{"task":"memory_phase","broad_category":"S","image_png":"S_Sandstone_08.png","image_id":456,"category_name":"Sandstone","category":29,"distinct_rating":1.5,"distinct_type":"Bottom","rt":null,"stimulus":"Stimuli_Rocks480/S_Sandstone_08.png","response":null,"trial_type":"image-keyboard-response","trial_index":61,"plugin_version":"2.1.0","time_elapsed":251508,"subject_id":"91553","group":"Group2","condition":"1_Rep","full_date":"2026-03-14T18:57:20.444Z","date":"2026-03-14","time":"18:57:20"},{"rt":null,"stimulus":"<p style=\"font-size: 50px; margin: 0; text-align: center;\">+</p>","response":null,"trial_type":"html-keyboard-response","trial_index":62,"plugin_version":"2.1.0","time_elapsed":252525,"subject_id":"91553","group":"Group2","condition":"1_Rep","full_date":"2026-03-14T18:57:20.444Z","date":"2026-03-14","time":"18:57:20"},{"task":"memory_phase","broad_category":"I","image_png":"I_Diorite_15.png","image_id":47,"category_name":"Diorite","category":3,"distinct_rating":3.05,"distinct_type":"Bottom","rt":null,"stimulus":"Stimuli_Rocks480/I_Diorite_15.png","response":null,"trial_type":"image-keyboard-response","trial_index":63,"plugin_version":"2.1.0","time_elapsed":255045,"subject_id":"91553","group":"Group2","condition":"1_Rep","full_date":"2026-03-14T18:57:20.444Z","date":"2026-03-14","time":"18:57:20"},{"rt":null,"stimulus":"<p style=\"font-size: 50px; margin: 0; text-align: center;\">+</p>","response":null,"trial_type":"html-keyboard-response","trial_index":64,"plugin_version":"2.1.0","time_elapsed":256058,"subject_id":"91553","group":"Group2","condition":"1_Rep","full_date":"2026-03-14T18:57:20.444Z","date":"2026-03-14","time":"18:57:20"},{"task":"memory_phase","broad_category":"S","image_png":"S_Dolomite_07.png","image_id":391,"category_name":"Dolomite","category":25,"distinct_rating":1.73,"distinct_type":"Bottom","rt":null,"stimulus":"Stimuli_Rocks480/S_Dolomite_07.png","response":null,"trial_type":"image-keyboard-response","trial_index":65,"plugin_version":"2.1.0","time_elapsed":258568,"subject_id":"91553","group":"Group2","condition":"1_Rep","full_date":"2026-03-14T18:57:20.444Z","date":"2026-03-14","time":"18:57:20"},{"rt":null,"stimulus":"<p style=\"font-size: 50px; margin: 0; text-align: center;\">+</p>","response":null,"trial_type":"html-keyboard-response","trial_index":66,"plugin_version":"2.1.0","time_elapsed":259582,"subject_id":"91553","group":"Group2","condition":"1_Rep","full_date":"2026-03-14T18:57:20.444Z","date":"2026-03-14","time":"18:57:20"},{"task":"memory_phase","broad_category":"M","image_png":"M_Marble_03.png","image_id":227,"category_name":"Marble","category":15,"distinct_rating":2.67,"distinct_type":"Bottom","rt":null,"stimulus":"Stimuli_Rocks480/M_Marble_03.png","response":null,"trial_type":"image-keyboard-response","trial_index":67,"plugin_version":"2.1.0","time_elapsed":262094,"subject_id":"91553","group":"Group2","condition":"1_Rep","full_date":"2026-03-14T18:57:20.444Z","date":"2026-03-14","time":"18:57:20"},{"rt":null,"stimulus":"<p style=\"font-size: 50px; margin: 0; text-align: center;\">+</p>","response":null,"trial_type":"html-keyboard-response","trial_index":68,"plugin_version":"2.1.0","time_elapsed":263106,"subject_id":"91553","group":"Group2","condition":"1_Rep","full_date":"2026-03-14T18:57:20.444Z","date":"2026-03-14","time":"18:57:20"},{"task":"memory_phase","broad_category":"M","image_png":"M_Quartzite_07.png","image_id":279,"category_name":"Quartzite","category":18,"distinct_rating":1.97,"distinct_type":"Bottom","rt":null,"stimulus":"Stimuli_Rocks480/M_Quartzite_07.png","response":null,"trial_type":"image-keyboard-response","trial_index":69,"plugin_version":"2.1.0","time_elapsed":265614,"subject_id":"91553","group":"Group2","condition":"1_Rep","full_date":"2026-03-14T18:57:20.444Z","date":"2026-03-14","time":"18:57:20"},{"rt":null,"stimulus":"<p style=\"font-size: 50px; margin: 0; text-align: center;\">+</p>","response":null,"trial_type":"html-keyboard-response","trial_index":70,"plugin_version":"2.1.0","time_elapsed":266623,"subject_id":"91553","group":"Group2","condition":"1_Rep","full_date":"2026-03-14T18:57:20.444Z","date":"2026-03-14","time":"18:57:20"},{"task":"memory_phase","broad_category":"M","image_png":"M_Marble_14.png","image_id":238,"category_name":"Marble","category":15,"distinct_rating":3.31,"distinct_type":"Bottom","rt":null,"stimulus":"Stimuli_Rocks480/M_Marble_14.png","response":null,"trial_type":"image-keyboard-response","trial_index":71,"plugin_version":"2.1.0","time_elapsed":269137,"subject_id":"91553","group":"Group2","condition":"1_Rep","full_date":"2026-03-14T18:57:20.444Z","date":"2026-03-14","time":"18:57:20"},{"rt":null,"stimulus":"<p style=\"font-size: 50px; margin: 0; text-align: center;\">+</p>","response":null,"trial_type":"html-keyboard-response","trial_index":72,"plugin_version":"2.1.0","time_elapsed":270139,"subject_id":"91553","group":"Group2","condition":"1_Rep","full_date":"2026-03-14T18:57:20.444Z","date":"2026-03-14","time":"18:57:20"},{"task":"memory_phase","broad_category":"S","image_png":"S_Shale_07.png","image_id":471,"category_name":"Shale","category":30,"distinct_rating":2.73,"distinct_type":"Bottom","rt":null,"stimulus":"Stimuli_Rocks480/S_Shale_07.png","response":null,"trial_type":"image-keyboard-response","trial_index":73,"plugin_version":"2.1.0","time_elapsed":272643,"subject_id":"91553","group":"Group2","condition":"1_Rep","full_date":"2026-03-14T18:57:20.444Z","date":"2026-03-14","time":"18:57:20"},{"rt":null,"stimulus":"<p style=\"font-size: 50px; margin: 0; text-align: center;\">+</p>","response":null,"trial_type":"html-keyboard-response","trial_index":74,"plugin_version":"2.1.0","time_elapsed":273661,"subject_id":"91553","group":"Group2","condition":"1_Rep","full_date":"2026-03-14T18:57:20.444Z","date":"2026-03-14","time":"18:57:20"},{"task":"memory_phase","broad_category":"M","image_png":"M_Quartzite_12.png","image_id":284,"category_name":"Quartzite","category":18,"distinct_rating":1.92,"distinct_type":"Bottom","rt":null,"stimulus":"Stimuli_Rocks480/M_Quartzite_12.png","response":null,"trial_type":"image-keyboard-response","trial_index":75,"plugin_version":"2.1.0","time_elapsed":276175,"subject_id":"91553","group":"Group2","condition":"1_Rep","full_date":"2026-03-14T18:57:20.444Z","date":"2026-03-14","time":"18:57:20"},{"rt":null,"stimulus":"<p style=\"font-size: 50px; margin: 0; text-align: center;\">+</p>","response":null,"trial_type":"html-keyboard-response","trial_index":76,"plugin_version":"2.1.0","time_elapsed":277182,"subject_id":"91553","group":"Group2","condition":"1_Rep","full_date":"2026-03-14T18:57:20.444Z","date":"2026-03-14","time":"18:57:20"},{"task":"memory_phase","broad_category":"S","image_png":"S_Rock Salt_13.png","image_id":445,"category_name":"Rock Salt","category":28,"distinct_rating":7.58,"distinct_type":"Top","rt":null,"stimulus":"Stimuli_Rocks480/S_Rock Salt_13.png","response":null,"trial_type":"image-keyboard-response","trial_index":77,"plugin_version":"2.1.0","time_elapsed":279693,"subject_id":"91553","group":"Group2","condition":"1_Rep","full_date":"2026-03-14T18:57:20.444Z","date":"2026-03-14","time":"18:57:20"},{"rt":null,"stimulus":"<p style=\"font-size: 50px; margin: 0; text-align: center;\">+</p>","response":null,"trial_type":"html-keyboard-response","trial_index":78,"plugin_version":"2.1.0","time_elapsed":280697,"subject_id":"91553","group":"Group2","condition":"1_Rep","full_date":"2026-03-14T18:57:20.444Z","date":"2026-03-14","time":"18:57:20"},{"task":"memory_phase","broad_category":"S","image_png":"S_Shale_02.png","image_id":466,"category_name":"Shale","category":30,"distinct_rating":2.9,"distinct_type":"Bottom","rt":null,"stimulus":"Stimuli_Rocks480/S_Shale_02.png","response":null,"trial_type":"image-keyboard-response","trial_index":79,"plugin_version":"2.1.0","time_elapsed":283210,"subject_id":"91553","group":"Group2","condition":"1_Rep","full_date":"2026-03-14T18:57:20.444Z","date":"2026-03-14","time":"18:57:20"},{"rt":null,"stimulus":"<p style=\"font-size: 50px; margin: 0; text-align: center;\">+</p>","response":null,"trial_type":"html-keyboard-response","trial_index":80,"plugin_version":"2.1.0","time_elapsed":284220,"subject_id":"91553","group":"Group2","condition":"1_Rep","full_date":"2026-03-14T18:57:20.444Z","date":"2026-03-14","time":"18:57:20"},{"task":"memory_phase","broad_category":"I","image_png":"I_Basalt_13.png","image_id":29,"category_name":"Basalt","category":2,"distinct_rating":2.68,"distinct_type":"Bottom","rt":null,"stimulus":"Stimuli_Rocks480/I_Basalt_13.png","response":null,"trial_type":"image-keyboard-response","trial_index":81,"plugin_version":"2.1.0","time_elapsed":286728,"subject_id":"91553","group":"Group2","condition":"1_Rep","full_date":"2026-03-14T18:57:20.444Z","date":"2026-03-14","time":"18:57:20"},{"rt":null,"stimulus":"<p style=\"font-size: 50px; margin: 0; text-align: center;\">+</p>","response":null,"trial_type":"html-keyboard-response","trial_index":82,"plugin_version":"2.1.0","time_elapsed":287736,"subject_id":"91553","group":"Group2","condition":"1_Rep","full_date":"2026-03-14T18:57:20.444Z","date":"2026-03-14","time":"18:57:20"},{"task":"memory_phase","broad_category":"I","image_png":"I_Pegmatite_11.png","image_id":107,"category_name":"Pegmatite","category":7,"distinct_rating":7.11,"distinct_type":"Top","rt":null,"stimulus":"Stimuli_Rocks480/I_Pegmatite_11.png","response":null,"trial_type":"image-keyboard-response","trial_index":83,"plugin_version":"2.1.0","time_elapsed":290242,"subject_id":"91553","group":"Group2","condition":"1_Rep","full_date":"2026-03-14T18:57:20.444Z","date":"2026-03-14","time":"18:57:20"},{"rt":null,"stimulus":"<p style=\"font-size: 50px; margin: 0; text-align: center;\">+</p>","response":null,"trial_type":"html-keyboard-response","trial_index":84,"plugin_version":"2.1.0","time_elapsed":291258,"subject_id":"91553","group":"Group2","condition":"1_Rep","full_date":"2026-03-14T18:57:20.444Z","date":"2026-03-14","time":"18:57:20"},{"task":"memory_phase","broad_category":"S","image_png":"S_Sandstone_11.png","image_id":459,"category_name":"Sandstone","category":29,"distinct_rating":1.82,"distinct_type":"Bottom","rt":null,"stimulus":"Stimuli_Rocks480/S_Sandstone_11.png","response":null,"trial_type":"image-keyboard-response","trial_index":85,"plugin_version":"2.1.0","time_elapsed":293765,"subject_id":"91553","group":"Group2","condition":"1_Rep","full_date":"2026-03-14T18:57:20.444Z","date":"2026-03-14","time":"18:57:20"},{"rt":null,"stimulus":"<p style=\"font-size: 50px; margin: 0; text-align: center;\">+</p>","response":null,"trial_type":"html-keyboard-response","trial_index":86,"plugin_version":"2.1.0","time_elapsed":294780,"subject_id":"91553","group":"Group2","condition":"1_Rep","full_date":"2026-03-14T18:57:20.444Z","date":"2026-03-14","time":"18:57:20"},{"task":"memory_phase","broad_category":"I","image_png":"I_Pumice_01.png","image_id":129,"category_name":"Pumice","category":9,"distinct_rating":3.25,"distinct_type":"Bottom","rt":null,"stimulus":"Stimuli_Rocks480/I_Pumice_01.png","response":null,"trial_type":"image-keyboard-response","trial_index":87,"plugin_version":"2.1.0","time_elapsed":297293,"subject_id":"91553","group":"Group2","condition":"1_Rep","full_date":"2026-03-14T18:57:20.444Z","date":"2026-03-14","time":"18:57:20"},{"rt":null,"stimulus":"<p style=\"font-size: 50px; margin: 0; text-align: center;\">+</p>","response":null,"trial_type":"html-keyboard-response","trial_index":88,"plugin_version":"2.1.0","time_elapsed":298304,"subject_id":"91553","group":"Group2","condition":"1_Rep","full_date":"2026-03-14T18:57:20.444Z","date":"2026-03-14","time":"18:57:20"},{"task":"memory_phase","broad_category":"I","image_png":"I_Pegmatite_03.png","image_id":99,"category_name":"Pegmatite","category":7,"distinct_rating":7.24,"distinct_type":"Top","rt":null,"stimulus":"Stimuli_Rocks480/I_Pegmatite_03.png","response":null,"trial_type":"image-keyboard-response","trial_index":89,"plugin_version":"2.1.0","time_elapsed":300808,"subject_id":"91553","group":"Group2","condition":"1_Rep","full_date":"2026-03-14T18:57:20.444Z","date":"2026-03-14","time":"18:57:20"},{"rt":null,"stimulus":"<p style=\"font-size: 50px; margin: 0; text-align: center;\">+</p>","response":null,"trial_type":"html-keyboard-response","trial_index":90,"plugin_version":"2.1.0","time_elapsed":301812,"subject_id":"91553","group":"Group2","condition":"1_Rep","full_date":"2026-03-14T18:57:20.444Z","date":"2026-03-14","time":"18:57:20"},{"task":"memory_phase","broad_category":"I","image_png":"I_Gabbro_12.png","image_id":60,"category_name":"Gabbro","category":4,"distinct_rating":2.6,"distinct_type":"Bottom","rt":null,"stimulus":"Stimuli_Rocks480/I_Gabbro_12.png","response":null,"trial_type":"image-keyboard-response","trial_index":91,"plugin_version":"2.1.0","time_elapsed":304326,"subject_id":"91553","group":"Group2","condition":"1_Rep","full_date":"2026-03-14T18:57:20.444Z","date":"2026-03-14","time":"18:57:20"},{"rt":null,"stimulus":"<p style=\"font-size: 50px; margin: 0; text-align: center;\">+</p>","response":null,"trial_type":"html-keyboard-response","trial_index":92,"plugin_version":"2.1.0","time_elapsed":305336,"subject_id":"91553","group":"Group2","condition":"1_Rep","full_date":"2026-03-14T18:57:20.444Z","date":"2026-03-14","time":"18:57:20"},{"task":"memory_phase","broad_category":"I","image_png":"I_Andesite_09.png","image_id":9,"category_name":"Andesite","category":1,"distinct_rating":2.49,"distinct_type":"Bottom","rt":null,"stimulus":"Stimuli_Rocks480/I_Andesite_09.png","response":null,"trial_type":"image-keyboard-response","trial_index":93,"plugin_version":"2.1.0","time_elapsed":307845,"subject_id":"91553","group":"Group2","condition":"1_Rep","full_date":"2026-03-14T18:57:20.444Z","date":"2026-03-14","time":"18:57:20"},{"rt":null,"stimulus":"<p style=\"font-size: 50px; margin: 0; text-align: center;\">+</p>","response":null,"trial_type":"html-keyboard-response","trial_index":94,"plugin_version":"2.1.0","time_elapsed":308861,"subject_id":"91553","group":"Group2","condition":"1_Rep","full_date":"2026-03-14T18:57:20.444Z","date":"2026-03-14","time":"18:57:20"},{"task":"memory_phase","broad_category":"I","image_png":"I_Diorite_01.png","image_id":33,"category_name":"Diorite","category":3,"distinct_rating":2.97,"distinct_type":"Bottom","rt":null,"stimulus":"Stimuli_Rocks480/I_Diorite_01.png","response":null,"trial_type":"image-keyboard-response","trial_index":95,"plugin_version":"2.1.0","time_elapsed":311379,"subject_id":"91553","group":"Group2","condition":"1_Rep","full_date":"2026-03-14T18:57:20.444Z","date":"2026-03-14","time":"18:57:20"},{"rt":null,"stimulus":"<p style=\"font-size: 50px; margin: 0; text-align: center;\">+</p>","response":null,"trial_type":"html-keyboard-response","trial_index":96,"plugin_version":"2.1.0","time_elapsed":312391,"subject_id":"91553","group":"Group2","condition":"1_Rep","full_date":"2026-03-14T18:57:20.444Z","date":"2026-03-14","time":"18:57:20"},{"task":"memory_phase","broad_category":"M","image_png":"M_Slate_04.png","image_id":308,"category_name":"Slate","category":20,"distinct_rating":2.2,"distinct_type":"Bottom","rt":null,"stimulus":"Stimuli_Rocks480/M_Slate_04.png","response":null,"trial_type":"image-keyboard-response","trial_index":97,"plugin_version":"2.1.0","time_elapsed":314900,"subject_id":"91553","group":"Group2","condition":"1_Rep","full_date":"2026-03-14T18:57:20.444Z","date":"2026-03-14","time":"18:57:20"},{"rt":null,"stimulus":"<p style=\"font-size: 50px; margin: 0; text-align: center;\">+</p>","response":null,"trial_type":"html-keyboard-response","trial_index":98,"plugin_version":"2.1.0","time_elapsed":315916,"subject_id":"91553","group":"Group2","condition":"1_Rep","full_date":"2026-03-14T18:57:20.444Z","date":"2026-03-14","time":"18:57:20"},{"task":"memory_phase","broad_category":"M","image_png":"M_Gneiss_10.png","image_id":202,"category_name":"Gneiss","category":13,"distinct_rating":3.09,"distinct_type":"Bottom","rt":null,"stimulus":"Stimuli_Rocks480/M_Gneiss_10.png","response":null,"trial_type":"image-keyboard-response","trial_index":99,"plugin_version":"2.1.0","time_elapsed":318433,"subject_id":"91553","group":"Group2","condition":"1_Rep","full_date":"2026-03-14T18:57:20.444Z","date":"2026-03-14","time":"18:57:20"},{"rt":null,"stimulus":"<p style=\"font-size: 50px; margin: 0; text-align: center;\">+</p>","response":null,"trial_type":"html-keyboard-response","trial_index":100,"plugin_version":"2.1.0","time_elapsed":319450,"subject_id":"91553","group":"Group2","condition":"1_Rep","full_date":"2026-03-14T18:57:20.444Z","date":"2026-03-14","time":"18:57:20"},{"task":"memory_phase","broad_category":"M","image_png":"M_Slate_10.png","image_id":314,"category_name":"Slate","category":20,"distinct_rating":1.94,"distinct_type":"Bottom","rt":null,"stimulus":"Stimuli_Rocks480/M_Slate_10.png","response":null,"trial_type":"image-keyboard-response","trial_index":101,"plugin_version":"2.1.0","time_elapsed":321962,"subject_id":"91553","group":"Group2","condition":"1_Rep","full_date":"2026-03-14T18:57:20.444Z","date":"2026-03-14","time":"18:57:20"},{"rt":null,"stimulus":"<p style=\"font-size: 50px; margin: 0; text-align: center;\">+</p>","response":null,"trial_type":"html-keyboard-response","trial_index":102,"plugin_version":"2.1.0","time_elapsed":322975,"subject_id":"91553","group":"Group2","condition":"1_Rep","full_date":"2026-03-14T18:57:20.444Z","date":"2026-03-14","time":"18:57:20"},{"task":"memory_phase","broad_category":"I","image_png":"I_Gabbro_14.png","image_id":62,"category_name":"Gabbro","category":4,"distinct_rating":2.95,"distinct_type":"Bottom","rt":null,"stimulus":"Stimuli_Rocks480/I_Gabbro_14.png","response":null,"trial_type":"image-keyboard-response","trial_index":103,"plugin_version":"2.1.0","time_elapsed":325489,"subject_id":"91553","group":"Group2","condition":"1_Rep","full_date":"2026-03-14T18:57:20.444Z","date":"2026-03-14","time":"18:57:20"},{"rt":null,"stimulus":"<p style=\"font-size: 50px; margin: 0; text-align: center;\">+</p>","response":null,"trial_type":"html-keyboard-response","trial_index":104,"plugin_version":"2.1.0","time_elapsed":326506,"subject_id":"91553","group":"Group2","condition":"1_Rep","full_date":"2026-03-14T18:57:20.444Z","date":"2026-03-14","time":"18:57:20"},{"task":"memory_phase","broad_category":"I","image_png":"I_Pumice_13.png","image_id":141,"category_name":"Pumice","category":9,"distinct_rating":3.12,"distinct_type":"Bottom","rt":null,"stimulus":"Stimuli_Rocks480/I_Pumice_13.png","response":null,"trial_type":"image-keyboard-response","trial_index":105,"plugin_version":"2.1.0","time_elapsed":329011,"subject_id":"91553","group":"Group2","condition":"1_Rep","full_date":"2026-03-14T18:57:20.444Z","date":"2026-03-14","time":"18:57:20"},{"rt":17220,"stimulus":"<div style=\"max-width: 760px; margin: auto; font-size: 20px; line-height: 1.5;\">\n      <h1 style=\"text-align:center; font-size: 30px;\">Instructions for the Test Phase</h1>\n      <p>\n        The study phase is now complete.\n      </p>\n      <p>\n        In the test phase, you will again see a series of rock images. \n        Some will be ones you saw before - during the study phase, while others will be new.  \n        <b>Your task</b> is to decide whether you have seen each image before by pressing the corresponding key on your keyboard:<br><br>\n          <b>A</b> - NO (you did not see this image before)<br>\n          <b>L</b> - YES (you saw this image before)<br><br>\n        The test will proceed at your own pace. You will receive feedback after each response.  \n        Please try to respond <b>as accurately as possible</b>.\n      </p>\n      <p>\n        <b>Reminder:</b> If your computer has multiple language settings (e.g., English and another language),\n        please ensure it is set to English during the test phase.\n      </p>\n      <p>\n        You can track your progress using the <b>completion bar</b> at the top of the screen.  \n        Note that it has been refreshed to reflect your progress during this final phase.\n      </p>\n      <p>\n        Press the button below when you are ready to continue.\n      </p>\n    </div>","response":0,"trial_type":"html-button-response","trial_index":106,"plugin_version":"2.1.0","time_elapsed":346233,"subject_id":"91553","group":"Group2","condition":"1_Rep","full_date":"2026-03-14T18:57:20.444Z","date":"2026-03-14","time":"18:57:20"},{"correct_response":"a","task":"test_phase","broad_category":"S","image_png":"S_Shale_01.png","image_id":465,"category_name":"Shale","category":30,"distinct_rating":2.7,"distinct_type":"Bottom","item_type":"Foil","rt":2506,"stimulus":"Stimuli_Rocks480/S_Shale_01.png","response":"l","trial_type":"image-keyboard-response","trial_index":107,"plugin_version":"2.1.0","time_elapsed":348741,"subject_id":"91553","group":"Group2","condition":"1_Rep","full_date":"2026-03-14T18:57:20.444Z","date":"2026-03-14","time":"18:57:20","cor_ans":false},{"trial_type":"html-keyboard-response","rt":null,"stimulus":"<p style=\"color: red; font-size: 50px; font-weight: bold;\">Incorrect</p>","response":null,"trial_index":108,"plugin_version":"2.1.0","time_elapsed":349252,"subject_id":"91553","group":"Group2","condition":"1_Rep","full_date":"2026-03-14T18:57:20.444Z","date":"2026-03-14","time":"18:57:20"},{"correct_response":"a","task":"test_phase","broad_category":"I","image_png":"I_Gabbro_11.png","image_id":59,"category_name":"Gabbro","category":4,"distinct_rating":1.99,"distinct_type":"Bottom","item_type":"Foil","rt":5456,"stimulus":"Stimuli_Rocks480/I_Gabbro_11.png","response":"l","trial_type":"image-keyboard-response","trial_index":109,"plugin_version":"2.1.0","time_elapsed":354709,"subject_id":"91553","group":"Group2","condition":"1_Rep","full_date":"2026-03-14T18:57:20.444Z","date":"2026-03-14","time":"18:57:20","cor_ans":false},{"trial_type":"html-keyboard-response","rt":null,"stimulus":"<p style=\"color: red; font-size: 50px; font-weight: bold;\">Incorrect</p>","response":null,"trial_index":110,"plugin_version":"2.1.0","time_elapsed":355220,"subject_id":"91553","group":"Group2","condition":"1_Rep","full_date":"2026-03-14T18:57:20.444Z","date":"2026-03-14","time":"18:57:20"},{"correct_response":"a","task":"test_phase","broad_category":"I","image_png":"I_Basalt_02.png","image_id":18,"category_name":"Basalt","category":2,"distinct_rating":1.84,"distinct_type":"Bottom","item_type":"Foil","rt":1720,"stimulus":"Stimuli_Rocks480/I_Basalt_02.png","response":"a","trial_type":"image-keyboard-response","trial_index":111,"plugin_version":"2.1.0","time_elapsed":356942,"subject_id":"91553","group":"Group2","condition":"1_Rep","full_date":"2026-03-14T18:57:20.444Z","date":"2026-03-14","time":"18:57:20","cor_ans":true},{"trial_type":"html-keyboard-response","rt":null,"stimulus":"<p style=\"color: green; font-size: 50px; font-weight: bold;\">Correct</p>","response":null,"trial_index":112,"plugin_version":"2.1.0","time_elapsed":357450,"subject_id":"91553","group":"Group2","condition":"1_Rep","full_date":"2026-03-14T18:57:20.444Z","date":"2026-03-14","time":"18:57:20"},{"correct_response":"l","task":"test_phase","broad_category":"S","image_png":"S_Shale_03.png","image_id":467,"category_name":"Shale","category":30,"distinct_rating":1.95,"distinct_type":"Bottom","item_type":"Target","rt":1431,"stimulus":"Stimuli_Rocks480/S_Shale_03.png","response":"l","trial_type":"image-keyboard-response","trial_index":113,"plugin_version":"2.1.0","time_elapsed":358882,"subject_id":"91553","group":"Group2","condition":"1_Rep","full_date":"2026-03-14T18:57:20.444Z","date":"2026-03-14","time":"18:57:20","cor_ans":true},{"trial_type":"html-keyboard-response","rt":null,"stimulus":"<p style=\"color: green; font-size: 50px; font-weight: bold;\">Correct</p>","response":null,"trial_index":114,"plugin_version":"2.1.0","time_elapsed":359386,"subject_id":"91553","group":"Group2","condition":"1_Rep","full_date":"2026-03-14T18:57:20.444Z","date":"2026-03-14","time":"18:57:20"},{"correct_response":"l","task":"test_phase","broad_category":"I","image_png":"I_Rhyolite_05.png","image_id":149,"category_name":"Rhyolite","category":10,"distinct_rating":3.02,"distinct_type":"Bottom","item_type":"Target","rt":2369,"stimulus":"Stimuli_Rocks480/I_Rhyolite_05.png","response":"a","trial_type":"image-keyboard-response","trial_index":115,"plugin_version":"2.1.0","time_elapsed":361756,"subject_id":"91553","group":"Group2","condition":"1_Rep","full_date":"2026-03-14T18:57:20.444Z","date":"2026-03-14","time":"18:57:20","cor_ans":false},{"trial_type":"html-keyboard-response","rt":null,"stimulus":"<p style=\"color: red; font-size: 50px; font-weight: bold;\">Incorrect</p>","response":null,"trial_index":116,"plugin_version":"2.1.0","time_elapsed":362273,"subject_id":"91553","group":"Group2","condition":"1_Rep","full_date":"2026-03-14T18:57:20.444Z","date":"2026-03-14","time":"18:57:20"},{"correct_response":"a","task":"test_phase","broad_category":"I","image_png":"I_Pumice_11.png","image_id":139,"category_name":"Pumice","category":9,"distinct_rating":1.74,"distinct_type":"Bottom","item_type":"Foil","rt":1150,"stimulus":"Stimuli_Rocks480/I_Pumice_11.png","response":"l","trial_type":"image-keyboard-response","trial_index":117,"plugin_version":"2.1.0","time_elapsed":363424,"subject_id":"91553","group":"Group2","condition":"1_Rep","full_date":"2026-03-14T18:57:20.444Z","date":"2026-03-14","time":"18:57:20","cor_ans":false},{"trial_type":"html-keyboard-response","rt":null,"stimulus":"<p style=\"color: red; font-size: 50px; font-weight: bold;\">Incorrect</p>","response":null,"trial_index":118,"plugin_version":"2.1.0","time_elapsed":363928,"subject_id":"91553","group":"Group2","condition":"1_Rep","full_date":"2026-03-14T18:57:20.444Z","date":"2026-03-14","time":"18:57:20"},{"correct_response":"a","task":"test_phase","broad_category":"M","image_png":"M_Gneiss_13.png","image_id":205,"category_name":"Gneiss","category":13,"distinct_rating":3.26,"distinct_type":"Bottom","item_type":"Foil","rt":1855,"stimulus":"Stimuli_Rocks480/M_Gneiss_13.png","response":"l","trial_type":"image-keyboard-response","trial_index":119,"plugin_version":"2.1.0","time_elapsed":365785,"subject_id":"91553","group":"Group2","condition":"1_Rep","full_date":"2026-03-14T18:57:20.444Z","date":"2026-03-14","time":"18:57:20","cor_ans":false},{"trial_type":"html-keyboard-response","rt":null,"stimulus":"<p style=\"color: red; font-size: 50px; font-weight: bold;\">Incorrect</p>","response":null,"trial_index":120,"plugin_version":"2.1.0","time_elapsed":366291,"subject_id":"91553","group":"Group2","condition":"1_Rep","full_date":"2026-03-14T18:57:20.444Z","date":"2026-03-14","time":"18:57:20"},{"correct_response":"a","task":"test_phase","broad_category":"I","image_png":"I_Pumice_12.png","image_id":140,"category_name":"Pumice","category":9,"distinct_rating":2.97,"distinct_type":"Bottom","item_type":"Foil","rt":1989,"stimulus":"Stimuli_Rocks480/I_Pumice_12.png","response":"a","trial_type":"image-keyboard-response","trial_index":121,"plugin_version":"2.1.0","time_elapsed":368282,"subject_id":"91553","group":"Group2","condition":"1_Rep","full_date":"2026-03-14T18:57:20.444Z","date":"2026-03-14","time":"18:57:20","cor_ans":true},{"trial_type":"html-keyboard-response","rt":null,"stimulus":"<p style=\"color: green; font-size: 50px; font-weight: bold;\">Correct</p>","response":null,"trial_index":122,"plugin_version":"2.1.0","time_elapsed":368787,"subject_id":"91553","group":"Group2","condition":"1_Rep","full_date":"2026-03-14T18:57:20.444Z","date":"2026-03-14","time":"18:57:20"},{"correct_response":"l","task":"test_phase","broad_category":"I","image_png":"I_Pegmatite_11.png","image_id":107,"category_name":"Pegmatite","category":7,"distinct_rating":7.11,"distinct_type":"Top","item_type":"Target","rt":1507,"stimulus":"Stimuli_Rocks480/I_Pegmatite_11.png","response":"l","trial_type":"image-keyboard-response","trial_index":123,"plugin_version":"2.1.0","time_elapsed":370296,"subject_id":"91553","group":"Group2","condition":"1_Rep","full_date":"2026-03-14T18:57:20.444Z","date":"2026-03-14","time":"18:57:20","cor_ans":true},{"trial_type":"html-keyboard-response","rt":null,"stimulus":"<p style=\"color: green; font-size: 50px; font-weight: bold;\">Correct</p>","response":null,"trial_index":124,"plugin_version":"2.1.0","time_elapsed":370800,"subject_id":"91553","group":"Group2","condition":"1_Rep","full_date":"2026-03-14T18:57:20.444Z","date":"2026-03-14","time":"18:57:20"},{"correct_response":"a","task":"test_phase","broad_category":"S","image_png":"S_Chert_10.png","image_id":362,"category_name":"Chert","category":23,"distinct_rating":7.17,"distinct_type":"Top","item_type":"Foil","rt":1021,"stimulus":"Stimuli_Rocks480/S_Chert_10.png","response":"a","trial_type":"image-keyboard-response","trial_index":125,"plugin_version":"2.1.0","time_elapsed":371822,"subject_id":"91553","group":"Group2","condition":"1_Rep","full_date":"2026-03-14T18:57:20.444Z","date":"2026-03-14","time":"18:57:20","cor_ans":true},{"trial_type":"html-keyboard-response","rt":null,"stimulus":"<p style=\"color: green; font-size: 50px; font-weight: bold;\">Correct</p>","response":null,"trial_index":126,"plugin_version":"2.1.0","time_elapsed":372331,"subject_id":"91553","group":"Group2","condition":"1_Rep","full_date":"2026-03-14T18:57:20.444Z","date":"2026-03-14","time":"18:57:20"},{"correct_response":"a","task":"test_phase","broad_category":"M","image_png":"M_Marble_04.png","image_id":228,"category_name":"Marble","category":15,"distinct_rating":3.15,"distinct_type":"Bottom","item_type":"Foil","rt":1246,"stimulus":"Stimuli_Rocks480/M_Marble_04.png","response":"a","trial_type":"image-keyboard-response","trial_index":127,"plugin_version":"2.1.0","time_elapsed":373579,"subject_id":"91553","group":"Group2","condition":"1_Rep","full_date":"2026-03-14T18:57:20.444Z","date":"2026-03-14","time":"18:57:20","cor_ans":true},{"trial_type":"html-keyboard-response","rt":null,"stimulus":"<p style=\"color: green; font-size: 50px; font-weight: bold;\">Correct</p>","response":null,"trial_index":128,"plugin_version":"2.1.0","time_elapsed":374091,"subject_id":"91553","group":"Group2","condition":"1_Rep","full_date":"2026-03-14T18:57:20.444Z","date":"2026-03-14","time":"18:57:20"},{"correct_response":"l","task":"test_phase","broad_category":"S","image_png":"S_Conglomerate_14.png","image_id":382,"category_name":"Conglomerate","category":24,"distinct_rating":6.86,"distinct_type":"Top","item_type":"Target","rt":3238,"stimulus":"Stimuli_Rocks480/S_Conglomerate_14.png","response":"a","trial_type":"image-keyboard-response","trial_index":129,"plugin_version":"2.1.0","time_elapsed":377331,"subject_id":"91553","group":"Group2","condition":"1_Rep","full_date":"2026-03-14T18:57:20.444Z","date":"2026-03-14","time":"18:57:20","cor_ans":false},{"trial_type":"html-keyboard-response","rt":null,"stimulus":"<p style=\"color: red; font-size: 50px; font-weight: bold;\">Incorrect</p>","response":null,"trial_index":130,"plugin_version":"2.1.0","time_elapsed":377834,"subject_id":"91553","group":"Group2","condition":"1_Rep","full_date":"2026-03-14T18:57:20.444Z","date":"2026-03-14","time":"18:57:20"},{"correct_response":"l","task":"test_phase","broad_category":"I","image_png":"I_Andesite_03.png","image_id":3,"category_name":"Andesite","category":1,"distinct_rating":3.17,"distinct_type":"Bottom","item_type":"Target","rt":1312,"stimulus":"Stimuli_Rocks480/I_Andesite_03.png","response":"a","trial_type":"image-keyboard-response","trial_index":131,"plugin_version":"2.1.0","time_elapsed":379147,"subject_id":"91553","group":"Group2","condition":"1_Rep","full_date":"2026-03-14T18:57:20.444Z","date":"2026-03-14","time":"18:57:20","cor_ans":false},{"trial_type":"html-keyboard-response","rt":null,"stimulus":"<p style=\"color: red; font-size: 50px; font-weight: bold;\">Incorrect</p>","response":null,"trial_index":132,"plugin_version":"2.1.0","time_elapsed":379658,"subject_id":"91553","group":"Group2","condition":"1_Rep","full_date":"2026-03-14T18:57:20.444Z","date":"2026-03-14","time":"18:57:20"},{"correct_response":"l","task":"test_phase","broad_category":"M","image_png":"M_Phyllite_02.png","image_id":258,"category_name":"Phyllite","category":17,"distinct_rating":2.89,"distinct_type":"Bottom","item_type":"Target","rt":1375,"stimulus":"Stimuli_Rocks480/M_Phyllite_02.png","response":"a","trial_type":"image-keyboard-response","trial_index":133,"plugin_version":"2.1.0","time_elapsed":381035,"subject_id":"91553","group":"Group2","condition":"1_Rep","full_date":"2026-03-14T18:57:20.444Z","date":"2026-03-14","time":"18:57:20","cor_ans":false},{"trial_type":"html-keyboard-response","rt":null,"stimulus":"<p style=\"color: red; font-size: 50px; font-weight: bold;\">Incorrect</p>","response":null,"trial_index":134,"plugin_version":"2.1.0","time_elapsed":381543,"subject_id":"91553","group":"Group2","condition":"1_Rep","full_date":"2026-03-14T18:57:20.444Z","date":"2026-03-14","time":"18:57:20"},{"correct_response":"a","task":"test_phase","broad_category":"I","image_png":"I_Rhyolite_11.png","image_id":155,"category_name":"Rhyolite","category":10,"distinct_rating":1.73,"distinct_type":"Bottom","item_type":"Foil","rt":2326,"stimulus":"Stimuli_Rocks480/I_Rhyolite_11.png","response":"a","trial_type":"image-keyboard-response","trial_index":135,"plugin_version":"2.1.0","time_elapsed":383871,"subject_id":"91553","group":"Group2","condition":"1_Rep","full_date":"2026-03-14T18:57:20.444Z","date":"2026-03-14","time":"18:57:20","cor_ans":true},{"trial_type":"html-keyboard-response","rt":null,"stimulus":"<p style=\"color: green; font-size: 50px; font-weight: bold;\">Correct</p>","response":null,"trial_index":136,"plugin_version":"2.1.0","time_elapsed":384375,"subject_id":"91553","group":"Group2","condition":"1_Rep","full_date":"2026-03-14T18:57:20.444Z","date":"2026-03-14","time":"18:57:20"},{"correct_response":"l","task":"test_phase","broad_category":"S","image_png":"S_Dolomite_01.png","image_id":385,"category_name":"Dolomite","category":25,"distinct_rating":1.43,"distinct_type":"Bottom","item_type":"Target","rt":1459,"stimulus":"Stimuli_Rocks480/S_Dolomite_01.png","response":"l","trial_type":"image-keyboard-response","trial_index":137,"plugin_version":"2.1.0","time_elapsed":385835,"subject_id":"91553","group":"Group2","condition":"1_Rep","full_date":"2026-03-14T18:57:20.444Z","date":"2026-03-14","time":"18:57:20","cor_ans":true},{"trial_type":"html-keyboard-response","rt":null,"stimulus":"<p style=\"color: green; font-size: 50px; font-weight: bold;\">Correct</p>","response":null,"trial_index":138,"plugin_version":"2.1.0","time_elapsed":386351,"subject_id":"91553","group":"Group2","condition":"1_Rep","full_date":"2026-03-14T18:57:20.444Z","date":"2026-03-14","time":"18:57:20"},{"correct_response":"l","task":"test_phase","broad_category":"M","image_png":"M_Slate_14.png","image_id":318,"category_name":"Slate","category":20,"distinct_rating":2.58,"distinct_type":"Bottom","item_type":"Target","rt":933,"stimulus":"Stimuli_Rocks480/M_Slate_14.png","response":"l","trial_type":"image-keyboard-response","trial_index":139,"plugin_version":"2.1.0","time_elapsed":387286,"subject_id":"91553","group":"Group2","condition":"1_Rep","full_date":"2026-03-14T18:57:20.444Z","date":"2026-03-14","time":"18:57:20","cor_ans":true},{"trial_type":"html-keyboard-response","rt":null,"stimulus":"<p style=\"color: green; font-size: 50px; font-weight: bold;\">Correct</p>","response":null,"trial_index":140,"plugin_version":"2.1.0","time_elapsed":387801,"subject_id":"91553","group":"Group2","condition":"1_Rep","full_date":"2026-03-14T18:57:20.444Z","date":"2026-03-14","time":"18:57:20"},{"correct_response":"l","task":"test_phase","broad_category":"I","image_png":"I_Basalt_13.png","image_id":29,"category_name":"Basalt","category":2,"distinct_rating":2.68,"distinct_type":"Bottom","item_type":"Target","rt":1165,"stimulus":"Stimuli_Rocks480/I_Basalt_13.png","response":"a","trial_type":"image-keyboard-response","trial_index":141,"plugin_version":"2.1.0","time_elapsed":388968,"subject_id":"91553","group":"Group2","condition":"1_Rep","full_date":"2026-03-14T18:57:20.444Z","date":"2026-03-14","time":"18:57:20","cor_ans":false},{"trial_type":"html-keyboard-response","rt":null,"stimulus":"<p style=\"color: red; font-size: 50px; font-weight: bold;\">Incorrect</p>","response":null,"trial_index":142,"plugin_version":"2.1.0","time_elapsed":389477,"subject_id":"91553","group":"Group2","condition":"1_Rep","full_date":"2026-03-14T18:57:20.444Z","date":"2026-03-14","time":"18:57:20"},{"correct_response":"a","task":"test_phase","broad_category":"I","image_png":"I_Pumice_08.png","image_id":136,"category_name":"Pumice","category":9,"distinct_rating":3.1,"distinct_type":"Bottom","item_type":"Foil","rt":4182,"stimulus":"Stimuli_Rocks480/I_Pumice_08.png","response":"a","trial_type":"image-keyboard-response","trial_index":143,"plugin_version":"2.1.0","time_elapsed":393660,"subject_id":"91553","group":"Group2","condition":"1_Rep","full_date":"2026-03-14T18:57:20.444Z","date":"2026-03-14","time":"18:57:20","cor_ans":true},{"trial_type":"html-keyboard-response","rt":null,"stimulus":"<p style=\"color: green; font-size: 50px; font-weight: bold;\">Correct</p>","response":null,"trial_index":144,"plugin_version":"2.1.0","time_elapsed":394168,"subject_id":"91553","group":"Group2","condition":"1_Rep","full_date":"2026-03-14T18:57:20.444Z","date":"2026-03-14","time":"18:57:20"},{"correct_response":"l","task":"test_phase","broad_category":"I","image_png":"I_Basalt_10.png","image_id":26,"category_name":"Basalt","category":2,"distinct_rating":2.76,"distinct_type":"Bottom","item_type":"Target","rt":1228,"stimulus":"Stimuli_Rocks480/I_Basalt_10.png","response":"l","trial_type":"image-keyboard-response","trial_index":145,"plugin_version":"2.1.0","time_elapsed":395397,"subject_id":"91553","group":"Group2","condition":"1_Rep","full_date":"2026-03-14T18:57:20.444Z","date":"2026-03-14","time":"18:57:20","cor_ans":true},{"trial_type":"html-keyboard-response","rt":null,"stimulus":"<p style=\"color: green; font-size: 50px; font-weight: bold;\">Correct</p>","response":null,"trial_index":146,"plugin_version":"2.1.0","time_elapsed":395903,"subject_id":"91553","group":"Group2","condition":"1_Rep","full_date":"2026-03-14T18:57:20.444Z","date":"2026-03-14","time":"18:57:20"},{"correct_response":"l","task":"test_phase","broad_category":"I","image_png":"I_Diorite_15.png","image_id":47,"category_name":"Diorite","category":3,"distinct_rating":3.05,"distinct_type":"Bottom","item_type":"Target","rt":1056,"stimulus":"Stimuli_Rocks480/I_Diorite_15.png","response":"l","trial_type":"image-keyboard-response","trial_index":147,"plugin_version":"2.1.0","time_elapsed":396961,"subject_id":"91553","group":"Group2","condition":"1_Rep","full_date":"2026-03-14T18:57:20.444Z","date":"2026-03-14","time":"18:57:20","cor_ans":true},{"trial_type":"html-keyboard-response","rt":null,"stimulus":"<p style=\"color: green; font-size: 50px; font-weight: bold;\">Correct</p>","response":null,"trial_index":148,"plugin_version":"2.1.0","time_elapsed":397463,"subject_id":"91553","group":"Group2","condition":"1_Rep","full_date":"2026-03-14T18:57:20.444Z","date":"2026-03-14","time":"18:57:20"},{"correct_response":"a","task":"test_phase","broad_category":"M","image_png":"M_Quartzite_05.png","image_id":277,"category_name":"Quartzite","category":18,"distinct_rating":2.23,"distinct_type":"Bottom","item_type":"Foil","rt":1260,"stimulus":"Stimuli_Rocks480/M_Quartzite_05.png","response":"l","trial_type":"image-keyboard-response","trial_index":149,"plugin_version":"2.1.0","time_elapsed":398725,"subject_id":"91553","group":"Group2","condition":"1_Rep","full_date":"2026-03-14T18:57:20.444Z","date":"2026-03-14","time":"18:57:20","cor_ans":false},{"trial_type":"html-keyboard-response","rt":null,"stimulus":"<p style=\"color: red; font-size: 50px; font-weight: bold;\">Incorrect</p>","response":null,"trial_index":150,"plugin_version":"2.1.0","time_elapsed":399239,"subject_id":"91553","group":"Group2","condition":"1_Rep","full_date":"2026-03-14T18:57:20.444Z","date":"2026-03-14","time":"18:57:20"},{"correct_response":"a","task":"test_phase","broad_category":"M","image_png":"M_Slate_03.png","image_id":307,"category_name":"Slate","category":20,"distinct_rating":1.87,"distinct_type":"Bottom","item_type":"Foil","rt":936,"stimulus":"Stimuli_Rocks480/M_Slate_03.png","response":"l","trial_type":"image-keyboard-response","trial_index":151,"plugin_version":"2.1.0","time_elapsed":400177,"subject_id":"91553","group":"Group2","condition":"1_Rep","full_date":"2026-03-14T18:57:20.444Z","date":"2026-03-14","time":"18:57:20","cor_ans":false},{"trial_type":"html-keyboard-response","rt":null,"stimulus":"<p style=\"color: red; font-size: 50px; font-weight: bold;\">Incorrect</p>","response":null,"trial_index":152,"plugin_version":"2.1.0","time_elapsed":400684,"subject_id":"91553","group":"Group2","condition":"1_Rep","full_date":"2026-03-14T18:57:20.444Z","date":"2026-03-14","time":"18:57:20"},{"correct_response":"a","task":"test_phase","broad_category":"M","image_png":"M_Phyllite_10.png","image_id":266,"category_name":"Phyllite","category":17,"distinct_rating":2.6,"distinct_type":"Bottom","item_type":"Foil","rt":1257,"stimulus":"Stimuli_Rocks480/M_Phyllite_10.png","response":"a","trial_type":"image-keyboard-response","trial_index":153,"plugin_version":"2.1.0","time_elapsed":401942,"subject_id":"91553","group":"Group2","condition":"1_Rep","full_date":"2026-03-14T18:57:20.444Z","date":"2026-03-14","time":"18:57:20","cor_ans":true},{"trial_type":"html-keyboard-response","rt":null,"stimulus":"<p style=\"color: green; font-size: 50px; font-weight: bold;\">Correct</p>","response":null,"trial_index":154,"plugin_version":"2.1.0","time_elapsed":402444,"subject_id":"91553","group":"Group2","condition":"1_Rep","full_date":"2026-03-14T18:57:20.444Z","date":"2026-03-14","time":"18:57:20"},{"correct_response":"l","task":"test_phase","broad_category":"M","image_png":"M_Marble_03.png","image_id":227,"category_name":"Marble","category":15,"distinct_rating":2.67,"distinct_type":"Bottom","item_type":"Target","rt":1638,"stimulus":"Stimuli_Rocks480/M_Marble_03.png","response":"l","trial_type":"image-keyboard-response","trial_index":155,"plugin_version":"2.1.0","time_elapsed":404084,"subject_id":"91553","group":"Group2","condition":"1_Rep","full_date":"2026-03-14T18:57:20.444Z","date":"2026-03-14","time":"18:57:20","cor_ans":true},{"trial_type":"html-keyboard-response","rt":null,"stimulus":"<p style=\"color: green; font-size: 50px; font-weight: bold;\">Correct</p>","response":null,"trial_index":156,"plugin_version":"2.1.0","time_elapsed":404596,"subject_id":"91553","group":"Group2","condition":"1_Rep","full_date":"2026-03-14T18:57:20.444Z","date":"2026-03-14","time":"18:57:20"},{"correct_response":"l","task":"test_phase","broad_category":"I","image_png":"I_Diorite_10.png","image_id":42,"category_name":"Diorite","category":3,"distinct_rating":2.84,"distinct_type":"Bottom","item_type":"Target","rt":911,"stimulus":"Stimuli_Rocks480/I_Diorite_10.png","response":"l","trial_type":"image-keyboard-response","trial_index":157,"plugin_version":"2.1.0","time_elapsed":405508,"subject_id":"91553","group":"Group2","condition":"1_Rep","full_date":"2026-03-14T18:57:20.444Z","date":"2026-03-14","time":"18:57:20","cor_ans":true},{"trial_type":"html-keyboard-response","rt":null,"stimulus":"<p style=\"color: green; font-size: 50px; font-weight: bold;\">Correct</p>","response":null,"trial_index":158,"plugin_version":"2.1.0","time_elapsed":406009,"subject_id":"91553","group":"Group2","condition":"1_Rep","full_date":"2026-03-14T18:57:20.444Z","date":"2026-03-14","time":"18:57:20"},{"correct_response":"l","task":"test_phase","broad_category":"I","image_png":"I_Andesite_04.png","image_id":4,"category_name":"Andesite","category":1,"distinct_rating":3.18,"distinct_type":"Bottom","item_type":"Target","rt":1453,"stimulus":"Stimuli_Rocks480/I_Andesite_04.png","response":"a","trial_type":"image-keyboard-response","trial_index":159,"plugin_version":"2.1.0","time_elapsed":407464,"subject_id":"91553","group":"Group2","condition":"1_Rep","full_date":"2026-03-14T18:57:20.444Z","date":"2026-03-14","time":"18:57:20","cor_ans":false},{"trial_type":"html-keyboard-response","rt":null,"stimulus":"<p style=\"color: red; font-size: 50px; font-weight: bold;\">Incorrect</p>","response":null,"trial_index":160,"plugin_version":"2.1.0","time_elapsed":407968,"subject_id":"91553","group":"Group2","condition":"1_Rep","full_date":"2026-03-14T18:57:20.444Z","date":"2026-03-14","time":"18:57:20"},{"correct_response":"l","task":"test_phase","broad_category":"I","image_png":"I_Pumice_14.png","image_id":142,"category_name":"Pumice","category":9,"distinct_rating":3.22,"distinct_type":"Bottom","item_type":"Target","rt":1025,"stimulus":"Stimuli_Rocks480/I_Pumice_14.png","response":"l","trial_type":"image-keyboard-response","trial_index":161,"plugin_version":"2.1.0","time_elapsed":408994,"subject_id":"91553","group":"Group2","condition":"1_Rep","full_date":"2026-03-14T18:57:20.444Z","date":"2026-03-14","time":"18:57:20","cor_ans":true},{"trial_type":"html-keyboard-response","rt":null,"stimulus":"<p style=\"color: green; font-size: 50px; font-weight: bold;\">Correct</p>","response":null,"trial_index":162,"plugin_version":"2.1.0","time_elapsed":409499,"subject_id":"91553","group":"Group2","condition":"1_Rep","full_date":"2026-03-14T18:57:20.444Z","date":"2026-03-14","time":"18:57:20"},{"correct_response":"l","task":"test_phase","broad_category":"I","image_png":"I_Rhyolite_10.png","image_id":154,"category_name":"Rhyolite","category":10,"distinct_rating":2.88,"distinct_type":"Bottom","item_type":"Target","rt":924,"stimulus":"Stimuli_Rocks480/I_Rhyolite_10.png","response":"l","trial_type":"image-keyboard-response","trial_index":163,"plugin_version":"2.1.0","time_elapsed":410424,"subject_id":"91553","group":"Group2","condition":"1_Rep","full_date":"2026-03-14T18:57:20.444Z","date":"2026-03-14","time":"18:57:20","cor_ans":true},{"trial_type":"html-keyboard-response","rt":null,"stimulus":"<p style=\"color: green; font-size: 50px; font-weight: bold;\">Correct</p>","response":null,"trial_index":164,"plugin_version":"2.1.0","time_elapsed":410926,"subject_id":"91553","group":"Group2","condition":"1_Rep","full_date":"2026-03-14T18:57:20.444Z","date":"2026-03-14","time":"18:57:20"},{"correct_response":"l","task":"test_phase","broad_category":"S","image_png":"S_Sandstone_11.png","image_id":459,"category_name":"Sandstone","category":29,"distinct_rating":1.82,"distinct_type":"Bottom","item_type":"Target","rt":1537,"stimulus":"Stimuli_Rocks480/S_Sandstone_11.png","response":"l","trial_type":"image-keyboard-response","trial_index":165,"plugin_version":"2.1.0","time_elapsed":412464,"subject_id":"91553","group":"Group2","condition":"1_Rep","full_date":"2026-03-14T18:57:20.444Z","date":"2026-03-14","time":"18:57:20","cor_ans":true},{"trial_type":"html-keyboard-response","rt":null,"stimulus":"<p style=\"color: green; font-size: 50px; font-weight: bold;\">Correct</p>","response":null,"trial_index":166,"plugin_version":"2.1.0","time_elapsed":412975,"subject_id":"91553","group":"Group2","condition":"1_Rep","full_date":"2026-03-14T18:57:20.444Z","date":"2026-03-14","time":"18:57:20"},{"correct_response":"l","task":"test_phase","broad_category":"M","image_png":"M_Marble_14.png","image_id":238,"category_name":"Marble","category":15,"distinct_rating":3.31,"distinct_type":"Bottom","item_type":"Target","rt":863,"stimulus":"Stimuli_Rocks480/M_Marble_14.png","response":"l","trial_type":"image-keyboard-response","trial_index":167,"plugin_version":"2.1.0","time_elapsed":413839,"subject_id":"91553","group":"Group2","condition":"1_Rep","full_date":"2026-03-14T18:57:20.444Z","date":"2026-03-14","time":"18:57:20","cor_ans":true},{"trial_type":"html-keyboard-response","rt":null,"stimulus":"<p style=\"color: green; font-size: 50px; font-weight: bold;\">Correct</p>","response":null,"trial_index":168,"plugin_version":"2.1.0","time_elapsed":414342,"subject_id":"91553","group":"Group2","condition":"1_Rep","full_date":"2026-03-14T18:57:20.444Z","date":"2026-03-14","time":"18:57:20"},{"correct_response":"a","task":"test_phase","broad_category":"I","image_png":"I_Basalt_01.png","image_id":17,"category_name":"Basalt","category":2,"distinct_rating":1.92,"distinct_type":"Bottom","item_type":"Foil","rt":2482,"stimulus":"Stimuli_Rocks480/I_Basalt_01.png","response":"l","trial_type":"image-keyboard-response","trial_index":169,"plugin_version":"2.1.0","time_elapsed":416826,"subject_id":"91553","group":"Group2","condition":"1_Rep","full_date":"2026-03-14T18:57:20.444Z","date":"2026-03-14","time":"18:57:20","cor_ans":false},{"trial_type":"html-keyboard-response","rt":null,"stimulus":"<p style=\"color: red; font-size: 50px; font-weight: bold;\">Incorrect</p>","response":null,"trial_index":170,"plugin_version":"2.1.0","time_elapsed":417331,"subject_id":"91553","group":"Group2","condition":"1_Rep","full_date":"2026-03-14T18:57:20.444Z","date":"2026-03-14","time":"18:57:20"},{"correct_response":"a","task":"test_phase","broad_category":"M","image_png":"M_Quartzite_08.png","image_id":280,"category_name":"Quartzite","category":18,"distinct_rating":2.15,"distinct_type":"Bottom","item_type":"Foil","rt":1923,"stimulus":"Stimuli_Rocks480/M_Quartzite_08.png","response":"a","trial_type":"image-keyboard-response","trial_index":171,"plugin_version":"2.1.0","time_elapsed":419255,"subject_id":"91553","group":"Group2","condition":"1_Rep","full_date":"2026-03-14T18:57:20.444Z","date":"2026-03-14","time":"18:57:20","cor_ans":true},{"trial_type":"html-keyboard-response","rt":null,"stimulus":"<p style=\"color: green; font-size: 50px; font-weight: bold;\">Correct</p>","response":null,"trial_index":172,"plugin_version":"2.1.0","time_elapsed":419759,"subject_id":"91553","group":"Group2","condition":"1_Rep","full_date":"2026-03-14T18:57:20.444Z","date":"2026-03-14","time":"18:57:20"},{"correct_response":"a","task":"test_phase","broad_category":"S","image_png":"S_Sandstone_16.png","image_id":464,"category_name":"Sandstone","category":29,"distinct_rating":1.93,"distinct_type":"Bottom","item_type":"Foil","rt":2027,"stimulus":"Stimuli_Rocks480/S_Sandstone_16.png","response":"a","trial_type":"image-keyboard-response","trial_index":173,"plugin_version":"2.1.0","time_elapsed":421787,"subject_id":"91553","group":"Group2","condition":"1_Rep","full_date":"2026-03-14T18:57:20.444Z","date":"2026-03-14","time":"18:57:20","cor_ans":true},{"trial_type":"html-keyboard-response","rt":null,"stimulus":"<p style=\"color: green; font-size: 50px; font-weight: bold;\">Correct</p>","response":null,"trial_index":174,"plugin_version":"2.1.0","time_elapsed":422303,"subject_id":"91553","group":"Group2","condition":"1_Rep","full_date":"2026-03-14T18:57:20.444Z","date":"2026-03-14","time":"18:57:20"},{"correct_response":"a","task":"test_phase","broad_category":"I","image_png":"I_Pegmatite_16.png","image_id":112,"category_name":"Pegmatite","category":7,"distinct_rating":7.03,"distinct_type":"Top","item_type":"Foil","rt":1690,"stimulus":"Stimuli_Rocks480/I_Pegmatite_16.png","response":"a","trial_type":"image-keyboard-response","trial_index":175,"plugin_version":"2.1.0","time_elapsed":423994,"subject_id":"91553","group":"Group2","condition":"1_Rep","full_date":"2026-03-14T18:57:20.444Z","date":"2026-03-14","time":"18:57:20","cor_ans":true},{"trial_type":"html-keyboard-response","rt":null,"stimulus":"<p style=\"color: green; font-size: 50px; font-weight: bold;\">Correct</p>","response":null,"trial_index":176,"plugin_version":"2.1.0","time_elapsed":424501,"subject_id":"91553","group":"Group2","condition":"1_Rep","full_date":"2026-03-14T18:57:20.444Z","date":"2026-03-14","time":"18:57:20"},{"correct_response":"l","task":"test_phase","broad_category":"M","image_png":"M_Slate_10.png","image_id":314,"category_name":"Slate","category":20,"distinct_rating":1.94,"distinct_type":"Bottom","item_type":"Target","rt":2079,"stimulus":"Stimuli_Rocks480/M_Slate_10.png","response":"a","trial_type":"image-keyboard-response","trial_index":177,"plugin_version":"2.1.0","time_elapsed":426581,"subject_id":"91553","group":"Group2","condition":"1_Rep","full_date":"2026-03-14T18:57:20.444Z","date":"2026-03-14","time":"18:57:20","cor_ans":false},{"trial_type":"html-keyboard-response","rt":null,"stimulus":"<p style=\"color: red; font-size: 50px; font-weight: bold;\">Incorrect</p>","response":null,"trial_index":178,"plugin_version":"2.1.0","time_elapsed":427082,"subject_id":"91553","group":"Group2","condition":"1_Rep","full_date":"2026-03-14T18:57:20.444Z","date":"2026-03-14","time":"18:57:20"},{"correct_response":"l","task":"test_phase","broad_category":"M","image_png":"M_Slate_04.png","image_id":308,"category_name":"Slate","category":20,"distinct_rating":2.2,"distinct_type":"Bottom","item_type":"Target","rt":1441,"stimulus":"Stimuli_Rocks480/M_Slate_04.png","response":"a","trial_type":"image-keyboard-response","trial_index":179,"plugin_version":"2.1.0","time_elapsed":428524,"subject_id":"91553","group":"Group2","condition":"1_Rep","full_date":"2026-03-14T18:57:20.444Z","date":"2026-03-14","time":"18:57:20","cor_ans":false},{"trial_type":"html-keyboard-response","rt":null,"stimulus":"<p style=\"color: red; font-size: 50px; font-weight: bold;\">Incorrect</p>","response":null,"trial_index":180,"plugin_version":"2.1.0","time_elapsed":429037,"subject_id":"91553","group":"Group2","condition":"1_Rep","full_date":"2026-03-14T18:57:20.444Z","date":"2026-03-14","time":"18:57:20"},{"correct_response":"l","task":"test_phase","broad_category":"S","image_png":"S_Rock Salt_15.png","image_id":447,"category_name":"Rock Salt","category":28,"distinct_rating":7.79,"distinct_type":"Top","item_type":"Target","rt":1051,"stimulus":"Stimuli_Rocks480/S_Rock Salt_15.png","response":"a","trial_type":"image-keyboard-response","trial_index":181,"plugin_version":"2.1.0","time_elapsed":430090,"subject_id":"91553","group":"Group2","condition":"1_Rep","full_date":"2026-03-14T18:57:20.444Z","date":"2026-03-14","time":"18:57:20","cor_ans":false},{"trial_type":"html-keyboard-response","rt":null,"stimulus":"<p style=\"color: red; font-size: 50px; font-weight: bold;\">Incorrect</p>","response":null,"trial_index":182,"plugin_version":"2.1.0","time_elapsed":430603,"subject_id":"91553","group":"Group2","condition":"1_Rep","full_date":"2026-03-14T18:57:20.444Z","date":"2026-03-14","time":"18:57:20"},{"correct_response":"a","task":"test_phase","broad_category":"I","image_png":"I_Rhyolite_16.png","image_id":160,"category_name":"Rhyolite","category":10,"distinct_rating":2.19,"distinct_type":"Bottom","item_type":"Foil","rt":2676,"stimulus":"Stimuli_Rocks480/I_Rhyolite_16.png","response":"a","trial_type":"image-keyboard-response","trial_index":183,"plugin_version":"2.1.0","time_elapsed":433280,"subject_id":"91553","group":"Group2","condition":"1_Rep","full_date":"2026-03-14T18:57:20.444Z","date":"2026-03-14","time":"18:57:20","cor_ans":true},{"trial_type":"html-keyboard-response","rt":null,"stimulus":"<p style=\"color: green; font-size: 50px; font-weight: bold;\">Correct</p>","response":null,"trial_index":184,"plugin_version":"2.1.0","time_elapsed":433790,"subject_id":"91553","group":"Group2","condition":"1_Rep","full_date":"2026-03-14T18:57:20.444Z","date":"2026-03-14","time":"18:57:20"},{"correct_response":"a","task":"test_phase","broad_category":"I","image_png":"I_Obsidian_05.png","image_id":85,"category_name":"Obsidian","category":6,"distinct_rating":7.32,"distinct_type":"Top","item_type":"Foil","rt":1247,"stimulus":"Stimuli_Rocks480/I_Obsidian_05.png","response":"a","trial_type":"image-keyboard-response","trial_index":185,"plugin_version":"2.1.0","time_elapsed":435039,"subject_id":"91553","group":"Group2","condition":"1_Rep","full_date":"2026-03-14T18:57:20.444Z","date":"2026-03-14","time":"18:57:20","cor_ans":true},{"trial_type":"html-keyboard-response","rt":null,"stimulus":"<p style=\"color: green; font-size: 50px; font-weight: bold;\">Correct</p>","response":null,"trial_index":186,"plugin_version":"2.1.0","time_elapsed":435540,"subject_id":"91553","group":"Group2","condition":"1_Rep","full_date":"2026-03-14T18:57:20.444Z","date":"2026-03-14","time":"18:57:20"},{"correct_response":"a","task":"test_phase","broad_category":"S","image_png":"S_Dolomite_13.png","image_id":397,"category_name":"Dolomite","category":25,"distinct_rating":1.77,"distinct_type":"Bottom","item_type":"Foil","rt":1493,"stimulus":"Stimuli_Rocks480/S_Dolomite_13.png","response":"l","trial_type":"image-keyboard-response","trial_index":187,"plugin_version":"2.1.0","time_elapsed":437035,"subject_id":"91553","group":"Group2","condition":"1_Rep","full_date":"2026-03-14T18:57:20.444Z","date":"2026-03-14","time":"18:57:20","cor_ans":false},{"trial_type":"html-keyboard-response","rt":null,"stimulus":"<p style=\"color: red; font-size: 50px; font-weight: bold;\">Incorrect</p>","response":null,"trial_index":188,"plugin_version":"2.1.0","time_elapsed":437546,"subject_id":"91553","group":"Group2","condition":"1_Rep","full_date":"2026-03-14T18:57:20.444Z","date":"2026-03-14","time":"18:57:20"},{"correct_response":"a","task":"test_phase","broad_category":"S","image_png":"S_Shale_08.png","image_id":472,"category_name":"Shale","category":30,"distinct_rating":2.55,"distinct_type":"Bottom","item_type":"Foil","rt":799,"stimulus":"Stimuli_Rocks480/S_Shale_08.png","response":"a","trial_type":"image-keyboard-response","trial_index":189,"plugin_version":"2.1.0","time_elapsed":438346,"subject_id":"91553","group":"Group2","condition":"1_Rep","full_date":"2026-03-14T18:57:20.444Z","date":"2026-03-14","time":"18:57:20","cor_ans":true},{"trial_type":"html-keyboard-response","rt":null,"stimulus":"<p style=\"color: green; font-size: 50px; font-weight: bold;\">Correct</p>","response":null,"trial_index":190,"plugin_version":"2.1.0","time_elapsed":438863,"subject_id":"91553","group":"Group2","condition":"1_Rep","full_date":"2026-03-14T18:57:20.444Z","date":"2026-03-14","time":"18:57:20"},{"correct_response":"l","task":"test_phase","broad_category":"M","image_png":"M_Gneiss_10.png","image_id":202,"category_name":"Gneiss","category":13,"distinct_rating":3.09,"distinct_type":"Bottom","item_type":"Target","rt":1239,"stimulus":"Stimuli_Rocks480/M_Gneiss_10.png","response":"l","trial_type":"image-keyboard-response","trial_index":191,"plugin_version":"2.1.0","time_elapsed":440103,"subject_id":"91553","group":"Group2","condition":"1_Rep","full_date":"2026-03-14T18:57:20.444Z","date":"2026-03-14","time":"18:57:20","cor_ans":true},{"trial_type":"html-keyboard-response","rt":null,"stimulus":"<p style=\"color: green; font-size: 50px; font-weight: bold;\">Correct</p>","response":null,"trial_index":192,"plugin_version":"2.1.0","time_elapsed":440611,"subject_id":"91553","group":"Group2","condition":"1_Rep","full_date":"2026-03-14T18:57:20.444Z","date":"2026-03-14","time":"18:57:20"},{"correct_response":"l","task":"test_phase","broad_category":"I","image_png":"I_Pumice_13.png","image_id":141,"category_name":"Pumice","category":9,"distinct_rating":3.12,"distinct_type":"Bottom","item_type":"Target","rt":2063,"stimulus":"Stimuli_Rocks480/I_Pumice_13.png","response":"l","trial_type":"image-keyboard-response","trial_index":193,"plugin_version":"2.1.0","time_elapsed":442675,"subject_id":"91553","group":"Group2","condition":"1_Rep","full_date":"2026-03-14T18:57:20.444Z","date":"2026-03-14","time":"18:57:20","cor_ans":true},{"trial_type":"html-keyboard-response","rt":null,"stimulus":"<p style=\"color: green; font-size: 50px; font-weight: bold;\">Correct</p>","response":null,"trial_index":194,"plugin_version":"2.1.0","time_elapsed":443183,"subject_id":"91553","group":"Group2","condition":"1_Rep","full_date":"2026-03-14T18:57:20.444Z","date":"2026-03-14","time":"18:57:20"},{"correct_response":"l","task":"test_phase","broad_category":"S","image_png":"S_Dolomite_16.png","image_id":400,"category_name":"Dolomite","category":25,"distinct_rating":1.71,"distinct_type":"Bottom","item_type":"Target","rt":864,"stimulus":"Stimuli_Rocks480/S_Dolomite_16.png","response":"a","trial_type":"image-keyboard-response","trial_index":195,"plugin_version":"2.1.0","time_elapsed":444048,"subject_id":"91553","group":"Group2","condition":"1_Rep","full_date":"2026-03-14T18:57:20.444Z","date":"2026-03-14","time":"18:57:20","cor_ans":false},{"trial_type":"html-keyboard-response","rt":null,"stimulus":"<p style=\"color: red; font-size: 50px; font-weight: bold;\">Incorrect</p>","response":null,"trial_index":196,"plugin_version":"2.1.0","time_elapsed":444557,"subject_id":"91553","group":"Group2","condition":"1_Rep","full_date":"2026-03-14T18:57:20.444Z","date":"2026-03-14","time":"18:57:20"},{"correct_response":"a","task":"test_phase","broad_category":"S","image_png":"S_Breccia_11.png","image_id":347,"category_name":"Breccia","category":22,"distinct_rating":6.7,"distinct_type":"Top","item_type":"Foil","rt":3870,"stimulus":"Stimuli_Rocks480/S_Breccia_11.png","response":"l","trial_type":"image-keyboard-response","trial_index":197,"plugin_version":"2.1.0","time_elapsed":448428,"subject_id":"91553","group":"Group2","condition":"1_Rep","full_date":"2026-03-14T18:57:20.444Z","date":"2026-03-14","time":"18:57:20","cor_ans":false},{"trial_type":"html-keyboard-response","rt":null,"stimulus":"<p style=\"color: red; font-size: 50px; font-weight: bold;\">Incorrect</p>","response":null,"trial_index":198,"plugin_version":"2.1.0","time_elapsed":448931,"subject_id":"91553","group":"Group2","condition":"1_Rep","full_date":"2026-03-14T18:57:20.444Z","date":"2026-03-14","time":"18:57:20"},{"correct_response":"a","task":"test_phase","broad_category":"S","image_png":"S_Conglomerate_05.png","image_id":373,"category_name":"Conglomerate","category":24,"distinct_rating":7.32,"distinct_type":"Top","item_type":"Foil","rt":1042,"stimulus":"Stimuli_Rocks480/S_Conglomerate_05.png","response":"a","trial_type":"image-keyboard-response","trial_index":199,"plugin_version":"2.1.0","time_elapsed":449974,"subject_id":"91553","group":"Group2","condition":"1_Rep","full_date":"2026-03-14T18:57:20.444Z","date":"2026-03-14","time":"18:57:20","cor_ans":true},{"trial_type":"html-keyboard-response","rt":null,"stimulus":"<p style=\"color: green; font-size: 50px; font-weight: bold;\">Correct</p>","response":null,"trial_index":200,"plugin_version":"2.1.0","time_elapsed":450477,"subject_id":"91553","group":"Group2","condition":"1_Rep","full_date":"2026-03-14T18:57:20.444Z","date":"2026-03-14","time":"18:57:20"},{"correct_response":"l","task":"test_phase","broad_category":"S","image_png":"S_Chert_13.png","image_id":365,"category_name":"Chert","category":23,"distinct_rating":6.57,"distinct_type":"Top","item_type":"Target","rt":1206,"stimulus":"Stimuli_Rocks480/S_Chert_13.png","response":"l","trial_type":"image-keyboard-response","trial_index":201,"plugin_version":"2.1.0","time_elapsed":451684,"subject_id":"91553","group":"Group2","condition":"1_Rep","full_date":"2026-03-14T18:57:20.444Z","date":"2026-03-14","time":"18:57:20","cor_ans":true},{"trial_type":"html-keyboard-response","rt":null,"stimulus":"<p style=\"color: green; font-size: 50px; font-weight: bold;\">Correct</p>","response":null,"trial_index":202,"plugin_version":"2.1.0","time_elapsed":452197,"subject_id":"91553","group":"Group2","condition":"1_Rep","full_date":"2026-03-14T18:57:20.444Z","date":"2026-03-14","time":"18:57:20"},{"correct_response":"l","task":"test_phase","broad_category":"I","image_png":"I_Pegmatite_03.png","image_id":99,"category_name":"Pegmatite","category":7,"distinct_rating":7.24,"distinct_type":"Top","item_type":"Target","rt":1808,"stimulus":"Stimuli_Rocks480/I_Pegmatite_03.png","response":"a","trial_type":"image-keyboard-response","trial_index":203,"plugin_version":"2.1.0","time_elapsed":454007,"subject_id":"91553","group":"Group2","condition":"1_Rep","full_date":"2026-03-14T18:57:20.444Z","date":"2026-03-14","time":"18:57:20","cor_ans":false},{"trial_type":"html-keyboard-response","rt":null,"stimulus":"<p style=\"color: red; font-size: 50px; font-weight: bold;\">Incorrect</p>","response":null,"trial_index":204,"plugin_version":"2.1.0","time_elapsed":454514,"subject_id":"91553","group":"Group2","condition":"1_Rep","full_date":"2026-03-14T18:57:20.444Z","date":"2026-03-14","time":"18:57:20"},{"correct_response":"l","task":"test_phase","broad_category":"M","image_png":"M_Quartzite_07.png","image_id":279,"category_name":"Quartzite","category":18,"distinct_rating":1.97,"distinct_type":"Bottom","item_type":"Target","rt":1420,"stimulus":"Stimuli_Rocks480/M_Quartzite_07.png","response":"a","trial_type":"image-keyboard-response","trial_index":205,"plugin_version":"2.1.0","time_elapsed":455935,"subject_id":"91553","group":"Group2","condition":"1_Rep","full_date":"2026-03-14T18:57:20.444Z","date":"2026-03-14","time":"18:57:20","cor_ans":false},{"trial_type":"html-keyboard-response","rt":null,"stimulus":"<p style=\"color: red; font-size: 50px; font-weight: bold;\">Incorrect</p>","response":null,"trial_index":206,"plugin_version":"2.1.0","time_elapsed":456450,"subject_id":"91553","group":"Group2","condition":"1_Rep","full_date":"2026-03-14T18:57:20.444Z","date":"2026-03-14","time":"18:57:20"},{"correct_response":"a","task":"test_phase","broad_category":"I","image_png":"I_Basalt_09.png","image_id":25,"category_name":"Basalt","category":2,"distinct_rating":1.89,"distinct_type":"Bottom","item_type":"Foil","rt":1919,"stimulus":"Stimuli_Rocks480/I_Basalt_09.png","response":"a","trial_type":"image-keyboard-response","trial_index":207,"plugin_version":"2.1.0","time_elapsed":458371,"subject_id":"91553","group":"Group2","condition":"1_Rep","full_date":"2026-03-14T18:57:20.444Z","date":"2026-03-14","time":"18:57:20","cor_ans":true},{"trial_type":"html-keyboard-response","rt":null,"stimulus":"<p style=\"color: green; font-size: 50px; font-weight: bold;\">Correct</p>","response":null,"trial_index":208,"plugin_version":"2.1.0","time_elapsed":458878,"subject_id":"91553","group":"Group2","condition":"1_Rep","full_date":"2026-03-14T18:57:20.444Z","date":"2026-03-14","time":"18:57:20"},{"correct_response":"l","task":"test_phase","broad_category":"I","image_png":"I_Basalt_08.png","image_id":24,"category_name":"Basalt","category":2,"distinct_rating":2.31,"distinct_type":"Bottom","item_type":"Target","rt":1160,"stimulus":"Stimuli_Rocks480/I_Basalt_08.png","response":"a","trial_type":"image-keyboard-response","trial_index":209,"plugin_version":"2.1.0","time_elapsed":460039,"subject_id":"91553","group":"Group2","condition":"1_Rep","full_date":"2026-03-14T18:57:20.444Z","date":"2026-03-14","time":"18:57:20","cor_ans":false},{"trial_type":"html-keyboard-response","rt":null,"stimulus":"<p style=\"color: red; font-size: 50px; font-weight: bold;\">Incorrect</p>","response":null,"trial_index":210,"plugin_version":"2.1.0","time_elapsed":460540,"subject_id":"91553","group":"Group2","condition":"1_Rep","full_date":"2026-03-14T18:57:20.444Z","date":"2026-03-14","time":"18:57:20"},{"correct_response":"a","task":"test_phase","broad_category":"I","image_png":"I_Gabbro_16.png","image_id":64,"category_name":"Gabbro","category":4,"distinct_rating":2.52,"distinct_type":"Bottom","item_type":"Foil","rt":1220,"stimulus":"Stimuli_Rocks480/I_Gabbro_16.png","response":"a","trial_type":"image-keyboard-response","trial_index":211,"plugin_version":"2.1.0","time_elapsed":461762,"subject_id":"91553","group":"Group2","condition":"1_Rep","full_date":"2026-03-14T18:57:20.444Z","date":"2026-03-14","time":"18:57:20","cor_ans":true},{"trial_type":"html-keyboard-response","rt":null,"stimulus":"<p style=\"color: green; font-size: 50px; font-weight: bold;\">Correct</p>","response":null,"trial_index":212,"plugin_version":"2.1.0","time_elapsed":462266,"subject_id":"91553","group":"Group2","condition":"1_Rep","full_date":"2026-03-14T18:57:20.444Z","date":"2026-03-14","time":"18:57:20"},{"correct_response":"a","task":"test_phase","broad_category":"M","image_png":"M_Gneiss_06.png","image_id":198,"category_name":"Gneiss","category":13,"distinct_rating":2.65,"distinct_type":"Bottom","item_type":"Foil","rt":1022,"stimulus":"Stimuli_Rocks480/M_Gneiss_06.png","response":"a","trial_type":"image-keyboard-response","trial_index":213,"plugin_version":"2.1.0","time_elapsed":463290,"subject_id":"91553","group":"Group2","condition":"1_Rep","full_date":"2026-03-14T18:57:20.444Z","date":"2026-03-14","time":"18:57:20","cor_ans":true},{"trial_type":"html-keyboard-response","rt":null,"stimulus":"<p style=\"color: green; font-size: 50px; font-weight: bold;\">Correct</p>","response":null,"trial_index":214,"plugin_version":"2.1.0","time_elapsed":463795,"subject_id":"91553","group":"Group2","condition":"1_Rep","full_date":"2026-03-14T18:57:20.444Z","date":"2026-03-14","time":"18:57:20"},{"correct_response":"l","task":"test_phase","broad_category":"M","image_png":"M_Quartzite_12.png","image_id":284,"category_name":"Quartzite","category":18,"distinct_rating":1.92,"distinct_type":"Bottom","item_type":"Target","rt":1149,"stimulus":"Stimuli_Rocks480/M_Quartzite_12.png","response":"l","trial_type":"image-keyboard-response","trial_index":215,"plugin_version":"2.1.0","time_elapsed":464945,"subject_id":"91553","group":"Group2","condition":"1_Rep","full_date":"2026-03-14T18:57:20.444Z","date":"2026-03-14","time":"18:57:20","cor_ans":true},{"trial_type":"html-keyboard-response","rt":null,"stimulus":"<p style=\"color: green; font-size: 50px; font-weight: bold;\">Correct</p>","response":null,"trial_index":216,"plugin_version":"2.1.0","time_elapsed":465448,"subject_id":"91553","group":"Group2","condition":"1_Rep","full_date":"2026-03-14T18:57:20.444Z","date":"2026-03-14","time":"18:57:20"},{"correct_response":"a","task":"test_phase","broad_category":"I","image_png":"I_Andesite_10.png","image_id":10,"category_name":"Andesite","category":1,"distinct_rating":3.15,"distinct_type":"Bottom","item_type":"Foil","rt":2674,"stimulus":"Stimuli_Rocks480/I_Andesite_10.png","response":"a","trial_type":"image-keyboard-response","trial_index":217,"plugin_version":"2.1.0","time_elapsed":468123,"subject_id":"91553","group":"Group2","condition":"1_Rep","full_date":"2026-03-14T18:57:20.444Z","date":"2026-03-14","time":"18:57:20","cor_ans":true},{"trial_type":"html-keyboard-response","rt":null,"stimulus":"<p style=\"color: green; font-size: 50px; font-weight: bold;\">Correct</p>","response":null,"trial_index":218,"plugin_version":"2.1.0","time_elapsed":468638,"subject_id":"91553","group":"Group2","condition":"1_Rep","full_date":"2026-03-14T18:57:20.444Z","date":"2026-03-14","time":"18:57:20"},{"correct_response":"a","task":"test_phase","broad_category":"S","image_png":"S_Dolomite_14.png","image_id":398,"category_name":"Dolomite","category":25,"distinct_rating":1.43,"distinct_type":"Bottom","item_type":"Foil","rt":2098,"stimulus":"Stimuli_Rocks480/S_Dolomite_14.png","response":"a","trial_type":"image-keyboard-response","trial_index":219,"plugin_version":"2.1.0","time_elapsed":470738,"subject_id":"91553","group":"Group2","condition":"1_Rep","full_date":"2026-03-14T18:57:20.444Z","date":"2026-03-14","time":"18:57:20","cor_ans":true},{"trial_type":"html-keyboard-response","rt":null,"stimulus":"<p style=\"color: green; font-size: 50px; font-weight: bold;\">Correct</p>","response":null,"trial_index":220,"plugin_version":"2.1.0","time_elapsed":471242,"subject_id":"91553","group":"Group2","condition":"1_Rep","full_date":"2026-03-14T18:57:20.444Z","date":"2026-03-14","time":"18:57:20"},{"correct_response":"l","task":"test_phase","broad_category":"M","image_png":"M_Quartzite_15.png","image_id":287,"category_name":"Quartzite","category":18,"distinct_rating":2.19,"distinct_type":"Bottom","item_type":"Target","rt":1641,"stimulus":"Stimuli_Rocks480/M_Quartzite_15.png","response":"a","trial_type":"image-keyboard-response","trial_index":221,"plugin_version":"2.1.0","time_elapsed":472885,"subject_id":"91553","group":"Group2","condition":"1_Rep","full_date":"2026-03-14T18:57:20.444Z","date":"2026-03-14","time":"18:57:20","cor_ans":false},{"trial_type":"html-keyboard-response","rt":null,"stimulus":"<p style=\"color: red; font-size: 50px; font-weight: bold;\">Incorrect</p>","response":null,"trial_index":222,"plugin_version":"2.1.0","time_elapsed":473390,"subject_id":"91553","group":"Group2","condition":"1_Rep","full_date":"2026-03-14T18:57:20.444Z","date":"2026-03-14","time":"18:57:20"},{"correct_response":"l","task":"test_phase","broad_category":"M","image_png":"M_Gneiss_15.png","image_id":207,"category_name":"Gneiss","category":13,"distinct_rating":3.11,"distinct_type":"Bottom","item_type":"Target","rt":1193,"stimulus":"Stimuli_Rocks480/M_Gneiss_15.png","response":"l","trial_type":"image-keyboard-response","trial_index":223,"plugin_version":"2.1.0","time_elapsed":474585,"subject_id":"91553","group":"Group2","condition":"1_Rep","full_date":"2026-03-14T18:57:20.444Z","date":"2026-03-14","time":"18:57:20","cor_ans":true},{"trial_type":"html-keyboard-response","rt":null,"stimulus":"<p style=\"color: green; font-size: 50px; font-weight: bold;\">Correct</p>","response":null,"trial_index":224,"plugin_version":"2.1.0","time_elapsed":475089,"subject_id":"91553","group":"Group2","condition":"1_Rep","full_date":"2026-03-14T18:57:20.444Z","date":"2026-03-14","time":"18:57:20"},{"correct_respon