[{"width":1366,"height":896,"webaudio":true,"browser":"safari","browser_version":"26.3.0","mobile":false,"os":"Mac OS","fullscreen":true,"vsync_rate":58.71,"webcam":true,"microphone":true,"trial_type":"browser-check","trial_index":0,"plugin_version":"2.1.0","time_elapsed":1032,"subject_id":"92471","group":"Group2","condition":"1_Rep","full_date":"2026-03-07T20:25:51.170Z","date":"2026-03-07","time":"20:25:51"},{"success":true,"timeout":false,"failed_images":[],"failed_audio":[],"failed_video":[],"trial_type":"preload","trial_index":1,"plugin_version":"2.1.0","time_elapsed":2522,"subject_id":"92471","group":"Group2","condition":"1_Rep","full_date":"2026-03-07T20:25:51.170Z","date":"2026-03-07","time":"20:25:51"},{"rt":4814,"url":"SONA_consent_memorability.html","trial_type":"external-html","trial_index":2,"plugin_version":"2.1.0","time_elapsed":7387,"subject_id":"92471","group":"Group2","condition":"1_Rep","full_date":"2026-03-07T20:25:51.170Z","date":"2026-03-07","time":"20:25:51"},{"success":true,"rt":2280,"trial_type":"fullscreen","trial_index":3,"plugin_version":"2.1.0","time_elapsed":10673,"subject_id":"92471","group":"Group2","condition":"1_Rep","full_date":"2026-03-07T20:25:51.170Z","date":"2026-03-07","time":"20:25:51"},{"rt":1776,"stimulus":"<div style=\"max-width: 760px; margin: auto; font-size: 20px; line-height: 1.5;\">\n      <h1 style=\"text-align:center; font-size: 30px;\">Instructions</h1>\n      <p>\n        Welcome to the study on <b>visual memory</b>. This experiment consists of <b>two phases</b>: \n        a <b>study phase</b> and a <b>test phase</b>.\n      </p>\n      <p>\n        In the study phase, you will see a series of rock images along with their category labels.\n        The images will appear one at a time.\n        <b>Your task</b> is to learn the categories to which the rock images belong \n        and to remember each image as accurately as possible.\n      </p> \n      <p>\n        Note that you will see each image only <b>once</b> during the study phase. \n          So, please pay close attention and try to remember each image carefully.\n      </p>\n      <p>\n        After the study phase, <b>your memory will be tested</b>. \n        Additional instructions for the test phase will be provided at that time.\n      </p>\n      <p>\n        If your computer has multiple <b>language settings</b> (e.g., English and another language),\n        please make sure it is set to English before starting.\n      </p>\n      <p>\n        You can track your progress using the <b>completion bar</b> at the top of the screen. \n        Please note that the bar will refresh when the test phase begins \n        to give you an accurate sense of your progress in both phases.\n      </p> \n      <p>\n        Press the button below when you are ready to begin.\n      </p>\n    </div>","response":0,"trial_type":"html-button-response","trial_index":4,"plugin_version":"2.1.0","time_elapsed":12452,"subject_id":"92471","group":"Group2","condition":"1_Rep","full_date":"2026-03-07T20:25:51.170Z","date":"2026-03-07","time":"20:25:51"},{"rt":null,"stimulus":"<p style=\"font-size: 50px; margin: 0; text-align: center;\">+</p>","response":null,"trial_type":"html-keyboard-response","trial_index":5,"plugin_version":"2.1.0","time_elapsed":13457,"subject_id":"92471","group":"Group2","condition":"1_Rep","full_date":"2026-03-07T20:25:51.170Z","date":"2026-03-07","time":"20:25:51"},{"task":"memory_phase","broad_category":"I","image_png":"I_Basalt_10.png","image_id":26,"category_name":"Basalt","category":2,"distinct_rating":2.76,"distinct_type":"Bottom","rt":null,"stimulus":"Stimuli_Rocks480/I_Basalt_10.png","response":null,"trial_type":"image-keyboard-response","trial_index":6,"plugin_version":"2.1.0","time_elapsed":15976,"subject_id":"92471","group":"Group2","condition":"1_Rep","full_date":"2026-03-07T20:25:51.170Z","date":"2026-03-07","time":"20:25:51"},{"rt":null,"stimulus":"<p style=\"font-size: 50px; margin: 0; text-align: center;\">+</p>","response":null,"trial_type":"html-keyboard-response","trial_index":7,"plugin_version":"2.1.0","time_elapsed":16979,"subject_id":"92471","group":"Group2","condition":"1_Rep","full_date":"2026-03-07T20:25:51.170Z","date":"2026-03-07","time":"20:25:51"},{"task":"memory_phase","broad_category":"S","image_png":"S_Rock Salt_15.png","image_id":447,"category_name":"Rock Salt","category":28,"distinct_rating":7.79,"distinct_type":"Top","rt":null,"stimulus":"Stimuli_Rocks480/S_Rock Salt_15.png","response":null,"trial_type":"image-keyboard-response","trial_index":8,"plugin_version":"2.1.0","time_elapsed":19496,"subject_id":"92471","group":"Group2","condition":"1_Rep","full_date":"2026-03-07T20:25:51.170Z","date":"2026-03-07","time":"20:25:51"},{"rt":null,"stimulus":"<p style=\"font-size: 50px; margin: 0; text-align: center;\">+</p>","response":null,"trial_type":"html-keyboard-response","trial_index":9,"plugin_version":"2.1.0","time_elapsed":20499,"subject_id":"92471","group":"Group2","condition":"1_Rep","full_date":"2026-03-07T20:25:51.170Z","date":"2026-03-07","time":"20:25:51"},{"task":"memory_phase","broad_category":"I","image_png":"I_Rhyolite_08.png","image_id":152,"category_name":"Rhyolite","category":10,"distinct_rating":1.38,"distinct_type":"Bottom","rt":null,"stimulus":"Stimuli_Rocks480/I_Rhyolite_08.png","response":null,"trial_type":"image-keyboard-response","trial_index":10,"plugin_version":"2.1.0","time_elapsed":23018,"subject_id":"92471","group":"Group2","condition":"1_Rep","full_date":"2026-03-07T20:25:51.170Z","date":"2026-03-07","time":"20:25:51"},{"rt":null,"stimulus":"<p style=\"font-size: 50px; margin: 0; text-align: center;\">+</p>","response":null,"trial_type":"html-keyboard-response","trial_index":11,"plugin_version":"2.1.0","time_elapsed":24023,"subject_id":"92471","group":"Group2","condition":"1_Rep","full_date":"2026-03-07T20:25:51.170Z","date":"2026-03-07","time":"20:25:51"},{"task":"memory_phase","broad_category":"I","image_png":"I_Basalt_13.png","image_id":29,"category_name":"Basalt","category":2,"distinct_rating":2.68,"distinct_type":"Bottom","rt":null,"stimulus":"Stimuli_Rocks480/I_Basalt_13.png","response":null,"trial_type":"image-keyboard-response","trial_index":12,"plugin_version":"2.1.0","time_elapsed":26538,"subject_id":"92471","group":"Group2","condition":"1_Rep","full_date":"2026-03-07T20:25:51.170Z","date":"2026-03-07","time":"20:25:51"},{"rt":null,"stimulus":"<p style=\"font-size: 50px; margin: 0; text-align: center;\">+</p>","response":null,"trial_type":"html-keyboard-response","trial_index":13,"plugin_version":"2.1.0","time_elapsed":27541,"subject_id":"92471","group":"Group2","condition":"1_Rep","full_date":"2026-03-07T20:25:51.170Z","date":"2026-03-07","time":"20:25:51"},{"task":"memory_phase","broad_category":"I","image_png":"I_Gabbro_02.png","image_id":50,"category_name":"Gabbro","category":4,"distinct_rating":2.73,"distinct_type":"Bottom","rt":null,"stimulus":"Stimuli_Rocks480/I_Gabbro_02.png","response":null,"trial_type":"image-keyboard-response","trial_index":14,"plugin_version":"2.1.0","time_elapsed":30057,"subject_id":"92471","group":"Group2","condition":"1_Rep","full_date":"2026-03-07T20:25:51.170Z","date":"2026-03-07","time":"20:25:51"},{"rt":null,"stimulus":"<p style=\"font-size: 50px; margin: 0; text-align: center;\">+</p>","response":null,"trial_type":"html-keyboard-response","trial_index":15,"plugin_version":"2.1.0","time_elapsed":31060,"subject_id":"92471","group":"Group2","condition":"1_Rep","full_date":"2026-03-07T20:25:51.170Z","date":"2026-03-07","time":"20:25:51"},{"task":"memory_phase","broad_category":"S","image_png":"S_Shale_07.png","image_id":471,"category_name":"Shale","category":30,"distinct_rating":2.73,"distinct_type":"Bottom","rt":null,"stimulus":"Stimuli_Rocks480/S_Shale_07.png","response":null,"trial_type":"image-keyboard-response","trial_index":16,"plugin_version":"2.1.0","time_elapsed":33574,"subject_id":"92471","group":"Group2","condition":"1_Rep","full_date":"2026-03-07T20:25:51.170Z","date":"2026-03-07","time":"20:25:51"},{"rt":null,"stimulus":"<p style=\"font-size: 50px; margin: 0; text-align: center;\">+</p>","response":null,"trial_type":"html-keyboard-response","trial_index":17,"plugin_version":"2.1.0","time_elapsed":34577,"subject_id":"92471","group":"Group2","condition":"1_Rep","full_date":"2026-03-07T20:25:51.170Z","date":"2026-03-07","time":"20:25:51"},{"task":"memory_phase","broad_category":"I","image_png":"I_Rhyolite_05.png","image_id":149,"category_name":"Rhyolite","category":10,"distinct_rating":3.02,"distinct_type":"Bottom","rt":null,"stimulus":"Stimuli_Rocks480/I_Rhyolite_05.png","response":null,"trial_type":"image-keyboard-response","trial_index":18,"plugin_version":"2.1.0","time_elapsed":37095,"subject_id":"92471","group":"Group2","condition":"1_Rep","full_date":"2026-03-07T20:25:51.170Z","date":"2026-03-07","time":"20:25:51"},{"rt":null,"stimulus":"<p style=\"font-size: 50px; margin: 0; text-align: center;\">+</p>","response":null,"trial_type":"html-keyboard-response","trial_index":19,"plugin_version":"2.1.0","time_elapsed":38097,"subject_id":"92471","group":"Group2","condition":"1_Rep","full_date":"2026-03-07T20:25:51.170Z","date":"2026-03-07","time":"20:25:51"},{"task":"memory_phase","broad_category":"I","image_png":"I_Pegmatite_11.png","image_id":107,"category_name":"Pegmatite","category":7,"distinct_rating":7.11,"distinct_type":"Top","rt":null,"stimulus":"Stimuli_Rocks480/I_Pegmatite_11.png","response":null,"trial_type":"image-keyboard-response","trial_index":20,"plugin_version":"2.1.0","time_elapsed":40617,"subject_id":"92471","group":"Group2","condition":"1_Rep","full_date":"2026-03-07T20:25:51.170Z","date":"2026-03-07","time":"20:25:51"},{"rt":null,"stimulus":"<p style=\"font-size: 50px; margin: 0; text-align: center;\">+</p>","response":null,"trial_type":"html-keyboard-response","trial_index":21,"plugin_version":"2.1.0","time_elapsed":41620,"subject_id":"92471","group":"Group2","condition":"1_Rep","full_date":"2026-03-07T20:25:51.170Z","date":"2026-03-07","time":"20:25:51"},{"task":"memory_phase","broad_category":"M","image_png":"M_Gneiss_15.png","image_id":207,"category_name":"Gneiss","category":13,"distinct_rating":3.11,"distinct_type":"Bottom","rt":null,"stimulus":"Stimuli_Rocks480/M_Gneiss_15.png","response":null,"trial_type":"image-keyboard-response","trial_index":22,"plugin_version":"2.1.0","time_elapsed":44131,"subject_id":"92471","group":"Group2","condition":"1_Rep","full_date":"2026-03-07T20:25:51.170Z","date":"2026-03-07","time":"20:25:51"},{"rt":null,"stimulus":"<p style=\"font-size: 50px; margin: 0; text-align: center;\">+</p>","response":null,"trial_type":"html-keyboard-response","trial_index":23,"plugin_version":"2.1.0","time_elapsed":45134,"subject_id":"92471","group":"Group2","condition":"1_Rep","full_date":"2026-03-07T20:25:51.170Z","date":"2026-03-07","time":"20:25:51"},{"task":"memory_phase","broad_category":"I","image_png":"I_Pumice_13.png","image_id":141,"category_name":"Pumice","category":9,"distinct_rating":3.12,"distinct_type":"Bottom","rt":null,"stimulus":"Stimuli_Rocks480/I_Pumice_13.png","response":null,"trial_type":"image-keyboard-response","trial_index":24,"plugin_version":"2.1.0","time_elapsed":47655,"subject_id":"92471","group":"Group2","condition":"1_Rep","full_date":"2026-03-07T20:25:51.170Z","date":"2026-03-07","time":"20:25:51"},{"rt":null,"stimulus":"<p style=\"font-size: 50px; margin: 0; text-align: center;\">+</p>","response":null,"trial_type":"html-keyboard-response","trial_index":25,"plugin_version":"2.1.0","time_elapsed":48657,"subject_id":"92471","group":"Group2","condition":"1_Rep","full_date":"2026-03-07T20:25:51.170Z","date":"2026-03-07","time":"20:25:51"},{"task":"memory_phase","broad_category":"I","image_png":"I_Pegmatite_03.png","image_id":99,"category_name":"Pegmatite","category":7,"distinct_rating":7.24,"distinct_type":"Top","rt":null,"stimulus":"Stimuli_Rocks480/I_Pegmatite_03.png","response":null,"trial_type":"image-keyboard-response","trial_index":26,"plugin_version":"2.1.0","time_elapsed":51175,"subject_id":"92471","group":"Group2","condition":"1_Rep","full_date":"2026-03-07T20:25:51.170Z","date":"2026-03-07","time":"20:25:51"},{"rt":null,"stimulus":"<p style=\"font-size: 50px; margin: 0; text-align: center;\">+</p>","response":null,"trial_type":"html-keyboard-response","trial_index":27,"plugin_version":"2.1.0","time_elapsed":52177,"subject_id":"92471","group":"Group2","condition":"1_Rep","full_date":"2026-03-07T20:25:51.170Z","date":"2026-03-07","time":"20:25:51"},{"task":"memory_phase","broad_category":"S","image_png":"S_Shale_03.png","image_id":467,"category_name":"Shale","category":30,"distinct_rating":1.95,"distinct_type":"Bottom","rt":null,"stimulus":"Stimuli_Rocks480/S_Shale_03.png","response":null,"trial_type":"image-keyboard-response","trial_index":28,"plugin_version":"2.1.0","time_elapsed":54696,"subject_id":"92471","group":"Group2","condition":"1_Rep","full_date":"2026-03-07T20:25:51.170Z","date":"2026-03-07","time":"20:25:51"},{"rt":null,"stimulus":"<p style=\"font-size: 50px; margin: 0; text-align: center;\">+</p>","response":null,"trial_type":"html-keyboard-response","trial_index":29,"plugin_version":"2.1.0","time_elapsed":55699,"subject_id":"92471","group":"Group2","condition":"1_Rep","full_date":"2026-03-07T20:25:51.170Z","date":"2026-03-07","time":"20:25:51"},{"task":"memory_phase","broad_category":"S","image_png":"S_Conglomerate_14.png","image_id":382,"category_name":"Conglomerate","category":24,"distinct_rating":6.86,"distinct_type":"Top","rt":null,"stimulus":"Stimuli_Rocks480/S_Conglomerate_14.png","response":null,"trial_type":"image-keyboard-response","trial_index":30,"plugin_version":"2.1.0","time_elapsed":58213,"subject_id":"92471","group":"Group2","condition":"1_Rep","full_date":"2026-03-07T20:25:51.170Z","date":"2026-03-07","time":"20:25:51"},{"rt":null,"stimulus":"<p style=\"font-size: 50px; margin: 0; text-align: center;\">+</p>","response":null,"trial_type":"html-keyboard-response","trial_index":31,"plugin_version":"2.1.0","time_elapsed":59216,"subject_id":"92471","group":"Group2","condition":"1_Rep","full_date":"2026-03-07T20:25:51.170Z","date":"2026-03-07","time":"20:25:51"},{"task":"memory_phase","broad_category":"I","image_png":"I_Rhyolite_10.png","image_id":154,"category_name":"Rhyolite","category":10,"distinct_rating":2.88,"distinct_type":"Bottom","rt":null,"stimulus":"Stimuli_Rocks480/I_Rhyolite_10.png","response":null,"trial_type":"image-keyboard-response","trial_index":32,"plugin_version":"2.1.0","time_elapsed":61738,"subject_id":"92471","group":"Group2","condition":"1_Rep","full_date":"2026-03-07T20:25:51.170Z","date":"2026-03-07","time":"20:25:51"},{"rt":null,"stimulus":"<p style=\"font-size: 50px; margin: 0; text-align: center;\">+</p>","response":null,"trial_type":"html-keyboard-response","trial_index":33,"plugin_version":"2.1.0","time_elapsed":62741,"subject_id":"92471","group":"Group2","condition":"1_Rep","full_date":"2026-03-07T20:25:51.170Z","date":"2026-03-07","time":"20:25:51"},{"task":"memory_phase","broad_category":"I","image_png":"I_Pumice_14.png","image_id":142,"category_name":"Pumice","category":9,"distinct_rating":3.22,"distinct_type":"Bottom","rt":null,"stimulus":"Stimuli_Rocks480/I_Pumice_14.png","response":null,"trial_type":"image-keyboard-response","trial_index":34,"plugin_version":"2.1.0","time_elapsed":65258,"subject_id":"92471","group":"Group2","condition":"1_Rep","full_date":"2026-03-07T20:25:51.170Z","date":"2026-03-07","time":"20:25:51"},{"rt":null,"stimulus":"<p style=\"font-size: 50px; margin: 0; text-align: center;\">+</p>","response":null,"trial_type":"html-keyboard-response","trial_index":35,"plugin_version":"2.1.0","time_elapsed":66261,"subject_id":"92471","group":"Group2","condition":"1_Rep","full_date":"2026-03-07T20:25:51.170Z","date":"2026-03-07","time":"20:25:51"},{"task":"memory_phase","broad_category":"M","image_png":"M_Slate_14.png","image_id":318,"category_name":"Slate","category":20,"distinct_rating":2.58,"distinct_type":"Bottom","rt":null,"stimulus":"Stimuli_Rocks480/M_Slate_14.png","response":null,"trial_type":"image-keyboard-response","trial_index":36,"plugin_version":"2.1.0","time_elapsed":68772,"subject_id":"92471","group":"Group2","condition":"1_Rep","full_date":"2026-03-07T20:25:51.170Z","date":"2026-03-07","time":"20:25:51"},{"rt":null,"stimulus":"<p style=\"font-size: 50px; margin: 0; text-align: center;\">+</p>","response":null,"trial_type":"html-keyboard-response","trial_index":37,"plugin_version":"2.1.0","time_elapsed":69775,"subject_id":"92471","group":"Group2","condition":"1_Rep","full_date":"2026-03-07T20:25:51.170Z","date":"2026-03-07","time":"20:25:51"},{"task":"memory_phase","broad_category":"M","image_png":"M_Marble_03.png","image_id":227,"category_name":"Marble","category":15,"distinct_rating":2.67,"distinct_type":"Bottom","rt":null,"stimulus":"Stimuli_Rocks480/M_Marble_03.png","response":null,"trial_type":"image-keyboard-response","trial_index":38,"plugin_version":"2.1.0","time_elapsed":72292,"subject_id":"92471","group":"Group2","condition":"1_Rep","full_date":"2026-03-07T20:25:51.170Z","date":"2026-03-07","time":"20:25:51"},{"rt":null,"stimulus":"<p style=\"font-size: 50px; margin: 0; text-align: center;\">+</p>","response":null,"trial_type":"html-keyboard-response","trial_index":39,"plugin_version":"2.1.0","time_elapsed":73294,"subject_id":"92471","group":"Group2","condition":"1_Rep","full_date":"2026-03-07T20:25:51.170Z","date":"2026-03-07","time":"20:25:51"},{"task":"memory_phase","broad_category":"I","image_png":"I_Basalt_08.png","image_id":24,"category_name":"Basalt","category":2,"distinct_rating":2.31,"distinct_type":"Bottom","rt":null,"stimulus":"Stimuli_Rocks480/I_Basalt_08.png","response":null,"trial_type":"image-keyboard-response","trial_index":40,"plugin_version":"2.1.0","time_elapsed":75816,"subject_id":"92471","group":"Group2","condition":"1_Rep","full_date":"2026-03-07T20:25:51.170Z","date":"2026-03-07","time":"20:25:51"},{"rt":null,"stimulus":"<p style=\"font-size: 50px; margin: 0; text-align: center;\">+</p>","response":null,"trial_type":"html-keyboard-response","trial_index":41,"plugin_version":"2.1.0","time_elapsed":76819,"subject_id":"92471","group":"Group2","condition":"1_Rep","full_date":"2026-03-07T20:25:51.170Z","date":"2026-03-07","time":"20:25:51"},{"task":"memory_phase","broad_category":"S","image_png":"S_Dolomite_07.png","image_id":391,"category_name":"Dolomite","category":25,"distinct_rating":1.73,"distinct_type":"Bottom","rt":null,"stimulus":"Stimuli_Rocks480/S_Dolomite_07.png","response":null,"trial_type":"image-keyboard-response","trial_index":42,"plugin_version":"2.1.0","time_elapsed":79334,"subject_id":"92471","group":"Group2","condition":"1_Rep","full_date":"2026-03-07T20:25:51.170Z","date":"2026-03-07","time":"20:25:51"},{"rt":null,"stimulus":"<p style=\"font-size: 50px; margin: 0; text-align: center;\">+</p>","response":null,"trial_type":"html-keyboard-response","trial_index":43,"plugin_version":"2.1.0","time_elapsed":80337,"subject_id":"92471","group":"Group2","condition":"1_Rep","full_date":"2026-03-07T20:25:51.170Z","date":"2026-03-07","time":"20:25:51"},{"task":"memory_phase","broad_category":"I","image_png":"I_Gabbro_14.png","image_id":62,"category_name":"Gabbro","category":4,"distinct_rating":2.95,"distinct_type":"Bottom","rt":null,"stimulus":"Stimuli_Rocks480/I_Gabbro_14.png","response":null,"trial_type":"image-keyboard-response","trial_index":44,"plugin_version":"2.1.0","time_elapsed":82855,"subject_id":"92471","group":"Group2","condition":"1_Rep","full_date":"2026-03-07T20:25:51.170Z","date":"2026-03-07","time":"20:25:51"},{"rt":null,"stimulus":"<p style=\"font-size: 50px; margin: 0; text-align: center;\">+</p>","response":null,"trial_type":"html-keyboard-response","trial_index":45,"plugin_version":"2.1.0","time_elapsed":83857,"subject_id":"92471","group":"Group2","condition":"1_Rep","full_date":"2026-03-07T20:25:51.170Z","date":"2026-03-07","time":"20:25:51"},{"task":"memory_phase","broad_category":"M","image_png":"M_Quartzite_12.png","image_id":284,"category_name":"Quartzite","category":18,"distinct_rating":1.92,"distinct_type":"Bottom","rt":null,"stimulus":"Stimuli_Rocks480/M_Quartzite_12.png","response":null,"trial_type":"image-keyboard-response","trial_index":46,"plugin_version":"2.1.0","time_elapsed":86374,"subject_id":"92471","group":"Group2","condition":"1_Rep","full_date":"2026-03-07T20:25:51.170Z","date":"2026-03-07","time":"20:25:51"},{"rt":null,"stimulus":"<p style=\"font-size: 50px; margin: 0; text-align: center;\">+</p>","response":null,"trial_type":"html-keyboard-response","trial_index":47,"plugin_version":"2.1.0","time_elapsed":87377,"subject_id":"92471","group":"Group2","condition":"1_Rep","full_date":"2026-03-07T20:25:51.170Z","date":"2026-03-07","time":"20:25:51"},{"task":"memory_phase","broad_category":"M","image_png":"M_Marble_02.png","image_id":226,"category_name":"Marble","category":15,"distinct_rating":3.2,"distinct_type":"Bottom","rt":null,"stimulus":"Stimuli_Rocks480/M_Marble_02.png","response":null,"trial_type":"image-keyboard-response","trial_index":48,"plugin_version":"2.1.0","time_elapsed":89893,"subject_id":"92471","group":"Group2","condition":"1_Rep","full_date":"2026-03-07T20:25:51.170Z","date":"2026-03-07","time":"20:25:51"},{"rt":null,"stimulus":"<p style=\"font-size: 50px; margin: 0; text-align: center;\">+</p>","response":null,"trial_type":"html-keyboard-response","trial_index":49,"plugin_version":"2.1.0","time_elapsed":90895,"subject_id":"92471","group":"Group2","condition":"1_Rep","full_date":"2026-03-07T20:25:51.170Z","date":"2026-03-07","time":"20:25:51"},{"task":"memory_phase","broad_category":"M","image_png":"M_Gneiss_14.png","image_id":206,"category_name":"Gneiss","category":13,"distinct_rating":3.41,"distinct_type":"Bottom","rt":null,"stimulus":"Stimuli_Rocks480/M_Gneiss_14.png","response":null,"trial_type":"image-keyboard-response","trial_index":50,"plugin_version":"2.1.0","time_elapsed":93415,"subject_id":"92471","group":"Group2","condition":"1_Rep","full_date":"2026-03-07T20:25:51.170Z","date":"2026-03-07","time":"20:25:51"},{"rt":null,"stimulus":"<p style=\"font-size: 50px; margin: 0; text-align: center;\">+</p>","response":null,"trial_type":"html-keyboard-response","trial_index":51,"plugin_version":"2.1.0","time_elapsed":94418,"subject_id":"92471","group":"Group2","condition":"1_Rep","full_date":"2026-03-07T20:25:51.170Z","date":"2026-03-07","time":"20:25:51"},{"task":"memory_phase","broad_category":"I","image_png":"I_Gabbro_12.png","image_id":60,"category_name":"Gabbro","category":4,"distinct_rating":2.6,"distinct_type":"Bottom","rt":null,"stimulus":"Stimuli_Rocks480/I_Gabbro_12.png","response":null,"trial_type":"image-keyboard-response","trial_index":52,"plugin_version":"2.1.0","time_elapsed":96938,"subject_id":"92471","group":"Group2","condition":"1_Rep","full_date":"2026-03-07T20:25:51.170Z","date":"2026-03-07","time":"20:25:51"},{"rt":null,"stimulus":"<p style=\"font-size: 50px; margin: 0; text-align: center;\">+</p>","response":null,"trial_type":"html-keyboard-response","trial_index":53,"plugin_version":"2.1.0","time_elapsed":97941,"subject_id":"92471","group":"Group2","condition":"1_Rep","full_date":"2026-03-07T20:25:51.170Z","date":"2026-03-07","time":"20:25:51"},{"task":"memory_phase","broad_category":"S","image_png":"S_Sandstone_11.png","image_id":459,"category_name":"Sandstone","category":29,"distinct_rating":1.82,"distinct_type":"Bottom","rt":null,"stimulus":"Stimuli_Rocks480/S_Sandstone_11.png","response":null,"trial_type":"image-keyboard-response","trial_index":54,"plugin_version":"2.1.0","time_elapsed":100460,"subject_id":"92471","group":"Group2","condition":"1_Rep","full_date":"2026-03-07T20:25:51.170Z","date":"2026-03-07","time":"20:25:51"},{"rt":1683,"stimulus":"<p style=\"max-width: 760px; margin: auto; font-size: 35px; line-height: 1.5;\">\n                Press SPACE to continue study phase\n              </p>","response":" ","trial_type":"html-keyboard-response","trial_index":55,"plugin_version":"2.1.0","time_elapsed":102145,"subject_id":"92471","group":"Group2","condition":"1_Rep","full_date":"2026-03-07T20:25:51.170Z","date":"2026-03-07","time":"20:25:51"},{"rt":null,"stimulus":"<p style=\"font-size: 50px; margin: 0; text-align: center;\">+</p>","response":null,"trial_type":"html-keyboard-response","trial_index":56,"plugin_version":"2.1.0","time_elapsed":103147,"subject_id":"92471","group":"Group2","condition":"1_Rep","full_date":"2026-03-07T20:25:51.170Z","date":"2026-03-07","time":"20:25:51"},{"task":"memory_phase","broad_category":"I","image_png":"I_Andesite_04.png","image_id":4,"category_name":"Andesite","category":1,"distinct_rating":3.18,"distinct_type":"Bottom","rt":null,"stimulus":"Stimuli_Rocks480/I_Andesite_04.png","response":null,"trial_type":"image-keyboard-response","trial_index":57,"plugin_version":"2.1.0","time_elapsed":105662,"subject_id":"92471","group":"Group2","condition":"1_Rep","full_date":"2026-03-07T20:25:51.170Z","date":"2026-03-07","time":"20:25:51"},{"rt":null,"stimulus":"<p style=\"font-size: 50px; margin: 0; text-align: center;\">+</p>","response":null,"trial_type":"html-keyboard-response","trial_index":58,"plugin_version":"2.1.0","time_elapsed":106665,"subject_id":"92471","group":"Group2","condition":"1_Rep","full_date":"2026-03-07T20:25:51.170Z","date":"2026-03-07","time":"20:25:51"},{"task":"memory_phase","broad_category":"I","image_png":"I_Diorite_15.png","image_id":47,"category_name":"Diorite","category":3,"distinct_rating":3.05,"distinct_type":"Bottom","rt":null,"stimulus":"Stimuli_Rocks480/I_Diorite_15.png","response":null,"trial_type":"image-keyboard-response","trial_index":59,"plugin_version":"2.1.0","time_elapsed":109184,"subject_id":"92471","group":"Group2","condition":"1_Rep","full_date":"2026-03-07T20:25:51.170Z","date":"2026-03-07","time":"20:25:51"},{"rt":null,"stimulus":"<p style=\"font-size: 50px; margin: 0; text-align: center;\">+</p>","response":null,"trial_type":"html-keyboard-response","trial_index":60,"plugin_version":"2.1.0","time_elapsed":110186,"subject_id":"92471","group":"Group2","condition":"1_Rep","full_date":"2026-03-07T20:25:51.170Z","date":"2026-03-07","time":"20:25:51"},{"task":"memory_phase","broad_category":"S","image_png":"S_Shale_02.png","image_id":466,"category_name":"Shale","category":30,"distinct_rating":2.9,"distinct_type":"Bottom","rt":null,"stimulus":"Stimuli_Rocks480/S_Shale_02.png","response":null,"trial_type":"image-keyboard-response","trial_index":61,"plugin_version":"2.1.0","time_elapsed":112706,"subject_id":"92471","group":"Group2","condition":"1_Rep","full_date":"2026-03-07T20:25:51.170Z","date":"2026-03-07","time":"20:25:51"},{"rt":null,"stimulus":"<p style=\"font-size: 50px; margin: 0; text-align: center;\">+</p>","response":null,"trial_type":"html-keyboard-response","trial_index":62,"plugin_version":"2.1.0","time_elapsed":113708,"subject_id":"92471","group":"Group2","condition":"1_Rep","full_date":"2026-03-07T20:25:51.170Z","date":"2026-03-07","time":"20:25:51"},{"task":"memory_phase","broad_category":"S","image_png":"S_Rock Salt_13.png","image_id":445,"category_name":"Rock Salt","category":28,"distinct_rating":7.58,"distinct_type":"Top","rt":null,"stimulus":"Stimuli_Rocks480/S_Rock Salt_13.png","response":null,"trial_type":"image-keyboard-response","trial_index":63,"plugin_version":"2.1.0","time_elapsed":116226,"subject_id":"92471","group":"Group2","condition":"1_Rep","full_date":"2026-03-07T20:25:51.170Z","date":"2026-03-07","time":"20:25:51"},{"rt":null,"stimulus":"<p style=\"font-size: 50px; margin: 0; text-align: center;\">+</p>","response":null,"trial_type":"html-keyboard-response","trial_index":64,"plugin_version":"2.1.0","time_elapsed":117228,"subject_id":"92471","group":"Group2","condition":"1_Rep","full_date":"2026-03-07T20:25:51.170Z","date":"2026-03-07","time":"20:25:51"},{"task":"memory_phase","broad_category":"M","image_png":"M_Phyllite_05.png","image_id":261,"category_name":"Phyllite","category":17,"distinct_rating":2.14,"distinct_type":"Bottom","rt":null,"stimulus":"Stimuli_Rocks480/M_Phyllite_05.png","response":null,"trial_type":"image-keyboard-response","trial_index":65,"plugin_version":"2.1.0","time_elapsed":119742,"subject_id":"92471","group":"Group2","condition":"1_Rep","full_date":"2026-03-07T20:25:51.170Z","date":"2026-03-07","time":"20:25:51"},{"rt":null,"stimulus":"<p style=\"font-size: 50px; margin: 0; text-align: center;\">+</p>","response":null,"trial_type":"html-keyboard-response","trial_index":66,"plugin_version":"2.1.0","time_elapsed":120744,"subject_id":"92471","group":"Group2","condition":"1_Rep","full_date":"2026-03-07T20:25:51.170Z","date":"2026-03-07","time":"20:25:51"},{"task":"memory_phase","broad_category":"S","image_png":"S_Dolomite_01.png","image_id":385,"category_name":"Dolomite","category":25,"distinct_rating":1.43,"distinct_type":"Bottom","rt":null,"stimulus":"Stimuli_Rocks480/S_Dolomite_01.png","response":null,"trial_type":"image-keyboard-response","trial_index":67,"plugin_version":"2.1.0","time_elapsed":123267,"subject_id":"92471","group":"Group2","condition":"1_Rep","full_date":"2026-03-07T20:25:51.170Z","date":"2026-03-07","time":"20:25:51"},{"rt":null,"stimulus":"<p style=\"font-size: 50px; margin: 0; text-align: center;\">+</p>","response":null,"trial_type":"html-keyboard-response","trial_index":68,"plugin_version":"2.1.0","time_elapsed":124269,"subject_id":"92471","group":"Group2","condition":"1_Rep","full_date":"2026-03-07T20:25:51.170Z","date":"2026-03-07","time":"20:25:51"},{"task":"memory_phase","broad_category":"S","image_png":"S_Sandstone_04.png","image_id":452,"category_name":"Sandstone","category":29,"distinct_rating":1.8,"distinct_type":"Bottom","rt":null,"stimulus":"Stimuli_Rocks480/S_Sandstone_04.png","response":null,"trial_type":"image-keyboard-response","trial_index":69,"plugin_version":"2.1.0","time_elapsed":126787,"subject_id":"92471","group":"Group2","condition":"1_Rep","full_date":"2026-03-07T20:25:51.170Z","date":"2026-03-07","time":"20:25:51"},{"rt":null,"stimulus":"<p style=\"font-size: 50px; margin: 0; text-align: center;\">+</p>","response":null,"trial_type":"html-keyboard-response","trial_index":70,"plugin_version":"2.1.0","time_elapsed":127789,"subject_id":"92471","group":"Group2","condition":"1_Rep","full_date":"2026-03-07T20:25:51.170Z","date":"2026-03-07","time":"20:25:51"},{"task":"memory_phase","broad_category":"I","image_png":"I_Andesite_09.png","image_id":9,"category_name":"Andesite","category":1,"distinct_rating":2.49,"distinct_type":"Bottom","rt":null,"stimulus":"Stimuli_Rocks480/I_Andesite_09.png","response":null,"trial_type":"image-keyboard-response","trial_index":71,"plugin_version":"2.1.0","time_elapsed":130303,"subject_id":"92471","group":"Group2","condition":"1_Rep","full_date":"2026-03-07T20:25:51.170Z","date":"2026-03-07","time":"20:25:51"},{"rt":null,"stimulus":"<p style=\"font-size: 50px; margin: 0; text-align: center;\">+</p>","response":null,"trial_type":"html-keyboard-response","trial_index":72,"plugin_version":"2.1.0","time_elapsed":131306,"subject_id":"92471","group":"Group2","condition":"1_Rep","full_date":"2026-03-07T20:25:51.170Z","date":"2026-03-07","time":"20:25:51"},{"task":"memory_phase","broad_category":"M","image_png":"M_Quartzite_15.png","image_id":287,"category_name":"Quartzite","category":18,"distinct_rating":2.19,"distinct_type":"Bottom","rt":null,"stimulus":"Stimuli_Rocks480/M_Quartzite_15.png","response":null,"trial_type":"image-keyboard-response","trial_index":73,"plugin_version":"2.1.0","time_elapsed":133824,"subject_id":"92471","group":"Group2","condition":"1_Rep","full_date":"2026-03-07T20:25:51.170Z","date":"2026-03-07","time":"20:25:51"},{"rt":null,"stimulus":"<p style=\"font-size: 50px; margin: 0; text-align: center;\">+</p>","response":null,"trial_type":"html-keyboard-response","trial_index":74,"plugin_version":"2.1.0","time_elapsed":134826,"subject_id":"92471","group":"Group2","condition":"1_Rep","full_date":"2026-03-07T20:25:51.170Z","date":"2026-03-07","time":"20:25:51"},{"task":"memory_phase","broad_category":"M","image_png":"M_Phyllite_02.png","image_id":258,"category_name":"Phyllite","category":17,"distinct_rating":2.89,"distinct_type":"Bottom","rt":null,"stimulus":"Stimuli_Rocks480/M_Phyllite_02.png","response":null,"trial_type":"image-keyboard-response","trial_index":75,"plugin_version":"2.1.0","time_elapsed":137344,"subject_id":"92471","group":"Group2","condition":"1_Rep","full_date":"2026-03-07T20:25:51.170Z","date":"2026-03-07","time":"20:25:51"},{"rt":null,"stimulus":"<p style=\"font-size: 50px; margin: 0; text-align: center;\">+</p>","response":null,"trial_type":"html-keyboard-response","trial_index":76,"plugin_version":"2.1.0","time_elapsed":138346,"subject_id":"92471","group":"Group2","condition":"1_Rep","full_date":"2026-03-07T20:25:51.170Z","date":"2026-03-07","time":"20:25:51"},{"task":"memory_phase","broad_category":"M","image_png":"M_Slate_04.png","image_id":308,"category_name":"Slate","category":20,"distinct_rating":2.2,"distinct_type":"Bottom","rt":null,"stimulus":"Stimuli_Rocks480/M_Slate_04.png","response":null,"trial_type":"image-keyboard-response","trial_index":77,"plugin_version":"2.1.0","time_elapsed":140862,"subject_id":"92471","group":"Group2","condition":"1_Rep","full_date":"2026-03-07T20:25:51.170Z","date":"2026-03-07","time":"20:25:51"},{"rt":null,"stimulus":"<p style=\"font-size: 50px; margin: 0; text-align: center;\">+</p>","response":null,"trial_type":"html-keyboard-response","trial_index":78,"plugin_version":"2.1.0","time_elapsed":141865,"subject_id":"92471","group":"Group2","condition":"1_Rep","full_date":"2026-03-07T20:25:51.170Z","date":"2026-03-07","time":"20:25:51"},{"task":"memory_phase","broad_category":"I","image_png":"I_Andesite_03.png","image_id":3,"category_name":"Andesite","category":1,"distinct_rating":3.17,"distinct_type":"Bottom","rt":null,"stimulus":"Stimuli_Rocks480/I_Andesite_03.png","response":null,"trial_type":"image-keyboard-response","trial_index":79,"plugin_version":"2.1.0","time_elapsed":144378,"subject_id":"92471","group":"Group2","condition":"1_Rep","full_date":"2026-03-07T20:25:51.170Z","date":"2026-03-07","time":"20:25:51"},{"rt":null,"stimulus":"<p style=\"font-size: 50px; margin: 0; text-align: center;\">+</p>","response":null,"trial_type":"html-keyboard-response","trial_index":80,"plugin_version":"2.1.0","time_elapsed":145381,"subject_id":"92471","group":"Group2","condition":"1_Rep","full_date":"2026-03-07T20:25:51.170Z","date":"2026-03-07","time":"20:25:51"},{"task":"memory_phase","broad_category":"S","image_png":"S_Sandstone_08.png","image_id":456,"category_name":"Sandstone","category":29,"distinct_rating":1.5,"distinct_type":"Bottom","rt":null,"stimulus":"Stimuli_Rocks480/S_Sandstone_08.png","response":null,"trial_type":"image-keyboard-response","trial_index":81,"plugin_version":"2.1.0","time_elapsed":147899,"subject_id":"92471","group":"Group2","condition":"1_Rep","full_date":"2026-03-07T20:25:51.170Z","date":"2026-03-07","time":"20:25:51"},{"rt":null,"stimulus":"<p style=\"font-size: 50px; margin: 0; text-align: center;\">+</p>","response":null,"trial_type":"html-keyboard-response","trial_index":82,"plugin_version":"2.1.0","time_elapsed":148901,"subject_id":"92471","group":"Group2","condition":"1_Rep","full_date":"2026-03-07T20:25:51.170Z","date":"2026-03-07","time":"20:25:51"},{"task":"memory_phase","broad_category":"I","image_png":"I_Diorite_01.png","image_id":33,"category_name":"Diorite","category":3,"distinct_rating":2.97,"distinct_type":"Bottom","rt":null,"stimulus":"Stimuli_Rocks480/I_Diorite_01.png","response":null,"trial_type":"image-keyboard-response","trial_index":83,"plugin_version":"2.1.0","time_elapsed":151421,"subject_id":"92471","group":"Group2","condition":"1_Rep","full_date":"2026-03-07T20:25:51.170Z","date":"2026-03-07","time":"20:25:51"},{"rt":null,"stimulus":"<p style=\"font-size: 50px; margin: 0; text-align: center;\">+</p>","response":null,"trial_type":"html-keyboard-response","trial_index":84,"plugin_version":"2.1.0","time_elapsed":152424,"subject_id":"92471","group":"Group2","condition":"1_Rep","full_date":"2026-03-07T20:25:51.170Z","date":"2026-03-07","time":"20:25:51"},{"task":"memory_phase","broad_category":"M","image_png":"M_Marble_14.png","image_id":238,"category_name":"Marble","category":15,"distinct_rating":3.31,"distinct_type":"Bottom","rt":null,"stimulus":"Stimuli_Rocks480/M_Marble_14.png","response":null,"trial_type":"image-keyboard-response","trial_index":85,"plugin_version":"2.1.0","time_elapsed":154942,"subject_id":"92471","group":"Group2","condition":"1_Rep","full_date":"2026-03-07T20:25:51.170Z","date":"2026-03-07","time":"20:25:51"},{"rt":null,"stimulus":"<p style=\"font-size: 50px; margin: 0; text-align: center;\">+</p>","response":null,"trial_type":"html-keyboard-response","trial_index":86,"plugin_version":"2.1.0","time_elapsed":155944,"subject_id":"92471","group":"Group2","condition":"1_Rep","full_date":"2026-03-07T20:25:51.170Z","date":"2026-03-07","time":"20:25:51"},{"task":"memory_phase","broad_category":"I","image_png":"I_Diorite_10.png","image_id":42,"category_name":"Diorite","category":3,"distinct_rating":2.84,"distinct_type":"Bottom","rt":null,"stimulus":"Stimuli_Rocks480/I_Diorite_10.png","response":null,"trial_type":"image-keyboard-response","trial_index":87,"plugin_version":"2.1.0","time_elapsed":158462,"subject_id":"92471","group":"Group2","condition":"1_Rep","full_date":"2026-03-07T20:25:51.170Z","date":"2026-03-07","time":"20:25:51"},{"rt":null,"stimulus":"<p style=\"font-size: 50px; margin: 0; text-align: center;\">+</p>","response":null,"trial_type":"html-keyboard-response","trial_index":88,"plugin_version":"2.1.0","time_elapsed":159465,"subject_id":"92471","group":"Group2","condition":"1_Rep","full_date":"2026-03-07T20:25:51.170Z","date":"2026-03-07","time":"20:25:51"},{"task":"memory_phase","broad_category":"M","image_png":"M_Gneiss_10.png","image_id":202,"category_name":"Gneiss","category":13,"distinct_rating":3.09,"distinct_type":"Bottom","rt":null,"stimulus":"Stimuli_Rocks480/M_Gneiss_10.png","response":null,"trial_type":"image-keyboard-response","trial_index":89,"plugin_version":"2.1.0","time_elapsed":161983,"subject_id":"92471","group":"Group2","condition":"1_Rep","full_date":"2026-03-07T20:25:51.170Z","date":"2026-03-07","time":"20:25:51"},{"rt":null,"stimulus":"<p style=\"font-size: 50px; margin: 0; text-align: center;\">+</p>","response":null,"trial_type":"html-keyboard-response","trial_index":90,"plugin_version":"2.1.0","time_elapsed":162985,"subject_id":"92471","group":"Group2","condition":"1_Rep","full_date":"2026-03-07T20:25:51.170Z","date":"2026-03-07","time":"20:25:51"},{"task":"memory_phase","broad_category":"M","image_png":"M_Slate_10.png","image_id":314,"category_name":"Slate","category":20,"distinct_rating":1.94,"distinct_type":"Bottom","rt":null,"stimulus":"Stimuli_Rocks480/M_Slate_10.png","response":null,"trial_type":"image-keyboard-response","trial_index":91,"plugin_version":"2.1.0","time_elapsed":165499,"subject_id":"92471","group":"Group2","condition":"1_Rep","full_date":"2026-03-07T20:25:51.170Z","date":"2026-03-07","time":"20:25:51"},{"rt":null,"stimulus":"<p style=\"font-size: 50px; margin: 0; text-align: center;\">+</p>","response":null,"trial_type":"html-keyboard-response","trial_index":92,"plugin_version":"2.1.0","time_elapsed":166502,"subject_id":"92471","group":"Group2","condition":"1_Rep","full_date":"2026-03-07T20:25:51.170Z","date":"2026-03-07","time":"20:25:51"},{"task":"memory_phase","broad_category":"S","image_png":"S_Chert_13.png","image_id":365,"category_name":"Chert","category":23,"distinct_rating":6.57,"distinct_type":"Top","rt":null,"stimulus":"Stimuli_Rocks480/S_Chert_13.png","response":null,"trial_type":"image-keyboard-response","trial_index":93,"plugin_version":"2.1.0","time_elapsed":169015,"subject_id":"92471","group":"Group2","condition":"1_Rep","full_date":"2026-03-07T20:25:51.170Z","date":"2026-03-07","time":"20:25:51"},{"rt":null,"stimulus":"<p style=\"font-size: 50px; margin: 0; text-align: center;\">+</p>","response":null,"trial_type":"html-keyboard-response","trial_index":94,"plugin_version":"2.1.0","time_elapsed":170017,"subject_id":"92471","group":"Group2","condition":"1_Rep","full_date":"2026-03-07T20:25:51.170Z","date":"2026-03-07","time":"20:25:51"},{"task":"memory_phase","broad_category":"I","image_png":"I_Obsidian_06.png","image_id":86,"category_name":"Obsidian","category":6,"distinct_rating":8.01,"distinct_type":"Top","rt":null,"stimulus":"Stimuli_Rocks480/I_Obsidian_06.png","response":null,"trial_type":"image-keyboard-response","trial_index":95,"plugin_version":"2.1.0","time_elapsed":172538,"subject_id":"92471","group":"Group2","condition":"1_Rep","full_date":"2026-03-07T20:25:51.170Z","date":"2026-03-07","time":"20:25:51"},{"rt":null,"stimulus":"<p style=\"font-size: 50px; margin: 0; text-align: center;\">+</p>","response":null,"trial_type":"html-keyboard-response","trial_index":96,"plugin_version":"2.1.0","time_elapsed":173541,"subject_id":"92471","group":"Group2","condition":"1_Rep","full_date":"2026-03-07T20:25:51.170Z","date":"2026-03-07","time":"20:25:51"},{"task":"memory_phase","broad_category":"I","image_png":"I_Peridotite_13.png","image_id":125,"category_name":"Peridotite","category":8,"distinct_rating":7.28,"distinct_type":"Top","rt":null,"stimulus":"Stimuli_Rocks480/I_Peridotite_13.png","response":null,"trial_type":"image-keyboard-response","trial_index":97,"plugin_version":"2.1.0","time_elapsed":176064,"subject_id":"92471","group":"Group2","condition":"1_Rep","full_date":"2026-03-07T20:25:51.170Z","date":"2026-03-07","time":"20:25:51"},{"rt":null,"stimulus":"<p style=\"font-size: 50px; margin: 0; text-align: center;\">+</p>","response":null,"trial_type":"html-keyboard-response","trial_index":98,"plugin_version":"2.1.0","time_elapsed":177067,"subject_id":"92471","group":"Group2","condition":"1_Rep","full_date":"2026-03-07T20:25:51.170Z","date":"2026-03-07","time":"20:25:51"},{"task":"memory_phase","broad_category":"M","image_png":"M_Phyllite_13.png","image_id":269,"category_name":"Phyllite","category":17,"distinct_rating":2.8,"distinct_type":"Bottom","rt":null,"stimulus":"Stimuli_Rocks480/M_Phyllite_13.png","response":null,"trial_type":"image-keyboard-response","trial_index":99,"plugin_version":"2.1.0","time_elapsed":179584,"subject_id":"92471","group":"Group2","condition":"1_Rep","full_date":"2026-03-07T20:25:51.170Z","date":"2026-03-07","time":"20:25:51"},{"rt":null,"stimulus":"<p style=\"font-size: 50px; margin: 0; text-align: center;\">+</p>","response":null,"trial_type":"html-keyboard-response","trial_index":100,"plugin_version":"2.1.0","time_elapsed":180586,"subject_id":"92471","group":"Group2","condition":"1_Rep","full_date":"2026-03-07T20:25:51.170Z","date":"2026-03-07","time":"20:25:51"},{"task":"memory_phase","broad_category":"I","image_png":"I_Pumice_01.png","image_id":129,"category_name":"Pumice","category":9,"distinct_rating":3.25,"distinct_type":"Bottom","rt":null,"stimulus":"Stimuli_Rocks480/I_Pumice_01.png","response":null,"trial_type":"image-keyboard-response","trial_index":101,"plugin_version":"2.1.0","time_elapsed":183104,"subject_id":"92471","group":"Group2","condition":"1_Rep","full_date":"2026-03-07T20:25:51.170Z","date":"2026-03-07","time":"20:25:51"},{"rt":null,"stimulus":"<p style=\"font-size: 50px; margin: 0; text-align: center;\">+</p>","response":null,"trial_type":"html-keyboard-response","trial_index":102,"plugin_version":"2.1.0","time_elapsed":184107,"subject_id":"92471","group":"Group2","condition":"1_Rep","full_date":"2026-03-07T20:25:51.170Z","date":"2026-03-07","time":"20:25:51"},{"task":"memory_phase","broad_category":"M","image_png":"M_Quartzite_07.png","image_id":279,"category_name":"Quartzite","category":18,"distinct_rating":1.97,"distinct_type":"Bottom","rt":null,"stimulus":"Stimuli_Rocks480/M_Quartzite_07.png","response":null,"trial_type":"image-keyboard-response","trial_index":103,"plugin_version":"2.1.0","time_elapsed":186625,"subject_id":"92471","group":"Group2","condition":"1_Rep","full_date":"2026-03-07T20:25:51.170Z","date":"2026-03-07","time":"20:25:51"},{"rt":null,"stimulus":"<p style=\"font-size: 50px; margin: 0; text-align: center;\">+</p>","response":null,"trial_type":"html-keyboard-response","trial_index":104,"plugin_version":"2.1.0","time_elapsed":187627,"subject_id":"92471","group":"Group2","condition":"1_Rep","full_date":"2026-03-07T20:25:51.170Z","date":"2026-03-07","time":"20:25:51"},{"task":"memory_phase","broad_category":"S","image_png":"S_Dolomite_16.png","image_id":400,"category_name":"Dolomite","category":25,"distinct_rating":1.71,"distinct_type":"Bottom","rt":null,"stimulus":"Stimuli_Rocks480/S_Dolomite_16.png","response":null,"trial_type":"image-keyboard-response","trial_index":105,"plugin_version":"2.1.0","time_elapsed":190143,"subject_id":"92471","group":"Group2","condition":"1_Rep","full_date":"2026-03-07T20:25:51.170Z","date":"2026-03-07","time":"20:25:51"},{"rt":2741,"stimulus":"<div style=\"max-width: 760px; margin: auto; font-size: 20px; line-height: 1.5;\">\n      <h1 style=\"text-align:center; font-size: 30px;\">Instructions for the Test Phase</h1>\n      <p>\n        The study phase is now complete.\n      </p>\n      <p>\n        In the test phase, you will again see a series of rock images. \n        Some will be ones you saw before - during the study phase, while others will be new.  \n        <b>Your task</b> is to decide whether you have seen each image before by pressing the corresponding key on your keyboard:<br><br>\n          <b>A</b> - NO (you did not see this image before)<br>\n          <b>L</b> - YES (you saw this image before)<br><br>\n        The test will proceed at your own pace. You will receive feedback after each response.  \n        Please try to respond <b>as accurately as possible</b>.\n      </p>\n      <p>\n        <b>Reminder:</b> If your computer has multiple language settings (e.g., English and another language),\n        please ensure it is set to English during the test phase.\n      </p>\n      <p>\n        You can track your progress using the <b>completion bar</b> at the top of the screen.  \n        Note that it has been refreshed to reflect your progress during this final phase.\n      </p>\n      <p>\n        Press the button below when you are ready to continue.\n      </p>\n    </div>","response":0,"trial_type":"html-button-response","trial_index":106,"plugin_version":"2.1.0","time_elapsed":192887,"subject_id":"92471","group":"Group2","condition":"1_Rep","full_date":"2026-03-07T20:25:51.170Z","date":"2026-03-07","time":"20:25:51"},{"correct_response":"a","task":"test_phase","broad_category":"S","image_png":"S_Shale_08.png","image_id":472,"category_name":"Shale","category":30,"distinct_rating":2.55,"distinct_type":"Bottom","item_type":"Foil","rt":10751,"stimulus":"Stimuli_Rocks480/S_Shale_08.png","response":"a","trial_type":"image-keyboard-response","trial_index":107,"plugin_version":"2.1.0","time_elapsed":203655,"subject_id":"92471","group":"Group2","condition":"1_Rep","full_date":"2026-03-07T20:25:51.170Z","date":"2026-03-07","time":"20:25:51","cor_ans":true},{"trial_type":"html-keyboard-response","rt":null,"stimulus":"<p style=\"color: green; font-size: 50px; font-weight: bold;\">Correct</p>","response":null,"trial_index":108,"plugin_version":"2.1.0","time_elapsed":204157,"subject_id":"92471","group":"Group2","condition":"1_Rep","full_date":"2026-03-07T20:25:51.170Z","date":"2026-03-07","time":"20:25:51"},{"correct_response":"l","task":"test_phase","broad_category":"M","image_png":"M_Phyllite_13.png","image_id":269,"category_name":"Phyllite","category":17,"distinct_rating":2.8,"distinct_type":"Bottom","item_type":"Target","rt":9424,"stimulus":"Stimuli_Rocks480/M_Phyllite_13.png","response":"l","trial_type":"image-keyboard-response","trial_index":109,"plugin_version":"2.1.0","time_elapsed":213582,"subject_id":"92471","group":"Group2","condition":"1_Rep","full_date":"2026-03-07T20:25:51.170Z","date":"2026-03-07","time":"20:25:51","cor_ans":true},{"trial_type":"html-keyboard-response","rt":null,"stimulus":"<p style=\"color: green; font-size: 50px; font-weight: bold;\">Correct</p>","response":null,"trial_index":110,"plugin_version":"2.1.0","time_elapsed":214085,"subject_id":"92471","group":"Group2","condition":"1_Rep","full_date":"2026-03-07T20:25:51.170Z","date":"2026-03-07","time":"20:25:51"},{"correct_response":"a","task":"test_phase","broad_category":"S","image_png":"S_Sandstone_15.png","image_id":463,"category_name":"Sandstone","category":29,"distinct_rating":2,"distinct_type":"Bottom","item_type":"Foil","rt":3265,"stimulus":"Stimuli_Rocks480/S_Sandstone_15.png","response":"a","trial_type":"image-keyboard-response","trial_index":111,"plugin_version":"2.1.0","time_elapsed":217367,"subject_id":"92471","group":"Group2","condition":"1_Rep","full_date":"2026-03-07T20:25:51.170Z","date":"2026-03-07","time":"20:25:51","cor_ans":true},{"trial_type":"html-keyboard-response","rt":null,"stimulus":"<p style=\"color: green; font-size: 50px; font-weight: bold;\">Correct</p>","response":null,"trial_index":112,"plugin_version":"2.1.0","time_elapsed":217870,"subject_id":"92471","group":"Group2","condition":"1_Rep","full_date":"2026-03-07T20:25:51.170Z","date":"2026-03-07","time":"20:25:51"},{"correct_response":"l","task":"test_phase","broad_category":"M","image_png":"M_Gneiss_10.png","image_id":202,"category_name":"Gneiss","category":13,"distinct_rating":3.09,"distinct_type":"Bottom","item_type":"Target","rt":1533,"stimulus":"Stimuli_Rocks480/M_Gneiss_10.png","response":"l","trial_type":"image-keyboard-response","trial_index":113,"plugin_version":"2.1.0","time_elapsed":219406,"subject_id":"92471","group":"Group2","condition":"1_Rep","full_date":"2026-03-07T20:25:51.170Z","date":"2026-03-07","time":"20:25:51","cor_ans":true},{"trial_type":"html-keyboard-response","rt":null,"stimulus":"<p style=\"color: green; font-size: 50px; font-weight: bold;\">Correct</p>","response":null,"trial_index":114,"plugin_version":"2.1.0","time_elapsed":219909,"subject_id":"92471","group":"Group2","condition":"1_Rep","full_date":"2026-03-07T20:25:51.170Z","date":"2026-03-07","time":"20:25:51"},{"correct_response":"a","task":"test_phase","broad_category":"M","image_png":"M_Marble_16.png","image_id":240,"category_name":"Marble","category":15,"distinct_rating":2.57,"distinct_type":"Bottom","item_type":"Foil","rt":3058,"stimulus":"Stimuli_Rocks480/M_Marble_16.png","response":"a","trial_type":"image-keyboard-response","trial_index":115,"plugin_version":"2.1.0","time_elapsed":222982,"subject_id":"92471","group":"Group2","condition":"1_Rep","full_date":"2026-03-07T20:25:51.170Z","date":"2026-03-07","time":"20:25:51","cor_ans":true},{"trial_type":"html-keyboard-response","rt":null,"stimulus":"<p style=\"color: green; font-size: 50px; font-weight: bold;\">Correct</p>","response":null,"trial_index":116,"plugin_version":"2.1.0","time_elapsed":223485,"subject_id":"92471","group":"Group2","condition":"1_Rep","full_date":"2026-03-07T20:25:51.170Z","date":"2026-03-07","time":"20:25:51"},{"correct_response":"a","task":"test_phase","broad_category":"I","image_png":"I_Basalt_02.png","image_id":18,"category_name":"Basalt","category":2,"distinct_rating":1.84,"distinct_type":"Bottom","item_type":"Foil","rt":3426,"stimulus":"Stimuli_Rocks480/I_Basalt_02.png","response":"a","trial_type":"image-keyboard-response","trial_index":117,"plugin_version":"2.1.0","time_elapsed":226927,"subject_id":"92471","group":"Group2","condition":"1_Rep","full_date":"2026-03-07T20:25:51.170Z","date":"2026-03-07","time":"20:25:51","cor_ans":true},{"trial_type":"html-keyboard-response","rt":null,"stimulus":"<p style=\"color: green; font-size: 50px; font-weight: bold;\">Correct</p>","response":null,"trial_index":118,"plugin_version":"2.1.0","time_elapsed":227430,"subject_id":"92471","group":"Group2","condition":"1_Rep","full_date":"2026-03-07T20:25:51.170Z","date":"2026-03-07","time":"20:25:51"},{"correct_response":"l","task":"test_phase","broad_category":"I","image_png":"I_Peridotite_13.png","image_id":125,"category_name":"Peridotite","category":8,"distinct_rating":7.28,"distinct_type":"Top","item_type":"Target","rt":2310,"stimulus":"Stimuli_Rocks480/I_Peridotite_13.png","response":"l","trial_type":"image-keyboard-response","trial_index":119,"plugin_version":"2.1.0","time_elapsed":229743,"subject_id":"92471","group":"Group2","condition":"1_Rep","full_date":"2026-03-07T20:25:51.170Z","date":"2026-03-07","time":"20:25:51","cor_ans":true},{"trial_type":"html-keyboard-response","rt":null,"stimulus":"<p style=\"color: green; font-size: 50px; font-weight: bold;\">Correct</p>","response":null,"trial_index":120,"plugin_version":"2.1.0","time_elapsed":230245,"subject_id":"92471","group":"Group2","condition":"1_Rep","full_date":"2026-03-07T20:25:51.170Z","date":"2026-03-07","time":"20:25:51"},{"correct_response":"a","task":"test_phase","broad_category":"M","image_png":"M_Quartzite_05.png","image_id":277,"category_name":"Quartzite","category":18,"distinct_rating":2.23,"distinct_type":"Bottom","item_type":"Foil","rt":1612,"stimulus":"Stimuli_Rocks480/M_Quartzite_05.png","response":"l","trial_type":"image-keyboard-response","trial_index":121,"plugin_version":"2.1.0","time_elapsed":231873,"subject_id":"92471","group":"Group2","condition":"1_Rep","full_date":"2026-03-07T20:25:51.170Z","date":"2026-03-07","time":"20:25:51","cor_ans":false},{"trial_type":"html-keyboard-response","rt":null,"stimulus":"<p style=\"color: red; font-size: 50px; font-weight: bold;\">Incorrect</p>","response":null,"trial_index":122,"plugin_version":"2.1.0","time_elapsed":232375,"subject_id":"92471","group":"Group2","condition":"1_Rep","full_date":"2026-03-07T20:25:51.170Z","date":"2026-03-07","time":"20:25:51"},{"correct_response":"a","task":"test_phase","broad_category":"M","image_png":"M_Gneiss_13.png","image_id":205,"category_name":"Gneiss","category":13,"distinct_rating":3.26,"distinct_type":"Bottom","item_type":"Foil","rt":2056,"stimulus":"Stimuli_Rocks480/M_Gneiss_13.png","response":"a","trial_type":"image-keyboard-response","trial_index":123,"plugin_version":"2.1.0","time_elapsed":234443,"subject_id":"92471","group":"Group2","condition":"1_Rep","full_date":"2026-03-07T20:25:51.170Z","date":"2026-03-07","time":"20:25:51","cor_ans":true},{"trial_type":"html-keyboard-response","rt":null,"stimulus":"<p style=\"color: green; font-size: 50px; font-weight: bold;\">Correct</p>","response":null,"trial_index":124,"plugin_version":"2.1.0","time_elapsed":234945,"subject_id":"92471","group":"Group2","condition":"1_Rep","full_date":"2026-03-07T20:25:51.170Z","date":"2026-03-07","time":"20:25:51"},{"correct_response":"a","task":"test_phase","broad_category":"S","image_png":"S_Rock Gypsum_04.png","image_id":420,"category_name":"Rock Gypsum","category":27,"distinct_rating":7.61,"distinct_type":"Top","item_type":"Foil","rt":1987,"stimulus":"Stimuli_Rocks480/S_Rock Gypsum_04.png","response":"a","trial_type":"image-keyboard-response","trial_index":125,"plugin_version":"2.1.0","time_elapsed":236948,"subject_id":"92471","group":"Group2","condition":"1_Rep","full_date":"2026-03-07T20:25:51.170Z","date":"2026-03-07","time":"20:25:51","cor_ans":true},{"trial_type":"html-keyboard-response","rt":null,"stimulus":"<p style=\"color: green; font-size: 50px; font-weight: bold;\">Correct</p>","response":null,"trial_index":126,"plugin_version":"2.1.0","time_elapsed":237451,"subject_id":"92471","group":"Group2","condition":"1_Rep","full_date":"2026-03-07T20:25:51.170Z","date":"2026-03-07","time":"20:25:51"},{"correct_response":"l","task":"test_phase","broad_category":"S","image_png":"S_Shale_07.png","image_id":471,"category_name":"Shale","category":30,"distinct_rating":2.73,"distinct_type":"Bottom","item_type":"Target","rt":3007,"stimulus":"Stimuli_Rocks480/S_Shale_07.png","response":"l","trial_type":"image-keyboard-response","trial_index":127,"plugin_version":"2.1.0","time_elapsed":240470,"subject_id":"92471","group":"Group2","condition":"1_Rep","full_date":"2026-03-07T20:25:51.170Z","date":"2026-03-07","time":"20:25:51","cor_ans":true},{"trial_type":"html-keyboard-response","rt":null,"stimulus":"<p style=\"color: green; font-size: 50px; font-weight: bold;\">Correct</p>","response":null,"trial_index":128,"plugin_version":"2.1.0","time_elapsed":240973,"subject_id":"92471","group":"Group2","condition":"1_Rep","full_date":"2026-03-07T20:25:51.170Z","date":"2026-03-07","time":"20:25:51"},{"correct_response":"a","task":"test_phase","broad_category":"S","image_png":"S_Sandstone_03.png","image_id":451,"category_name":"Sandstone","category":29,"distinct_rating":1.86,"distinct_type":"Bottom","item_type":"Foil","rt":2646,"stimulus":"Stimuli_Rocks480/S_Sandstone_03.png","response":"a","trial_type":"image-keyboard-response","trial_index":129,"plugin_version":"2.1.0","time_elapsed":243634,"subject_id":"92471","group":"Group2","condition":"1_Rep","full_date":"2026-03-07T20:25:51.170Z","date":"2026-03-07","time":"20:25:51","cor_ans":true},{"trial_type":"html-keyboard-response","rt":null,"stimulus":"<p style=\"color: green; font-size: 50px; font-weight: bold;\">Correct</p>","response":null,"trial_index":130,"plugin_version":"2.1.0","time_elapsed":244137,"subject_id":"92471","group":"Group2","condition":"1_Rep","full_date":"2026-03-07T20:25:51.170Z","date":"2026-03-07","time":"20:25:51"},{"correct_response":"a","task":"test_phase","broad_category":"I","image_png":"I_Andesite_08.png","image_id":8,"category_name":"Andesite","category":1,"distinct_rating":1.95,"distinct_type":"Bottom","item_type":"Foil","rt":5808,"stimulus":"Stimuli_Rocks480/I_Andesite_08.png","response":"a","trial_type":"image-keyboard-response","trial_index":131,"plugin_version":"2.1.0","time_elapsed":249959,"subject_id":"92471","group":"Group2","condition":"1_Rep","full_date":"2026-03-07T20:25:51.170Z","date":"2026-03-07","time":"20:25:51","cor_ans":true},{"trial_type":"html-keyboard-response","rt":null,"stimulus":"<p style=\"color: green; font-size: 50px; font-weight: bold;\">Correct</p>","response":null,"trial_index":132,"plugin_version":"2.1.0","time_elapsed":250461,"subject_id":"92471","group":"Group2","condition":"1_Rep","full_date":"2026-03-07T20:25:51.170Z","date":"2026-03-07","time":"20:25:51"},{"correct_response":"l","task":"test_phase","broad_category":"S","image_png":"S_Chert_13.png","image_id":365,"category_name":"Chert","category":23,"distinct_rating":6.57,"distinct_type":"Top","item_type":"Target","rt":1265,"stimulus":"Stimuli_Rocks480/S_Chert_13.png","response":"l","trial_type":"image-keyboard-response","trial_index":133,"plugin_version":"2.1.0","time_elapsed":251728,"subject_id":"92471","group":"Group2","condition":"1_Rep","full_date":"2026-03-07T20:25:51.170Z","date":"2026-03-07","time":"20:25:51","cor_ans":true},{"trial_type":"html-keyboard-response","rt":null,"stimulus":"<p style=\"color: green; font-size: 50px; font-weight: bold;\">Correct</p>","response":null,"trial_index":134,"plugin_version":"2.1.0","time_elapsed":252230,"subject_id":"92471","group":"Group2","condition":"1_Rep","full_date":"2026-03-07T20:25:51.170Z","date":"2026-03-07","time":"20:25:51"},{"correct_response":"a","task":"test_phase","broad_category":"M","image_png":"M_Quartzite_08.png","image_id":280,"category_name":"Quartzite","category":18,"distinct_rating":2.15,"distinct_type":"Bottom","item_type":"Foil","rt":5882,"stimulus":"Stimuli_Rocks480/M_Quartzite_08.png","response":"l","trial_type":"image-keyboard-response","trial_index":135,"plugin_version":"2.1.0","time_elapsed":258127,"subject_id":"92471","group":"Group2","condition":"1_Rep","full_date":"2026-03-07T20:25:51.170Z","date":"2026-03-07","time":"20:25:51","cor_ans":false},{"trial_type":"html-keyboard-response","rt":null,"stimulus":"<p style=\"color: red; font-size: 50px; font-weight: bold;\">Incorrect</p>","response":null,"trial_index":136,"plugin_version":"2.1.0","time_elapsed":258630,"subject_id":"92471","group":"Group2","condition":"1_Rep","full_date":"2026-03-07T20:25:51.170Z","date":"2026-03-07","time":"20:25:51"},{"correct_response":"a","task":"test_phase","broad_category":"S","image_png":"S_Breccia_11.png","image_id":347,"category_name":"Breccia","category":22,"distinct_rating":6.7,"distinct_type":"Top","item_type":"Foil","rt":2616,"stimulus":"Stimuli_Rocks480/S_Breccia_11.png","response":"a","trial_type":"image-keyboard-response","trial_index":137,"plugin_version":"2.1.0","time_elapsed":261269,"subject_id":"92471","group":"Group2","condition":"1_Rep","full_date":"2026-03-07T20:25:51.170Z","date":"2026-03-07","time":"20:25:51","cor_ans":true},{"trial_type":"html-keyboard-response","rt":null,"stimulus":"<p style=\"color: green; font-size: 50px; font-weight: bold;\">Correct</p>","response":null,"trial_index":138,"plugin_version":"2.1.0","time_elapsed":261770,"subject_id":"92471","group":"Group2","condition":"1_Rep","full_date":"2026-03-07T20:25:51.170Z","date":"2026-03-07","time":"20:25:51"},{"correct_response":"l","task":"test_phase","broad_category":"S","image_png":"S_Shale_02.png","image_id":466,"category_name":"Shale","category":30,"distinct_rating":2.9,"distinct_type":"Bottom","item_type":"Target","rt":1914,"stimulus":"Stimuli_Rocks480/S_Shale_02.png","response":"a","trial_type":"image-keyboard-response","trial_index":139,"plugin_version":"2.1.0","time_elapsed":263697,"subject_id":"92471","group":"Group2","condition":"1_Rep","full_date":"2026-03-07T20:25:51.170Z","date":"2026-03-07","time":"20:25:51","cor_ans":false},{"trial_type":"html-keyboard-response","rt":null,"stimulus":"<p style=\"color: red; font-size: 50px; font-weight: bold;\">Incorrect</p>","response":null,"trial_index":140,"plugin_version":"2.1.0","time_elapsed":264198,"subject_id":"92471","group":"Group2","condition":"1_Rep","full_date":"2026-03-07T20:25:51.170Z","date":"2026-03-07","time":"20:25:51"},{"correct_response":"l","task":"test_phase","broad_category":"I","image_png":"I_Andesite_09.png","image_id":9,"category_name":"Andesite","category":1,"distinct_rating":2.49,"distinct_type":"Bottom","item_type":"Target","rt":1370,"stimulus":"Stimuli_Rocks480/I_Andesite_09.png","response":"l","trial_type":"image-keyboard-response","trial_index":141,"plugin_version":"2.1.0","time_elapsed":265581,"subject_id":"92471","group":"Group2","condition":"1_Rep","full_date":"2026-03-07T20:25:51.170Z","date":"2026-03-07","time":"20:25:51","cor_ans":true},{"trial_type":"html-keyboard-response","rt":null,"stimulus":"<p style=\"color: green; font-size: 50px; font-weight: bold;\">Correct</p>","response":null,"trial_index":142,"plugin_version":"2.1.0","time_elapsed":266082,"subject_id":"92471","group":"Group2","condition":"1_Rep","full_date":"2026-03-07T20:25:51.170Z","date":"2026-03-07","time":"20:25:51"},{"correct_response":"l","task":"test_phase","broad_category":"M","image_png":"M_Slate_14.png","image_id":318,"category_name":"Slate","category":20,"distinct_rating":2.58,"distinct_type":"Bottom","item_type":"Target","rt":1132,"stimulus":"Stimuli_Rocks480/M_Slate_14.png","response":"l","trial_type":"image-keyboard-response","trial_index":143,"plugin_version":"2.1.0","time_elapsed":267226,"subject_id":"92471","group":"Group2","condition":"1_Rep","full_date":"2026-03-07T20:25:51.170Z","date":"2026-03-07","time":"20:25:51","cor_ans":true},{"trial_type":"html-keyboard-response","rt":null,"stimulus":"<p style=\"color: green; font-size: 50px; font-weight: bold;\">Correct</p>","response":null,"trial_index":144,"plugin_version":"2.1.0","time_elapsed":267728,"subject_id":"92471","group":"Group2","condition":"1_Rep","full_date":"2026-03-07T20:25:51.170Z","date":"2026-03-07","time":"20:25:51"},{"correct_response":"a","task":"test_phase","broad_category":"I","image_png":"I_Diorite_05.png","image_id":37,"category_name":"Diorite","category":3,"distinct_rating":3.08,"distinct_type":"Bottom","item_type":"Foil","rt":2812,"stimulus":"Stimuli_Rocks480/I_Diorite_05.png","response":"a","trial_type":"image-keyboard-response","trial_index":145,"plugin_version":"2.1.0","time_elapsed":270555,"subject_id":"92471","group":"Group2","condition":"1_Rep","full_date":"2026-03-07T20:25:51.170Z","date":"2026-03-07","time":"20:25:51","cor_ans":true},{"trial_type":"html-keyboard-response","rt":null,"stimulus":"<p style=\"color: green; font-size: 50px; font-weight: bold;\">Correct</p>","response":null,"trial_index":146,"plugin_version":"2.1.0","time_elapsed":271057,"subject_id":"92471","group":"Group2","condition":"1_Rep","full_date":"2026-03-07T20:25:51.170Z","date":"2026-03-07","time":"20:25:51"},{"correct_response":"l","task":"test_phase","broad_category":"M","image_png":"M_Marble_03.png","image_id":227,"category_name":"Marble","category":15,"distinct_rating":2.67,"distinct_type":"Bottom","item_type":"Target","rt":1131,"stimulus":"Stimuli_Rocks480/M_Marble_03.png","response":"l","trial_type":"image-keyboard-response","trial_index":147,"plugin_version":"2.1.0","time_elapsed":272204,"subject_id":"92471","group":"Group2","condition":"1_Rep","full_date":"2026-03-07T20:25:51.170Z","date":"2026-03-07","time":"20:25:51","cor_ans":true},{"trial_type":"html-keyboard-response","rt":null,"stimulus":"<p style=\"color: green; font-size: 50px; font-weight: bold;\">Correct</p>","response":null,"trial_index":148,"plugin_version":"2.1.0","time_elapsed":272706,"subject_id":"92471","group":"Group2","condition":"1_Rep","full_date":"2026-03-07T20:25:51.170Z","date":"2026-03-07","time":"20:25:51"},{"correct_response":"l","task":"test_phase","broad_category":"M","image_png":"M_Quartzite_12.png","image_id":284,"category_name":"Quartzite","category":18,"distinct_rating":1.92,"distinct_type":"Bottom","item_type":"Target","rt":1578,"stimulus":"Stimuli_Rocks480/M_Quartzite_12.png","response":"l","trial_type":"image-keyboard-response","trial_index":149,"plugin_version":"2.1.0","time_elapsed":274300,"subject_id":"92471","group":"Group2","condition":"1_Rep","full_date":"2026-03-07T20:25:51.170Z","date":"2026-03-07","time":"20:25:51","cor_ans":true},{"trial_type":"html-keyboard-response","rt":null,"stimulus":"<p style=\"color: green; font-size: 50px; font-weight: bold;\">Correct</p>","response":null,"trial_index":150,"plugin_version":"2.1.0","time_elapsed":274801,"subject_id":"92471","group":"Group2","condition":"1_Rep","full_date":"2026-03-07T20:25:51.170Z","date":"2026-03-07","time":"20:25:51"},{"correct_response":"l","task":"test_phase","broad_category":"M","image_png":"M_Gneiss_14.png","image_id":206,"category_name":"Gneiss","category":13,"distinct_rating":3.41,"distinct_type":"Bottom","item_type":"Target","rt":2356,"stimulus":"Stimuli_Rocks480/M_Gneiss_14.png","response":"l","trial_type":"image-keyboard-response","trial_index":151,"plugin_version":"2.1.0","time_elapsed":277172,"subject_id":"92471","group":"Group2","condition":"1_Rep","full_date":"2026-03-07T20:25:51.170Z","date":"2026-03-07","time":"20:25:51","cor_ans":true},{"trial_type":"html-keyboard-response","rt":null,"stimulus":"<p style=\"color: green; font-size: 50px; font-weight: bold;\">Correct</p>","response":null,"trial_index":152,"plugin_version":"2.1.0","time_elapsed":277674,"subject_id":"92471","group":"Group2","condition":"1_Rep","full_date":"2026-03-07T20:25:51.170Z","date":"2026-03-07","time":"20:25:51"},{"correct_response":"a","task":"test_phase","broad_category":"I","image_png":"I_Gabbro_08.png","image_id":56,"category_name":"Gabbro","category":4,"distinct_rating":3.02,"distinct_type":"Bottom","item_type":"Foil","rt":4378,"stimulus":"Stimuli_Rocks480/I_Gabbro_08.png","response":"a","trial_type":"image-keyboard-response","trial_index":153,"plugin_version":"2.1.0","time_elapsed":282065,"subject_id":"92471","group":"Group2","condition":"1_Rep","full_date":"2026-03-07T20:25:51.170Z","date":"2026-03-07","time":"20:25:51","cor_ans":true},{"trial_type":"html-keyboard-response","rt":null,"stimulus":"<p style=\"color: green; font-size: 50px; font-weight: bold;\">Correct</p>","response":null,"trial_index":154,"plugin_version":"2.1.0","time_elapsed":282567,"subject_id":"92471","group":"Group2","condition":"1_Rep","full_date":"2026-03-07T20:25:51.170Z","date":"2026-03-07","time":"20:25:51"},{"correct_response":"a","task":"test_phase","broad_category":"I","image_png":"I_Gabbro_16.png","image_id":64,"category_name":"Gabbro","category":4,"distinct_rating":2.52,"distinct_type":"Bottom","item_type":"Foil","rt":1357,"stimulus":"Stimuli_Rocks480/I_Gabbro_16.png","response":"l","trial_type":"image-keyboard-response","trial_index":155,"plugin_version":"2.1.0","time_elapsed":283939,"subject_id":"92471","group":"Group2","condition":"1_Rep","full_date":"2026-03-07T20:25:51.170Z","date":"2026-03-07","time":"20:25:51","cor_ans":false},{"trial_type":"html-keyboard-response","rt":null,"stimulus":"<p style=\"color: red; font-size: 50px; font-weight: bold;\">Incorrect</p>","response":null,"trial_index":156,"plugin_version":"2.1.0","time_elapsed":284439,"subject_id":"92471","group":"Group2","condition":"1_Rep","full_date":"2026-03-07T20:25:51.170Z","date":"2026-03-07","time":"20:25:51"},{"correct_response":"l","task":"test_phase","broad_category":"M","image_png":"M_Slate_04.png","image_id":308,"category_name":"Slate","category":20,"distinct_rating":2.2,"distinct_type":"Bottom","item_type":"Target","rt":1744,"stimulus":"Stimuli_Rocks480/M_Slate_04.png","response":"l","trial_type":"image-keyboard-response","trial_index":157,"plugin_version":"2.1.0","time_elapsed":286198,"subject_id":"92471","group":"Group2","condition":"1_Rep","full_date":"2026-03-07T20:25:51.170Z","date":"2026-03-07","time":"20:25:51","cor_ans":true},{"trial_type":"html-keyboard-response","rt":null,"stimulus":"<p style=\"color: green; font-size: 50px; font-weight: bold;\">Correct</p>","response":null,"trial_index":158,"plugin_version":"2.1.0","time_elapsed":286700,"subject_id":"92471","group":"Group2","condition":"1_Rep","full_date":"2026-03-07T20:25:51.170Z","date":"2026-03-07","time":"20:25:51"},{"correct_response":"l","task":"test_phase","broad_category":"S","image_png":"S_Dolomite_07.png","image_id":391,"category_name":"Dolomite","category":25,"distinct_rating":1.73,"distinct_type":"Bottom","item_type":"Target","rt":4302,"stimulus":"Stimuli_Rocks480/S_Dolomite_07.png","response":"l","trial_type":"image-keyboard-response","trial_index":159,"plugin_version":"2.1.0","time_elapsed":291017,"subject_id":"92471","group":"Group2","condition":"1_Rep","full_date":"2026-03-07T20:25:51.170Z","date":"2026-03-07","time":"20:25:51","cor_ans":true},{"trial_type":"html-keyboard-response","rt":null,"stimulus":"<p style=\"color: green; font-size: 50px; font-weight: bold;\">Correct</p>","response":null,"trial_index":160,"plugin_version":"2.1.0","time_elapsed":291519,"subject_id":"92471","group":"Group2","condition":"1_Rep","full_date":"2026-03-07T20:25:51.170Z","date":"2026-03-07","time":"20:25:51"},{"correct_response":"a","task":"test_phase","broad_category":"I","image_png":"I_Rhyolite_11.png","image_id":155,"category_name":"Rhyolite","category":10,"distinct_rating":1.73,"distinct_type":"Bottom","item_type":"Foil","rt":2701,"stimulus":"Stimuli_Rocks480/I_Rhyolite_11.png","response":"a","trial_type":"image-keyboard-response","trial_index":161,"plugin_version":"2.1.0","time_elapsed":294231,"subject_id":"92471","group":"Group2","condition":"1_Rep","full_date":"2026-03-07T20:25:51.170Z","date":"2026-03-07","time":"20:25:51","cor_ans":true},{"trial_type":"html-keyboard-response","rt":null,"stimulus":"<p style=\"color: green; font-size: 50px; font-weight: bold;\">Correct</p>","response":null,"trial_index":162,"plugin_version":"2.1.0","time_elapsed":294732,"subject_id":"92471","group":"Group2","condition":"1_Rep","full_date":"2026-03-07T20:25:51.170Z","date":"2026-03-07","time":"20:25:51"},{"correct_response":"a","task":"test_phase","broad_category":"S","image_png":"S_Rock Salt_01.png","image_id":433,"category_name":"Rock Salt","category":28,"distinct_rating":7.18,"distinct_type":"Top","item_type":"Foil","rt":1634,"stimulus":"Stimuli_Rocks480/S_Rock Salt_01.png","response":"a","trial_type":"image-keyboard-response","trial_index":163,"plugin_version":"2.1.0","time_elapsed":296384,"subject_id":"92471","group":"Group2","condition":"1_Rep","full_date":"2026-03-07T20:25:51.170Z","date":"2026-03-07","time":"20:25:51","cor_ans":true},{"trial_type":"html-keyboard-response","rt":null,"stimulus":"<p style=\"color: green; font-size: 50px; font-weight: bold;\">Correct</p>","response":null,"trial_index":164,"plugin_version":"2.1.0","time_elapsed":296886,"subject_id":"92471","group":"Group2","condition":"1_Rep","full_date":"2026-03-07T20:25:51.170Z","date":"2026-03-07","time":"20:25:51"},{"correct_response":"l","task":"test_phase","broad_category":"S","image_png":"S_Dolomite_16.png","image_id":400,"category_name":"Dolomite","category":25,"distinct_rating":1.71,"distinct_type":"Bottom","item_type":"Target","rt":1629,"stimulus":"Stimuli_Rocks480/S_Dolomite_16.png","response":"l","trial_type":"image-keyboard-response","trial_index":165,"plugin_version":"2.1.0","time_elapsed":298528,"subject_id":"92471","group":"Group2","condition":"1_Rep","full_date":"2026-03-07T20:25:51.170Z","date":"2026-03-07","time":"20:25:51","cor_ans":true},{"trial_type":"html-keyboard-response","rt":null,"stimulus":"<p style=\"color: green; font-size: 50px; font-weight: bold;\">Correct</p>","response":null,"trial_index":166,"plugin_version":"2.1.0","time_elapsed":299031,"subject_id":"92471","group":"Group2","condition":"1_Rep","full_date":"2026-03-07T20:25:51.170Z","date":"2026-03-07","time":"20:25:51"},{"correct_response":"l","task":"test_phase","broad_category":"I","image_png":"I_Rhyolite_10.png","image_id":154,"category_name":"Rhyolite","category":10,"distinct_rating":2.88,"distinct_type":"Bottom","item_type":"Target","rt":1408,"stimulus":"Stimuli_Rocks480/I_Rhyolite_10.png","response":"l","trial_type":"image-keyboard-response","trial_index":167,"plugin_version":"2.1.0","time_elapsed":300459,"subject_id":"92471","group":"Group2","condition":"1_Rep","full_date":"2026-03-07T20:25:51.170Z","date":"2026-03-07","time":"20:25:51","cor_ans":true},{"trial_type":"html-keyboard-response","rt":null,"stimulus":"<p style=\"color: green; font-size: 50px; font-weight: bold;\">Correct</p>","response":null,"trial_index":168,"plugin_version":"2.1.0","time_elapsed":300961,"subject_id":"92471","group":"Group2","condition":"1_Rep","full_date":"2026-03-07T20:25:51.170Z","date":"2026-03-07","time":"20:25:51"},{"correct_response":"a","task":"test_phase","broad_category":"I","image_png":"I_Pumice_12.png","image_id":140,"category_name":"Pumice","category":9,"distinct_rating":2.97,"distinct_type":"Bottom","item_type":"Foil","rt":1306,"stimulus":"Stimuli_Rocks480/I_Pumice_12.png","response":"a","trial_type":"image-keyboard-response","trial_index":169,"plugin_version":"2.1.0","time_elapsed":302278,"subject_id":"92471","group":"Group2","condition":"1_Rep","full_date":"2026-03-07T20:25:51.170Z","date":"2026-03-07","time":"20:25:51","cor_ans":true},{"trial_type":"html-keyboard-response","rt":null,"stimulus":"<p style=\"color: green; font-size: 50px; font-weight: bold;\">Correct</p>","response":null,"trial_index":170,"plugin_version":"2.1.0","time_elapsed":302780,"subject_id":"92471","group":"Group2","condition":"1_Rep","full_date":"2026-03-07T20:25:51.170Z","date":"2026-03-07","time":"20:25:51"},{"correct_response":"l","task":"test_phase","broad_category":"I","image_png":"I_Pegmatite_11.png","image_id":107,"category_name":"Pegmatite","category":7,"distinct_rating":7.11,"distinct_type":"Top","item_type":"Target","rt":1157,"stimulus":"Stimuli_Rocks480/I_Pegmatite_11.png","response":"l","trial_type":"image-keyboard-response","trial_index":171,"plugin_version":"2.1.0","time_elapsed":303956,"subject_id":"92471","group":"Group2","condition":"1_Rep","full_date":"2026-03-07T20:25:51.170Z","date":"2026-03-07","time":"20:25:51","cor_ans":true},{"trial_type":"html-keyboard-response","rt":null,"stimulus":"<p style=\"color: green; font-size: 50px; font-weight: bold;\">Correct</p>","response":null,"trial_index":172,"plugin_version":"2.1.0","time_elapsed":304459,"subject_id":"92471","group":"Group2","condition":"1_Rep","full_date":"2026-03-07T20:25:51.170Z","date":"2026-03-07","time":"20:25:51"},{"correct_response":"l","task":"test_phase","broad_category":"M","image_png":"M_Slate_10.png","image_id":314,"category_name":"Slate","category":20,"distinct_rating":1.94,"distinct_type":"Bottom","item_type":"Target","rt":1820,"stimulus":"Stimuli_Rocks480/M_Slate_10.png","response":"l","trial_type":"image-keyboard-response","trial_index":173,"plugin_version":"2.1.0","time_elapsed":306294,"subject_id":"92471","group":"Group2","condition":"1_Rep","full_date":"2026-03-07T20:25:51.170Z","date":"2026-03-07","time":"20:25:51","cor_ans":true},{"trial_type":"html-keyboard-response","rt":null,"stimulus":"<p style=\"color: green; font-size: 50px; font-weight: bold;\">Correct</p>","response":null,"trial_index":174,"plugin_version":"2.1.0","time_elapsed":306797,"subject_id":"92471","group":"Group2","condition":"1_Rep","full_date":"2026-03-07T20:25:51.170Z","date":"2026-03-07","time":"20:25:51"},{"correct_response":"l","task":"test_phase","broad_category":"I","image_png":"I_Basalt_10.png","image_id":26,"category_name":"Basalt","category":2,"distinct_rating":2.76,"distinct_type":"Bottom","item_type":"Target","rt":1229,"stimulus":"Stimuli_Rocks480/I_Basalt_10.png","response":"l","trial_type":"image-keyboard-response","trial_index":175,"plugin_version":"2.1.0","time_elapsed":308040,"subject_id":"92471","group":"Group2","condition":"1_Rep","full_date":"2026-03-07T20:25:51.170Z","date":"2026-03-07","time":"20:25:51","cor_ans":true},{"trial_type":"html-keyboard-response","rt":null,"stimulus":"<p style=\"color: green; font-size: 50px; font-weight: bold;\">Correct</p>","response":null,"trial_index":176,"plugin_version":"2.1.0","time_elapsed":308542,"subject_id":"92471","group":"Group2","condition":"1_Rep","full_date":"2026-03-07T20:25:51.170Z","date":"2026-03-07","time":"20:25:51"},{"correct_response":"l","task":"test_phase","broad_category":"I","image_png":"I_Gabbro_02.png","image_id":50,"category_name":"Gabbro","category":4,"distinct_rating":2.73,"distinct_type":"Bottom","item_type":"Target","rt":5523,"stimulus":"Stimuli_Rocks480/I_Gabbro_02.png","response":"a","trial_type":"image-keyboard-response","trial_index":177,"plugin_version":"2.1.0","time_elapsed":314078,"subject_id":"92471","group":"Group2","condition":"1_Rep","full_date":"2026-03-07T20:25:51.170Z","date":"2026-03-07","time":"20:25:51","cor_ans":false},{"trial_type":"html-keyboard-response","rt":null,"stimulus":"<p style=\"color: red; font-size: 50px; font-weight: bold;\">Incorrect</p>","response":null,"trial_index":178,"plugin_version":"2.1.0","time_elapsed":314581,"subject_id":"92471","group":"Group2","condition":"1_Rep","full_date":"2026-03-07T20:25:51.170Z","date":"2026-03-07","time":"20:25:51"},{"correct_response":"l","task":"test_phase","broad_category":"S","image_png":"S_Rock Salt_13.png","image_id":445,"category_name":"Rock Salt","category":28,"distinct_rating":7.58,"distinct_type":"Top","item_type":"Target","rt":984,"stimulus":"Stimuli_Rocks480/S_Rock Salt_13.png","response":"l","trial_type":"image-keyboard-response","trial_index":179,"plugin_version":"2.1.0","time_elapsed":315581,"subject_id":"92471","group":"Group2","condition":"1_Rep","full_date":"2026-03-07T20:25:51.170Z","date":"2026-03-07","time":"20:25:51","cor_ans":true},{"trial_type":"html-keyboard-response","rt":null,"stimulus":"<p style=\"color: green; font-size: 50px; font-weight: bold;\">Correct</p>","response":null,"trial_index":180,"plugin_version":"2.1.0","time_elapsed":316083,"subject_id":"92471","group":"Group2","condition":"1_Rep","full_date":"2026-03-07T20:25:51.170Z","date":"2026-03-07","time":"20:25:51"},{"correct_response":"a","task":"test_phase","broad_category":"M","image_png":"M_Slate_03.png","image_id":307,"category_name":"Slate","category":20,"distinct_rating":1.87,"distinct_type":"Bottom","item_type":"Foil","rt":3970,"stimulus":"Stimuli_Rocks480/M_Slate_03.png","response":"a","trial_type":"image-keyboard-response","trial_index":181,"plugin_version":"2.1.0","time_elapsed":320067,"subject_id":"92471","group":"Group2","condition":"1_Rep","full_date":"2026-03-07T20:25:51.170Z","date":"2026-03-07","time":"20:25:51","cor_ans":true},{"trial_type":"html-keyboard-response","rt":null,"stimulus":"<p style=\"color: green; font-size: 50px; font-weight: bold;\">Correct</p>","response":null,"trial_index":182,"plugin_version":"2.1.0","time_elapsed":320568,"subject_id":"92471","group":"Group2","condition":"1_Rep","full_date":"2026-03-07T20:25:51.170Z","date":"2026-03-07","time":"20:25:51"},{"correct_response":"a","task":"test_phase","broad_category":"S","image_png":"S_Dolomite_14.png","image_id":398,"category_name":"Dolomite","category":25,"distinct_rating":1.43,"distinct_type":"Bottom","item_type":"Foil","rt":1692,"stimulus":"Stimuli_Rocks480/S_Dolomite_14.png","response":"l","trial_type":"image-keyboard-response","trial_index":183,"plugin_version":"2.1.0","time_elapsed":322275,"subject_id":"92471","group":"Group2","condition":"1_Rep","full_date":"2026-03-07T20:25:51.170Z","date":"2026-03-07","time":"20:25:51","cor_ans":false},{"trial_type":"html-keyboard-response","rt":null,"stimulus":"<p style=\"color: red; font-size: 50px; font-weight: bold;\">Incorrect</p>","response":null,"trial_index":184,"plugin_version":"2.1.0","time_elapsed":322776,"subject_id":"92471","group":"Group2","condition":"1_Rep","full_date":"2026-03-07T20:25:51.170Z","date":"2026-03-07","time":"20:25:51"},{"correct_response":"l","task":"test_phase","broad_category":"I","image_png":"I_Pegmatite_03.png","image_id":99,"category_name":"Pegmatite","category":7,"distinct_rating":7.24,"distinct_type":"Top","item_type":"Target","rt":1971,"stimulus":"Stimuli_Rocks480/I_Pegmatite_03.png","response":"l","trial_type":"image-keyboard-response","trial_index":185,"plugin_version":"2.1.0","time_elapsed":324761,"subject_id":"92471","group":"Group2","condition":"1_Rep","full_date":"2026-03-07T20:25:51.170Z","date":"2026-03-07","time":"20:25:51","cor_ans":true},{"trial_type":"html-keyboard-response","rt":null,"stimulus":"<p style=\"color: green; font-size: 50px; font-weight: bold;\">Correct</p>","response":null,"trial_index":186,"plugin_version":"2.1.0","time_elapsed":325263,"subject_id":"92471","group":"Group2","condition":"1_Rep","full_date":"2026-03-07T20:25:51.170Z","date":"2026-03-07","time":"20:25:51"},{"correct_response":"a","task":"test_phase","broad_category":"I","image_png":"I_Gabbro_11.png","image_id":59,"category_name":"Gabbro","category":4,"distinct_rating":1.99,"distinct_type":"Bottom","item_type":"Foil","rt":2262,"stimulus":"Stimuli_Rocks480/I_Gabbro_11.png","response":"l","trial_type":"image-keyboard-response","trial_index":187,"plugin_version":"2.1.0","time_elapsed":327537,"subject_id":"92471","group":"Group2","condition":"1_Rep","full_date":"2026-03-07T20:25:51.170Z","date":"2026-03-07","time":"20:25:51","cor_ans":false},{"trial_type":"html-keyboard-response","rt":null,"stimulus":"<p style=\"color: red; font-size: 50px; font-weight: bold;\">Incorrect</p>","response":null,"trial_index":188,"plugin_version":"2.1.0","time_elapsed":328039,"subject_id":"92471","group":"Group2","condition":"1_Rep","full_date":"2026-03-07T20:25:51.170Z","date":"2026-03-07","time":"20:25:51"},{"correct_response":"a","task":"test_phase","broad_category":"I","image_png":"I_Andesite_10.png","image_id":10,"category_name":"Andesite","category":1,"distinct_rating":3.15,"distinct_type":"Bottom","item_type":"Foil","rt":1993,"stimulus":"Stimuli_Rocks480/I_Andesite_10.png","response":"a","trial_type":"image-keyboard-response","trial_index":189,"plugin_version":"2.1.0","time_elapsed":330042,"subject_id":"92471","group":"Group2","condition":"1_Rep","full_date":"2026-03-07T20:25:51.170Z","date":"2026-03-07","time":"20:25:51","cor_ans":true},{"trial_type":"html-keyboard-response","rt":null,"stimulus":"<p style=\"color: green; font-size: 50px; font-weight: bold;\">Correct</p>","response":null,"trial_index":190,"plugin_version":"2.1.0","time_elapsed":330544,"subject_id":"92471","group":"Group2","condition":"1_Rep","full_date":"2026-03-07T20:25:51.170Z","date":"2026-03-07","time":"20:25:51"},{"correct_response":"l","task":"test_phase","broad_category":"I","image_png":"I_Andesite_03.png","image_id":3,"category_name":"Andesite","category":1,"distinct_rating":3.17,"distinct_type":"Bottom","item_type":"Target","rt":1040,"stimulus":"Stimuli_Rocks480/I_Andesite_03.png","response":"l","trial_type":"image-keyboard-response","trial_index":191,"plugin_version":"2.1.0","time_elapsed":331595,"subject_id":"92471","group":"Group2","condition":"1_Rep","full_date":"2026-03-07T20:25:51.170Z","date":"2026-03-07","time":"20:25:51","cor_ans":true},{"trial_type":"html-keyboard-response","rt":null,"stimulus":"<p style=\"color: green; font-size: 50px; font-weight: bold;\">Correct</p>","response":null,"trial_index":192,"plugin_version":"2.1.0","time_elapsed":332098,"subject_id":"92471","group":"Group2","condition":"1_Rep","full_date":"2026-03-07T20:25:51.170Z","date":"2026-03-07","time":"20:25:51"},{"correct_response":"a","task":"test_phase","broad_category":"S","image_png":"S_Sandstone_16.png","image_id":464,"category_name":"Sandstone","category":29,"distinct_rating":1.93,"distinct_type":"Bottom","item_type":"Foil","rt":3029,"stimulus":"Stimuli_Rocks480/S_Sandstone_16.png","response":"a","trial_type":"image-keyboard-response","trial_index":193,"plugin_version":"2.1.0","time_elapsed":335137,"subject_id":"92471","group":"Group2","condition":"1_Rep","full_date":"2026-03-07T20:25:51.170Z","date":"2026-03-07","time":"20:25:51","cor_ans":true},{"trial_type":"html-keyboard-response","rt":null,"stimulus":"<p style=\"color: green; font-size: 50px; font-weight: bold;\">Correct</p>","response":null,"trial_index":194,"plugin_version":"2.1.0","time_elapsed":335639,"subject_id":"92471","group":"Group2","condition":"1_Rep","full_date":"2026-03-07T20:25:51.170Z","date":"2026-03-07","time":"20:25:51"},{"correct_response":"a","task":"test_phase","broad_category":"S","image_png":"S_Shale_01.png","image_id":465,"category_name":"Shale","category":30,"distinct_rating":2.7,"distinct_type":"Bottom","item_type":"Foil","rt":1834,"stimulus":"Stimuli_Rocks480/S_Shale_01.png","response":"a","trial_type":"image-keyboard-response","trial_index":195,"plugin_version":"2.1.0","time_elapsed":337486,"subject_id":"92471","group":"Group2","condition":"1_Rep","full_date":"2026-03-07T20:25:51.170Z","date":"2026-03-07","time":"20:25:51","cor_ans":true},{"trial_type":"html-keyboard-response","rt":null,"stimulus":"<p style=\"color: green; font-size: 50px; font-weight: bold;\">Correct</p>","response":null,"trial_index":196,"plugin_version":"2.1.0","time_elapsed":337987,"subject_id":"92471","group":"Group2","condition":"1_Rep","full_date":"2026-03-07T20:25:51.170Z","date":"2026-03-07","time":"20:25:51"},{"correct_response":"a","task":"test_phase","broad_category":"I","image_png":"I_Rhyolite_16.png","image_id":160,"category_name":"Rhyolite","category":10,"distinct_rating":2.19,"distinct_type":"Bottom","item_type":"Foil","rt":3434,"stimulus":"Stimuli_Rocks480/I_Rhyolite_16.png","response":"a","trial_type":"image-keyboard-response","trial_index":197,"plugin_version":"2.1.0","time_elapsed":341433,"subject_id":"92471","group":"Group2","condition":"1_Rep","full_date":"2026-03-07T20:25:51.170Z","date":"2026-03-07","time":"20:25:51","cor_ans":true},{"trial_type":"html-keyboard-response","rt":null,"stimulus":"<p style=\"color: green; font-size: 50px; font-weight: bold;\">Correct</p>","response":null,"trial_index":198,"plugin_version":"2.1.0","time_elapsed":341935,"subject_id":"92471","group":"Group2","condition":"1_Rep","full_date":"2026-03-07T20:25:51.170Z","date":"2026-03-07","time":"20:25:51"},{"correct_response":"a","task":"test_phase","broad_category":"M","image_png":"M_Phyllite_10.png","image_id":266,"category_name":"Phyllite","category":17,"distinct_rating":2.6,"distinct_type":"Bottom","item_type":"Foil","rt":3262,"stimulus":"Stimuli_Rocks480/M_Phyllite_10.png","response":"a","trial_type":"image-keyboard-response","trial_index":199,"plugin_version":"2.1.0","time_elapsed":345210,"subject_id":"92471","group":"Group2","condition":"1_Rep","full_date":"2026-03-07T20:25:51.170Z","date":"2026-03-07","time":"20:25:51","cor_ans":true},{"trial_type":"html-keyboard-response","rt":null,"stimulus":"<p style=\"color: green; font-size: 50px; font-weight: bold;\">Correct</p>","response":null,"trial_index":200,"plugin_version":"2.1.0","time_elapsed":345712,"subject_id":"92471","group":"Group2","condition":"1_Rep","full_date":"2026-03-07T20:25:51.170Z","date":"2026-03-07","time":"20:25:51"},{"correct_response":"l","task":"test_phase","broad_category":"I","image_png":"I_Rhyolite_05.png","image_id":149,"category_name":"Rhyolite","category":10,"distinct_rating":3.02,"distinct_type":"Bottom","item_type":"Target","rt":3481,"stimulus":"Stimuli_Rocks480/I_Rhyolite_05.png","response":"a","trial_type":"image-keyboard-response","trial_index":201,"plugin_version":"2.1.0","time_elapsed":349210,"subject_id":"92471","group":"Group2","condition":"1_Rep","full_date":"2026-03-07T20:25:51.170Z","date":"2026-03-07","time":"20:25:51","cor_ans":false},{"trial_type":"html-keyboard-response","rt":null,"stimulus":"<p style=\"color: red; font-size: 50px; font-weight: bold;\">Incorrect</p>","response":null,"trial_index":202,"plugin_version":"2.1.0","time_elapsed":349711,"subject_id":"92471","group":"Group2","condition":"1_Rep","full_date":"2026-03-07T20:25:51.170Z","date":"2026-03-07","time":"20:25:51"},{"correct_response":"l","task":"test_phase","broad_category":"S","image_png":"S_Conglomerate_14.png","image_id":382,"category_name":"Conglomerate","category":24,"distinct_rating":6.86,"distinct_type":"Top","item_type":"Target","rt":1359,"stimulus":"Stimuli_Rocks480/S_Conglomerate_14.png","response":"l","trial_type":"image-keyboard-response","trial_index":203,"plugin_version":"2.1.0","time_elapsed":351089,"subject_id":"92471","group":"Group2","condition":"1_Rep","full_date":"2026-03-07T20:25:51.170Z","date":"2026-03-07","time":"20:25:51","cor_ans":true},{"trial_type":"html-keyboard-response","rt":null,"stimulus":"<p style=\"color: green; font-size: 50px; font-weight: bold;\">Correct</p>","response":null,"trial_index":204,"plugin_version":"2.1.0","time_elapsed":351591,"subject_id":"92471","group":"Group2","condition":"1_Rep","full_date":"2026-03-07T20:25:51.170Z","date":"2026-03-07","time":"20:25:51"},{"correct_response":"a","task":"test_phase","broad_category":"M","image_png":"M_Gneiss_05.png","image_id":197,"category_name":"Gneiss","category":13,"distinct_rating":2.97,"distinct_type":"Bottom","item_type":"Foil","rt":2572,"stimulus":"Stimuli_Rocks480/M_Gneiss_05.png","response":"l","trial_type":"image-keyboard-response","trial_index":205,"plugin_version":"2.1.0","time_elapsed":354184,"subject_id":"92471","group":"Group2","condition":"1_Rep","full_date":"2026-03-07T20:25:51.170Z","date":"2026-03-07","time":"20:25:51","cor_ans":false},{"trial_type":"html-keyboard-response","rt":null,"stimulus":"<p style=\"color: red; font-size: 50px; font-weight: bold;\">Incorrect</p>","response":null,"trial_index":206,"plugin_version":"2.1.0","time_elapsed":354686,"subject_id":"92471","group":"Group2","condition":"1_Rep","full_date":"2026-03-07T20:25:51.170Z","date":"2026-03-07","time":"20:25:51"},{"correct_response":"a","task":"test_phase","broad_category":"M","image_png":"M_Slate_15.png","image_id":319,"category_name":"Slate","category":20,"distinct_rating":2.13,"distinct_type":"Bottom","item_type":"Foil","rt":1300,"stimulus":"Stimuli_Rocks480/M_Slate_15.png","response":"l","trial_type":"image-keyboard-response","trial_index":207,"plugin_version":"2.1.0","time_elapsed":355998,"subject_id":"92471","group":"Group2","condition":"1_Rep","full_date":"2026-03-07T20:25:51.170Z","date":"2026-03-07","time":"20:25:51","cor_ans":false},{"trial_type":"html-keyboard-response","rt":null,"stimulus":"<p style=\"color: red; font-size: 50px; font-weight: bold;\">Incorrect</p>","response":null,"trial_index":208,"plugin_version":"2.1.0","time_elapsed":356500,"subject_id":"92471","group":"Group2","condition":"1_Rep","full_date":"2026-03-07T20:25:51.170Z","date":"2026-03-07","time":"20:25:51"},{"correct_response":"a","task":"test_phase","broad_category":"I","image_png":"I_Basalt_09.png","image_id":25,"category_name":"Basalt","category":2,"distinct_rating":1.89,"distinct_type":"Bottom","item_type":"Foil","rt":9238,"stimulus":"Stimuli_Rocks480/I_Basalt_09.png","response":"l","trial_type":"image-keyboard-response","trial_index":209,"plugin_version":"2.1.0","time_elapsed":365750,"subject_id":"92471","group":"Group2","condition":"1_Rep","full_date":"2026-03-07T20:25:51.170Z","date":"2026-03-07","time":"20:25:51","cor_ans":false},{"trial_type":"html-keyboard-response","rt":null,"stimulus":"<p style=\"color: red; font-size: 50px; font-weight: bold;\">Incorrect</p>","response":null,"trial_index":210,"plugin_version":"2.1.0","time_elapsed":366253,"subject_id":"92471","group":"Group2","condition":"1_Rep","full_date":"2026-03-07T20:25:51.170Z","date":"2026-03-07","time":"20:25:51"},{"correct_response":"l","task":"test_phase","broad_category":"M","image_png":"M_Gneiss_15.png","image_id":207,"category_name":"Gneiss","category":13,"distinct_rating":3.11,"distinct_type":"Bottom","item_type":"Target","rt":948,"stimulus":"Stimuli_Rocks480/M_Gneiss_15.png","response":"l","trial_type":"image-keyboard-response","trial_index":211,"plugin_version":"2.1.0","time_elapsed":367211,"subject_id":"92471","group":"Group2","condition":"1_Rep","full_date":"2026-03-07T20:25:51.170Z","date":"2026-03-07","time":"20:25:51","cor_ans":true},{"trial_type":"html-keyboard-response","rt":null,"stimulus":"<p style=\"color: green; font-size: 50px; font-weight: bold;\">Correct</p>","response":null,"trial_index":212,"plugin_version":"2.1.0","time_elapsed":367712,"subject_id":"92471","group":"Group2","condition":"1_Rep","full_date":"2026-03-07T20:25:51.170Z","date":"2026-03-07","time":"20:25:51"},{"correct_response":"a","task":"test_phase","broad_category":"I","image_png":"I_Pegmatite_16.png","image_id":112,"category_name":"Pegmatite","category":7,"distinct_rating":7.03,"distinct_type":"Top","item_type":"Foil","rt":2012,"stimulus":"Stimuli_Rocks480/I_Pegmatite_16.png","response":"a","trial_type":"image-keyboard-response","trial_index":213,"plugin_version":"2.1.0","time_elapsed":369741,"subject_id":"92471","group":"Group2","condition":"1_Rep","full_date":"2026-03-07T20:25:51.170Z","date":"2026-03-07","time":"20:25:51","cor_ans":true},{"trial_type":"html-keyboard-response","rt":null,"stimulus":"<p style=\"color: green; font-size: 50px; font-weight: bold;\">Correct</p>","response":null,"trial_index":214,"plugin_version":"2.1.0","time_elapsed":370243,"subject_id":"92471","group":"Group2","condition":"1_Rep","full_date":"2026-03-07T20:25:51.170Z","date":"2026-03-07","time":"20:25:51"},{"correct_response":"l","task":"test_phase","broad_category":"S","image_png":"S_Sandstone_04.png","image_id":452,"category_name":"Sandstone","category":29,"distinct_rating":1.8,"distinct_type":"Bottom","item_type":"Target","rt":1841,"stimulus":"Stimuli_Rocks480/S_Sandstone_04.png","response":"l","trial_type":"image-keyboard-response","trial_index":215,"plugin_version":"2.1.0","time_elapsed":372100,"subject_id":"92471","group":"Group2","condition":"1_Rep","full_date":"2026-03-07T20:25:51.170Z","date":"2026-03-07","time":"20:25:51","cor_ans":true},{"trial_type":"html-keyboard-response","rt":null,"stimulus":"<p style=\"color: green; font-size: 50px; font-weight: bold;\">Correct</p>","response":null,"trial_index":216,"plugin_version":"2.1.0","time_elapsed":372602,"subject_id":"92471","group":"Group2","condition":"1_Rep","full_date":"2026-03-07T20:25:51.170Z","date":"2026-03-07","time":"20:25:51"},{"correct_response":"l","task":"test_phase","broad_category":"I","image_png":"I_Gabbro_12.png","image_id":60,"category_name":"Gabbro","category":4,"distinct_rating":2.6,"distinct_type":"Bottom","item_type":"Target","rt":1934,"stimulus":"Stimuli_Rocks480/I_Gabbro_12.png","response":"a","trial_type":"image-keyboard-response","trial_index":217,"plugin_version":"2.1.0","time_elapsed":374553,"subject_id":"92471","group":"Group2","condition":"1_Rep","full_date":"2026-03-07T20:25:51.170Z","date":"2026-03-07","time":"20:25:51","cor_ans":false},{"trial_type":"html-keyboard-response","rt":null,"stimulus":"<p style=\"color: red; font-size: 50px; font-weight: bold;\">Incorrect</p>","response":null,"trial_index":218,"plugin_version":"2.1.0","time_elapsed":375054,"subject_id":"92471","group":"Group2","condition":"1_Rep","full_date":"2026-03-07T20:25:51.170Z","date":"2026-03-07","time":"20:25:51"},{"correct_response":"l","task":"test_phase","broad_category":"I","image_png":"I_Diorite_01.png","image_id":33,"category_name":"Diorite","category":3,"distinct_rating":2.97,"distinct_type":"Bottom","item_type":"Target","rt":3923,"stimulus":"Stimuli_Rocks480/I_Diorite_01.png","response":"l","trial_type":"image-keyboard-response","trial_index":219,"plugin_version":"2.1.0","time_elapsed":378994,"subject_id":"92471","group":"Group2","condition":"1_Rep","full_date":"2026-03-07T20:25:51.170Z","date":"2026-03-07","time":"20:25:51","cor_ans":true},{"trial_type":"html-keyboard-response","rt":null,"stimulus":"<p style=\"color: green; font-size: 50px; font-weight: bold;\">Correct</p>","response":null,"trial_index":220,"plugin_version":"2.1.0","time_elapsed":379497,"subject_id":"92471","group":"Group2","condition":"1_Rep","full_date":"2026-03-07T20:25:51.170Z","date":"2026-03-07","time":"20:25:51"},{"correct_response":"l","task":"test_phase","broad_category":"S","image_png":"S_Dolomite_01.png","image_id":385,"category_name":"Dolomite","category":25,"distinct_rating":1.43,"distinct_type":"Bottom","item_type":"Target","rt":1220,"stimulus":"Stimuli_Rocks480/S_Dolomite_01.png","response":"l","trial_type":"image-keyboard-response","trial_index":221,"plugin_version":"2.1.0","time_elapsed":380734,"subject_id":"92471","group":"Group2","condition":"1_Rep","full_date":"2026-03-07T20:25:51.170Z","date":"2026-03-07","time":"20:25:51","cor_ans":true},{"trial_type":"html-keyboard-response","rt":null,"stimulus":"<p style=\"color: green; font-size: 50px; font-weight: bold;\">Correct</p>","response":null,"trial_index":222,"plugin_version":"2.1.0","time_elapsed":381236,"subject_id":"92471","group":"Group2","condition":"1_Rep","full_date":"2026-03-07T20:25:51.170Z","date":"2026-03-07","time":"20:25:51"},{"correct_response":"a","task":"test_phase","broad_category":"I","image_png":"I_Basalt_01.png","image_id":17,"category_name":"Basalt","category":2,"distinct_rating":1.92,"distinct_type":"Bottom","item_type":"Foil","rt":2492,"stimulus":"Stimuli_Rocks480/I_Basalt_01.png","response":"l","trial_type":"image-keyboard-response","trial_index":223,"plugin_version":"2.1.0","time_elapsed":383747,"subject_id":"92471","group":"Group2","condition":"1_Rep","full_date":"2026-03-07T20:25:51.170Z","date":"2026-03-07","time":"20:25:51","cor_ans":false},{"trial_type":"html-keyboard-response","rt":null,"stimulus":"<p style=\"color: red; font-size: 50px; font-weight: bold;\">Incorrect</p>","response":null,"trial_index":224,"plugin_version":"2.1.0","time_elapsed":384249,"subject_id":"92471","group":"Group2","condition":"1_Rep","full_date":"2026-03-07T20:25:51.170Z","date":"2026-03-07","time":"20:25:51"},{"correct_response":"l","task":"test_phase","broad_category":"I","image_png":"I_Rhyo