[{"width":1470,"height":831,"webaudio":true,"browser":"chrome","browser_version":"144.0.0","mobile":false,"os":"Mac OS","fullscreen":true,"vsync_rate":60.59,"webcam":true,"microphone":true,"trial_type":"browser-check","trial_index":0,"plugin_version":"2.1.0","time_elapsed":1006,"subject_id":"91400","group":"Group1","condition":"1_Rep","full_date":"2026-02-20T02:01:32.346Z","date":"2026-02-20","time":"02:01:32"},{"success":true,"timeout":false,"failed_images":[],"failed_audio":[],"failed_video":[],"trial_type":"preload","trial_index":1,"plugin_version":"2.1.0","time_elapsed":2695,"subject_id":"91400","group":"Group1","condition":"1_Rep","full_date":"2026-02-20T02:01:32.346Z","date":"2026-02-20","time":"02:01:32"},{"rt":49681,"url":"SONA_consent_memorability.html","trial_type":"external-html","trial_index":2,"plugin_version":"2.1.0","time_elapsed":52436,"subject_id":"91400","group":"Group1","condition":"1_Rep","full_date":"2026-02-20T02:01:32.346Z","date":"2026-02-20","time":"02:01:32"},{"success":true,"rt":2313,"trial_type":"fullscreen","trial_index":3,"plugin_version":"2.1.0","time_elapsed":55753,"subject_id":"91400","group":"Group1","condition":"1_Rep","full_date":"2026-02-20T02:01:32.346Z","date":"2026-02-20","time":"02:01:32"},{"rt":19663,"stimulus":"<div style=\"max-width: 760px; margin: auto; font-size: 20px; line-height: 1.5;\">\n      <h1 style=\"text-align:center; font-size: 30px;\">Instructions</h1>\n      <p>\n        Welcome to the study on <b>visual memory</b>. This experiment consists of <b>two phases</b>: \n        a <b>study phase</b> and a <b>test phase</b>.\n      </p>\n      <p>\n        In the study phase, you will see a series of rock images along with their category labels.\n        The images will appear one at a time.\n        <b>Your task</b> is to learn the categories to which the rock images belong \n        and to remember each image as accurately as possible.\n      </p> \n      <p>\n        Note that you will see each image only <b>once</b> during the study phase. \n          So, please pay close attention and try to remember each image carefully.\n      </p>\n      <p>\n        After the study phase, <b>your memory will be tested</b>. \n        Additional instructions for the test phase will be provided at that time.\n      </p>\n      <p>\n        If your computer has multiple <b>language settings</b> (e.g., English and another language),\n        please make sure it is set to English before starting.\n      </p>\n      <p>\n        You can track your progress using the <b>completion bar</b> at the top of the screen. \n        Please note that the bar will refresh when the test phase begins \n        to give you an accurate sense of your progress in both phases.\n      </p> \n      <p>\n        Press the button below when you are ready to begin.\n      </p>\n    </div>","response":0,"trial_type":"html-button-response","trial_index":4,"plugin_version":"2.1.0","time_elapsed":75419,"subject_id":"91400","group":"Group1","condition":"1_Rep","full_date":"2026-02-20T02:01:32.346Z","date":"2026-02-20","time":"02:01:32"},{"rt":null,"stimulus":"<p style=\"font-size: 50px; margin: 0; text-align: center;\">+</p>","response":null,"trial_type":"html-keyboard-response","trial_index":5,"plugin_version":"2.1.0","time_elapsed":76423,"subject_id":"91400","group":"Group1","condition":"1_Rep","full_date":"2026-02-20T02:01:32.346Z","date":"2026-02-20","time":"02:01:32"},{"task":"memory_phase","broad_category":"M","image_png":"M_Phyllite_10.png","image_id":266,"category_name":"Phyllite","category":17,"distinct_rating":2.6,"distinct_type":"Bottom","rt":null,"stimulus":"Stimuli_Rocks480/M_Phyllite_10.png","response":null,"trial_type":"image-keyboard-response","trial_index":6,"plugin_version":"2.1.0","time_elapsed":78928,"subject_id":"91400","group":"Group1","condition":"1_Rep","full_date":"2026-02-20T02:01:32.346Z","date":"2026-02-20","time":"02:01:32"},{"rt":null,"stimulus":"<p style=\"font-size: 50px; margin: 0; text-align: center;\">+</p>","response":null,"trial_type":"html-keyboard-response","trial_index":7,"plugin_version":"2.1.0","time_elapsed":79931,"subject_id":"91400","group":"Group1","condition":"1_Rep","full_date":"2026-02-20T02:01:32.346Z","date":"2026-02-20","time":"02:01:32"},{"task":"memory_phase","broad_category":"S","image_png":"S_Dolomite_12.png","image_id":396,"category_name":"Dolomite","category":25,"distinct_rating":1.85,"distinct_type":"Bottom","rt":null,"stimulus":"Stimuli_Rocks480/S_Dolomite_12.png","response":null,"trial_type":"image-keyboard-response","trial_index":8,"plugin_version":"2.1.0","time_elapsed":82435,"subject_id":"91400","group":"Group1","condition":"1_Rep","full_date":"2026-02-20T02:01:32.346Z","date":"2026-02-20","time":"02:01:32"},{"rt":null,"stimulus":"<p style=\"font-size: 50px; margin: 0; text-align: center;\">+</p>","response":null,"trial_type":"html-keyboard-response","trial_index":9,"plugin_version":"2.1.0","time_elapsed":83437,"subject_id":"91400","group":"Group1","condition":"1_Rep","full_date":"2026-02-20T02:01:32.346Z","date":"2026-02-20","time":"02:01:32"},{"task":"memory_phase","broad_category":"I","image_png":"I_Andesite_10.png","image_id":10,"category_name":"Andesite","category":1,"distinct_rating":3.15,"distinct_type":"Bottom","rt":null,"stimulus":"Stimuli_Rocks480/I_Andesite_10.png","response":null,"trial_type":"image-keyboard-response","trial_index":10,"plugin_version":"2.1.0","time_elapsed":85940,"subject_id":"91400","group":"Group1","condition":"1_Rep","full_date":"2026-02-20T02:01:32.346Z","date":"2026-02-20","time":"02:01:32"},{"rt":null,"stimulus":"<p style=\"font-size: 50px; margin: 0; text-align: center;\">+</p>","response":null,"trial_type":"html-keyboard-response","trial_index":11,"plugin_version":"2.1.0","time_elapsed":86943,"subject_id":"91400","group":"Group1","condition":"1_Rep","full_date":"2026-02-20T02:01:32.346Z","date":"2026-02-20","time":"02:01:32"},{"task":"memory_phase","broad_category":"I","image_png":"I_Diorite_05.png","image_id":37,"category_name":"Diorite","category":3,"distinct_rating":3.08,"distinct_type":"Bottom","rt":null,"stimulus":"Stimuli_Rocks480/I_Diorite_05.png","response":null,"trial_type":"image-keyboard-response","trial_index":12,"plugin_version":"2.1.0","time_elapsed":89447,"subject_id":"91400","group":"Group1","condition":"1_Rep","full_date":"2026-02-20T02:01:32.346Z","date":"2026-02-20","time":"02:01:32"},{"rt":null,"stimulus":"<p style=\"font-size: 50px; margin: 0; text-align: center;\">+</p>","response":null,"trial_type":"html-keyboard-response","trial_index":13,"plugin_version":"2.1.0","time_elapsed":90450,"subject_id":"91400","group":"Group1","condition":"1_Rep","full_date":"2026-02-20T02:01:32.346Z","date":"2026-02-20","time":"02:01:32"},{"task":"memory_phase","broad_category":"I","image_png":"I_Gabbro_16.png","image_id":64,"category_name":"Gabbro","category":4,"distinct_rating":2.52,"distinct_type":"Bottom","rt":null,"stimulus":"Stimuli_Rocks480/I_Gabbro_16.png","response":null,"trial_type":"image-keyboard-response","trial_index":14,"plugin_version":"2.1.0","time_elapsed":92952,"subject_id":"91400","group":"Group1","condition":"1_Rep","full_date":"2026-02-20T02:01:32.346Z","date":"2026-02-20","time":"02:01:32"},{"rt":null,"stimulus":"<p style=\"font-size: 50px; margin: 0; text-align: center;\">+</p>","response":null,"trial_type":"html-keyboard-response","trial_index":15,"plugin_version":"2.1.0","time_elapsed":93954,"subject_id":"91400","group":"Group1","condition":"1_Rep","full_date":"2026-02-20T02:01:32.346Z","date":"2026-02-20","time":"02:01:32"},{"task":"memory_phase","broad_category":"I","image_png":"I_Obsidian_05.png","image_id":85,"category_name":"Obsidian","category":6,"distinct_rating":7.32,"distinct_type":"Top","rt":null,"stimulus":"Stimuli_Rocks480/I_Obsidian_05.png","response":null,"trial_type":"image-keyboard-response","trial_index":16,"plugin_version":"2.1.0","time_elapsed":96458,"subject_id":"91400","group":"Group1","condition":"1_Rep","full_date":"2026-02-20T02:01:32.346Z","date":"2026-02-20","time":"02:01:32"},{"rt":null,"stimulus":"<p style=\"font-size: 50px; margin: 0; text-align: center;\">+</p>","response":null,"trial_type":"html-keyboard-response","trial_index":17,"plugin_version":"2.1.0","time_elapsed":97460,"subject_id":"91400","group":"Group1","condition":"1_Rep","full_date":"2026-02-20T02:01:32.346Z","date":"2026-02-20","time":"02:01:32"},{"task":"memory_phase","broad_category":"I","image_png":"I_Gabbro_08.png","image_id":56,"category_name":"Gabbro","category":4,"distinct_rating":3.02,"distinct_type":"Bottom","rt":null,"stimulus":"Stimuli_Rocks480/I_Gabbro_08.png","response":null,"trial_type":"image-keyboard-response","trial_index":18,"plugin_version":"2.1.0","time_elapsed":99963,"subject_id":"91400","group":"Group1","condition":"1_Rep","full_date":"2026-02-20T02:01:32.346Z","date":"2026-02-20","time":"02:01:32"},{"rt":null,"stimulus":"<p style=\"font-size: 50px; margin: 0; text-align: center;\">+</p>","response":null,"trial_type":"html-keyboard-response","trial_index":19,"plugin_version":"2.1.0","time_elapsed":100966,"subject_id":"91400","group":"Group1","condition":"1_Rep","full_date":"2026-02-20T02:01:32.346Z","date":"2026-02-20","time":"02:01:32"},{"task":"memory_phase","broad_category":"M","image_png":"M_Slate_15.png","image_id":319,"category_name":"Slate","category":20,"distinct_rating":2.13,"distinct_type":"Bottom","rt":null,"stimulus":"Stimuli_Rocks480/M_Slate_15.png","response":null,"trial_type":"image-keyboard-response","trial_index":20,"plugin_version":"2.1.0","time_elapsed":103469,"subject_id":"91400","group":"Group1","condition":"1_Rep","full_date":"2026-02-20T02:01:32.346Z","date":"2026-02-20","time":"02:01:32"},{"rt":null,"stimulus":"<p style=\"font-size: 50px; margin: 0; text-align: center;\">+</p>","response":null,"trial_type":"html-keyboard-response","trial_index":21,"plugin_version":"2.1.0","time_elapsed":104471,"subject_id":"91400","group":"Group1","condition":"1_Rep","full_date":"2026-02-20T02:01:32.346Z","date":"2026-02-20","time":"02:01:32"},{"task":"memory_phase","broad_category":"I","image_png":"I_Gabbro_11.png","image_id":59,"category_name":"Gabbro","category":4,"distinct_rating":1.99,"distinct_type":"Bottom","rt":null,"stimulus":"Stimuli_Rocks480/I_Gabbro_11.png","response":null,"trial_type":"image-keyboard-response","trial_index":22,"plugin_version":"2.1.0","time_elapsed":106974,"subject_id":"91400","group":"Group1","condition":"1_Rep","full_date":"2026-02-20T02:01:32.346Z","date":"2026-02-20","time":"02:01:32"},{"rt":null,"stimulus":"<p style=\"font-size: 50px; margin: 0; text-align: center;\">+</p>","response":null,"trial_type":"html-keyboard-response","trial_index":23,"plugin_version":"2.1.0","time_elapsed":107977,"subject_id":"91400","group":"Group1","condition":"1_Rep","full_date":"2026-02-20T02:01:32.346Z","date":"2026-02-20","time":"02:01:32"},{"task":"memory_phase","broad_category":"M","image_png":"M_Quartzite_13.png","image_id":285,"category_name":"Quartzite","category":18,"distinct_rating":2.27,"distinct_type":"Bottom","rt":null,"stimulus":"Stimuli_Rocks480/M_Quartzite_13.png","response":null,"trial_type":"image-keyboard-response","trial_index":24,"plugin_version":"2.1.0","time_elapsed":110480,"subject_id":"91400","group":"Group1","condition":"1_Rep","full_date":"2026-02-20T02:01:32.346Z","date":"2026-02-20","time":"02:01:32"},{"rt":null,"stimulus":"<p style=\"font-size: 50px; margin: 0; text-align: center;\">+</p>","response":null,"trial_type":"html-keyboard-response","trial_index":25,"plugin_version":"2.1.0","time_elapsed":111483,"subject_id":"91400","group":"Group1","condition":"1_Rep","full_date":"2026-02-20T02:01:32.346Z","date":"2026-02-20","time":"02:01:32"},{"task":"memory_phase","broad_category":"S","image_png":"S_Dolomite_14.png","image_id":398,"category_name":"Dolomite","category":25,"distinct_rating":1.43,"distinct_type":"Bottom","rt":null,"stimulus":"Stimuli_Rocks480/S_Dolomite_14.png","response":null,"trial_type":"image-keyboard-response","trial_index":26,"plugin_version":"2.1.0","time_elapsed":113986,"subject_id":"91400","group":"Group1","condition":"1_Rep","full_date":"2026-02-20T02:01:32.346Z","date":"2026-02-20","time":"02:01:32"},{"rt":null,"stimulus":"<p style=\"font-size: 50px; margin: 0; text-align: center;\">+</p>","response":null,"trial_type":"html-keyboard-response","trial_index":27,"plugin_version":"2.1.0","time_elapsed":114989,"subject_id":"91400","group":"Group1","condition":"1_Rep","full_date":"2026-02-20T02:01:32.346Z","date":"2026-02-20","time":"02:01:32"},{"task":"memory_phase","broad_category":"M","image_png":"M_Quartzite_05.png","image_id":277,"category_name":"Quartzite","category":18,"distinct_rating":2.23,"distinct_type":"Bottom","rt":null,"stimulus":"Stimuli_Rocks480/M_Quartzite_05.png","response":null,"trial_type":"image-keyboard-response","trial_index":28,"plugin_version":"2.1.0","time_elapsed":117492,"subject_id":"91400","group":"Group1","condition":"1_Rep","full_date":"2026-02-20T02:01:32.346Z","date":"2026-02-20","time":"02:01:32"},{"rt":null,"stimulus":"<p style=\"font-size: 50px; margin: 0; text-align: center;\">+</p>","response":null,"trial_type":"html-keyboard-response","trial_index":29,"plugin_version":"2.1.0","time_elapsed":118494,"subject_id":"91400","group":"Group1","condition":"1_Rep","full_date":"2026-02-20T02:01:32.346Z","date":"2026-02-20","time":"02:01:32"},{"task":"memory_phase","broad_category":"M","image_png":"M_Marble_06.png","image_id":230,"category_name":"Marble","category":15,"distinct_rating":3.4,"distinct_type":"Bottom","rt":null,"stimulus":"Stimuli_Rocks480/M_Marble_06.png","response":null,"trial_type":"image-keyboard-response","trial_index":30,"plugin_version":"2.1.0","time_elapsed":120997,"subject_id":"91400","group":"Group1","condition":"1_Rep","full_date":"2026-02-20T02:01:32.346Z","date":"2026-02-20","time":"02:01:32"},{"rt":null,"stimulus":"<p style=\"font-size: 50px; margin: 0; text-align: center;\">+</p>","response":null,"trial_type":"html-keyboard-response","trial_index":31,"plugin_version":"2.1.0","time_elapsed":122000,"subject_id":"91400","group":"Group1","condition":"1_Rep","full_date":"2026-02-20T02:01:32.346Z","date":"2026-02-20","time":"02:01:32"},{"task":"memory_phase","broad_category":"S","image_png":"S_Shale_12.png","image_id":476,"category_name":"Shale","category":30,"distinct_rating":2.48,"distinct_type":"Bottom","rt":null,"stimulus":"Stimuli_Rocks480/S_Shale_12.png","response":null,"trial_type":"image-keyboard-response","trial_index":32,"plugin_version":"2.1.0","time_elapsed":124502,"subject_id":"91400","group":"Group1","condition":"1_Rep","full_date":"2026-02-20T02:01:32.346Z","date":"2026-02-20","time":"02:01:32"},{"rt":null,"stimulus":"<p style=\"font-size: 50px; margin: 0; text-align: center;\">+</p>","response":null,"trial_type":"html-keyboard-response","trial_index":33,"plugin_version":"2.1.0","time_elapsed":125504,"subject_id":"91400","group":"Group1","condition":"1_Rep","full_date":"2026-02-20T02:01:32.346Z","date":"2026-02-20","time":"02:01:32"},{"task":"memory_phase","broad_category":"I","image_png":"I_Pumice_08.png","image_id":136,"category_name":"Pumice","category":9,"distinct_rating":3.1,"distinct_type":"Bottom","rt":null,"stimulus":"Stimuli_Rocks480/I_Pumice_08.png","response":null,"trial_type":"image-keyboard-response","trial_index":34,"plugin_version":"2.1.0","time_elapsed":128008,"subject_id":"91400","group":"Group1","condition":"1_Rep","full_date":"2026-02-20T02:01:32.346Z","date":"2026-02-20","time":"02:01:32"},{"rt":null,"stimulus":"<p style=\"font-size: 50px; margin: 0; text-align: center;\">+</p>","response":null,"trial_type":"html-keyboard-response","trial_index":35,"plugin_version":"2.1.0","time_elapsed":129011,"subject_id":"91400","group":"Group1","condition":"1_Rep","full_date":"2026-02-20T02:01:32.346Z","date":"2026-02-20","time":"02:01:32"},{"task":"memory_phase","broad_category":"M","image_png":"M_Gneiss_06.png","image_id":198,"category_name":"Gneiss","category":13,"distinct_rating":2.65,"distinct_type":"Bottom","rt":null,"stimulus":"Stimuli_Rocks480/M_Gneiss_06.png","response":null,"trial_type":"image-keyboard-response","trial_index":36,"plugin_version":"2.1.0","time_elapsed":131514,"subject_id":"91400","group":"Group1","condition":"1_Rep","full_date":"2026-02-20T02:01:32.346Z","date":"2026-02-20","time":"02:01:32"},{"rt":null,"stimulus":"<p style=\"font-size: 50px; margin: 0; text-align: center;\">+</p>","response":null,"trial_type":"html-keyboard-response","trial_index":37,"plugin_version":"2.1.0","time_elapsed":132516,"subject_id":"91400","group":"Group1","condition":"1_Rep","full_date":"2026-02-20T02:01:32.346Z","date":"2026-02-20","time":"02:01:32"},{"task":"memory_phase","broad_category":"S","image_png":"S_Conglomerate_05.png","image_id":373,"category_name":"Conglomerate","category":24,"distinct_rating":7.32,"distinct_type":"Top","rt":null,"stimulus":"Stimuli_Rocks480/S_Conglomerate_05.png","response":null,"trial_type":"image-keyboard-response","trial_index":38,"plugin_version":"2.1.0","time_elapsed":135019,"subject_id":"91400","group":"Group1","condition":"1_Rep","full_date":"2026-02-20T02:01:32.346Z","date":"2026-02-20","time":"02:01:32"},{"rt":null,"stimulus":"<p style=\"font-size: 50px; margin: 0; text-align: center;\">+</p>","response":null,"trial_type":"html-keyboard-response","trial_index":39,"plugin_version":"2.1.0","time_elapsed":136022,"subject_id":"91400","group":"Group1","condition":"1_Rep","full_date":"2026-02-20T02:01:32.346Z","date":"2026-02-20","time":"02:01:32"},{"task":"memory_phase","broad_category":"I","image_png":"I_Basalt_01.png","image_id":17,"category_name":"Basalt","category":2,"distinct_rating":1.92,"distinct_type":"Bottom","rt":null,"stimulus":"Stimuli_Rocks480/I_Basalt_01.png","response":null,"trial_type":"image-keyboard-response","trial_index":40,"plugin_version":"2.1.0","time_elapsed":138525,"subject_id":"91400","group":"Group1","condition":"1_Rep","full_date":"2026-02-20T02:01:32.346Z","date":"2026-02-20","time":"02:01:32"},{"rt":null,"stimulus":"<p style=\"font-size: 50px; margin: 0; text-align: center;\">+</p>","response":null,"trial_type":"html-keyboard-response","trial_index":41,"plugin_version":"2.1.0","time_elapsed":139527,"subject_id":"91400","group":"Group1","condition":"1_Rep","full_date":"2026-02-20T02:01:32.346Z","date":"2026-02-20","time":"02:01:32"},{"task":"memory_phase","broad_category":"M","image_png":"M_Gneiss_05.png","image_id":197,"category_name":"Gneiss","category":13,"distinct_rating":2.97,"distinct_type":"Bottom","rt":null,"stimulus":"Stimuli_Rocks480/M_Gneiss_05.png","response":null,"trial_type":"image-keyboard-response","trial_index":42,"plugin_version":"2.1.0","time_elapsed":142030,"subject_id":"91400","group":"Group1","condition":"1_Rep","full_date":"2026-02-20T02:01:32.346Z","date":"2026-02-20","time":"02:01:32"},{"rt":null,"stimulus":"<p style=\"font-size: 50px; margin: 0; text-align: center;\">+</p>","response":null,"trial_type":"html-keyboard-response","trial_index":43,"plugin_version":"2.1.0","time_elapsed":143033,"subject_id":"91400","group":"Group1","condition":"1_Rep","full_date":"2026-02-20T02:01:32.346Z","date":"2026-02-20","time":"02:01:32"},{"task":"memory_phase","broad_category":"M","image_png":"M_Phyllite_07.png","image_id":263,"category_name":"Phyllite","category":17,"distinct_rating":2.59,"distinct_type":"Bottom","rt":null,"stimulus":"Stimuli_Rocks480/M_Phyllite_07.png","response":null,"trial_type":"image-keyboard-response","trial_index":44,"plugin_version":"2.1.0","time_elapsed":145536,"subject_id":"91400","group":"Group1","condition":"1_Rep","full_date":"2026-02-20T02:01:32.346Z","date":"2026-02-20","time":"02:01:32"},{"rt":null,"stimulus":"<p style=\"font-size: 50px; margin: 0; text-align: center;\">+</p>","response":null,"trial_type":"html-keyboard-response","trial_index":45,"plugin_version":"2.1.0","time_elapsed":146538,"subject_id":"91400","group":"Group1","condition":"1_Rep","full_date":"2026-02-20T02:01:32.346Z","date":"2026-02-20","time":"02:01:32"},{"task":"memory_phase","broad_category":"I","image_png":"I_Diorite_04.png","image_id":36,"category_name":"Diorite","category":3,"distinct_rating":2.98,"distinct_type":"Bottom","rt":null,"stimulus":"Stimuli_Rocks480/I_Diorite_04.png","response":null,"trial_type":"image-keyboard-response","trial_index":46,"plugin_version":"2.1.0","time_elapsed":149041,"subject_id":"91400","group":"Group1","condition":"1_Rep","full_date":"2026-02-20T02:01:32.346Z","date":"2026-02-20","time":"02:01:32"},{"rt":null,"stimulus":"<p style=\"font-size: 50px; margin: 0; text-align: center;\">+</p>","response":null,"trial_type":"html-keyboard-response","trial_index":47,"plugin_version":"2.1.0","time_elapsed":150044,"subject_id":"91400","group":"Group1","condition":"1_Rep","full_date":"2026-02-20T02:01:32.346Z","date":"2026-02-20","time":"02:01:32"},{"task":"memory_phase","broad_category":"I","image_png":"I_Pumice_11.png","image_id":139,"category_name":"Pumice","category":9,"distinct_rating":1.74,"distinct_type":"Bottom","rt":null,"stimulus":"Stimuli_Rocks480/I_Pumice_11.png","response":null,"trial_type":"image-keyboard-response","trial_index":48,"plugin_version":"2.1.0","time_elapsed":152547,"subject_id":"91400","group":"Group1","condition":"1_Rep","full_date":"2026-02-20T02:01:32.346Z","date":"2026-02-20","time":"02:01:32"},{"rt":null,"stimulus":"<p style=\"font-size: 50px; margin: 0; text-align: center;\">+</p>","response":null,"trial_type":"html-keyboard-response","trial_index":49,"plugin_version":"2.1.0","time_elapsed":153550,"subject_id":"91400","group":"Group1","condition":"1_Rep","full_date":"2026-02-20T02:01:32.346Z","date":"2026-02-20","time":"02:01:32"},{"task":"memory_phase","broad_category":"S","image_png":"S_Chert_10.png","image_id":362,"category_name":"Chert","category":23,"distinct_rating":7.17,"distinct_type":"Top","rt":null,"stimulus":"Stimuli_Rocks480/S_Chert_10.png","response":null,"trial_type":"image-keyboard-response","trial_index":50,"plugin_version":"2.1.0","time_elapsed":156053,"subject_id":"91400","group":"Group1","condition":"1_Rep","full_date":"2026-02-20T02:01:32.346Z","date":"2026-02-20","time":"02:01:32"},{"rt":null,"stimulus":"<p style=\"font-size: 50px; margin: 0; text-align: center;\">+</p>","response":null,"trial_type":"html-keyboard-response","trial_index":51,"plugin_version":"2.1.0","time_elapsed":157055,"subject_id":"91400","group":"Group1","condition":"1_Rep","full_date":"2026-02-20T02:01:32.346Z","date":"2026-02-20","time":"02:01:32"},{"task":"memory_phase","broad_category":"S","image_png":"S_Sandstone_03.png","image_id":451,"category_name":"Sandstone","category":29,"distinct_rating":1.86,"distinct_type":"Bottom","rt":null,"stimulus":"Stimuli_Rocks480/S_Sandstone_03.png","response":null,"trial_type":"image-keyboard-response","trial_index":52,"plugin_version":"2.1.0","time_elapsed":159559,"subject_id":"91400","group":"Group1","condition":"1_Rep","full_date":"2026-02-20T02:01:32.346Z","date":"2026-02-20","time":"02:01:32"},{"rt":null,"stimulus":"<p style=\"font-size: 50px; margin: 0; text-align: center;\">+</p>","response":null,"trial_type":"html-keyboard-response","trial_index":53,"plugin_version":"2.1.0","time_elapsed":160562,"subject_id":"91400","group":"Group1","condition":"1_Rep","full_date":"2026-02-20T02:01:32.346Z","date":"2026-02-20","time":"02:01:32"},{"task":"memory_phase","broad_category":"M","image_png":"M_Phyllite_03.png","image_id":259,"category_name":"Phyllite","category":17,"distinct_rating":2.5,"distinct_type":"Bottom","rt":null,"stimulus":"Stimuli_Rocks480/M_Phyllite_03.png","response":null,"trial_type":"image-keyboard-response","trial_index":54,"plugin_version":"2.1.0","time_elapsed":163065,"subject_id":"91400","group":"Group1","condition":"1_Rep","full_date":"2026-02-20T02:01:32.346Z","date":"2026-02-20","time":"02:01:32"},{"rt":4433,"stimulus":"<p style=\"max-width: 760px; margin: auto; font-size: 35px; line-height: 1.5;\">\n                Press SPACE to continue study phase\n              </p>","response":" ","trial_type":"html-keyboard-response","trial_index":55,"plugin_version":"2.1.0","time_elapsed":167499,"subject_id":"91400","group":"Group1","condition":"1_Rep","full_date":"2026-02-20T02:01:32.346Z","date":"2026-02-20","time":"02:01:32"},{"rt":null,"stimulus":"<p style=\"font-size: 50px; margin: 0; text-align: center;\">+</p>","response":null,"trial_type":"html-keyboard-response","trial_index":56,"plugin_version":"2.1.0","time_elapsed":168501,"subject_id":"91400","group":"Group1","condition":"1_Rep","full_date":"2026-02-20T02:01:32.346Z","date":"2026-02-20","time":"02:01:32"},{"task":"memory_phase","broad_category":"I","image_png":"I_Pegmatite_10.png","image_id":106,"category_name":"Pegmatite","category":7,"distinct_rating":7.66,"distinct_type":"Top","rt":null,"stimulus":"Stimuli_Rocks480/I_Pegmatite_10.png","response":null,"trial_type":"image-keyboard-response","trial_index":57,"plugin_version":"2.1.0","time_elapsed":171005,"subject_id":"91400","group":"Group1","condition":"1_Rep","full_date":"2026-02-20T02:01:32.346Z","date":"2026-02-20","time":"02:01:32"},{"rt":null,"stimulus":"<p style=\"font-size: 50px; margin: 0; text-align: center;\">+</p>","response":null,"trial_type":"html-keyboard-response","trial_index":58,"plugin_version":"2.1.0","time_elapsed":172007,"subject_id":"91400","group":"Group1","condition":"1_Rep","full_date":"2026-02-20T02:01:32.346Z","date":"2026-02-20","time":"02:01:32"},{"task":"memory_phase","broad_category":"S","image_png":"S_Shale_08.png","image_id":472,"category_name":"Shale","category":30,"distinct_rating":2.55,"distinct_type":"Bottom","rt":null,"stimulus":"Stimuli_Rocks480/S_Shale_08.png","response":null,"trial_type":"image-keyboard-response","trial_index":59,"plugin_version":"2.1.0","time_elapsed":174511,"subject_id":"91400","group":"Group1","condition":"1_Rep","full_date":"2026-02-20T02:01:32.346Z","date":"2026-02-20","time":"02:01:32"},{"rt":null,"stimulus":"<p style=\"font-size: 50px; margin: 0; text-align: center;\">+</p>","response":null,"trial_type":"html-keyboard-response","trial_index":60,"plugin_version":"2.1.0","time_elapsed":175513,"subject_id":"91400","group":"Group1","condition":"1_Rep","full_date":"2026-02-20T02:01:32.346Z","date":"2026-02-20","time":"02:01:32"},{"task":"memory_phase","broad_category":"M","image_png":"M_Quartzite_08.png","image_id":280,"category_name":"Quartzite","category":18,"distinct_rating":2.15,"distinct_type":"Bottom","rt":null,"stimulus":"Stimuli_Rocks480/M_Quartzite_08.png","response":null,"trial_type":"image-keyboard-response","trial_index":61,"plugin_version":"2.1.0","time_elapsed":178016,"subject_id":"91400","group":"Group1","condition":"1_Rep","full_date":"2026-02-20T02:01:32.346Z","date":"2026-02-20","time":"02:01:32"},{"rt":null,"stimulus":"<p style=\"font-size: 50px; margin: 0; text-align: center;\">+</p>","response":null,"trial_type":"html-keyboard-response","trial_index":62,"plugin_version":"2.1.0","time_elapsed":179018,"subject_id":"91400","group":"Group1","condition":"1_Rep","full_date":"2026-02-20T02:01:32.346Z","date":"2026-02-20","time":"02:01:32"},{"task":"memory_phase","broad_category":"I","image_png":"I_Pegmatite_16.png","image_id":112,"category_name":"Pegmatite","category":7,"distinct_rating":7.03,"distinct_type":"Top","rt":null,"stimulus":"Stimuli_Rocks480/I_Pegmatite_16.png","response":null,"trial_type":"image-keyboard-response","trial_index":63,"plugin_version":"2.1.0","time_elapsed":181522,"subject_id":"91400","group":"Group1","condition":"1_Rep","full_date":"2026-02-20T02:01:32.346Z","date":"2026-02-20","time":"02:01:32"},{"rt":null,"stimulus":"<p style=\"font-size: 50px; margin: 0; text-align: center;\">+</p>","response":null,"trial_type":"html-keyboard-response","trial_index":64,"plugin_version":"2.1.0","time_elapsed":182526,"subject_id":"91400","group":"Group1","condition":"1_Rep","full_date":"2026-02-20T02:01:32.346Z","date":"2026-02-20","time":"02:01:32"},{"task":"memory_phase","broad_category":"I","image_png":"I_Basalt_09.png","image_id":25,"category_name":"Basalt","category":2,"distinct_rating":1.89,"distinct_type":"Bottom","rt":null,"stimulus":"Stimuli_Rocks480/I_Basalt_09.png","response":null,"trial_type":"image-keyboard-response","trial_index":65,"plugin_version":"2.1.0","time_elapsed":185029,"subject_id":"91400","group":"Group1","condition":"1_Rep","full_date":"2026-02-20T02:01:32.346Z","date":"2026-02-20","time":"02:01:32"},{"rt":null,"stimulus":"<p style=\"font-size: 50px; margin: 0; text-align: center;\">+</p>","response":null,"trial_type":"html-keyboard-response","trial_index":66,"plugin_version":"2.1.0","time_elapsed":186032,"subject_id":"91400","group":"Group1","condition":"1_Rep","full_date":"2026-02-20T02:01:32.346Z","date":"2026-02-20","time":"02:01:32"},{"task":"memory_phase","broad_category":"I","image_png":"I_Andesite_06.png","image_id":6,"category_name":"Andesite","category":1,"distinct_rating":3.17,"distinct_type":"Bottom","rt":null,"stimulus":"Stimuli_Rocks480/I_Andesite_06.png","response":null,"trial_type":"image-keyboard-response","trial_index":67,"plugin_version":"2.1.0","time_elapsed":188536,"subject_id":"91400","group":"Group1","condition":"1_Rep","full_date":"2026-02-20T02:01:32.346Z","date":"2026-02-20","time":"02:01:32"},{"rt":null,"stimulus":"<p style=\"font-size: 50px; margin: 0; text-align: center;\">+</p>","response":null,"trial_type":"html-keyboard-response","trial_index":68,"plugin_version":"2.1.0","time_elapsed":189538,"subject_id":"91400","group":"Group1","condition":"1_Rep","full_date":"2026-02-20T02:01:32.346Z","date":"2026-02-20","time":"02:01:32"},{"task":"memory_phase","broad_category":"S","image_png":"S_Breccia_11.png","image_id":347,"category_name":"Breccia","category":22,"distinct_rating":6.7,"distinct_type":"Top","rt":null,"stimulus":"Stimuli_Rocks480/S_Breccia_11.png","response":null,"trial_type":"image-keyboard-response","trial_index":69,"plugin_version":"2.1.0","time_elapsed":192040,"subject_id":"91400","group":"Group1","condition":"1_Rep","full_date":"2026-02-20T02:01:32.346Z","date":"2026-02-20","time":"02:01:32"},{"rt":null,"stimulus":"<p style=\"font-size: 50px; margin: 0; text-align: center;\">+</p>","response":null,"trial_type":"html-keyboard-response","trial_index":70,"plugin_version":"2.1.0","time_elapsed":193043,"subject_id":"91400","group":"Group1","condition":"1_Rep","full_date":"2026-02-20T02:01:32.346Z","date":"2026-02-20","time":"02:01:32"},{"task":"memory_phase","broad_category":"S","image_png":"S_Rock Salt_01.png","image_id":433,"category_name":"Rock Salt","category":28,"distinct_rating":7.18,"distinct_type":"Top","rt":null,"stimulus":"Stimuli_Rocks480/S_Rock Salt_01.png","response":null,"trial_type":"image-keyboard-response","trial_index":71,"plugin_version":"2.1.0","time_elapsed":195546,"subject_id":"91400","group":"Group1","condition":"1_Rep","full_date":"2026-02-20T02:01:32.346Z","date":"2026-02-20","time":"02:01:32"},{"rt":null,"stimulus":"<p style=\"font-size: 50px; margin: 0; text-align: center;\">+</p>","response":null,"trial_type":"html-keyboard-response","trial_index":72,"plugin_version":"2.1.0","time_elapsed":196549,"subject_id":"91400","group":"Group1","condition":"1_Rep","full_date":"2026-02-20T02:01:32.346Z","date":"2026-02-20","time":"02:01:32"},{"task":"memory_phase","broad_category":"M","image_png":"M_Marble_04.png","image_id":228,"category_name":"Marble","category":15,"distinct_rating":3.15,"distinct_type":"Bottom","rt":null,"stimulus":"Stimuli_Rocks480/M_Marble_04.png","response":null,"trial_type":"image-keyboard-response","trial_index":73,"plugin_version":"2.1.0","time_elapsed":199053,"subject_id":"91400","group":"Group1","condition":"1_Rep","full_date":"2026-02-20T02:01:32.346Z","date":"2026-02-20","time":"02:01:32"},{"rt":null,"stimulus":"<p style=\"font-size: 50px; margin: 0; text-align: center;\">+</p>","response":null,"trial_type":"html-keyboard-response","trial_index":74,"plugin_version":"2.1.0","time_elapsed":200055,"subject_id":"91400","group":"Group1","condition":"1_Rep","full_date":"2026-02-20T02:01:32.346Z","date":"2026-02-20","time":"02:01:32"},{"task":"memory_phase","broad_category":"M","image_png":"M_Marble_16.png","image_id":240,"category_name":"Marble","category":15,"distinct_rating":2.57,"distinct_type":"Bottom","rt":null,"stimulus":"Stimuli_Rocks480/M_Marble_16.png","response":null,"trial_type":"image-keyboard-response","trial_index":75,"plugin_version":"2.1.0","time_elapsed":202558,"subject_id":"91400","group":"Group1","condition":"1_Rep","full_date":"2026-02-20T02:01:32.346Z","date":"2026-02-20","time":"02:01:32"},{"rt":null,"stimulus":"<p style=\"font-size: 50px; margin: 0; text-align: center;\">+</p>","response":null,"trial_type":"html-keyboard-response","trial_index":76,"plugin_version":"2.1.0","time_elapsed":203561,"subject_id":"91400","group":"Group1","condition":"1_Rep","full_date":"2026-02-20T02:01:32.346Z","date":"2026-02-20","time":"02:01:32"},{"task":"memory_phase","broad_category":"M","image_png":"M_Slate_11.png","image_id":315,"category_name":"Slate","category":20,"distinct_rating":2.75,"distinct_type":"Bottom","rt":null,"stimulus":"Stimuli_Rocks480/M_Slate_11.png","response":null,"trial_type":"image-keyboard-response","trial_index":77,"plugin_version":"2.1.0","time_elapsed":206064,"subject_id":"91400","group":"Group1","condition":"1_Rep","full_date":"2026-02-20T02:01:32.346Z","date":"2026-02-20","time":"02:01:32"},{"rt":null,"stimulus":"<p style=\"font-size: 50px; margin: 0; text-align: center;\">+</p>","response":null,"trial_type":"html-keyboard-response","trial_index":78,"plugin_version":"2.1.0","time_elapsed":207067,"subject_id":"91400","group":"Group1","condition":"1_Rep","full_date":"2026-02-20T02:01:32.346Z","date":"2026-02-20","time":"02:01:32"},{"task":"memory_phase","broad_category":"I","image_png":"I_Diorite_03.png","image_id":35,"category_name":"Diorite","category":3,"distinct_rating":3.14,"distinct_type":"Bottom","rt":null,"stimulus":"Stimuli_Rocks480/I_Diorite_03.png","response":null,"trial_type":"image-keyboard-response","trial_index":79,"plugin_version":"2.1.0","time_elapsed":209570,"subject_id":"91400","group":"Group1","condition":"1_Rep","full_date":"2026-02-20T02:01:32.346Z","date":"2026-02-20","time":"02:01:32"},{"rt":null,"stimulus":"<p style=\"font-size: 50px; margin: 0; text-align: center;\">+</p>","response":null,"trial_type":"html-keyboard-response","trial_index":80,"plugin_version":"2.1.0","time_elapsed":210572,"subject_id":"91400","group":"Group1","condition":"1_Rep","full_date":"2026-02-20T02:01:32.346Z","date":"2026-02-20","time":"02:01:32"},{"task":"memory_phase","broad_category":"M","image_png":"M_Gneiss_13.png","image_id":205,"category_name":"Gneiss","category":13,"distinct_rating":3.26,"distinct_type":"Bottom","rt":null,"stimulus":"Stimuli_Rocks480/M_Gneiss_13.png","response":null,"trial_type":"image-keyboard-response","trial_index":81,"plugin_version":"2.1.0","time_elapsed":213076,"subject_id":"91400","group":"Group1","condition":"1_Rep","full_date":"2026-02-20T02:01:32.346Z","date":"2026-02-20","time":"02:01:32"},{"rt":null,"stimulus":"<p style=\"font-size: 50px; margin: 0; text-align: center;\">+</p>","response":null,"trial_type":"html-keyboard-response","trial_index":82,"plugin_version":"2.1.0","time_elapsed":214078,"subject_id":"91400","group":"Group1","condition":"1_Rep","full_date":"2026-02-20T02:01:32.346Z","date":"2026-02-20","time":"02:01:32"},{"task":"memory_phase","broad_category":"S","image_png":"S_Rock Gypsum_04.png","image_id":420,"category_name":"Rock Gypsum","category":27,"distinct_rating":7.61,"distinct_type":"Top","rt":null,"stimulus":"Stimuli_Rocks480/S_Rock Gypsum_04.png","response":null,"trial_type":"image-keyboard-response","trial_index":83,"plugin_version":"2.1.0","time_elapsed":216581,"subject_id":"91400","group":"Group1","condition":"1_Rep","full_date":"2026-02-20T02:01:32.346Z","date":"2026-02-20","time":"02:01:32"},{"rt":null,"stimulus":"<p style=\"font-size: 50px; margin: 0; text-align: center;\">+</p>","response":null,"trial_type":"html-keyboard-response","trial_index":84,"plugin_version":"2.1.0","time_elapsed":217584,"subject_id":"91400","group":"Group1","condition":"1_Rep","full_date":"2026-02-20T02:01:32.346Z","date":"2026-02-20","time":"02:01:32"},{"task":"memory_phase","broad_category":"S","image_png":"S_Dolomite_13.png","image_id":397,"category_name":"Dolomite","category":25,"distinct_rating":1.77,"distinct_type":"Bottom","rt":null,"stimulus":"Stimuli_Rocks480/S_Dolomite_13.png","response":null,"trial_type":"image-keyboard-response","trial_index":85,"plugin_version":"2.1.0","time_elapsed":220087,"subject_id":"91400","group":"Group1","condition":"1_Rep","full_date":"2026-02-20T02:01:32.346Z","date":"2026-02-20","time":"02:01:32"},{"rt":null,"stimulus":"<p style=\"font-size: 50px; margin: 0; text-align: center;\">+</p>","response":null,"trial_type":"html-keyboard-response","trial_index":86,"plugin_version":"2.1.0","time_elapsed":221090,"subject_id":"91400","group":"Group1","condition":"1_Rep","full_date":"2026-02-20T02:01:32.346Z","date":"2026-02-20","time":"02:01:32"},{"task":"memory_phase","broad_category":"I","image_png":"I_Andesite_08.png","image_id":8,"category_name":"Andesite","category":1,"distinct_rating":1.95,"distinct_type":"Bottom","rt":null,"stimulus":"Stimuli_Rocks480/I_Andesite_08.png","response":null,"trial_type":"image-keyboard-response","trial_index":87,"plugin_version":"2.1.0","time_elapsed":223593,"subject_id":"91400","group":"Group1","condition":"1_Rep","full_date":"2026-02-20T02:01:32.346Z","date":"2026-02-20","time":"02:01:32"},{"rt":null,"stimulus":"<p style=\"font-size: 50px; margin: 0; text-align: center;\">+</p>","response":null,"trial_type":"html-keyboard-response","trial_index":88,"plugin_version":"2.1.0","time_elapsed":224595,"subject_id":"91400","group":"Group1","condition":"1_Rep","full_date":"2026-02-20T02:01:32.346Z","date":"2026-02-20","time":"02:01:32"},{"task":"memory_phase","broad_category":"I","image_png":"I_Pumice_12.png","image_id":140,"category_name":"Pumice","category":9,"distinct_rating":2.97,"distinct_type":"Bottom","rt":null,"stimulus":"Stimuli_Rocks480/I_Pumice_12.png","response":null,"trial_type":"image-keyboard-response","trial_index":89,"plugin_version":"2.1.0","time_elapsed":227099,"subject_id":"91400","group":"Group1","condition":"1_Rep","full_date":"2026-02-20T02:01:32.346Z","date":"2026-02-20","time":"02:01:32"},{"rt":null,"stimulus":"<p style=\"font-size: 50px; margin: 0; text-align: center;\">+</p>","response":null,"trial_type":"html-keyboard-response","trial_index":90,"plugin_version":"2.1.0","time_elapsed":228101,"subject_id":"91400","group":"Group1","condition":"1_Rep","full_date":"2026-02-20T02:01:32.346Z","date":"2026-02-20","time":"02:01:32"},{"task":"memory_phase","broad_category":"M","image_png":"M_Slate_03.png","image_id":307,"category_name":"Slate","category":20,"distinct_rating":1.87,"distinct_type":"Bottom","rt":null,"stimulus":"Stimuli_Rocks480/M_Slate_03.png","response":null,"trial_type":"image-keyboard-response","trial_index":91,"plugin_version":"2.1.0","time_elapsed":230604,"subject_id":"91400","group":"Group1","condition":"1_Rep","full_date":"2026-02-20T02:01:32.346Z","date":"2026-02-20","time":"02:01:32"},{"rt":null,"stimulus":"<p style=\"font-size: 50px; margin: 0; text-align: center;\">+</p>","response":null,"trial_type":"html-keyboard-response","trial_index":92,"plugin_version":"2.1.0","time_elapsed":231607,"subject_id":"91400","group":"Group1","condition":"1_Rep","full_date":"2026-02-20T02:01:32.346Z","date":"2026-02-20","time":"02:01:32"},{"task":"memory_phase","broad_category":"S","image_png":"S_Sandstone_16.png","image_id":464,"category_name":"Sandstone","category":29,"distinct_rating":1.93,"distinct_type":"Bottom","rt":null,"stimulus":"Stimuli_Rocks480/S_Sandstone_16.png","response":null,"trial_type":"image-keyboard-response","trial_index":93,"plugin_version":"2.1.0","time_elapsed":234110,"subject_id":"91400","group":"Group1","condition":"1_Rep","full_date":"2026-02-20T02:01:32.346Z","date":"2026-02-20","time":"02:01:32"},{"rt":null,"stimulus":"<p style=\"font-size: 50px; margin: 0; text-align: center;\">+</p>","response":null,"trial_type":"html-keyboard-response","trial_index":94,"plugin_version":"2.1.0","time_elapsed":235112,"subject_id":"91400","group":"Group1","condition":"1_Rep","full_date":"2026-02-20T02:01:32.346Z","date":"2026-02-20","time":"02:01:32"},{"task":"memory_phase","broad_category":"I","image_png":"I_Rhyolite_16.png","image_id":160,"category_name":"Rhyolite","category":10,"distinct_rating":2.19,"distinct_type":"Bottom","rt":null,"stimulus":"Stimuli_Rocks480/I_Rhyolite_16.png","response":null,"trial_type":"image-keyboard-response","trial_index":95,"plugin_version":"2.1.0","time_elapsed":237615,"subject_id":"91400","group":"Group1","condition":"1_Rep","full_date":"2026-02-20T02:01:32.346Z","date":"2026-02-20","time":"02:01:32"},{"rt":null,"stimulus":"<p style=\"font-size: 50px; margin: 0; text-align: center;\">+</p>","response":null,"trial_type":"html-keyboard-response","trial_index":96,"plugin_version":"2.1.0","time_elapsed":238618,"subject_id":"91400","group":"Group1","condition":"1_Rep","full_date":"2026-02-20T02:01:32.346Z","date":"2026-02-20","time":"02:01:32"},{"task":"memory_phase","broad_category":"I","image_png":"I_Basalt_02.png","image_id":18,"category_name":"Basalt","category":2,"distinct_rating":1.84,"distinct_type":"Bottom","rt":null,"stimulus":"Stimuli_Rocks480/I_Basalt_02.png","response":null,"trial_type":"image-keyboard-response","trial_index":97,"plugin_version":"2.1.0","time_elapsed":241121,"subject_id":"91400","group":"Group1","condition":"1_Rep","full_date":"2026-02-20T02:01:32.346Z","date":"2026-02-20","time":"02:01:32"},{"rt":null,"stimulus":"<p style=\"font-size: 50px; margin: 0; text-align: center;\">+</p>","response":null,"trial_type":"html-keyboard-response","trial_index":98,"plugin_version":"2.1.0","time_elapsed":242123,"subject_id":"91400","group":"Group1","condition":"1_Rep","full_date":"2026-02-20T02:01:32.346Z","date":"2026-02-20","time":"02:01:32"},{"task":"memory_phase","broad_category":"S","image_png":"S_Sandstone_15.png","image_id":463,"category_name":"Sandstone","category":29,"distinct_rating":2,"distinct_type":"Bottom","rt":null,"stimulus":"Stimuli_Rocks480/S_Sandstone_15.png","response":null,"trial_type":"image-keyboard-response","trial_index":99,"plugin_version":"2.1.0","time_elapsed":244627,"subject_id":"91400","group":"Group1","condition":"1_Rep","full_date":"2026-02-20T02:01:32.346Z","date":"2026-02-20","time":"02:01:32"},{"rt":null,"stimulus":"<p style=\"font-size: 50px; margin: 0; text-align: center;\">+</p>","response":null,"trial_type":"html-keyboard-response","trial_index":100,"plugin_version":"2.1.0","time_elapsed":245630,"subject_id":"91400","group":"Group1","condition":"1_Rep","full_date":"2026-02-20T02:01:32.346Z","date":"2026-02-20","time":"02:01:32"},{"task":"memory_phase","broad_category":"S","image_png":"S_Shale_01.png","image_id":465,"category_name":"Shale","category":30,"distinct_rating":2.7,"distinct_type":"Bottom","rt":null,"stimulus":"Stimuli_Rocks480/S_Shale_01.png","response":null,"trial_type":"image-keyboard-response","trial_index":101,"plugin_version":"2.1.0","time_elapsed":248133,"subject_id":"91400","group":"Group1","condition":"1_Rep","full_date":"2026-02-20T02:01:32.346Z","date":"2026-02-20","time":"02:01:32"},{"rt":null,"stimulus":"<p style=\"font-size: 50px; margin: 0; text-align: center;\">+</p>","response":null,"trial_type":"html-keyboard-response","trial_index":102,"plugin_version":"2.1.0","time_elapsed":249135,"subject_id":"91400","group":"Group1","condition":"1_Rep","full_date":"2026-02-20T02:01:32.346Z","date":"2026-02-20","time":"02:01:32"},{"task":"memory_phase","broad_category":"I","image_png":"I_Rhyolite_14.png","image_id":158,"category_name":"Rhyolite","category":10,"distinct_rating":2.59,"distinct_type":"Bottom","rt":null,"stimulus":"Stimuli_Rocks480/I_Rhyolite_14.png","response":null,"trial_type":"image-keyboard-response","trial_index":103,"plugin_version":"2.1.0","time_elapsed":251638,"subject_id":"91400","group":"Group1","condition":"1_Rep","full_date":"2026-02-20T02:01:32.346Z","date":"2026-02-20","time":"02:01:32"},{"rt":null,"stimulus":"<p style=\"font-size: 50px; margin: 0; text-align: center;\">+</p>","response":null,"trial_type":"html-keyboard-response","trial_index":104,"plugin_version":"2.1.0","time_elapsed":252641,"subject_id":"91400","group":"Group1","condition":"1_Rep","full_date":"2026-02-20T02:01:32.346Z","date":"2026-02-20","time":"02:01:32"},{"task":"memory_phase","broad_category":"I","image_png":"I_Rhyolite_11.png","image_id":155,"category_name":"Rhyolite","category":10,"distinct_rating":1.73,"distinct_type":"Bottom","rt":null,"stimulus":"Stimuli_Rocks480/I_Rhyolite_11.png","response":null,"trial_type":"image-keyboard-response","trial_index":105,"plugin_version":"2.1.0","time_elapsed":255145,"subject_id":"91400","group":"Group1","condition":"1_Rep","full_date":"2026-02-20T02:01:32.346Z","date":"2026-02-20","time":"02:01:32"},{"rt":7970,"stimulus":"<div style=\"max-width: 760px; margin: auto; font-size: 20px; line-height: 1.5;\">\n      <h1 style=\"text-align:center; font-size: 30px;\">Instructions for the Test Phase</h1>\n      <p>\n        The study phase is now complete.\n      </p>\n      <p>\n        In the test phase, you will again see a series of rock images. \n        Some will be ones you saw before - during the study phase, while others will be new.  \n        <b>Your task</b> is to decide whether you have seen each image before by pressing the corresponding key on your keyboard:<br><br>\n          <b>A</b> - NO (you did not see this image before)<br>\n          <b>L</b> - YES (you saw this image before)<br><br>\n        The test will proceed at your own pace. You will receive feedback after each response.  \n        Please try to respond <b>as accurately as possible</b>.\n      </p>\n      <p>\n        <b>Reminder:</b> If your computer has multiple language settings (e.g., English and another language),\n        please ensure it is set to English during the test phase.\n      </p>\n      <p>\n        You can track your progress using the <b>completion bar</b> at the top of the screen.  \n        Note that it has been refreshed to reflect your progress during this final phase.\n      </p>\n      <p>\n        Press the button below when you are ready to continue.\n      </p>\n    </div>","response":0,"trial_type":"html-button-response","trial_index":106,"plugin_version":"2.1.0","time_elapsed":263118,"subject_id":"91400","group":"Group1","condition":"1_Rep","full_date":"2026-02-20T02:01:32.346Z","date":"2026-02-20","time":"02:01:32"},{"correct_response":"l","task":"test_phase","broad_category":"I","image_png":"I_Basalt_01.png","image_id":17,"category_name":"Basalt","category":2,"distinct_rating":1.92,"distinct_type":"Bottom","item_type":"Target","rt":1605,"stimulus":"Stimuli_Rocks480/I_Basalt_01.png","response":"l","trial_type":"image-keyboard-response","trial_index":107,"plugin_version":"2.1.0","time_elapsed":264726,"subject_id":"91400","group":"Group1","condition":"1_Rep","full_date":"2026-02-20T02:01:32.346Z","date":"2026-02-20","time":"02:01:32","cor_ans":true},{"trial_type":"html-keyboard-response","rt":null,"stimulus":"<p style=\"color: green; font-size: 50px; font-weight: bold;\">Correct</p>","response":null,"trial_index":108,"plugin_version":"2.1.0","time_elapsed":265227,"subject_id":"91400","group":"Group1","condition":"1_Rep","full_date":"2026-02-20T02:01:32.346Z","date":"2026-02-20","time":"02:01:32"},{"correct_response":"a","task":"test_phase","broad_category":"M","image_png":"M_Marble_03.png","image_id":227,"category_name":"Marble","category":15,"distinct_rating":2.67,"distinct_type":"Bottom","item_type":"Foil","rt":1112,"stimulus":"Stimuli_Rocks480/M_Marble_03.png","response":"a","trial_type":"image-keyboard-response","trial_index":109,"plugin_version":"2.1.0","time_elapsed":266341,"subject_id":"91400","group":"Group1","condition":"1_Rep","full_date":"2026-02-20T02:01:32.346Z","date":"2026-02-20","time":"02:01:32","cor_ans":true},{"trial_type":"html-keyboard-response","rt":null,"stimulus":"<p style=\"color: green; font-size: 50px; font-weight: bold;\">Correct</p>","response":null,"trial_index":110,"plugin_version":"2.1.0","time_elapsed":266843,"subject_id":"91400","group":"Group1","condition":"1_Rep","full_date":"2026-02-20T02:01:32.346Z","date":"2026-02-20","time":"02:01:32"},{"correct_response":"l","task":"test_phase","broad_category":"I","image_png":"I_Pumice_11.png","image_id":139,"category_name":"Pumice","category":9,"distinct_rating":1.74,"distinct_type":"Bottom","item_type":"Target","rt":888,"stimulus":"Stimuli_Rocks480/I_Pumice_11.png","response":"l","trial_type":"image-keyboard-response","trial_index":111,"plugin_version":"2.1.0","time_elapsed":267732,"subject_id":"91400","group":"Group1","condition":"1_Rep","full_date":"2026-02-20T02:01:32.346Z","date":"2026-02-20","time":"02:01:32","cor_ans":true},{"trial_type":"html-keyboard-response","rt":null,"stimulus":"<p style=\"color: green; font-size: 50px; font-weight: bold;\">Correct</p>","response":null,"trial_index":112,"plugin_version":"2.1.0","time_elapsed":268234,"subject_id":"91400","group":"Group1","condition":"1_Rep","full_date":"2026-02-20T02:01:32.346Z","date":"2026-02-20","time":"02:01:32"},{"correct_response":"a","task":"test_phase","broad_category":"S","image_png":"S_Shale_02.png","image_id":466,"category_name":"Shale","category":30,"distinct_rating":2.9,"distinct_type":"Bottom","item_type":"Foil","rt":1331,"stimulus":"Stimuli_Rocks480/S_Shale_02.png","response":"a","trial_type":"image-keyboard-response","trial_index":113,"plugin_version":"2.1.0","time_elapsed":269567,"subject_id":"91400","group":"Group1","condition":"1_Rep","full_date":"2026-02-20T02:01:32.346Z","date":"2026-02-20","time":"02:01:32","cor_ans":true},{"trial_type":"html-keyboard-response","rt":null,"stimulus":"<p style=\"color: green; font-size: 50px; font-weight: bold;\">Correct</p>","response":null,"trial_index":114,"plugin_version":"2.1.0","time_elapsed":270069,"subject_id":"91400","group":"Group1","condition":"1_Rep","full_date":"2026-02-20T02:01:32.346Z","date":"2026-02-20","time":"02:01:32"},{"correct_response":"a","task":"test_phase","broad_category":"S","image_png":"S_Rock Salt_15.png","image_id":447,"category_name":"Rock Salt","category":28,"distinct_rating":7.79,"distinct_type":"Top","item_type":"Foil","rt":753,"stimulus":"Stimuli_Rocks480/S_Rock Salt_15.png","response":"a","trial_type":"image-keyboard-response","trial_index":115,"plugin_version":"2.1.0","time_elapsed":270824,"subject_id":"91400","group":"Group1","condition":"1_Rep","full_date":"2026-02-20T02:01:32.346Z","date":"2026-02-20","time":"02:01:32","cor_ans":true},{"trial_type":"html-keyboard-response","rt":null,"stimulus":"<p style=\"color: green; font-size: 50px; font-weight: bold;\">Correct</p>","response":null,"trial_index":116,"plugin_version":"2.1.0","time_elapsed":271325,"subject_id":"91400","group":"Group1","condition":"1_Rep","full_date":"2026-02-20T02:01:32.346Z","date":"2026-02-20","time":"02:01:32"},{"correct_response":"a","task":"test_phase","broad_category":"S","image_png":"S_Shale_07.png","image_id":471,"category_name":"Shale","category":30,"distinct_rating":2.73,"distinct_type":"Bottom","item_type":"Foil","rt":1886,"stimulus":"Stimuli_Rocks480/S_Shale_07.png","response":"l","trial_type":"image-keyboard-response","trial_index":117,"plugin_version":"2.1.0","time_elapsed":273213,"subject_id":"91400","group":"Group1","condition":"1_Rep","full_date":"2026-02-20T02:01:32.346Z","date":"2026-02-20","time":"02:01:32","cor_ans":false},{"trial_type":"html-keyboard-response","rt":null,"stimulus":"<p style=\"color: red; font-size: 50px; font-weight: bold;\">Incorrect</p>","response":null,"trial_index":118,"plugin_version":"2.1.0","time_elapsed":273714,"subject_id":"91400","group":"Group1","condition":"1_Rep","full_date":"2026-02-20T02:01:32.346Z","date":"2026-02-20","time":"02:01:32"},{"correct_response":"a","task":"test_phase","broad_category":"S","image_png":"S_Dolomite_01.png","image_id":385,"category_name":"Dolomite","category":25,"distinct_rating":1.43,"distinct_type":"Bottom","item_type":"Foil","rt":933,"stimulus":"Stimuli_Rocks480/S_Dolomite_01.png","response":"l","trial_type":"image-keyboard-response","trial_index":119,"plugin_version":"2.1.0","time_elapsed":274649,"subject_id":"91400","group":"Group1","condition":"1_Rep","full_date":"2026-02-20T02:01:32.346Z","date":"2026-02-20","time":"02:01:32","cor_ans":false},{"trial_type":"html-keyboard-response","rt":null,"stimulus":"<p style=\"color: red; font-size: 50px; font-weight: bold;\">Incorrect</p>","response":null,"trial_index":120,"plugin_version":"2.1.0","time_elapsed":275150,"subject_id":"91400","group":"Group1","condition":"1_Rep","full_date":"2026-02-20T02:01:32.346Z","date":"2026-02-20","time":"02:01:32"},{"correct_response":"a","task":"test_phase","broad_category":"I","image_png":"I_Gabbro_02.png","image_id":50,"category_name":"Gabbro","category":4,"distinct_rating":2.73,"distinct_type":"Bottom","item_type":"Foil","rt":1223,"stimulus":"Stimuli_Rocks480/I_Gabbro_02.png","response":"a","trial_type":"image-keyboard-response","trial_index":121,"plugin_version":"2.1.0","time_elapsed":276375,"subject_id":"91400","group":"Group1","condition":"1_Rep","full_date":"2026-02-20T02:01:32.346Z","date":"2026-02-20","time":"02:01:32","cor_ans":true},{"trial_type":"html-keyboard-response","rt":null,"stimulus":"<p style=\"color: green; font-size: 50px; font-weight: bold;\">Correct</p>","response":null,"trial_index":122,"plugin_version":"2.1.0","time_elapsed":276877,"subject_id":"91400","group":"Group1","condition":"1_Rep","full_date":"2026-02-20T02:01:32.346Z","date":"2026-02-20","time":"02:01:32"},{"correct_response":"l","task":"test_phase","broad_category":"M","image_png":"M_Marble_16.png","image_id":240,"category_name":"Marble","category":15,"distinct_rating":2.57,"distinct_type":"Bottom","item_type":"Target","rt":1029,"stimulus":"Stimuli_Rocks480/M_Marble_16.png","response":"l","trial_type":"image-keyboard-response","trial_index":123,"plugin_version":"2.1.0","time_elapsed":277907,"subject_id":"91400","group":"Group1","condition":"1_Rep","full_date":"2026-02-20T02:01:32.346Z","date":"2026-02-20","time":"02:01:32","cor_ans":true},{"trial_type":"html-keyboard-response","rt":null,"stimulus":"<p style=\"color: green; font-size: 50px; font-weight: bold;\">Correct</p>","response":null,"trial_index":124,"plugin_version":"2.1.0","time_elapsed":278408,"subject_id":"91400","group":"Group1","condition":"1_Rep","full_date":"2026-02-20T02:01:32.346Z","date":"2026-02-20","time":"02:01:32"},{"correct_response":"l","task":"test_phase","broad_category":"I","image_png":"I_Diorite_03.png","image_id":35,"category_name":"Diorite","category":3,"distinct_rating":3.14,"distinct_type":"Bottom","item_type":"Target","rt":743,"stimulus":"Stimuli_Rocks480/I_Diorite_03.png","response":"l","trial_type":"image-keyboard-response","trial_index":125,"plugin_version":"2.1.0","time_elapsed":279153,"subject_id":"91400","group":"Group1","condition":"1_Rep","full_date":"2026-02-20T02:01:32.346Z","date":"2026-02-20","time":"02:01:32","cor_ans":true},{"trial_type":"html-keyboard-response","rt":null,"stimulus":"<p style=\"color: green; font-size: 50px; font-weight: bold;\">Correct</p>","response":null,"trial_index":126,"plugin_version":"2.1.0","time_elapsed":279655,"subject_id":"91400","group":"Group1","condition":"1_Rep","full_date":"2026-02-20T02:01:32.346Z","date":"2026-02-20","time":"02:01:32"},{"correct_response":"l","task":"test_phase","broad_category":"M","image_png":"M_Slate_03.png","image_id":307,"category_name":"Slate","category":20,"distinct_rating":1.87,"distinct_type":"Bottom","item_type":"Target","rt":778,"stimulus":"Stimuli_Rocks480/M_Slate_03.png","response":"l","trial_type":"image-keyboard-response","trial_index":127,"plugin_version":"2.1.0","time_elapsed":280435,"subject_id":"91400","group":"Group1","condition":"1_Rep","full_date":"2026-02-20T02:01:32.346Z","date":"2026-02-20","time":"02:01:32","cor_ans":true},{"trial_type":"html-keyboard-response","rt":null,"stimulus":"<p style=\"color: green; font-size: 50px; font-weight: bold;\">Correct</p>","response":null,"trial_index":128,"plugin_version":"2.1.0","time_elapsed":280936,"subject_id":"91400","group":"Group1","condition":"1_Rep","full_date":"2026-02-20T02:01:32.346Z","date":"2026-02-20","time":"02:01:32"},{"correct_response":"l","task":"test_phase","broad_category":"M","image_png":"M_Phyllite_03.png","image_id":259,"category_name":"Phyllite","category":17,"distinct_rating":2.5,"distinct_type":"Bottom","item_type":"Target","rt":1520,"stimulus":"Stimuli_Rocks480/M_Phyllite_03.png","response":"l","trial_type":"image-keyboard-response","trial_index":129,"plugin_version":"2.1.0","time_elapsed":282458,"subject_id":"91400","group":"Group1","condition":"1_Rep","full_date":"2026-02-20T02:01:32.346Z","date":"2026-02-20","time":"02:01:32","cor_ans":true},{"trial_type":"html-keyboard-response","rt":null,"stimulus":"<p style=\"color: green; font-size: 50px; font-weight: bold;\">Correct</p>","response":null,"trial_index":130,"plugin_version":"2.1.0","time_elapsed":282959,"subject_id":"91400","group":"Group1","condition":"1_Rep","full_date":"2026-02-20T02:01:32.346Z","date":"2026-02-20","time":"02:01:32"},{"correct_response":"l","task":"test_phase","broad_category":"S","image_png":"S_Shale_12.png","image_id":476,"category_name":"Shale","category":30,"distinct_rating":2.48,"distinct_type":"Bottom","item_type":"Target","rt":1079,"stimulus":"Stimuli_Rocks480/S_Shale_12.png","response":"l","trial_type":"image-keyboard-response","trial_index":131,"plugin_version":"2.1.0","time_elapsed":284040,"subject_id":"91400","group":"Group1","condition":"1_Rep","full_date":"2026-02-20T02:01:32.346Z","date":"2026-02-20","time":"02:01:32","cor_ans":true},{"trial_type":"html-keyboard-response","rt":null,"stimulus":"<p style=\"color: green; font-size: 50px; font-weight: bold;\">Correct</p>","response":null,"trial_index":132,"plugin_version":"2.1.0","time_elapsed":284542,"subject_id":"91400","group":"Group1","condition":"1_Rep","full_date":"2026-02-20T02:01:32.346Z","date":"2026-02-20","time":"02:01:32"},{"correct_response":"l","task":"test_phase","broad_category":"S","image_png":"S_Dolomite_13.png","image_id":397,"category_name":"Dolomite","category":25,"distinct_rating":1.77,"distinct_type":"Bottom","item_type":"Target","rt":971,"stimulus":"Stimuli_Rocks480/S_Dolomite_13.png","response":"l","trial_type":"image-keyboard-response","trial_index":133,"plugin_version":"2.1.0","time_elapsed":285514,"subject_id":"91400","group":"Group1","condition":"1_Rep","full_date":"2026-02-20T02:01:32.346Z","date":"2026-02-20","time":"02:01:32","cor_ans":true},{"trial_type":"html-keyboard-response","rt":null,"stimulus":"<p style=\"color: green; font-size: 50px; font-weight: bold;\">Correct</p>","response":null,"trial_index":134,"plugin_version":"2.1.0","time_elapsed":286015,"subject_id":"91400","group":"Group1","condition":"1_Rep","full_date":"2026-02-20T02:01:32.346Z","date":"2026-02-20","time":"02:01:32"},{"correct_response":"a","task":"test_phase","broad_category":"I","image_png":"I_Rhyolite_05.png","image_id":149,"category_name":"Rhyolite","category":10,"distinct_rating":3.02,"distinct_type":"Bottom","item_type":"Foil","rt":869,"stimulus":"Stimuli_Rocks480/I_Rhyolite_05.png","response":"a","trial_type":"image-keyboard-response","trial_index":135,"plugin_version":"2.1.0","time_elapsed":286886,"subject_id":"91400","group":"Group1","condition":"1_Rep","full_date":"2026-02-20T02:01:32.346Z","date":"2026-02-20","time":"02:01:32","cor_ans":true},{"trial_type":"html-keyboard-response","rt":null,"stimulus":"<p style=\"color: green; font-size: 50px; font-weight: bold;\">Correct</p>","response":null,"trial_index":136,"plugin_version":"2.1.0","time_elapsed":287388,"subject_id":"91400","group":"Group1","condition":"1_Rep","full_date":"2026-02-20T02:01:32.346Z","date":"2026-02-20","time":"02:01:32"},{"correct_response":"a","task":"test_phase","broad_category":"I","image_png":"I_Gabbro_12.png","image_id":60,"category_name":"Gabbro","category":4,"distinct_rating":2.6,"distinct_type":"Bottom","item_type":"Foil","rt":1691,"stimulus":"Stimuli_Rocks480/I_Gabbro_12.png","response":"a","trial_type":"image-keyboard-response","trial_index":137,"plugin_version":"2.1.0","time_elapsed":289081,"subject_id":"91400","group":"Group1","condition":"1_Rep","full_date":"2026-02-20T02:01:32.346Z","date":"2026-02-20","time":"02:01:32","cor_ans":true},{"trial_type":"html-keyboard-response","rt":null,"stimulus":"<p style=\"color: green; font-size: 50px; font-weight: bold;\">Correct</p>","response":null,"trial_index":138,"plugin_version":"2.1.0","time_elapsed":289582,"subject_id":"91400","group":"Group1","condition":"1_Rep","full_date":"2026-02-20T02:01:32.346Z","date":"2026-02-20","time":"02:01:32"},{"correct_response":"l","task":"test_phase","broad_category":"I","image_png":"I_Gabbro_08.png","image_id":56,"category_name":"Gabbro","category":4,"distinct_rating":3.02,"distinct_type":"Bottom","item_type":"Target","rt":1974,"stimulus":"Stimuli_Rocks480/I_Gabbro_08.png","response":"a","trial_type":"image-keyboard-response","trial_index":139,"plugin_version":"2.1.0","time_elapsed":291558,"subject_id":"91400","group":"Group1","condition":"1_Rep","full_date":"2026-02-20T02:01:32.346Z","date":"2026-02-20","time":"02:01:32","cor_ans":false},{"trial_type":"html-keyboard-response","rt":null,"stimulus":"<p style=\"color: red; font-size: 50px; font-weight: bold;\">Incorrect</p>","response":null,"trial_index":140,"plugin_version":"2.1.0","time_elapsed":292059,"subject_id":"91400","group":"Group1","condition":"1_Rep","full_date":"2026-02-20T02:01:32.346Z","date":"2026-02-20","time":"02:01:32"},{"correct_response":"a","task":"test_phase","broad_category":"I","image_png":"I_Andesite_09.png","image_id":9,"category_name":"Andesite","category":1,"distinct_rating":2.49,"distinct_type":"Bottom","item_type":"Foil","rt":1275,"stimulus":"Stimuli_Rocks480/I_Andesite_09.png","response":"l","trial_type":"image-keyboard-response","trial_index":141,"plugin_version":"2.1.0","time_elapsed":293336,"subject_id":"91400","group":"Group1","condition":"1_Rep","full_date":"2026-02-20T02:01:32.346Z","date":"2026-02-20","time":"02:01:32","cor_ans":false},{"trial_type":"html-keyboard-response","rt":null,"stimulus":"<p style=\"color: red; font-size: 50px; font-weight: bold;\">Incorrect</p>","response":null,"trial_index":142,"plugin_version":"2.1.0","time_elapsed":293837,"subject_id":"91400","group":"Group1","condition":"1_Rep","full_date":"2026-02-20T02:01:32.346Z","date":"2026-02-20","time":"02:01:32"},{"correct_response":"a","task":"test_phase","broad_category":"I","image_png":"I_Rhyolite_10.png","image_id":154,"category_name":"Rhyolite","category":10,"distinct_rating":2.88,"distinct_type":"Bottom","item_type":"Foil","rt":1513,"stimulus":"Stimuli_Rocks480/I_Rhyolite_10.png","response":"a","trial_type":"image-keyboard-response","trial_index":143,"plugin_version":"2.1.0","time_elapsed":295352,"subject_id":"91400","group":"Group1","condition":"1_Rep","full_date":"2026-02-20T02:01:32.346Z","date":"2026-02-20","time":"02:01:32","cor_ans":true},{"trial_type":"html-keyboard-response","rt":null,"stimulus":"<p style=\"color: green; font-size: 50px; font-weight: bold;\">Correct</p>","response":null,"trial_index":144,"plugin_version":"2.1.0","time_elapsed":295854,"subject_id":"91400","group":"Group1","condition":"1_Rep","full_date":"2026-02-20T02:01:32.346Z","date":"2026-02-20","time":"02:01:32"},{"correct_response":"l","task":"test_phase","broad_category":"M","image_png":"M_Gneiss_13.png","image_id":205,"category_name":"Gneiss","category":13,"distinct_rating":3.26,"distinct_type":"Bottom","item_type":"Target","rt":1433,"stimulus":"Stimuli_Rocks480/M_Gneiss_13.png","response":"a","trial_type":"image-keyboard-response","trial_index":145,"plugin_version":"2.1.0","time_elapsed":297289,"subject_id":"91400","group":"Group1","condition":"1_Rep","full_date":"2026-02-20T02:01:32.346Z","date":"2026-02-20","time":"02:01:32","cor_ans":false},{"trial_type":"html-keyboard-response","rt":null,"stimulus":"<p style=\"color: red; font-size: 50px; font-weight: bold;\">Incorrect</p>","response":null,"trial_index":146,"plugin_version":"2.1.0","time_elapsed":297790,"subject_id":"91400","group":"Group1","condition":"1_Rep","full_date":"2026-02-20T02:01:32.346Z","date":"2026-02-20","time":"02:01:32"},{"correct_response":"a","task":"test_phase","broad_category":"I","image_png":"I_Diorite_10.png","image_id":42,"category_name":"Diorite","category":3,"distinct_rating":2.84,"distinct_type":"Bottom","item_type":"Foil","rt":1302,"stimulus":"Stimuli_Rocks480/I_Diorite_10.png","response":"a","trial_type":"image-keyboard-response","trial_index":147,"plugin_version":"2.1.0","time_elapsed":299094,"subject_id":"91400","group":"Group1","condition":"1_Rep","full_date":"2026-02-20T02:01:32.346Z","date":"2026-02-20","time":"02:01:32","cor_ans":true},{"trial_type":"html-keyboard-response","rt":null,"stimulus":"<p style=\"color: green; font-size: 50px; font-weight: bold;\">Correct</p>","response":null,"trial_index":148,"plugin_version":"2.1.0","time_elapsed":299595,"subject_id":"91400","group":"Group1","condition":"1_Rep","full_date":"2026-02-20T02:01:32.346Z","date":"2026-02-20","time":"02:01:32"},{"correct_response":"l","task":"test_phase","broad_category":"S","image_png":"S_Rock Salt_01.png","image_id":433,"category_name":"Rock Salt","category":28,"distinct_rating":7.18,"distinct_type":"Top","item_type":"Target","rt":1540,"stimulus":"Stimuli_Rocks480/S_Rock Salt_01.png","response":"a","trial_type":"image-keyboard-response","trial_index":149,"plugin_version":"2.1.0","time_elapsed":301137,"subject_id":"91400","group":"Group1","condition":"1_Rep","full_date":"2026-02-20T02:01:32.346Z","date":"2026-02-20","time":"02:01:32","cor_ans":false},{"trial_type":"html-keyboard-response","rt":null,"stimulus":"<p style=\"color: red; font-size: 50px; font-weight: bold;\">Incorrect</p>","response":null,"trial_index":150,"plugin_version":"2.1.0","time_elapsed":301638,"subject_id":"91400","group":"Group1","condition":"1_Rep","full_date":"2026-02-20T02:01:32.346Z","date":"2026-02-20","time":"02:01:32"},{"correct_response":"l","task":"test_phase","broad_category":"S","image_png":"S_Sandstone_03.png","image_id":451,"category_name":"Sandstone","category":29,"distinct_rating":1.86,"distinct_type":"Bottom","item_type":"Target","rt":820,"stimulus":"Stimuli_Rocks480/S_Sandstone_03.png","response":"l","trial_type":"image-keyboard-response","trial_index":151,"plugin_version":"2.1.0","time_elapsed":302460,"subject_id":"91400","group":"Group1","condition":"1_Rep","full_date":"2026-02-20T02:01:32.346Z","date":"2026-02-20","time":"02:01:32","cor_ans":true},{"trial_type":"html-keyboard-response","rt":null,"stimulus":"<p style=\"color: green; font-size: 50px; font-weight: bold;\">Correct</p>","response":null,"trial_index":152,"plugin_version":"2.1.0","time_elapsed":302961,"subject_id":"91400","group":"Group1","condition":"1_Rep","full_date":"2026-02-20T02:01:32.346Z","date":"2026-02-20","time":"02:01:32"},{"correct_response":"l","task":"test_phase","broad_category":"I","image_png":"I_Rhyolite_14.png","image_id":158,"category_name":"Rhyolite","category":10,"distinct_rating":2.59,"distinct_type":"Bottom","item_type":"Target","rt":980,"stimulus":"Stimuli_Rocks480/I_Rhyolite_14.png","response":"l","trial_type":"image-keyboard-response","trial_index":153,"plugin_version":"2.1.0","time_elapsed":303942,"subject_id":"91400","group":"Group1","condition":"1_Rep","full_date":"2026-02-20T02:01:32.346Z","date":"2026-02-20","time":"02:01:32","cor_ans":true},{"trial_type":"html-keyboard-response","rt":null,"stimulus":"<p style=\"color: green; font-size: 50px; font-weight: bold;\">Correct</p>","response":null,"trial_index":154,"plugin_version":"2.1.0","time_elapsed":304444,"subject_id":"91400","group":"Group1","condition":"1_Rep","full_date":"2026-02-20T02:01:32.346Z","date":"2026-02-20","time":"02:01:32"},{"correct_response":"a","task":"test_phase","broad_category":"M","image_png":"M_Slate_14.png","image_id":318,"category_name":"Slate","category":20,"distinct_rating":2.58,"distinct_type":"Bottom","item_type":"Foil","rt":654,"stimulus":"Stimuli_Rocks480/M_Slate_14.png","response":"l","trial_type":"image-keyboard-response","trial_index":155,"plugin_version":"2.1.0","time_elapsed":305100,"subject_id":"91400","group":"Group1","condition":"1_Rep","full_date":"2026-02-20T02:01:32.346Z","date":"2026-02-20","time":"02:01:32","cor_ans":false},{"trial_type":"html-keyboard-response","rt":null,"stimulus":"<p style=\"color: red; font-size: 50px; font-weight: bold;\">Incorrect</p>","response":null,"trial_index":156,"plugin_version":"2.1.0","time_elapsed":305602,"subject_id":"91400","group":"Group1","condition":"1_Rep","full_date":"2026-02-20T02:01:32.346Z","date":"2026-02-20","time":"02:01:32"},{"correct_response":"a","task":"test_phase","broad_category":"I","image_png":"I_Pegmatite_11.png","image_id":107,"category_name":"Pegmatite","category":7,"distinct_rating":7.11,"distinct_type":"Top","item_type":"Foil","rt":1144,"stimulus":"Stimuli_Rocks480/I_Pegmatite_11.png","response":"a","trial_type":"image-keyboard-response","trial_index":157,"plugin_version":"2.1.0","time_elapsed":306747,"subject_id":"91400","group":"Group1","condition":"1_Rep","full_date":"2026-02-20T02:01:32.346Z","date":"2026-02-20","time":"02:01:32","cor_ans":true},{"trial_type":"html-keyboard-response","rt":null,"stimulus":"<p style=\"color: green; font-size: 50px; font-weight: bold;\">Correct</p>","response":null,"trial_index":158,"plugin_version":"2.1.0","time_elapsed":307248,"subject_id":"91400","group":"Group1","condition":"1_Rep","full_date":"2026-02-20T02:01:32.346Z","date":"2026-02-20","time":"02:01:32"},{"correct_response":"l","task":"test_phase","broad_category":"I","image_png":"I_Rhyolite_11.png","image_id":155,"category_name":"Rhyolite","category":10,"distinct_rating":1.73,"distinct_type":"Bottom","item_type":"Target","rt":895,"stimulus":"Stimuli_Rocks480/I_Rhyolite_11.png","response":"l","trial_type":"image-keyboard-response","trial_index":159,"plugin_version":"2.1.0","time_elapsed":308145,"subject_id":"91400","group":"Group1","condition":"1_Rep","full_date":"2026-02-20T02:01:32.346Z","date":"2026-02-20","time":"02:01:32","cor_ans":true},{"trial_type":"html-keyboard-response","rt":null,"stimulus":"<p style=\"color: green; font-size: 50px; font-weight: bold;\">Correct</p>","response":null,"trial_index":160,"plugin_version":"2.1.0","time_elapsed":308646,"subject_id":"91400","group":"Group1","condition":"1_Rep","full_date":"2026-02-20T02:01:32.346Z","date":"2026-02-20","time":"02:01:32"},{"correct_response":"a","task":"test_phase","broad_category":"S","image_png":"S_Chert_13.png","image_id":365,"category_name":"Chert","category":23,"distinct_rating":6.57,"distinct_type":"Top","item_type":"Foil","rt":1085,"stimulus":"Stimuli_Rocks480/S_Chert_13.png","response":"l","trial_type":"image-keyboard-response","trial_index":161,"plugin_version":"2.1.0","time_elapsed":309732,"subject_id":"91400","group":"Group1","condition":"1_Rep","full_date":"2026-02-20T02:01:32.346Z","date":"2026-02-20","time":"02:01:32","cor_ans":false},{"trial_type":"html-keyboard-response","rt":null,"stimulus":"<p style=\"color: red; font-size: 50px; font-weight: bold;\">Incorrect</p>","response":null,"trial_index":162,"plugin_version":"2.1.0","time_elapsed":310234,"subject_id":"91400","group":"Group1","condition":"1_Rep","full_date":"2026-02-20T02:01:32.346Z","date":"2026-02-20","time":"02:01:32"},{"correct_response":"l","task":"test_phase","broad_category":"I","image_png":"I_Pegmatite_16.png","image_id":112,"category_name":"Pegmatite","category":7,"distinct_rating":7.03,"distinct_type":"Top","item_type":"Target","rt":627,"stimulus":"Stimuli_Rocks480/I_Pegmatite_16.png","response":"l","trial_type":"image-keyboard-response","trial_index":163,"plugin_version":"2.1.0","time_elapsed":310862,"subject_id":"91400","group":"Group1","condition":"1_Rep","full_date":"2026-02-20T02:01:32.346Z","date":"2026-02-20","time":"02:01:32","cor_ans":true},{"trial_type":"html-keyboard-response","rt":null,"stimulus":"<p style=\"color: green; font-size: 50px; font-weight: bold;\">Correct</p>","response":null,"trial_index":164,"plugin_version":"2.1.0","time_elapsed":311364,"subject_id":"91400","group":"Group1","condition":"1_Rep","full_date":"2026-02-20T02:01:32.346Z","date":"2026-02-20","time":"02:01:32"},{"correct_response":"a","task":"test_phase","broad_category":"M","image_png":"M_Quartzite_07.png","image_id":279,"category_name":"Quartzite","category":18,"distinct_rating":1.97,"distinct_type":"Bottom","item_type":"Foil","rt":3466,"stimulus":"Stimuli_Rocks480/M_Quartzite_07.png","response":"a","trial_type":"image-keyboard-response","trial_index":165,"plugin_version":"2.1.0","time_elapsed":314832,"subject_id":"91400","group":"Group1","condition":"1_Rep","full_date":"2026-02-20T02:01:32.346Z","date":"2026-02-20","time":"02:01:32","cor_ans":true},{"trial_type":"html-keyboard-response","rt":null,"stimulus":"<p style=\"color: green; font-size: 50px; font-weight: bold;\">Correct</p>","response":null,"trial_index":166,"plugin_version":"2.1.0","time_elapsed":315333,"subject_id":"91400","group":"Group1","condition":"1_Rep","full_date":"2026-02-20T02:01:32.346Z","date":"2026-02-20","time":"02:01:32"},{"correct_response":"l","task":"test_phase","broad_category":"M","image_png":"M_Marble_06.png","image_id":230,"category_name":"Marble","category":15,"distinct_rating":3.4,"distinct_type":"Bottom","item_type":"Target","rt":2819,"stimulus":"Stimuli_Rocks480/M_Marble_06.png","response":"l","trial_type":"image-keyboard-response","trial_index":167,"plugin_version":"2.1.0","time_elapsed":318154,"subject_id":"91400","group":"Group1","condition":"1_Rep","full_date":"2026-02-20T02:01:32.346Z","date":"2026-02-20","time":"02:01:32","cor_ans":true},{"trial_type":"html-keyboard-response","rt":null,"stimulus":"<p style=\"color: green; font-size: 50px; font-weight: bold;\">Correct</p>","response":null,"trial_index":168,"plugin_version":"2.1.0","time_elapsed":318655,"subject_id":"91400","group":"Group1","condition":"1_Rep","full_date":"2026-02-20T02:01:32.346Z","date":"2026-02-20","time":"02:01:32"},{"correct_response":"a","task":"test_phase","broad_category":"S","image_png":"S_Sandstone_08.png","image_id":456,"category_name":"Sandstone","category":29,"distinct_rating":1.5,"distinct_type":"Bottom","item_type":"Foil","rt":1384,"stimulus":"Stimuli_Rocks480/S_Sandstone_08.png","response":"l","trial_type":"image-keyboard-response","trial_index":169,"plugin_version":"2.1.0","time_elapsed":320041,"subject_id":"91400","group":"Group1","condition":"1_Rep","full_date":"2026-02-20T02:01:32.346Z","date":"2026-02-20","time":"02:01:32","cor_ans":false},{"trial_type":"html-keyboard-response","rt":null,"stimulus":"<p style=\"color: red; font-size: 50px; font-weight: bold;\">Incorrect</p>","response":null,"trial_index":170,"plugin_version":"2.1.0","time_elapsed":320543,"subject_id":"91400","group":"Group1","condition":"1_Rep","full_date":"2026-02-20T02:01:32.346Z","date":"2026-02-20","time":"02:01:32"},{"correct_response":"l","task":"test_phase","broad_category":"I","image_png":"I_Obsidian_05.png","image_id":85,"category_name":"Obsidian","category":6,"distinct_rating":7.32,"distinct_type":"Top","item_type":"Target","rt":1072,"stimulus":"Stimuli_Rocks480/I_Obsidian_05.png","response":"l","trial_type":"image-keyboard-response","trial_index":171,"plugin_version":"2.1.0","time_elapsed":321616,"subject_id":"91400","group":"Group1","condition":"1_Rep","full_date":"2026-02-20T02:01:32.346Z","date":"2026-02-20","time":"02:01:32","cor_ans":true},{"trial_type":"html-keyboard-response","rt":null,"stimulus":"<p style=\"color: green; font-size: 50px; font-weight: bold;\">Correct</p>","response":null,"trial_index":172,"plugin_version":"2.1.0","time_elapsed":322117,"subject_id":"91400","group":"Group1","condition":"1_Rep","full_date":"2026-02-20T02:01:32.346Z","date":"2026-02-20","time":"02:01:32"},{"correct_response":"l","task":"test_phase","broad_category":"S","image_png":"S_Sandstone_16.png","image_id":464,"category_name":"Sandstone","category":29,"distinct_rating":1.93,"distinct_type":"Bottom","item_type":"Target","rt":3309,"stimulus":"Stimuli_Rocks480/S_Sandstone_16.png","response":"a","trial_type":"image-keyboard-response","trial_index":173,"plugin_version":"2.1.0","time_elapsed":325428,"subject_id":"91400","group":"Group1","condition":"1_Rep","full_date":"2026-02-20T02:01:32.346Z","date":"2026-02-20","time":"02:01:32","cor_ans":false},{"trial_type":"html-keyboard-response","rt":null,"stimulus":"<p style=\"color: red; font-size: 50px; font-weight: bold;\">Incorrect</p>","response":null,"trial_index":174,"plugin_version":"2.1.0","time_elapsed":325930,"subject_id":"91400","group":"Group1","condition":"1_Rep","full_date":"2026-02-20T02:01:32.346Z","date":"2026-02-20","time":"02:01:32"},{"correct_response":"a","task":"test_phase","broad_category":"S","image_png":"S_Shale_03.png","image_id":467,"category_name":"Shale","category":30,"distinct_rating":1.95,"distinct_type":"Bottom","item_type":"Foil","rt":941,"stimulus":"Stimuli_Rocks480/S_Shale_03.png","response":"a","trial_type":"image-keyboard-response","trial_index":175,"plugin_version":"2.1.0","time_elapsed":326872,"subject_id":"91400","group":"Group1","condition":"1_Rep","full_date":"2026-02-20T02:01:32.346Z","date":"2026-02-20","time":"02:01:32","cor_ans":true},{"trial_type":"html-keyboard-response","rt":null,"stimulus":"<p style=\"color: green; font-size: 50px; font-weight: bold;\">Correct</p>","response":null,"trial_index":176,"plugin_version":"2.1.0","time_elapsed":327374,"subject_id":"91400","group":"Group1","condition":"1_Rep","full_date":"2026-02-20T02:01:32.346Z","date":"2026-02-20","time":"02:01:32"},{"correct_response":"l","task":"test_phase","broad_category":"I","image_png":"I_Gabbro_11.png","image_id":59,"category_name":"Gabbro","category":4,"distinct_rating":1.99,"distinct_type":"Bottom","item_type":"Target","rt":847,"stimulus":"Stimuli_Rocks480/I_Gabbro_11.png","response":"l","trial_type":"image-keyboard-response","trial_index":177,"plugin_version":"2.1.0","time_elapsed":328222,"subject_id":"91400","group":"Group1","condition":"1_Rep","full_date":"2026-02-20T02:01:32.346Z","date":"2026-02-20","time":"02:01:32","cor_ans":true},{"trial_type":"html-keyboard-response","rt":null,"stimulus":"<p style=\"color: green; font-size: 50px; font-weight: bold;\">Correct</p>","response":null,"trial_index":178,"plugin_version":"2.1.0","time_elapsed":328724,"subject_id":"91400","group":"Group1","condition":"1_Rep","full_date":"2026-02-20T02:01:32.346Z","date":"2026-02-20","time":"02:01:32"},{"correct_response":"l","task":"test_phase","broad_category":"I","image_png":"I_Rhyolite_16.png","image_id":160,"category_name":"Rhyolite","category":10,"distinct_rating":2.19,"distinct_type":"Bottom","item_type":"Target","rt":1482,"stimulus":"Stimuli_Rocks480/I_Rhyolite_16.png","response":"l","trial_type":"image-keyboard-response","trial_index":179,"plugin_version":"2.1.0","time_elapsed":330208,"subject_id":"91400","group":"Group1","condition":"1_Rep","full_date":"2026-02-20T02:01:32.346Z","date":"2026-02-20","time":"02:01:32","cor_ans":true},{"trial_type":"html-keyboard-response","rt":null,"stimulus":"<p style=\"color: green; font-size: 50px; font-weight: bold;\">Correct</p>","response":null,"trial_index":180,"plugin_version":"2.1.0","time_elapsed":330709,"subject_id":"91400","group":"Group1","condition":"1_Rep","full_date":"2026-02-20T02:01:32.346Z","date":"2026-02-20","time":"02:01:32"},{"correct_response":"l","task":"test_phase","broad_category":"I","image_png":"I_Pumice_08.png","image_id":136,"category_name":"Pumice","category":9,"distinct_rating":3.1,"distinct_type":"Bottom","item_type":"Target","rt":1280,"stimulus":"Stimuli_Rocks480/I_Pumice_08.png","response":"l","trial_type":"image-keyboard-response","trial_index":181,"plugin_version":"2.1.0","time_elapsed":331991,"subject_id":"91400","group":"Group1","condition":"1_Rep","full_date":"2026-02-20T02:01:32.346Z","date":"2026-02-20","time":"02:01:32","cor_ans":true},{"trial_type":"html-keyboard-response","rt":null,"stimulus":"<p style=\"color: green; font-size: 50px; font-weight: bold;\">Correct</p>","response":null,"trial_index":182,"plugin_version":"2.1.0","time_elapsed":332493,"subject_id":"91400","group":"Group1","condition":"1_Rep","full_date":"2026-02-20T02:01:32.346Z","date":"2026-02-20","time":"02:01:32"},{"correct_response":"a","task":"test_phase","broad_category":"I","image_png":"I_Basalt_13.png","image_id":29,"category_name":"Basalt","category":2,"distinct_rating":2.68,"distinct_type":"Bottom","item_type":"Foil","rt":1088,"stimulus":"Stimuli_Rocks480/I_Basalt_13.png","response":"a","trial_type":"image-keyboard-response","trial_index":183,"plugin_version":"2.1.0","time_elapsed":333582,"subject_id":"91400","group":"Group1","condition":"1_Rep","full_date":"2026-02-20T02:01:32.346Z","date":"2026-02-20","time":"02:01:32","cor_ans":true},{"trial_type":"html-keyboard-response","rt":null,"stimulus":"<p style=\"color: green; font-size: 50px; font-weight: bold;\">Correct</p>","response":null,"trial_index":184,"plugin_version":"2.1.0","time_elapsed":334084,"subject_id":"91400","group":"Group1","condition":"1_Rep","full_date":"2026-02-20T02:01:32.346Z","date":"2026-02-20","time":"02:01:32"},{"correct_response":"a","task":"test_phase","broad_category":"M","image_png":"M_Quartzite_15.png","image_id":287,"category_name":"Quartzite","category":18,"distinct_rating":2.19,"distinct_type":"Bottom","item_type":"Foil","rt":2158,"stimulus":"Stimuli_Rocks480/M_Quartzite_15.png","response":"a","trial_type":"image-keyboard-response","trial_index":185,"plugin_version":"2.1.0","time_elapsed":336243,"subject_id":"91400","group":"Group1","condition":"1_Rep","full_date":"2026-02-20T02:01:32.346Z","date":"2026-02-20","time":"02:01:32","cor_ans":true},{"trial_type":"html-keyboard-response","rt":null,"stimulus":"<p style=\"color: green; font-size: 50px; font-weight: bold;\">Correct</p>","response":null,"trial_index":186,"plugin_version":"2.1.0","time_elapsed":336745,"subject_id":"91400","group":"Group1","condition":"1_Rep","full_date":"2026-02-20T02:01:32.346Z","date":"2026-02-20","time":"02:01:32"},{"correct_response":"l","task":"test_phase","broad_category":"I","image_png":"I_Andesite_08.png","image_id":8,"category_name":"Andesite","category":1,"distinct_rating":1.95,"distinct_type":"Bottom","item_type":"Target","rt":803,"stimulus":"Stimuli_Rocks480/I_Andesite_08.png","response":"l","trial_type":"image-keyboard-response","trial_index":187,"plugin_version":"2.1.0","time_elapsed":337550,"subject_id":"91400","group":"Group1","condition":"1_Rep","full_date":"2026-02-20T02:01:32.346Z","date":"2026-02-20","time":"02:01:32","cor_ans":true},{"trial_type":"html-keyboard-response","rt":null,"stimulus":"<p style=\"color: green; font-size: 50px; font-weight: bold;\">Correct</p>","response":null,"trial_index":188,"plugin_version":"2.1.0","time_elapsed":338051,"subject_id":"91400","group":"Group1","condition":"1_Rep","full_date":"2026-02-20T02:01:32.346Z","date":"2026-02-20","time":"02:01:32"},{"correct_response":"l","task":"test_phase","broad_category":"I","image_png":"I_Diorite_05.png","image_id":37,"category_name":"Diorite","category":3,"distinct_rating":3.08,"distinct_type":"Bottom","item_type":"Target","rt":947,"stimulus":"Stimuli_Rocks480/I_Diorite_05.png","response":"l","trial_type":"image-keyboard-response","trial_index":189,"plugin_version":"2.1.0","time_elapsed":339000,"subject_id":"91400","group":"Group1","condition":"1_Rep","full_date":"2026-02-20T02:01:32.346Z","date":"2026-02-20","time":"02:01:32","cor_ans":true},{"trial_type":"html-keyboard-response","rt":null,"stimulus":"<p style=\"color: green; font-size: 50px; font-weight: bold;\">Correct</p>","response":null,"trial_index":190,"plugin_version":"2.1.0","time_elapsed":339502,"subject_id":"91400","group":"Group1","condition":"1_Rep","full_date":"2026-02-20T02:01:32.346Z","date":"2026-02-20","time":"02:01:32"},{"correct_response":"a","task":"test_phase","broad_category":"M","image_png":"M_Phyllite_02.png","image_id":258,"category_name":"Phyllite","category":17,"distinct_rating":2.89,"distinct_type":"Bottom","item_type":"Foil","rt":933,"stimulus":"Stimuli_Rocks480/M_Phyllite_02.png","response":"a","trial_type":"image-keyboard-response","trial_index":191,"plugin_version":"2.1.0","time_elapsed":340437,"subject_id":"91400","group":"Group1","condition":"1_Rep","full_date":"2026-02-20T02:01:32.346Z","date":"2026-02-20","time":"02:01:32","cor_ans":true},{"trial_type":"html-keyboard-response","rt":null,"stimulus":"<p style=\"color: green; font-size: 50px; font-weight: bold;\">Correct</p>","response":null,"trial_index":192,"plugin_version":"2.1.0","time_elapsed":340938,"subject_id":"91400","group":"Group1","condition":"1_Rep","full_date":"2026-02-20T02:01:32.346Z","date":"2026-02-20","time":"02:01:32"},{"correct_response":"a","task":"test_phase","broad_category":"S","image_png":"S_Dolomite_07.png","image_id":391,"category_name":"Dolomite","category":25,"distinct_rating":1.73,"distinct_type":"Bottom","item_type":"Foil","rt":1039,"stimulus":"Stimuli_Rocks480/S_Dolomite_07.png","response":"l","trial_type":"image-keyboard-response","trial_index":193,"plugin_version":"2.1.0","time_elapsed":341978,"subject_id":"91400","group":"Group1","condition":"1_Rep","full_date":"2026-02-20T02:01:32.346Z","date":"2026-02-20","time":"02:01:32","cor_ans":false},{"trial_type":"html-keyboard-response","rt":null,"stimulus":"<p style=\"color: red; font-size: 50px; font-weight: bold;\">Incorrect</p>","response":null,"trial_index":194,"plugin_version":"2.1.0","time_elapsed":342479,"subject_id":"91400","group":"Group1","condition":"1_Rep","full_date":"2026-02-20T02:01:32.346Z","date":"2026-02-20","time":"02:01:32"},{"correct_response":"a","task":"test_phase","broad_category":"M","image_png":"M_Marble_02.png","image_id":226,"category_name":"Marble","category":15,"distinct_rating":3.2,"distinct_type":"Bottom","item_type":"Foil","rt":1261,"stimulus":"Stimuli_Rocks480/M_Marble_02.png","response":"l","trial_type":"image-keyboard-response","trial_index":195,"plugin_version":"2.1.0","time_elapsed":343742,"subject_id":"91400","group":"Group1","condition":"1_Rep","full_date":"2026-02-20T02:01:32.346Z","date":"2026-02-20","time":"02:01:32","cor_ans":false},{"trial_type":"html-keyboard-response","rt":null,"stimulus":"<p style=\"color: red; font-size: 50px; font-weight: bold;\">Incorrect</p>","response":null,"trial_index":196,"plugin_version":"2.1.0","time_elapsed":344243,"subject_id":"91400","group":"Group1","condition":"1_Rep","full_date":"2026-02-20T02:01:32.346Z","date":"2026-02-20","time":"02:01:32"},{"correct_response":"a","task":"test_phase","broad_category":"S","image_png":"S_Conglomerate_14.png","image_id":382,"category_name":"Conglomerate","category":24,"distinct_rating":6.86,"distinct_type":"Top","item_type":"Foil","rt":806,"stimulus":"Stimuli_Rocks480/S_Conglomerate_14.png","response":"a","trial_type":"image-keyboard-response","trial_index":197,"plugin_version":"2.1.0","time_elapsed":345051,"subject_id":"91400","group":"Group1","condition":"1_Rep","full_date":"2026-02-20T02:01:32.346Z","date":"2026-02-20","time":"02:01:32","cor_ans":true},{"trial_type":"html-keyboard-response","rt":null,"stimulus":"<p style=\"color: green; font-size: 50px; font-weight: bold;\">Correct</p>","response":null,"trial_index":198,"plugin_version":"2.1.0","time_elapsed":345552,"subject_id":"91400","group":"Group1","condition":"1_Rep","full_date":"2026-02-20T02:01:32.346Z","date":"2026-02-20","time":"02:01:32"},{"correct_response":"a","task":"test_phase","broad_category":"I","image_png":"I_Diorite_01.png","image_id":33,"category_name":"Diorite","category":3,"distinct_rating":2.97,"distinct_type":"Bottom","item_type":"Foil","rt":1320,"stimulus":"Stimuli_Rocks480/I_Diorite_01.png","response":"a","trial_type":"image-keyboard-response","trial_index":199,"plugin_version":"2.1.0","time_elapsed":346874,"subject_id":"91400","group":"Group1","condition":"1_Rep","full_date":"2026-02-20T02:01:32.346Z","date":"2026-02-20","time":"02:01:32","cor_ans":true},{"trial_type":"html-keyboard-response","rt":null,"stimulus":"<p style=\"color: green; font-size: 50px; font-weight: bold;\">Correct</p>","response":null,"trial_index":200,"plugin_version":"2.1.0","time_elapsed":347374,"subject_id":"91400","group":"Group1","condition":"1_Rep","full_date":"2026-02-20T02:01:32.346Z","date":"2026-02-20","time":"02:01:32"},{"correct_response":"l","task":"test_phase","broad_category":"M","image_png":"M_Phyllite_07.png","image_id":263,"category_name":"Phyllite","category":17,"distinct_rating":2.59,"distinct_type":"Bottom","item_type":"Target","rt":1040,"stimulus":"Stimuli_Rocks480/M_Phyllite_07.png","response":"l","trial_type":"image-keyboard-response","trial_index":201,"plugin_version":"2.1.0","time_elapsed":348417,"subject_id":"91400","group":"Group1","condition":"1_Rep","full_date":"2026-02-20T02:01:32.346Z","date":"2026-02-20","time":"02:01:32","cor_ans":true},{"trial_type":"html-keyboard-response","rt":null,"stimulus":"<p style=\"color: green; font-size: 50px; font-weight: bold;\">Correct</p>","response":null,"trial_index":202,"plugin_version":"2.1.0","time_elapsed":348917,"subject_id":"91400","group":"Group1","condition":"1_Rep","full_date":"2026-02-20T02:01:32.346Z","date":"2026-02-20","time":"02:01:32"},{"correct_response":"l","task":"test_phase","broad_category":"M","image_png":"M_Slate_11.png","image_id":315,"category_name":"Slate","category":20,"distinct_rating":2.75,"distinct_type":"Bottom","item_type":"Target","rt":1638,"stimulus":"Stimuli_Rocks480/M_Slate_11.png","response":"l","trial_type":"image-keyboard-response","trial_index":203,"plugin_version":"2.1.0","time_elapsed":350557,"subject_id":"91400","group":"Group1","condition":"1_Rep","full_date":"2026-02-20T02:01:32.346Z","date":"2026-02-20","time":"02:01:32","cor_ans":true},{"trial_type":"html-keyboard-response","rt":null,"stimulus":"<p style=\"color: green; font-size: 50px; font-weight: bold;\">Correct</p>","response":null,"trial_index":204,"plugin_version":"2.1.0","time_elapsed":351059,"subject_id":"91400","group":"Group1","condition":"1_Rep","full_date":"2026-02-20T02:01:32.346Z","date":"2026-02-20","time":"02:01:32"},{"correct_response":"l","task":"test_phase","broad_category":"M","image_png":"M_Quartzite_05.png","image_id":277,"category_name":"Quartzite","category":18,"distinct_rating":2.23,"distinct_type":"Bottom","item_type":"Target","rt":1204,"stimulus":"Stimuli_Rocks480/M_Quartzite_05.png","response":"l","trial_type":"image-keyboard-response","trial_index":205,"plugin_version":"2.1.0","time_elapsed":352265,"subject_id":"91400","group":"Group1","condition":"1_Rep","full_date":"2026-02-20T02:01:32.346Z","date":"2026-02-20","time":"02:01:32","cor_ans":true},{"trial_type":"html-keyboard-response","rt":null,"stimulus":"<p style=\"color: green; font-size: 50px; font-weight: bold;\">Correct</p>","response":null,"trial_index":206,"plugin_version":"2.1.0","time_elapsed":352766,"subject_id":"91400","group":"Group1","condition":"1_Rep","full_date":"2026-02-20T02:01:32.346Z","date":"2026-02-20","time":"02:01:32"},{"correct_response":"a","task":"test_phase","broad_category":"I","image_png":"I_Pegmatite_03.png","image_id":99,"category_name":"Pegmatite","category":7,"distinct_rating":7.24,"distinct_type":"Top","item_type":"Foil","rt":816,"stimulus":"Stimuli_Rocks480/I_Pegmatite_03.png","response":"a","trial_type":"image-keyboard-response","trial_index":207,"plugin_version":"2.1.0","time_elapsed":353584,"subject_id":"91400","group":"Group1","condition":"1_Rep","full_date":"2026-02-20T02:01:32.346Z","date":"2026-02-20","time":"02:01:32","cor_ans":true},{"trial_type":"html-keyboard-response","rt":null,"stimulus":"<p style=\"color: green; font-size: 50px; font-weight: bold;\">Correct</p>","response":null,"trial_index":208,"plugin_version":"2.1.0","time_elapsed":354085,"subject_id":"91400","group":"Group1","condition":"1_Rep","full_date":"2026-02-20T02:01:32.346Z","date":"2026-02-20","time":"02:01:32"},{"correct_response":"l","task":"test_phase","broad_category":"I","image_png":"I_Gabbro_16.png","image_id":64,"category_name":"Gabbro","category":4,"distinct_rating":2.52,"distinct_type":"Bottom","item_type":"Target","rt":1407,"stimulus":"Stimuli_Rocks480/I_Gabbro_16.png","response":"l","trial_type":"image-keyboard-response","trial_index":209,"plugin_version":"2.1.0","time_elapsed":355494,"subject_id":"91400","group":"Group1","condition":"1_Rep","full_date":"2026-02-20T02:01:32.346Z","date":"2026-02-20","time":"02:01:32","cor_ans":true},{"trial_type":"html-keyboard-response","rt":null,"stimulus":"<p style=\"color: green; font-size: 50px; font-weight: bold;\">Correct</p>","response":null,"trial_index":210,"plugin_version":"2.1.0","time_elapsed":355995,"subject_id":"91400","group":"Group1","condition":"1_Rep","full_date":"2026-02-20T02:01:32.346Z","date":"2026-02-20","time":"02:01:32"},{"correct_response":"l","task":"test_phase","broad_category":"I","image_png":"I_Pumice_12.png","image_id":140,"category_name":"Pumice","category":9,"distinct_rating":2.97,"distinct_type":"Bottom","item_type":"Target","rt":1141,"stimulus":"Stimuli_Rocks480/I_Pumice_12.png","response":"a","trial_type":"image-keyboard-response","trial_index":211,"plugin_version":"2.1.0","time_elapsed":357138,"subject_id":"91400","group":"Group1","condition":"1_Rep","full_date":"2026-02-20T02:01:32.346Z","date":"2026-02-20","time":"02:01:32","cor_ans":false},{"trial_type":"html-keyboard-response","rt":null,"stimulus":"<p style=\"color: red; font-size: 50px; font-weight: bold;\">Incorrect</p>","response":null,"trial_index":212,"plugin_version":"2.1.0","time_elapsed":357640,"subject_id":"91400","group":"Group1","condition":"1_Rep","full_date":"2026-02-20T02:01:32.346Z","date":"2026-02-20","time":"02:01:32"},{"correct_response":"l","task":"test_phase","broad_category":"M","image_png":"M_Gneiss_05.png","image_id":197,"category_name":"Gneiss","category":13,"distinct_rating":2.97,"distinct_type":"Bottom","item_type":"Target","rt":1178,"stimulus":"Stimuli_Rocks480/M_Gneiss_05.png","response":"l","trial_type":"image-keyboard-response","trial_index":213,"plugin_version":"2.1.0","time_elapsed":358820,"subject_id":"91400","group":"Group1","condition":"1_Rep","full_date":"2026-02-20T02:01:32.346Z","date":"2026-02-20","time":"02:01:32","cor_ans":true},{"trial_type":"html-keyboard-response","rt":null,"stimulus":"<p style=\"color: green; font-size: 50px; font-weight: bold;\">Correct</p>","response":null,"trial_index":214,"plugin_version":"2.1.0","time_elapsed":359321,"subject_id":"91400","group":"Group1","condition":"1_Rep","full_date":"2026-02-20T02:01:32.346Z","date":"2026-02-20","time":"02:01:32"},{"correct_response":"a","task":"test_phase","broad_category":"I","image_png":"I_Obsidian_06.png","image_id":86,"category_name":"Obsidian","category":6,"distinct_rating":8.01,"distinct_type":"Top","item_type":"Foil","rt":1170,"stimulus":"Stimuli_Rocks480/I_Obsidian_06.png","response":"a","trial_type":"image-keyboard-response","trial_index":215,"plugin_version":"2.1.0","time_elapsed":360492,"subject_id":"91400","group":"Group1","condition":"1_Rep","full_date":"2026-02-20T02:01:32.346Z","date":"2026-02-20","time":"02:01:32","cor_ans":true},{"trial_type":"html-keyboard-response","rt":null,"stimulus":"<p style=\"color: green; font-size: 50px; font-weight: bold;\">Correct</p>","response":null,"trial_index":216,"plugin_version":"2.1.0","time_elapsed":360993,"subject_id":"91400","group":"Group1","condition":"1_Rep","full_date":"2026-02-20T02:01:32.346Z","date":"2026-02-20","time":"02:01:32"},{"correct_response":"l","task":"test_phase","broad_category":"I","image_png":"I_Basalt_09.png","image_id":25,"category_name":"Basalt","category":2,"distinct_rating":1.89,"distinct_type":"Bottom","item_type":"Target","rt":4742,"stimulus":"Stimuli_Rocks480/I_Basalt_09.png","response":"l","trial_type":"image-keyboard-response","trial_index":217,"plugin_version":"2.1.0","time_elapsed":365737,"subject_id":"91400","group":"Group1","condition":"1_Rep","full_date":"2026-02-20T02:01:32.346Z","date":"2026-02-20","time":"02:01:32","cor_ans":true},{"trial_type":"html-keyboard-response","rt":null,"stimulus":"<p style=\"color: green; font-size: 50px; font-weight: bold;\">Correct</p>","response":null,"trial_index":218,"plugin_version":"2.1.0","time_elapsed":366238,"subject_id":"91400","group":"Group1","condition":"1_Rep","full_date":"2026-02-20T02:01:32.346Z","date":"2026-02-20","time":"02:01:32"},{"correct_response":"a","task":"test_phase","broad_category":"M","image_png":"M_Gneiss_15.png","image_id":207,"category_name":"Gneiss","category":13,"distinct_rating":3.11,"distinct_type":"Bottom","item_type":"Foil","rt":1033,"stimulus":"Stimuli_Rocks480/M_Gneiss_15.png","response":"a","trial_type":"image-keyboard-response","trial_index":219,"plugin_version":"2.1.0","time_elapsed":367274,"subject_id":"91400","group":"Group1","condition":"1_Rep","full_date":"2026-02-20T02:01:32.346Z","date":"2026-02-20","time":"02:01:32","cor_ans":true},{"trial_type":"html-keyboard-response","rt":null,"stimulus":"<p style=\"color: green; font-size: 50px; font-weight: bold;\">Correct</p>","response":null,"trial_index":220,"plugin_version":"2.1.0","time_elapsed":367775,"subject_id":"91400","group":"Group1","condition":"1_Rep","full_date":"2026-02-20T02:01:32.346Z","date":"2026-02-20","time":"02:01:32"},{"correct_response":"a","task":"test_phase","broad_category":"I","image_png":"I_Pumice_13.png","image_id":141,"category_name":"Pumice","category":9,"distinct_rating":3.12,"distinct_type":"Bottom","item_type":"Foil","rt":789,"stimulus":"Stimuli_Rocks480/I_Pumice_13.png","response":"a","trial_type":"image-keyboard-response","trial_index":221,"plugin_version":"2.1.0","time_elapsed":368566,"subject_id":"91400","group":"Group1","condition":"1_Rep","full_date":"2026-02-20T02:01:32.346Z","date":"2026-02-20","time":"02:01:32","cor_ans":true},{"trial_type":"html-keyboard-response","rt":null,"stimulus":"<p style=\"color: green; font-size: 50px; font-weight: bold;\">Correct</p>","response":null,"trial_index":222,"plugin_version":"2.1.0","time_elapsed":369067,"subject_id":"91400","group":"Group1","condition":"1_Rep","full_date":"2026-02-20T02:01:32.346Z","date":"2026-02-20","time":"02:01:32"},{"correct_response":"a","task":"test_phase","broad_category":"M","image_png":"M_Gneiss_10.png","image_id":202,"category_name":"Gneiss","category":13,"distinct_rating":3.09,"distinct_type":"Bottom","item_type":"Foil","rt":1005,"stimulus":"Stimuli_Rocks480/M_Gneiss_10.png","response":"l","trial_type":"image-keyboard-response","trial_index":223,"plugin_version":"2.1.0","time_elapsed":370073,"subject_id":"91400","group":"Group1","condition":"1_Rep","full_date":"2026-02-20T02:01:32.346Z","date":"2026-02-20","time":"02:01:32","cor_ans":false},{"trial_type":"html-keyboard-response","rt":null,"stimulus":"<p style=\"color: red; font-size: 50px; font-weight: bold;\">Incorrect</p>","response":null,"trial_index":224,"plugin_version":"2.1.0","time_elapsed":370574,"subject_id":"91400","group":"Group1","condition":"1_Rep","full_date":"2026-02-20T02:01:32.346Z","date":"2026-02-20","time":"02:01:32"},{"correct_response":"l","task":"test_phase","broad_category":"I","image_png":"I_