[{"width":1920,"height":1065,"webaudio":true,"browser":"chrome","browser_version":"144.0.0","mobile":false,"os":"Windows 10","fullscreen":true,"vsync_rate":60.08,"webcam":true,"microphone":true,"trial_type":"browser-check","trial_index":0,"plugin_version":"2.1.0","time_elapsed":1015,"subject_id":"92458","group":"Group2","condition":"3_Rep","full_date":"2026-02-26T21:28:11.426Z","date":"2026-02-26","time":"21:28:11"},{"success":true,"timeout":false,"failed_images":[],"failed_audio":[],"failed_video":[],"trial_type":"preload","trial_index":1,"plugin_version":"2.1.0","time_elapsed":2785,"subject_id":"92458","group":"Group2","condition":"3_Rep","full_date":"2026-02-26T21:28:11.426Z","date":"2026-02-26","time":"21:28:11"},{"rt":50904,"url":"SONA_consent_memorability.html","trial_type":"external-html","trial_index":2,"plugin_version":"2.1.0","time_elapsed":53745,"subject_id":"92458","group":"Group2","condition":"3_Rep","full_date":"2026-02-26T21:28:11.426Z","date":"2026-02-26","time":"21:28:11"},{"success":true,"rt":3051,"trial_type":"fullscreen","trial_index":3,"plugin_version":"2.1.0","time_elapsed":57819,"subject_id":"92458","group":"Group2","condition":"3_Rep","full_date":"2026-02-26T21:28:11.426Z","date":"2026-02-26","time":"21:28:11"},{"rt":69765,"stimulus":"<div style=\"max-width: 760px; margin: auto; font-size: 20px; line-height: 1.5;\">\n      <h1 style=\"text-align:center; font-size: 30px;\">Instructions</h1>\n      <p>\n        Welcome to the study on <b>visual memory</b>. This experiment consists of <b>two phases</b>: \n        a <b>study phase</b> and a <b>test phase</b>.\n      </p>\n      <p>\n        In the study phase, you will see a series of rock images along with their category labels.\n        The images will appear one at a time.\n        <b>Your task</b> is to learn the categories to which the rock images belong \n        and to remember each image as accurately as possible.\n      </p> \n      <p>\n        Note that we will repeat the study phase <b>3 times</b>, \n             so you will have multiple opportunities to see and remember each image.\n      </p>\n      <p>\n        After the study phase, <b>your memory will be tested</b>. \n        Additional instructions for the test phase will be provided at that time.\n      </p>\n      <p>\n        If your computer has multiple <b>language settings</b> (e.g., English and another language),\n        please make sure it is set to English before starting.\n      </p>\n      <p>\n        You can track your progress using the <b>completion bar</b> at the top of the screen. \n        Please note that the bar will refresh when the test phase begins \n        to give you an accurate sense of your progress in both phases.\n      </p> \n      <p>\n        Press the button below when you are ready to begin.\n      </p>\n    </div>","response":0,"trial_type":"html-button-response","trial_index":4,"plugin_version":"2.1.0","time_elapsed":127591,"subject_id":"92458","group":"Group2","condition":"3_Rep","full_date":"2026-02-26T21:28:11.426Z","date":"2026-02-26","time":"21:28:11"},{"rt":null,"stimulus":"<p style=\"font-size: 50px; margin: 0; text-align: center;\">+</p>","response":null,"trial_type":"html-keyboard-response","trial_index":5,"plugin_version":"2.1.0","time_elapsed":128612,"subject_id":"92458","group":"Group2","condition":"3_Rep","full_date":"2026-02-26T21:28:11.426Z","date":"2026-02-26","time":"21:28:11"},{"task":"memory_phase","broad_category":"I","image_png":"I_Basalt_13.png","image_id":29,"category_name":"Basalt","category":2,"distinct_rating":2.68,"distinct_type":"Bottom","rt":null,"stimulus":"Stimuli_Rocks480/I_Basalt_13.png","response":null,"trial_type":"image-keyboard-response","trial_index":6,"plugin_version":"2.1.0","time_elapsed":131138,"subject_id":"92458","group":"Group2","condition":"3_Rep","full_date":"2026-02-26T21:28:11.426Z","date":"2026-02-26","time":"21:28:11"},{"rt":null,"stimulus":"<p style=\"font-size: 50px; margin: 0; text-align: center;\">+</p>","response":null,"trial_type":"html-keyboard-response","trial_index":7,"plugin_version":"2.1.0","time_elapsed":132140,"subject_id":"92458","group":"Group2","condition":"3_Rep","full_date":"2026-02-26T21:28:11.426Z","date":"2026-02-26","time":"21:28:11"},{"task":"memory_phase","broad_category":"M","image_png":"M_Gneiss_14.png","image_id":206,"category_name":"Gneiss","category":13,"distinct_rating":3.41,"distinct_type":"Bottom","rt":null,"stimulus":"Stimuli_Rocks480/M_Gneiss_14.png","response":null,"trial_type":"image-keyboard-response","trial_index":8,"plugin_version":"2.1.0","time_elapsed":134652,"subject_id":"92458","group":"Group2","condition":"3_Rep","full_date":"2026-02-26T21:28:11.426Z","date":"2026-02-26","time":"21:28:11"},{"rt":null,"stimulus":"<p style=\"font-size: 50px; margin: 0; text-align: center;\">+</p>","response":null,"trial_type":"html-keyboard-response","trial_index":9,"plugin_version":"2.1.0","time_elapsed":135671,"subject_id":"92458","group":"Group2","condition":"3_Rep","full_date":"2026-02-26T21:28:11.426Z","date":"2026-02-26","time":"21:28:11"},{"task":"memory_phase","broad_category":"I","image_png":"I_Diorite_15.png","image_id":47,"category_name":"Diorite","category":3,"distinct_rating":3.05,"distinct_type":"Bottom","rt":null,"stimulus":"Stimuli_Rocks480/I_Diorite_15.png","response":null,"trial_type":"image-keyboard-response","trial_index":10,"plugin_version":"2.1.0","time_elapsed":138176,"subject_id":"92458","group":"Group2","condition":"3_Rep","full_date":"2026-02-26T21:28:11.426Z","date":"2026-02-26","time":"21:28:11"},{"rt":null,"stimulus":"<p style=\"font-size: 50px; margin: 0; text-align: center;\">+</p>","response":null,"trial_type":"html-keyboard-response","trial_index":11,"plugin_version":"2.1.0","time_elapsed":139188,"subject_id":"92458","group":"Group2","condition":"3_Rep","full_date":"2026-02-26T21:28:11.426Z","date":"2026-02-26","time":"21:28:11"},{"task":"memory_phase","broad_category":"M","image_png":"M_Marble_03.png","image_id":227,"category_name":"Marble","category":15,"distinct_rating":2.67,"distinct_type":"Bottom","rt":null,"stimulus":"Stimuli_Rocks480/M_Marble_03.png","response":null,"trial_type":"image-keyboard-response","trial_index":12,"plugin_version":"2.1.0","time_elapsed":141698,"subject_id":"92458","group":"Group2","condition":"3_Rep","full_date":"2026-02-26T21:28:11.426Z","date":"2026-02-26","time":"21:28:11"},{"rt":null,"stimulus":"<p style=\"font-size: 50px; margin: 0; text-align: center;\">+</p>","response":null,"trial_type":"html-keyboard-response","trial_index":13,"plugin_version":"2.1.0","time_elapsed":142717,"subject_id":"92458","group":"Group2","condition":"3_Rep","full_date":"2026-02-26T21:28:11.426Z","date":"2026-02-26","time":"21:28:11"},{"task":"memory_phase","broad_category":"M","image_png":"M_Marble_02.png","image_id":226,"category_name":"Marble","category":15,"distinct_rating":3.2,"distinct_type":"Bottom","rt":null,"stimulus":"Stimuli_Rocks480/M_Marble_02.png","response":null,"trial_type":"image-keyboard-response","trial_index":14,"plugin_version":"2.1.0","time_elapsed":145221,"subject_id":"92458","group":"Group2","condition":"3_Rep","full_date":"2026-02-26T21:28:11.426Z","date":"2026-02-26","time":"21:28:11"},{"rt":null,"stimulus":"<p style=\"font-size: 50px; margin: 0; text-align: center;\">+</p>","response":null,"trial_type":"html-keyboard-response","trial_index":15,"plugin_version":"2.1.0","time_elapsed":146232,"subject_id":"92458","group":"Group2","condition":"3_Rep","full_date":"2026-02-26T21:28:11.426Z","date":"2026-02-26","time":"21:28:11"},{"task":"memory_phase","broad_category":"S","image_png":"S_Dolomite_01.png","image_id":385,"category_name":"Dolomite","category":25,"distinct_rating":1.43,"distinct_type":"Bottom","rt":null,"stimulus":"Stimuli_Rocks480/S_Dolomite_01.png","response":null,"trial_type":"image-keyboard-response","trial_index":16,"plugin_version":"2.1.0","time_elapsed":148739,"subject_id":"92458","group":"Group2","condition":"3_Rep","full_date":"2026-02-26T21:28:11.426Z","date":"2026-02-26","time":"21:28:11"},{"rt":null,"stimulus":"<p style=\"font-size: 50px; margin: 0; text-align: center;\">+</p>","response":null,"trial_type":"html-keyboard-response","trial_index":17,"plugin_version":"2.1.0","time_elapsed":149750,"subject_id":"92458","group":"Group2","condition":"3_Rep","full_date":"2026-02-26T21:28:11.426Z","date":"2026-02-26","time":"21:28:11"},{"task":"memory_phase","broad_category":"I","image_png":"I_Pumice_13.png","image_id":141,"category_name":"Pumice","category":9,"distinct_rating":3.12,"distinct_type":"Bottom","rt":null,"stimulus":"Stimuli_Rocks480/I_Pumice_13.png","response":null,"trial_type":"image-keyboard-response","trial_index":18,"plugin_version":"2.1.0","time_elapsed":152255,"subject_id":"92458","group":"Group2","condition":"3_Rep","full_date":"2026-02-26T21:28:11.426Z","date":"2026-02-26","time":"21:28:11"},{"rt":null,"stimulus":"<p style=\"font-size: 50px; margin: 0; text-align: center;\">+</p>","response":null,"trial_type":"html-keyboard-response","trial_index":19,"plugin_version":"2.1.0","time_elapsed":153270,"subject_id":"92458","group":"Group2","condition":"3_Rep","full_date":"2026-02-26T21:28:11.426Z","date":"2026-02-26","time":"21:28:11"},{"task":"memory_phase","broad_category":"I","image_png":"I_Pegmatite_03.png","image_id":99,"category_name":"Pegmatite","category":7,"distinct_rating":7.24,"distinct_type":"Top","rt":null,"stimulus":"Stimuli_Rocks480/I_Pegmatite_03.png","response":null,"trial_type":"image-keyboard-response","trial_index":20,"plugin_version":"2.1.0","time_elapsed":155773,"subject_id":"92458","group":"Group2","condition":"3_Rep","full_date":"2026-02-26T21:28:11.426Z","date":"2026-02-26","time":"21:28:11"},{"rt":null,"stimulus":"<p style=\"font-size: 50px; margin: 0; text-align: center;\">+</p>","response":null,"trial_type":"html-keyboard-response","trial_index":21,"plugin_version":"2.1.0","time_elapsed":156790,"subject_id":"92458","group":"Group2","condition":"3_Rep","full_date":"2026-02-26T21:28:11.426Z","date":"2026-02-26","time":"21:28:11"},{"task":"memory_phase","broad_category":"S","image_png":"S_Shale_02.png","image_id":466,"category_name":"Shale","category":30,"distinct_rating":2.9,"distinct_type":"Bottom","rt":null,"stimulus":"Stimuli_Rocks480/S_Shale_02.png","response":null,"trial_type":"image-keyboard-response","trial_index":22,"plugin_version":"2.1.0","time_elapsed":159294,"subject_id":"92458","group":"Group2","condition":"3_Rep","full_date":"2026-02-26T21:28:11.426Z","date":"2026-02-26","time":"21:28:11"},{"rt":null,"stimulus":"<p style=\"font-size: 50px; margin: 0; text-align: center;\">+</p>","response":null,"trial_type":"html-keyboard-response","trial_index":23,"plugin_version":"2.1.0","time_elapsed":160318,"subject_id":"92458","group":"Group2","condition":"3_Rep","full_date":"2026-02-26T21:28:11.426Z","date":"2026-02-26","time":"21:28:11"},{"task":"memory_phase","broad_category":"S","image_png":"S_Sandstone_04.png","image_id":452,"category_name":"Sandstone","category":29,"distinct_rating":1.8,"distinct_type":"Bottom","rt":null,"stimulus":"Stimuli_Rocks480/S_Sandstone_04.png","response":null,"trial_type":"image-keyboard-response","trial_index":24,"plugin_version":"2.1.0","time_elapsed":162828,"subject_id":"92458","group":"Group2","condition":"3_Rep","full_date":"2026-02-26T21:28:11.426Z","date":"2026-02-26","time":"21:28:11"},{"rt":null,"stimulus":"<p style=\"font-size: 50px; margin: 0; text-align: center;\">+</p>","response":null,"trial_type":"html-keyboard-response","trial_index":25,"plugin_version":"2.1.0","time_elapsed":163832,"subject_id":"92458","group":"Group2","condition":"3_Rep","full_date":"2026-02-26T21:28:11.426Z","date":"2026-02-26","time":"21:28:11"},{"task":"memory_phase","broad_category":"I","image_png":"I_Diorite_01.png","image_id":33,"category_name":"Diorite","category":3,"distinct_rating":2.97,"distinct_type":"Bottom","rt":null,"stimulus":"Stimuli_Rocks480/I_Diorite_01.png","response":null,"trial_type":"image-keyboard-response","trial_index":26,"plugin_version":"2.1.0","time_elapsed":166341,"subject_id":"92458","group":"Group2","condition":"3_Rep","full_date":"2026-02-26T21:28:11.426Z","date":"2026-02-26","time":"21:28:11"},{"rt":null,"stimulus":"<p style=\"font-size: 50px; margin: 0; text-align: center;\">+</p>","response":null,"trial_type":"html-keyboard-response","trial_index":27,"plugin_version":"2.1.0","time_elapsed":167359,"subject_id":"92458","group":"Group2","condition":"3_Rep","full_date":"2026-02-26T21:28:11.426Z","date":"2026-02-26","time":"21:28:11"},{"task":"memory_phase","broad_category":"M","image_png":"M_Gneiss_10.png","image_id":202,"category_name":"Gneiss","category":13,"distinct_rating":3.09,"distinct_type":"Bottom","rt":null,"stimulus":"Stimuli_Rocks480/M_Gneiss_10.png","response":null,"trial_type":"image-keyboard-response","trial_index":28,"plugin_version":"2.1.0","time_elapsed":169874,"subject_id":"92458","group":"Group2","condition":"3_Rep","full_date":"2026-02-26T21:28:11.426Z","date":"2026-02-26","time":"21:28:11"},{"rt":null,"stimulus":"<p style=\"font-size: 50px; margin: 0; text-align: center;\">+</p>","response":null,"trial_type":"html-keyboard-response","trial_index":29,"plugin_version":"2.1.0","time_elapsed":170893,"subject_id":"92458","group":"Group2","condition":"3_Rep","full_date":"2026-02-26T21:28:11.426Z","date":"2026-02-26","time":"21:28:11"},{"task":"memory_phase","broad_category":"S","image_png":"S_Sandstone_08.png","image_id":456,"category_name":"Sandstone","category":29,"distinct_rating":1.5,"distinct_type":"Bottom","rt":null,"stimulus":"Stimuli_Rocks480/S_Sandstone_08.png","response":null,"trial_type":"image-keyboard-response","trial_index":30,"plugin_version":"2.1.0","time_elapsed":173405,"subject_id":"92458","group":"Group2","condition":"3_Rep","full_date":"2026-02-26T21:28:11.426Z","date":"2026-02-26","time":"21:28:11"},{"rt":null,"stimulus":"<p style=\"font-size: 50px; margin: 0; text-align: center;\">+</p>","response":null,"trial_type":"html-keyboard-response","trial_index":31,"plugin_version":"2.1.0","time_elapsed":174413,"subject_id":"92458","group":"Group2","condition":"3_Rep","full_date":"2026-02-26T21:28:11.426Z","date":"2026-02-26","time":"21:28:11"},{"task":"memory_phase","broad_category":"S","image_png":"S_Sandstone_11.png","image_id":459,"category_name":"Sandstone","category":29,"distinct_rating":1.82,"distinct_type":"Bottom","rt":null,"stimulus":"Stimuli_Rocks480/S_Sandstone_11.png","response":null,"trial_type":"image-keyboard-response","trial_index":32,"plugin_version":"2.1.0","time_elapsed":176916,"subject_id":"92458","group":"Group2","condition":"3_Rep","full_date":"2026-02-26T21:28:11.426Z","date":"2026-02-26","time":"21:28:11"},{"rt":null,"stimulus":"<p style=\"font-size: 50px; margin: 0; text-align: center;\">+</p>","response":null,"trial_type":"html-keyboard-response","trial_index":33,"plugin_version":"2.1.0","time_elapsed":177922,"subject_id":"92458","group":"Group2","condition":"3_Rep","full_date":"2026-02-26T21:28:11.426Z","date":"2026-02-26","time":"21:28:11"},{"task":"memory_phase","broad_category":"M","image_png":"M_Quartzite_07.png","image_id":279,"category_name":"Quartzite","category":18,"distinct_rating":1.97,"distinct_type":"Bottom","rt":null,"stimulus":"Stimuli_Rocks480/M_Quartzite_07.png","response":null,"trial_type":"image-keyboard-response","trial_index":34,"plugin_version":"2.1.0","time_elapsed":180442,"subject_id":"92458","group":"Group2","condition":"3_Rep","full_date":"2026-02-26T21:28:11.426Z","date":"2026-02-26","time":"21:28:11"},{"rt":null,"stimulus":"<p style=\"font-size: 50px; margin: 0; text-align: center;\">+</p>","response":null,"trial_type":"html-keyboard-response","trial_index":35,"plugin_version":"2.1.0","time_elapsed":181460,"subject_id":"92458","group":"Group2","condition":"3_Rep","full_date":"2026-02-26T21:28:11.426Z","date":"2026-02-26","time":"21:28:11"},{"task":"memory_phase","broad_category":"I","image_png":"I_Basalt_10.png","image_id":26,"category_name":"Basalt","category":2,"distinct_rating":2.76,"distinct_type":"Bottom","rt":null,"stimulus":"Stimuli_Rocks480/I_Basalt_10.png","response":null,"trial_type":"image-keyboard-response","trial_index":36,"plugin_version":"2.1.0","time_elapsed":183964,"subject_id":"92458","group":"Group2","condition":"3_Rep","full_date":"2026-02-26T21:28:11.426Z","date":"2026-02-26","time":"21:28:11"},{"rt":null,"stimulus":"<p style=\"font-size: 50px; margin: 0; text-align: center;\">+</p>","response":null,"trial_type":"html-keyboard-response","trial_index":37,"plugin_version":"2.1.0","time_elapsed":184973,"subject_id":"92458","group":"Group2","condition":"3_Rep","full_date":"2026-02-26T21:28:11.426Z","date":"2026-02-26","time":"21:28:11"},{"task":"memory_phase","broad_category":"M","image_png":"M_Marble_14.png","image_id":238,"category_name":"Marble","category":15,"distinct_rating":3.31,"distinct_type":"Bottom","rt":null,"stimulus":"Stimuli_Rocks480/M_Marble_14.png","response":null,"trial_type":"image-keyboard-response","trial_index":38,"plugin_version":"2.1.0","time_elapsed":187486,"subject_id":"92458","group":"Group2","condition":"3_Rep","full_date":"2026-02-26T21:28:11.426Z","date":"2026-02-26","time":"21:28:11"},{"rt":null,"stimulus":"<p style=\"font-size: 50px; margin: 0; text-align: center;\">+</p>","response":null,"trial_type":"html-keyboard-response","trial_index":39,"plugin_version":"2.1.0","time_elapsed":188501,"subject_id":"92458","group":"Group2","condition":"3_Rep","full_date":"2026-02-26T21:28:11.426Z","date":"2026-02-26","time":"21:28:11"},{"task":"memory_phase","broad_category":"I","image_png":"I_Diorite_10.png","image_id":42,"category_name":"Diorite","category":3,"distinct_rating":2.84,"distinct_type":"Bottom","rt":null,"stimulus":"Stimuli_Rocks480/I_Diorite_10.png","response":null,"trial_type":"image-keyboard-response","trial_index":40,"plugin_version":"2.1.0","time_elapsed":191005,"subject_id":"92458","group":"Group2","condition":"3_Rep","full_date":"2026-02-26T21:28:11.426Z","date":"2026-02-26","time":"21:28:11"},{"rt":null,"stimulus":"<p style=\"font-size: 50px; margin: 0; text-align: center;\">+</p>","response":null,"trial_type":"html-keyboard-response","trial_index":41,"plugin_version":"2.1.0","time_elapsed":192017,"subject_id":"92458","group":"Group2","condition":"3_Rep","full_date":"2026-02-26T21:28:11.426Z","date":"2026-02-26","time":"21:28:11"},{"task":"memory_phase","broad_category":"M","image_png":"M_Phyllite_05.png","image_id":261,"category_name":"Phyllite","category":17,"distinct_rating":2.14,"distinct_type":"Bottom","rt":null,"stimulus":"Stimuli_Rocks480/M_Phyllite_05.png","response":null,"trial_type":"image-keyboard-response","trial_index":42,"plugin_version":"2.1.0","time_elapsed":194533,"subject_id":"92458","group":"Group2","condition":"3_Rep","full_date":"2026-02-26T21:28:11.426Z","date":"2026-02-26","time":"21:28:11"},{"rt":null,"stimulus":"<p style=\"font-size: 50px; margin: 0; text-align: center;\">+</p>","response":null,"trial_type":"html-keyboard-response","trial_index":43,"plugin_version":"2.1.0","time_elapsed":195543,"subject_id":"92458","group":"Group2","condition":"3_Rep","full_date":"2026-02-26T21:28:11.426Z","date":"2026-02-26","time":"21:28:11"},{"task":"memory_phase","broad_category":"I","image_png":"I_Rhyolite_10.png","image_id":154,"category_name":"Rhyolite","category":10,"distinct_rating":2.88,"distinct_type":"Bottom","rt":null,"stimulus":"Stimuli_Rocks480/I_Rhyolite_10.png","response":null,"trial_type":"image-keyboard-response","trial_index":44,"plugin_version":"2.1.0","time_elapsed":198061,"subject_id":"92458","group":"Group2","condition":"3_Rep","full_date":"2026-02-26T21:28:11.426Z","date":"2026-02-26","time":"21:28:11"},{"rt":null,"stimulus":"<p style=\"font-size: 50px; margin: 0; text-align: center;\">+</p>","response":null,"trial_type":"html-keyboard-response","trial_index":45,"plugin_version":"2.1.0","time_elapsed":199068,"subject_id":"92458","group":"Group2","condition":"3_Rep","full_date":"2026-02-26T21:28:11.426Z","date":"2026-02-26","time":"21:28:11"},{"task":"memory_phase","broad_category":"I","image_png":"I_Andesite_09.png","image_id":9,"category_name":"Andesite","category":1,"distinct_rating":2.49,"distinct_type":"Bottom","rt":null,"stimulus":"Stimuli_Rocks480/I_Andesite_09.png","response":null,"trial_type":"image-keyboard-response","trial_index":46,"plugin_version":"2.1.0","time_elapsed":201581,"subject_id":"92458","group":"Group2","condition":"3_Rep","full_date":"2026-02-26T21:28:11.426Z","date":"2026-02-26","time":"21:28:11"},{"rt":null,"stimulus":"<p style=\"font-size: 50px; margin: 0; text-align: center;\">+</p>","response":null,"trial_type":"html-keyboard-response","trial_index":47,"plugin_version":"2.1.0","time_elapsed":202592,"subject_id":"92458","group":"Group2","condition":"3_Rep","full_date":"2026-02-26T21:28:11.426Z","date":"2026-02-26","time":"21:28:11"},{"task":"memory_phase","broad_category":"I","image_png":"I_Gabbro_12.png","image_id":60,"category_name":"Gabbro","category":4,"distinct_rating":2.6,"distinct_type":"Bottom","rt":null,"stimulus":"Stimuli_Rocks480/I_Gabbro_12.png","response":null,"trial_type":"image-keyboard-response","trial_index":48,"plugin_version":"2.1.0","time_elapsed":205106,"subject_id":"92458","group":"Group2","condition":"3_Rep","full_date":"2026-02-26T21:28:11.426Z","date":"2026-02-26","time":"21:28:11"},{"rt":null,"stimulus":"<p style=\"font-size: 50px; margin: 0; text-align: center;\">+</p>","response":null,"trial_type":"html-keyboard-response","trial_index":49,"plugin_version":"2.1.0","time_elapsed":206113,"subject_id":"92458","group":"Group2","condition":"3_Rep","full_date":"2026-02-26T21:28:11.426Z","date":"2026-02-26","time":"21:28:11"},{"task":"memory_phase","broad_category":"I","image_png":"I_Gabbro_02.png","image_id":50,"category_name":"Gabbro","category":4,"distinct_rating":2.73,"distinct_type":"Bottom","rt":null,"stimulus":"Stimuli_Rocks480/I_Gabbro_02.png","response":null,"trial_type":"image-keyboard-response","trial_index":50,"plugin_version":"2.1.0","time_elapsed":208629,"subject_id":"92458","group":"Group2","condition":"3_Rep","full_date":"2026-02-26T21:28:11.426Z","date":"2026-02-26","time":"21:28:11"},{"rt":null,"stimulus":"<p style=\"font-size: 50px; margin: 0; text-align: center;\">+</p>","response":null,"trial_type":"html-keyboard-response","trial_index":51,"plugin_version":"2.1.0","time_elapsed":209641,"subject_id":"92458","group":"Group2","condition":"3_Rep","full_date":"2026-02-26T21:28:11.426Z","date":"2026-02-26","time":"21:28:11"},{"task":"memory_phase","broad_category":"M","image_png":"M_Slate_04.png","image_id":308,"category_name":"Slate","category":20,"distinct_rating":2.2,"distinct_type":"Bottom","rt":null,"stimulus":"Stimuli_Rocks480/M_Slate_04.png","response":null,"trial_type":"image-keyboard-response","trial_index":52,"plugin_version":"2.1.0","time_elapsed":212156,"subject_id":"92458","group":"Group2","condition":"3_Rep","full_date":"2026-02-26T21:28:11.426Z","date":"2026-02-26","time":"21:28:11"},{"rt":null,"stimulus":"<p style=\"font-size: 50px; margin: 0; text-align: center;\">+</p>","response":null,"trial_type":"html-keyboard-response","trial_index":53,"plugin_version":"2.1.0","time_elapsed":213173,"subject_id":"92458","group":"Group2","condition":"3_Rep","full_date":"2026-02-26T21:28:11.426Z","date":"2026-02-26","time":"21:28:11"},{"task":"memory_phase","broad_category":"S","image_png":"S_Dolomite_07.png","image_id":391,"category_name":"Dolomite","category":25,"distinct_rating":1.73,"distinct_type":"Bottom","rt":null,"stimulus":"Stimuli_Rocks480/S_Dolomite_07.png","response":null,"trial_type":"image-keyboard-response","trial_index":54,"plugin_version":"2.1.0","time_elapsed":215680,"subject_id":"92458","group":"Group2","condition":"3_Rep","full_date":"2026-02-26T21:28:11.426Z","date":"2026-02-26","time":"21:28:11"},{"rt":2115,"stimulus":"<p style=\"max-width: 760px; margin: auto; font-size: 35px; line-height: 1.5;\">\n                Press SPACE to continue study phase\n              </p>","response":" ","trial_type":"html-keyboard-response","trial_index":55,"plugin_version":"2.1.0","time_elapsed":217797,"subject_id":"92458","group":"Group2","condition":"3_Rep","full_date":"2026-02-26T21:28:11.426Z","date":"2026-02-26","time":"21:28:11"},{"rt":null,"stimulus":"<p style=\"font-size: 50px; margin: 0; text-align: center;\">+</p>","response":null,"trial_type":"html-keyboard-response","trial_index":56,"plugin_version":"2.1.0","time_elapsed":218806,"subject_id":"92458","group":"Group2","condition":"3_Rep","full_date":"2026-02-26T21:28:11.426Z","date":"2026-02-26","time":"21:28:11"},{"task":"memory_phase","broad_category":"S","image_png":"S_Shale_03.png","image_id":467,"category_name":"Shale","category":30,"distinct_rating":1.95,"distinct_type":"Bottom","rt":null,"stimulus":"Stimuli_Rocks480/S_Shale_03.png","response":null,"trial_type":"image-keyboard-response","trial_index":57,"plugin_version":"2.1.0","time_elapsed":221318,"subject_id":"92458","group":"Group2","condition":"3_Rep","full_date":"2026-02-26T21:28:11.426Z","date":"2026-02-26","time":"21:28:11"},{"rt":null,"stimulus":"<p style=\"font-size: 50px; margin: 0; text-align: center;\">+</p>","response":null,"trial_type":"html-keyboard-response","trial_index":58,"plugin_version":"2.1.0","time_elapsed":222328,"subject_id":"92458","group":"Group2","condition":"3_Rep","full_date":"2026-02-26T21:28:11.426Z","date":"2026-02-26","time":"21:28:11"},{"task":"memory_phase","broad_category":"M","image_png":"M_Quartzite_15.png","image_id":287,"category_name":"Quartzite","category":18,"distinct_rating":2.19,"distinct_type":"Bottom","rt":null,"stimulus":"Stimuli_Rocks480/M_Quartzite_15.png","response":null,"trial_type":"image-keyboard-response","trial_index":59,"plugin_version":"2.1.0","time_elapsed":224847,"subject_id":"92458","group":"Group2","condition":"3_Rep","full_date":"2026-02-26T21:28:11.426Z","date":"2026-02-26","time":"21:28:11"},{"rt":null,"stimulus":"<p style=\"font-size: 50px; margin: 0; text-align: center;\">+</p>","response":null,"trial_type":"html-keyboard-response","trial_index":60,"plugin_version":"2.1.0","time_elapsed":225858,"subject_id":"92458","group":"Group2","condition":"3_Rep","full_date":"2026-02-26T21:28:11.426Z","date":"2026-02-26","time":"21:28:11"},{"task":"memory_phase","broad_category":"I","image_png":"I_Obsidian_06.png","image_id":86,"category_name":"Obsidian","category":6,"distinct_rating":8.01,"distinct_type":"Top","rt":null,"stimulus":"Stimuli_Rocks480/I_Obsidian_06.png","response":null,"trial_type":"image-keyboard-response","trial_index":61,"plugin_version":"2.1.0","time_elapsed":228370,"subject_id":"92458","group":"Group2","condition":"3_Rep","full_date":"2026-02-26T21:28:11.426Z","date":"2026-02-26","time":"21:28:11"},{"rt":null,"stimulus":"<p style=\"font-size: 50px; margin: 0; text-align: center;\">+</p>","response":null,"trial_type":"html-keyboard-response","trial_index":62,"plugin_version":"2.1.0","time_elapsed":229381,"subject_id":"92458","group":"Group2","condition":"3_Rep","full_date":"2026-02-26T21:28:11.426Z","date":"2026-02-26","time":"21:28:11"},{"task":"memory_phase","broad_category":"I","image_png":"I_Basalt_08.png","image_id":24,"category_name":"Basalt","category":2,"distinct_rating":2.31,"distinct_type":"Bottom","rt":null,"stimulus":"Stimuli_Rocks480/I_Basalt_08.png","response":null,"trial_type":"image-keyboard-response","trial_index":63,"plugin_version":"2.1.0","time_elapsed":231891,"subject_id":"92458","group":"Group2","condition":"3_Rep","full_date":"2026-02-26T21:28:11.426Z","date":"2026-02-26","time":"21:28:11"},{"rt":null,"stimulus":"<p style=\"font-size: 50px; margin: 0; text-align: center;\">+</p>","response":null,"trial_type":"html-keyboard-response","trial_index":64,"plugin_version":"2.1.0","time_elapsed":232901,"subject_id":"92458","group":"Group2","condition":"3_Rep","full_date":"2026-02-26T21:28:11.426Z","date":"2026-02-26","time":"21:28:11"},{"task":"memory_phase","broad_category":"M","image_png":"M_Phyllite_02.png","image_id":258,"category_name":"Phyllite","category":17,"distinct_rating":2.89,"distinct_type":"Bottom","rt":null,"stimulus":"Stimuli_Rocks480/M_Phyllite_02.png","response":null,"trial_type":"image-keyboard-response","trial_index":65,"plugin_version":"2.1.0","time_elapsed":235414,"subject_id":"92458","group":"Group2","condition":"3_Rep","full_date":"2026-02-26T21:28:11.426Z","date":"2026-02-26","time":"21:28:11"},{"rt":null,"stimulus":"<p style=\"font-size: 50px; margin: 0; text-align: center;\">+</p>","response":null,"trial_type":"html-keyboard-response","trial_index":66,"plugin_version":"2.1.0","time_elapsed":236435,"subject_id":"92458","group":"Group2","condition":"3_Rep","full_date":"2026-02-26T21:28:11.426Z","date":"2026-02-26","time":"21:28:11"},{"task":"memory_phase","broad_category":"M","image_png":"M_Gneiss_15.png","image_id":207,"category_name":"Gneiss","category":13,"distinct_rating":3.11,"distinct_type":"Bottom","rt":null,"stimulus":"Stimuli_Rocks480/M_Gneiss_15.png","response":null,"trial_type":"image-keyboard-response","trial_index":67,"plugin_version":"2.1.0","time_elapsed":238943,"subject_id":"92458","group":"Group2","condition":"3_Rep","full_date":"2026-02-26T21:28:11.426Z","date":"2026-02-26","time":"21:28:11"},{"rt":null,"stimulus":"<p style=\"font-size: 50px; margin: 0; text-align: center;\">+</p>","response":null,"trial_type":"html-keyboard-response","trial_index":68,"plugin_version":"2.1.0","time_elapsed":239954,"subject_id":"92458","group":"Group2","condition":"3_Rep","full_date":"2026-02-26T21:28:11.426Z","date":"2026-02-26","time":"21:28:11"},{"task":"memory_phase","broad_category":"S","image_png":"S_Chert_13.png","image_id":365,"category_name":"Chert","category":23,"distinct_rating":6.57,"distinct_type":"Top","rt":null,"stimulus":"Stimuli_Rocks480/S_Chert_13.png","response":null,"trial_type":"image-keyboard-response","trial_index":69,"plugin_version":"2.1.0","time_elapsed":242461,"subject_id":"92458","group":"Group2","condition":"3_Rep","full_date":"2026-02-26T21:28:11.426Z","date":"2026-02-26","time":"21:28:11"},{"rt":null,"stimulus":"<p style=\"font-size: 50px; margin: 0; text-align: center;\">+</p>","response":null,"trial_type":"html-keyboard-response","trial_index":70,"plugin_version":"2.1.0","time_elapsed":243478,"subject_id":"92458","group":"Group2","condition":"3_Rep","full_date":"2026-02-26T21:28:11.426Z","date":"2026-02-26","time":"21:28:11"},{"task":"memory_phase","broad_category":"I","image_png":"I_Andesite_03.png","image_id":3,"category_name":"Andesite","category":1,"distinct_rating":3.17,"distinct_type":"Bottom","rt":null,"stimulus":"Stimuli_Rocks480/I_Andesite_03.png","response":null,"trial_type":"image-keyboard-response","trial_index":71,"plugin_version":"2.1.0","time_elapsed":245990,"subject_id":"92458","group":"Group2","condition":"3_Rep","full_date":"2026-02-26T21:28:11.426Z","date":"2026-02-26","time":"21:28:11"},{"rt":null,"stimulus":"<p style=\"font-size: 50px; margin: 0; text-align: center;\">+</p>","response":null,"trial_type":"html-keyboard-response","trial_index":72,"plugin_version":"2.1.0","time_elapsed":247005,"subject_id":"92458","group":"Group2","condition":"3_Rep","full_date":"2026-02-26T21:28:11.426Z","date":"2026-02-26","time":"21:28:11"},{"task":"memory_phase","broad_category":"I","image_png":"I_Gabbro_14.png","image_id":62,"category_name":"Gabbro","category":4,"distinct_rating":2.95,"distinct_type":"Bottom","rt":null,"stimulus":"Stimuli_Rocks480/I_Gabbro_14.png","response":null,"trial_type":"image-keyboard-response","trial_index":73,"plugin_version":"2.1.0","time_elapsed":249509,"subject_id":"92458","group":"Group2","condition":"3_Rep","full_date":"2026-02-26T21:28:11.426Z","date":"2026-02-26","time":"21:28:11"},{"rt":null,"stimulus":"<p style=\"font-size: 50px; margin: 0; text-align: center;\">+</p>","response":null,"trial_type":"html-keyboard-response","trial_index":74,"plugin_version":"2.1.0","time_elapsed":250524,"subject_id":"92458","group":"Group2","condition":"3_Rep","full_date":"2026-02-26T21:28:11.426Z","date":"2026-02-26","time":"21:28:11"},{"task":"memory_phase","broad_category":"I","image_png":"I_Andesite_04.png","image_id":4,"category_name":"Andesite","category":1,"distinct_rating":3.18,"distinct_type":"Bottom","rt":null,"stimulus":"Stimuli_Rocks480/I_Andesite_04.png","response":null,"trial_type":"image-keyboard-response","trial_index":75,"plugin_version":"2.1.0","time_elapsed":253034,"subject_id":"92458","group":"Group2","condition":"3_Rep","full_date":"2026-02-26T21:28:11.426Z","date":"2026-02-26","time":"21:28:11"},{"rt":null,"stimulus":"<p style=\"font-size: 50px; margin: 0; text-align: center;\">+</p>","response":null,"trial_type":"html-keyboard-response","trial_index":76,"plugin_version":"2.1.0","time_elapsed":254052,"subject_id":"92458","group":"Group2","condition":"3_Rep","full_date":"2026-02-26T21:28:11.426Z","date":"2026-02-26","time":"21:28:11"},{"task":"memory_phase","broad_category":"M","image_png":"M_Slate_14.png","image_id":318,"category_name":"Slate","category":20,"distinct_rating":2.58,"distinct_type":"Bottom","rt":null,"stimulus":"Stimuli_Rocks480/M_Slate_14.png","response":null,"trial_type":"image-keyboard-response","trial_index":77,"plugin_version":"2.1.0","time_elapsed":256569,"subject_id":"92458","group":"Group2","condition":"3_Rep","full_date":"2026-02-26T21:28:11.426Z","date":"2026-02-26","time":"21:28:11"},{"rt":null,"stimulus":"<p style=\"font-size: 50px; margin: 0; text-align: center;\">+</p>","response":null,"trial_type":"html-keyboard-response","trial_index":78,"plugin_version":"2.1.0","time_elapsed":257583,"subject_id":"92458","group":"Group2","condition":"3_Rep","full_date":"2026-02-26T21:28:11.426Z","date":"2026-02-26","time":"21:28:11"},{"task":"memory_phase","broad_category":"I","image_png":"I_Pumice_14.png","image_id":142,"category_name":"Pumice","category":9,"distinct_rating":3.22,"distinct_type":"Bottom","rt":null,"stimulus":"Stimuli_Rocks480/I_Pumice_14.png","response":null,"trial_type":"image-keyboard-response","trial_index":79,"plugin_version":"2.1.0","time_elapsed":260089,"subject_id":"92458","group":"Group2","condition":"3_Rep","full_date":"2026-02-26T21:28:11.426Z","date":"2026-02-26","time":"21:28:11"},{"rt":null,"stimulus":"<p style=\"font-size: 50px; margin: 0; text-align: center;\">+</p>","response":null,"trial_type":"html-keyboard-response","trial_index":80,"plugin_version":"2.1.0","time_elapsed":261092,"subject_id":"92458","group":"Group2","condition":"3_Rep","full_date":"2026-02-26T21:28:11.426Z","date":"2026-02-26","time":"21:28:11"},{"task":"memory_phase","broad_category":"S","image_png":"S_Dolomite_16.png","image_id":400,"category_name":"Dolomite","category":25,"distinct_rating":1.71,"distinct_type":"Bottom","rt":null,"stimulus":"Stimuli_Rocks480/S_Dolomite_16.png","response":null,"trial_type":"image-keyboard-response","trial_index":81,"plugin_version":"2.1.0","time_elapsed":263609,"subject_id":"92458","group":"Group2","condition":"3_Rep","full_date":"2026-02-26T21:28:11.426Z","date":"2026-02-26","time":"21:28:11"},{"rt":null,"stimulus":"<p style=\"font-size: 50px; margin: 0; text-align: center;\">+</p>","response":null,"trial_type":"html-keyboard-response","trial_index":82,"plugin_version":"2.1.0","time_elapsed":264625,"subject_id":"92458","group":"Group2","condition":"3_Rep","full_date":"2026-02-26T21:28:11.426Z","date":"2026-02-26","time":"21:28:11"},{"task":"memory_phase","broad_category":"I","image_png":"I_Rhyolite_08.png","image_id":152,"category_name":"Rhyolite","category":10,"distinct_rating":1.38,"distinct_type":"Bottom","rt":null,"stimulus":"Stimuli_Rocks480/I_Rhyolite_08.png","response":null,"trial_type":"image-keyboard-response","trial_index":83,"plugin_version":"2.1.0","time_elapsed":267142,"subject_id":"92458","group":"Group2","condition":"3_Rep","full_date":"2026-02-26T21:28:11.426Z","date":"2026-02-26","time":"21:28:11"},{"rt":null,"stimulus":"<p style=\"font-size: 50px; margin: 0; text-align: center;\">+</p>","response":null,"trial_type":"html-keyboard-response","trial_index":84,"plugin_version":"2.1.0","time_elapsed":268158,"subject_id":"92458","group":"Group2","condition":"3_Rep","full_date":"2026-02-26T21:28:11.426Z","date":"2026-02-26","time":"21:28:11"},{"task":"memory_phase","broad_category":"M","image_png":"M_Slate_10.png","image_id":314,"category_name":"Slate","category":20,"distinct_rating":1.94,"distinct_type":"Bottom","rt":null,"stimulus":"Stimuli_Rocks480/M_Slate_10.png","response":null,"trial_type":"image-keyboard-response","trial_index":85,"plugin_version":"2.1.0","time_elapsed":270677,"subject_id":"92458","group":"Group2","condition":"3_Rep","full_date":"2026-02-26T21:28:11.426Z","date":"2026-02-26","time":"21:28:11"},{"rt":null,"stimulus":"<p style=\"font-size: 50px; margin: 0; text-align: center;\">+</p>","response":null,"trial_type":"html-keyboard-response","trial_index":86,"plugin_version":"2.1.0","time_elapsed":271692,"subject_id":"92458","group":"Group2","condition":"3_Rep","full_date":"2026-02-26T21:28:11.426Z","date":"2026-02-26","time":"21:28:11"},{"task":"memory_phase","broad_category":"M","image_png":"M_Quartzite_12.png","image_id":284,"category_name":"Quartzite","category":18,"distinct_rating":1.92,"distinct_type":"Bottom","rt":null,"stimulus":"Stimuli_Rocks480/M_Quartzite_12.png","response":null,"trial_type":"image-keyboard-response","trial_index":87,"plugin_version":"2.1.0","time_elapsed":274201,"subject_id":"92458","group":"Group2","condition":"3_Rep","full_date":"2026-02-26T21:28:11.426Z","date":"2026-02-26","time":"21:28:11"},{"rt":null,"stimulus":"<p style=\"font-size: 50px; margin: 0; text-align: center;\">+</p>","response":null,"trial_type":"html-keyboard-response","trial_index":88,"plugin_version":"2.1.0","time_elapsed":275212,"subject_id":"92458","group":"Group2","condition":"3_Rep","full_date":"2026-02-26T21:28:11.426Z","date":"2026-02-26","time":"21:28:11"},{"task":"memory_phase","broad_category":"I","image_png":"I_Rhyolite_05.png","image_id":149,"category_name":"Rhyolite","category":10,"distinct_rating":3.02,"distinct_type":"Bottom","rt":null,"stimulus":"Stimuli_Rocks480/I_Rhyolite_05.png","response":null,"trial_type":"image-keyboard-response","trial_index":89,"plugin_version":"2.1.0","time_elapsed":277723,"subject_id":"92458","group":"Group2","condition":"3_Rep","full_date":"2026-02-26T21:28:11.426Z","date":"2026-02-26","time":"21:28:11"},{"rt":null,"stimulus":"<p style=\"font-size: 50px; margin: 0; text-align: center;\">+</p>","response":null,"trial_type":"html-keyboard-response","trial_index":90,"plugin_version":"2.1.0","time_elapsed":278737,"subject_id":"92458","group":"Group2","condition":"3_Rep","full_date":"2026-02-26T21:28:11.426Z","date":"2026-02-26","time":"21:28:11"},{"task":"memory_phase","broad_category":"S","image_png":"S_Conglomerate_14.png","image_id":382,"category_name":"Conglomerate","category":24,"distinct_rating":6.86,"distinct_type":"Top","rt":null,"stimulus":"Stimuli_Rocks480/S_Conglomerate_14.png","response":null,"trial_type":"image-keyboard-response","trial_index":91,"plugin_version":"2.1.0","time_elapsed":281246,"subject_id":"92458","group":"Group2","condition":"3_Rep","full_date":"2026-02-26T21:28:11.426Z","date":"2026-02-26","time":"21:28:11"},{"rt":null,"stimulus":"<p style=\"font-size: 50px; margin: 0; text-align: center;\">+</p>","response":null,"trial_type":"html-keyboard-response","trial_index":92,"plugin_version":"2.1.0","time_elapsed":282256,"subject_id":"92458","group":"Group2","condition":"3_Rep","full_date":"2026-02-26T21:28:11.426Z","date":"2026-02-26","time":"21:28:11"},{"task":"memory_phase","broad_category":"I","image_png":"I_Pumice_01.png","image_id":129,"category_name":"Pumice","category":9,"distinct_rating":3.25,"distinct_type":"Bottom","rt":null,"stimulus":"Stimuli_Rocks480/I_Pumice_01.png","response":null,"trial_type":"image-keyboard-response","trial_index":93,"plugin_version":"2.1.0","time_elapsed":284765,"subject_id":"92458","group":"Group2","condition":"3_Rep","full_date":"2026-02-26T21:28:11.426Z","date":"2026-02-26","time":"21:28:11"},{"rt":null,"stimulus":"<p style=\"font-size: 50px; margin: 0; text-align: center;\">+</p>","response":null,"trial_type":"html-keyboard-response","trial_index":94,"plugin_version":"2.1.0","time_elapsed":285773,"subject_id":"92458","group":"Group2","condition":"3_Rep","full_date":"2026-02-26T21:28:11.426Z","date":"2026-02-26","time":"21:28:11"},{"task":"memory_phase","broad_category":"S","image_png":"S_Shale_07.png","image_id":471,"category_name":"Shale","category":30,"distinct_rating":2.73,"distinct_type":"Bottom","rt":null,"stimulus":"Stimuli_Rocks480/S_Shale_07.png","response":null,"trial_type":"image-keyboard-response","trial_index":95,"plugin_version":"2.1.0","time_elapsed":288289,"subject_id":"92458","group":"Group2","condition":"3_Rep","full_date":"2026-02-26T21:28:11.426Z","date":"2026-02-26","time":"21:28:11"},{"rt":null,"stimulus":"<p style=\"font-size: 50px; margin: 0; text-align: center;\">+</p>","response":null,"trial_type":"html-keyboard-response","trial_index":96,"plugin_version":"2.1.0","time_elapsed":289299,"subject_id":"92458","group":"Group2","condition":"3_Rep","full_date":"2026-02-26T21:28:11.426Z","date":"2026-02-26","time":"21:28:11"},{"task":"memory_phase","broad_category":"I","image_png":"I_Peridotite_13.png","image_id":125,"category_name":"Peridotite","category":8,"distinct_rating":7.28,"distinct_type":"Top","rt":null,"stimulus":"Stimuli_Rocks480/I_Peridotite_13.png","response":null,"trial_type":"image-keyboard-response","trial_index":97,"plugin_version":"2.1.0","time_elapsed":291818,"subject_id":"92458","group":"Group2","condition":"3_Rep","full_date":"2026-02-26T21:28:11.426Z","date":"2026-02-26","time":"21:28:11"},{"rt":null,"stimulus":"<p style=\"font-size: 50px; margin: 0; text-align: center;\">+</p>","response":null,"trial_type":"html-keyboard-response","trial_index":98,"plugin_version":"2.1.0","time_elapsed":292829,"subject_id":"92458","group":"Group2","condition":"3_Rep","full_date":"2026-02-26T21:28:11.426Z","date":"2026-02-26","time":"21:28:11"},{"task":"memory_phase","broad_category":"S","image_png":"S_Rock Salt_15.png","image_id":447,"category_name":"Rock Salt","category":28,"distinct_rating":7.79,"distinct_type":"Top","rt":null,"stimulus":"Stimuli_Rocks480/S_Rock Salt_15.png","response":null,"trial_type":"image-keyboard-response","trial_index":99,"plugin_version":"2.1.0","time_elapsed":295335,"subject_id":"92458","group":"Group2","condition":"3_Rep","full_date":"2026-02-26T21:28:11.426Z","date":"2026-02-26","time":"21:28:11"},{"rt":null,"stimulus":"<p style=\"font-size: 50px; margin: 0; text-align: center;\">+</p>","response":null,"trial_type":"html-keyboard-response","trial_index":100,"plugin_version":"2.1.0","time_elapsed":296351,"subject_id":"92458","group":"Group2","condition":"3_Rep","full_date":"2026-02-26T21:28:11.426Z","date":"2026-02-26","time":"21:28:11"},{"task":"memory_phase","broad_category":"S","image_png":"S_Rock Salt_13.png","image_id":445,"category_name":"Rock Salt","category":28,"distinct_rating":7.58,"distinct_type":"Top","rt":null,"stimulus":"Stimuli_Rocks480/S_Rock Salt_13.png","response":null,"trial_type":"image-keyboard-response","trial_index":101,"plugin_version":"2.1.0","time_elapsed":298855,"subject_id":"92458","group":"Group2","condition":"3_Rep","full_date":"2026-02-26T21:28:11.426Z","date":"2026-02-26","time":"21:28:11"},{"rt":null,"stimulus":"<p style=\"font-size: 50px; margin: 0; text-align: center;\">+</p>","response":null,"trial_type":"html-keyboard-response","trial_index":102,"plugin_version":"2.1.0","time_elapsed":299870,"subject_id":"92458","group":"Group2","condition":"3_Rep","full_date":"2026-02-26T21:28:11.426Z","date":"2026-02-26","time":"21:28:11"},{"task":"memory_phase","broad_category":"M","image_png":"M_Phyllite_13.png","image_id":269,"category_name":"Phyllite","category":17,"distinct_rating":2.8,"distinct_type":"Bottom","rt":null,"stimulus":"Stimuli_Rocks480/M_Phyllite_13.png","response":null,"trial_type":"image-keyboard-response","trial_index":103,"plugin_version":"2.1.0","time_elapsed":302382,"subject_id":"92458","group":"Group2","condition":"3_Rep","full_date":"2026-02-26T21:28:11.426Z","date":"2026-02-26","time":"21:28:11"},{"rt":null,"stimulus":"<p style=\"font-size: 50px; margin: 0; text-align: center;\">+</p>","response":null,"trial_type":"html-keyboard-response","trial_index":104,"plugin_version":"2.1.0","time_elapsed":303389,"subject_id":"92458","group":"Group2","condition":"3_Rep","full_date":"2026-02-26T21:28:11.426Z","date":"2026-02-26","time":"21:28:11"},{"task":"memory_phase","broad_category":"I","image_png":"I_Pegmatite_11.png","image_id":107,"category_name":"Pegmatite","category":7,"distinct_rating":7.11,"distinct_type":"Top","rt":null,"stimulus":"Stimuli_Rocks480/I_Pegmatite_11.png","response":null,"trial_type":"image-keyboard-response","trial_index":105,"plugin_version":"2.1.0","time_elapsed":305893,"subject_id":"92458","group":"Group2","condition":"3_Rep","full_date":"2026-02-26T21:28:11.426Z","date":"2026-02-26","time":"21:28:11"},{"rt":4184,"stimulus":"<p style=\"max-width: 760px; margin: auto; font-size: 35px; line-height: 1.5;\">\n                You have completed 1 study phase. \n                Now, we'll show you all the images again 2 more times.\n                <br><br>Press SPACE to continue\n              </p>","response":" ","trial_type":"html-keyboard-response","trial_index":106,"plugin_version":"2.1.0","time_elapsed":310084,"subject_id":"92458","group":"Group2","condition":"3_Rep","full_date":"2026-02-26T21:28:11.426Z","date":"2026-02-26","time":"21:28:11"},{"rt":null,"stimulus":"<p style=\"font-size: 50px; margin: 0; text-align: center;\">+</p>","response":null,"trial_type":"html-keyboard-response","trial_index":107,"plugin_version":"2.1.0","time_elapsed":311087,"subject_id":"92458","group":"Group2","condition":"3_Rep","full_date":"2026-02-26T21:28:11.426Z","date":"2026-02-26","time":"21:28:11"},{"task":"memory_phase","broad_category":"S","image_png":"S_Dolomite_01.png","image_id":385,"category_name":"Dolomite","category":25,"distinct_rating":1.43,"distinct_type":"Bottom","rt":null,"stimulus":"Stimuli_Rocks480/S_Dolomite_01.png","response":null,"trial_type":"image-keyboard-response","trial_index":108,"plugin_version":"2.1.0","time_elapsed":313603,"subject_id":"92458","group":"Group2","condition":"3_Rep","full_date":"2026-02-26T21:28:11.426Z","date":"2026-02-26","time":"21:28:11"},{"rt":null,"stimulus":"<p style=\"font-size: 50px; margin: 0; text-align: center;\">+</p>","response":null,"trial_type":"html-keyboard-response","trial_index":109,"plugin_version":"2.1.0","time_elapsed":314627,"subject_id":"92458","group":"Group2","condition":"3_Rep","full_date":"2026-02-26T21:28:11.426Z","date":"2026-02-26","time":"21:28:11"},{"task":"memory_phase","broad_category":"I","image_png":"I_Rhyolite_05.png","image_id":149,"category_name":"Rhyolite","category":10,"distinct_rating":3.02,"distinct_type":"Bottom","rt":null,"stimulus":"Stimuli_Rocks480/I_Rhyolite_05.png","response":null,"trial_type":"image-keyboard-response","trial_index":110,"plugin_version":"2.1.0","time_elapsed":317145,"subject_id":"92458","group":"Group2","condition":"3_Rep","full_date":"2026-02-26T21:28:11.426Z","date":"2026-02-26","time":"21:28:11"},{"rt":null,"stimulus":"<p style=\"font-size: 50px; margin: 0; text-align: center;\">+</p>","response":null,"trial_type":"html-keyboard-response","trial_index":111,"plugin_version":"2.1.0","time_elapsed":318170,"subject_id":"92458","group":"Group2","condition":"3_Rep","full_date":"2026-02-26T21:28:11.426Z","date":"2026-02-26","time":"21:28:11"},{"task":"memory_phase","broad_category":"I","image_png":"I_Pumice_13.png","image_id":141,"category_name":"Pumice","category":9,"distinct_rating":3.12,"distinct_type":"Bottom","rt":null,"stimulus":"Stimuli_Rocks480/I_Pumice_13.png","response":null,"trial_type":"image-keyboard-response","trial_index":112,"plugin_version":"2.1.0","time_elapsed":320676,"subject_id":"92458","group":"Group2","condition":"3_Rep","full_date":"2026-02-26T21:28:11.426Z","date":"2026-02-26","time":"21:28:11"},{"rt":null,"stimulus":"<p style=\"font-size: 50px; margin: 0; text-align: center;\">+</p>","response":null,"trial_type":"html-keyboard-response","trial_index":113,"plugin_version":"2.1.0","time_elapsed":321687,"subject_id":"92458","group":"Group2","condition":"3_Rep","full_date":"2026-02-26T21:28:11.426Z","date":"2026-02-26","time":"21:28:11"},{"task":"memory_phase","broad_category":"I","image_png":"I_Gabbro_02.png","image_id":50,"category_name":"Gabbro","category":4,"distinct_rating":2.73,"distinct_type":"Bottom","rt":null,"stimulus":"Stimuli_Rocks480/I_Gabbro_02.png","response":null,"trial_type":"image-keyboard-response","trial_index":114,"plugin_version":"2.1.0","time_elapsed":324203,"subject_id":"92458","group":"Group2","condition":"3_Rep","full_date":"2026-02-26T21:28:11.426Z","date":"2026-02-26","time":"21:28:11"},{"rt":null,"stimulus":"<p style=\"font-size: 50px; margin: 0; text-align: center;\">+</p>","response":null,"trial_type":"html-keyboard-response","trial_index":115,"plugin_version":"2.1.0","time_elapsed":325210,"subject_id":"92458","group":"Group2","condition":"3_Rep","full_date":"2026-02-26T21:28:11.426Z","date":"2026-02-26","time":"21:28:11"},{"task":"memory_phase","broad_category":"M","image_png":"M_Marble_02.png","image_id":226,"category_name":"Marble","category":15,"distinct_rating":3.2,"distinct_type":"Bottom","rt":null,"stimulus":"Stimuli_Rocks480/M_Marble_02.png","response":null,"trial_type":"image-keyboard-response","trial_index":116,"plugin_version":"2.1.0","time_elapsed":327730,"subject_id":"92458","group":"Group2","condition":"3_Rep","full_date":"2026-02-26T21:28:11.426Z","date":"2026-02-26","time":"21:28:11"},{"rt":null,"stimulus":"<p style=\"font-size: 50px; margin: 0; text-align: center;\">+</p>","response":null,"trial_type":"html-keyboard-response","trial_index":117,"plugin_version":"2.1.0","time_elapsed":328747,"subject_id":"92458","group":"Group2","condition":"3_Rep","full_date":"2026-02-26T21:28:11.426Z","date":"2026-02-26","time":"21:28:11"},{"task":"memory_phase","broad_category":"M","image_png":"M_Slate_04.png","image_id":308,"category_name":"Slate","category":20,"distinct_rating":2.2,"distinct_type":"Bottom","rt":null,"stimulus":"Stimuli_Rocks480/M_Slate_04.png","response":null,"trial_type":"image-keyboard-response","trial_index":118,"plugin_version":"2.1.0","time_elapsed":331263,"subject_id":"92458","group":"Group2","condition":"3_Rep","full_date":"2026-02-26T21:28:11.426Z","date":"2026-02-26","time":"21:28:11"},{"rt":null,"stimulus":"<p style=\"font-size: 50px; margin: 0; text-align: center;\">+</p>","response":null,"trial_type":"html-keyboard-response","trial_index":119,"plugin_version":"2.1.0","time_elapsed":332281,"subject_id":"92458","group":"Group2","condition":"3_Rep","full_date":"2026-02-26T21:28:11.426Z","date":"2026-02-26","time":"21:28:11"},{"task":"memory_phase","broad_category":"M","image_png":"M_Phyllite_05.png","image_id":261,"category_name":"Phyllite","category":17,"distinct_rating":2.14,"distinct_type":"Bottom","rt":null,"stimulus":"Stimuli_Rocks480/M_Phyllite_05.png","response":null,"trial_type":"image-keyboard-response","trial_index":120,"plugin_version":"2.1.0","time_elapsed":334787,"subject_id":"92458","group":"Group2","condition":"3_Rep","full_date":"2026-02-26T21:28:11.426Z","date":"2026-02-26","time":"21:28:11"},{"rt":null,"stimulus":"<p style=\"font-size: 50px; margin: 0; text-align: center;\">+</p>","response":null,"trial_type":"html-keyboard-response","trial_index":121,"plugin_version":"2.1.0","time_elapsed":335798,"subject_id":"92458","group":"Group2","condition":"3_Rep","full_date":"2026-02-26T21:28:11.426Z","date":"2026-02-26","time":"21:28:11"},{"task":"memory_phase","broad_category":"S","image_png":"S_Sandstone_04.png","image_id":452,"category_name":"Sandstone","category":29,"distinct_rating":1.8,"distinct_type":"Bottom","rt":null,"stimulus":"Stimuli_Rocks480/S_Sandstone_04.png","response":null,"trial_type":"image-keyboard-response","trial_index":122,"plugin_version":"2.1.0","time_elapsed":338311,"subject_id":"92458","group":"Group2","condition":"3_Rep","full_date":"2026-02-26T21:28:11.426Z","date":"2026-02-26","time":"21:28:11"},{"rt":null,"stimulus":"<p style=\"font-size: 50px; margin: 0; text-align: center;\">+</p>","response":null,"trial_type":"html-keyboard-response","trial_index":123,"plugin_version":"2.1.0","time_elapsed":339324,"subject_id":"92458","group":"Group2","condition":"3_Rep","full_date":"2026-02-26T21:28:11.426Z","date":"2026-02-26","time":"21:28:11"},{"task":"memory_phase","broad_category":"I","image_png":"I_Rhyolite_10.png","image_id":154,"category_name":"Rhyolite","category":10,"distinct_rating":2.88,"distinct_type":"Bottom","rt":null,"stimulus":"Stimuli_Rocks480/I_Rhyolite_10.png","response":null,"trial_type":"image-keyboard-response","trial_index":124,"plugin_version":"2.1.0","time_elapsed":341829,"subject_id":"92458","group":"Group2","condition":"3_Rep","full_date":"2026-02-26T21:28:11.426Z","date":"2026-02-26","time":"21:28:11"},{"rt":null,"stimulus":"<p style=\"font-size: 50px; margin: 0; text-align: center;\">+</p>","response":null,"trial_type":"html-keyboard-response","trial_index":125,"plugin_version":"2.1.0","time_elapsed":342841,"subject_id":"92458","group":"Group2","condition":"3_Rep","full_date":"2026-02-26T21:28:11.426Z","date":"2026-02-26","time":"21:28:11"},{"task":"memory_phase","broad_category":"I","image_png":"I_Basalt_10.png","image_id":26,"category_name":"Basalt","category":2,"distinct_rating":2.76,"distinct_type":"Bottom","rt":null,"stimulus":"Stimuli_Rocks480/I_Basalt_10.png","response":null,"trial_type":"image-keyboard-response","trial_index":126,"plugin_version":"2.1.0","time_elapsed":345354,"subject_id":"92458","group":"Group2","condition":"3_Rep","full_date":"2026-02-26T21:28:11.426Z","date":"2026-02-26","time":"21:28:11"},{"rt":null,"stimulus":"<p style=\"font-size: 50px; margin: 0; text-align: center;\">+</p>","response":null,"trial_type":"html-keyboard-response","trial_index":127,"plugin_version":"2.1.0","time_elapsed":346359,"subject_id":"92458","group":"Group2","condition":"3_Rep","full_date":"2026-02-26T21:28:11.426Z","date":"2026-02-26","time":"21:28:11"},{"task":"memory_phase","broad_category":"S","image_png":"S_Sandstone_08.png","image_id":456,"category_name":"Sandstone","category":29,"distinct_rating":1.5,"distinct_type":"Bottom","rt":null,"stimulus":"Stimuli_Rocks480/S_Sandstone_08.png","response":null,"trial_type":"image-keyboard-response","trial_index":128,"plugin_version":"2.1.0","time_elapsed":348867,"subject_id":"92458","group":"Group2","condition":"3_Rep","full_date":"2026-02-26T21:28:11.426Z","date":"2026-02-26","time":"21:28:11"},{"rt":null,"stimulus":"<p style=\"font-size: 50px; margin: 0; text-align: center;\">+</p>","response":null,"trial_type":"html-keyboard-response","trial_index":129,"plugin_version":"2.1.0","time_elapsed":349881,"subject_id":"92458","group":"Group2","condition":"3_Rep","full_date":"2026-02-26T21:28:11.426Z","date":"2026-02-26","time":"21:28:11"},{"task":"memory_phase","broad_category":"M","image_png":"M_Phyllite_02.png","image_id":258,"category_name":"Phyllite","category":17,"distinct_rating":2.89,"distinct_type":"Bottom","rt":null,"stimulus":"Stimuli_Rocks480/M_Phyllite_02.png","response":null,"trial_type":"image-keyboard-response","trial_index":130,"plugin_version":"2.1.0","time_elapsed":352398,"subject_id":"92458","group":"Group2","condition":"3_Rep","full_date":"2026-02-26T21:28:11.426Z","date":"2026-02-26","time":"21:28:11"},{"rt":null,"stimulus":"<p style=\"font-size: 50px; margin: 0; text-align: center;\">+</p>","response":null,"trial_type":"html-keyboard-response","trial_index":131,"plugin_version":"2.1.0","time_elapsed":353413,"subject_id":"92458","group":"Group2","condition":"3_Rep","full_date":"2026-02-26T21:28:11.426Z","date":"2026-02-26","time":"21:28:11"},{"task":"memory_phase","broad_category":"M","image_png":"M_Marble_14.png","image_id":238,"category_name":"Marble","category":15,"distinct_rating":3.31,"distinct_type":"Bottom","rt":null,"stimulus":"Stimuli_Rocks480/M_Marble_14.png","response":null,"trial_type":"image-keyboard-response","trial_index":132,"plugin_version":"2.1.0","time_elapsed":355918,"subject_id":"92458","group":"Group2","condition":"3_Rep","full_date":"2026-02-26T21:28:11.426Z","date":"2026-02-26","time":"21:28:11"},{"rt":null,"stimulus":"<p style=\"font-size: 50px; margin: 0; text-align: center;\">+</p>","response":null,"trial_type":"html-keyboard-response","trial_index":133,"plugin_version":"2.1.0","time_elapsed":356935,"subject_id":"92458","group":"Group2","condition":"3_Rep","full_date":"2026-02-26T21:28:11.426Z","date":"2026-02-26","time":"21:28:11"},{"task":"memory_phase","broad_category":"I","image_png":"I_Pumice_14.png","image_id":142,"category_name":"Pumice","category":9,"distinct_rating":3.22,"distinct_type":"Bottom","rt":null,"stimulus":"Stimuli_Rocks480/I_Pumice_14.png","response":null,"trial_type":"image-keyboard-response","trial_index":134,"plugin_version":"2.1.0","time_elapsed":359439,"subject_id":"92458","group":"Group2","condition":"3_Rep","full_date":"2026-02-26T21:28:11.426Z","date":"2026-02-26","time":"21:28:11"},{"rt":null,"stimulus":"<p style=\"font-size: 50px; margin: 0; text-align: center;\">+</p>","response":null,"trial_type":"html-keyboard-response","trial_index":135,"plugin_version":"2.1.0","time_elapsed":360443,"subject_id":"92458","group":"Group2","condition":"3_Rep","full_date":"2026-02-26T21:28:11.426Z","date":"2026-02-26","time":"21:28:11"},{"task":"memory_phase","broad_category":"I","image_png":"I_Obsidian_06.png","image_id":86,"category_name":"Obsidian","category":6,"distinct_rating":8.01,"distinct_type":"Top","rt":null,"stimulus":"Stimuli_Rocks480/I_Obsidian_06.png","response":null,"trial_type":"image-keyboard-response","trial_index":136,"plugin_version":"2.1.0","time_elapsed":362958,"subject_id":"92458","group":"Group2","condition":"3_Rep","full_date":"2026-02-26T21:28:11.426Z","date":"2026-02-26","time":"21:28:11"},{"rt":null,"stimulus":"<p style=\"font-size: 50px; margin: 0; text-align: center;\">+</p>","response":null,"trial_type":"html-keyboard-response","trial_index":137,"plugin_version":"2.1.0","time_elapsed":363974,"subject_id":"92458","group":"Group2","condition":"3_Rep","full_date":"2026-02-26T21:28:11.426Z","date":"2026-02-26","time":"21:28:11"},{"task":"memory_phase","broad_category":"I","image_png":"I_Andesite_09.png","image_id":9,"category_name":"Andesite","category":1,"distinct_rating":2.49,"distinct_type":"Bottom","rt":null,"stimulus":"Stimuli_Rocks480/I_Andesite_09.png","response":null,"trial_type":"image-keyboard-response","trial_index":138,"plugin_version":"2.1.0","time_elapsed":366482,"subject_id":"92458","group":"Group2","condition":"3_Rep","full_date":"2026-02-26T21:28:11.426Z","date":"2026-02-26","time":"21:28:11"},{"rt":null,"stimulus":"<p style=\"font-size: 50px; margin: 0; text-align: center;\">+</p>","response":null,"trial_type":"html-keyboard-response","trial_index":139,"plugin_version":"2.1.0","time_elapsed":367497,"subject_id":"92458","group":"Group2","condition":"3_Rep","full_date":"2026-02-26T21:28:11.426Z","date":"2026-02-26","time":"21:28:11"},{"task":"memory_phase","broad_category":"I","image_png":"I_Pegmatite_11.png","image_id":107,"category_name":"Pegmatite","category":7,"distinct_rating":7.11,"distinct_type":"Top","rt":null,"stimulus":"Stimuli_Rocks480/I_Pegmatite_11.png","response":null,"trial_type":"image-keyboard-response","trial_index":140,"plugin_version":"2.1.0","time_elapsed":370011,"subject_id":"92458","group":"Group2","condition":"3_Rep","full_date":"2026-02-26T21:28:11.426Z","date":"2026-02-26","time":"21:28:11"},{"rt":null,"stimulus":"<p style=\"font-size: 50px; margin: 0; text-align: center;\">+</p>","response":null,"trial_type":"html-keyboard-response","trial_index":141,"plugin_version":"2.1.0","time_elapsed":371027,"subject_id":"92458","group":"Group2","condition":"3_Rep","full_date":"2026-02-26T21:28:11.426Z","date":"2026-02-26","time":"21:28:11"},{"task":"memory_phase","broad_category":"M","image_png":"M_Slate_10.png","image_id":314,"category_name":"Slate","category":20,"distinct_rating":1.94,"distinct_type":"Bottom","rt":null,"stimulus":"Stimuli_Rocks480/M_Slate_10.png","response":null,"trial_type":"image-keyboard-response","trial_index":142,"plugin_version":"2.1.0","time_elapsed":373540,"subject_id":"92458","group":"Group2","condition":"3_Rep","full_date":"2026-02-26T21:28:11.426Z","date":"2026-02-26","time":"21:28:11"},{"rt":null,"stimulus":"<p style=\"font-size: 50px; margin: 0; text-align: center;\">+</p>","response":null,"trial_type":"html-keyboard-response","trial_index":143,"plugin_version":"2.1.0","time_elapsed":374546,"subject_id":"92458","group":"Group2","condition":"3_Rep","full_date":"2026-02-26T21:28:11.426Z","date":"2026-02-26","time":"21:28:11"},{"task":"memory_phase","broad_category":"I","image_png":"I_Gabbro_12.png","image_id":60,"category_name":"Gabbro","category":4,"distinct_rating":2.6,"distinct_type":"Bottom","rt":null,"stimulus":"Stimuli_Rocks480/I_Gabbro_12.png","response":null,"trial_type":"image-keyboard-response","trial_index":144,"plugin_version":"2.1.0","time_elapsed":377058,"subject_id":"92458","group":"Group2","condition":"3_Rep","full_date":"2026-02-26T21:28:11.426Z","date":"2026-02-26","time":"21:28:11"},{"rt":null,"stimulus":"<p style=\"font-size: 50px; margin: 0; text-align: center;\">+</p>","response":null,"trial_type":"html-keyboard-response","trial_index":145,"plugin_version":"2.1.0","time_elapsed":378062,"subject_id":"92458","group":"Group2","condition":"3_Rep","full_date":"2026-02-26T21:28:11.426Z","date":"2026-02-26","time":"21:28:11"},{"task":"memory_phase","broad_category":"M","image_png":"M_Quartzite_15.png","image_id":287,"category_name":"Quartzite","category":18,"distinct_rating":2.19,"distinct_type":"Bottom","rt":null,"stimulus":"Stimuli_Rocks480/M_Quartzite_15.png","response":null,"trial_type":"image-keyboard-response","trial_index":146,"plugin_version":"2.1.0","time_elapsed":380569,"subject_id":"92458","group":"Group2","condition":"3_Rep","full_date":"2026-02-26T21:28:11.426Z","date":"2026-02-26","time":"21:28:11"},{"rt":null,"stimulus":"<p style=\"font-size: 50px; margin: 0; text-align: center;\">+</p>","response":null,"trial_type":"html-keyboard-response","trial_index":147,"plugin_version":"2.1.0","time_elapsed":381575,"subject_id":"92458","group":"Group2","condition":"3_Rep","full_date":"2026-02-26T21:28:11.426Z","date":"2026-02-26","time":"21:28:11"},{"task":"memory_phase","broad_category":"S","image_png":"S_Shale_03.png","image_id":467,"category_name":"Shale","category":30,"distinct_rating":1.95,"distinct_type":"Bottom","rt":null,"stimulus":"Stimuli_Rocks480/S_Shale_03.png","response":null,"trial_type":"image-keyboard-response","trial_index":148,"plugin_version":"2.1.0","time_elapsed":384086,"subject_id":"92458","group":"Group2","condition":"3_Rep","full_date":"2026-02-26T21:28:11.426Z","date":"2026-02-26","time":"21:28:11"},{"rt":null,"stimulus":"<p style=\"font-size: 50px; margin: 0; text-align: center;\">+</p>","response":null,"trial_type":"html-keyboard-response","trial_index":149,"plugin_version":"2.1.0","time_elapsed":385090,"subject_id":"92458","group":"Group2","condition":"3_Rep","full_date":"2026-02-26T21:28:11.426Z","date":"2026-02-26","time":"21:28:11"},{"task":"memory_phase","broad_category":"M","image_png":"M_Slate_14.png","image_id":318,"category_name":"Slate","category":20,"distinct_rating":2.58,"distinct_type":"Bottom","rt":null,"stimulus":"Stimuli_Rocks480/M_Slate_14.png","response":null,"trial_type":"image-keyboard-response","trial_index":150,"plugin_version":"2.1.0","time_elapsed":387606,"subject_id":"92458","group":"Group2","condition":"3_Rep","full_date":"2026-02-26T21:28:11.426Z","date":"2026-02-26","time":"21:28:11"},{"rt":null,"stimulus":"<p style=\"font-size: 50px; margin: 0; text-align: center;\">+</p>","response":null,"trial_type":"html-keyboard-response","trial_index":151,"plugin_version":"2.1.0","time_elapsed":388618,"subject_id":"92458","group":"Group2","condition":"3_Rep","full_date":"2026-02-26T21:28:11.426Z","date":"2026-02-26","time":"21:28:11"},{"task":"memory_phase","broad_category":"S","image_png":"S_Shale_02.png","image_id":466,"category_name":"Shale","category":30,"distinct_rating":2.9,"distinct_type":"Bottom","rt":null,"stimulus":"Stimuli_Rocks480/S_Shale_02.png","response":null,"trial_type":"image-keyboard-response","trial_index":152,"plugin_version":"2.1.0","time_elapsed":391137,"subject_id":"92458","group":"Group2","condition":"3_Rep","full_date":"2026-02-26T21:28:11.426Z","date":"2026-02-26","time":"21:28:11"},{"rt":null,"stimulus":"<p style=\"font-size: 50px; margin: 0; text-align: center;\">+</p>","response":null,"trial_type":"html-keyboard-response","trial_index":153,"plugin_version":"2.1.0","time_elapsed":392147,"subject_id":"92458","group":"Group2","condition":"3_Rep","full_date":"2026-02-26T21:28:11.426Z","date":"2026-02-26","time":"21:28:11"},{"task":"memory_phase","broad_category":"M","image_png":"M_Marble_03.png","image_id":227,"category_name":"Marble","category":15,"distinct_rating":2.67,"distinct_type":"Bottom","rt":null,"stimulus":"Stimuli_Rocks480/M_Marble_03.png","response":null,"trial_type":"image-keyboard-response","trial_index":154,"plugin_version":"2.1.0","time_elapsed":394659,"subject_id":"92458","group":"Group2","condition":"3_Rep","full_date":"2026-02-26T21:28:11.426Z","date":"2026-02-26","time":"21:28:11"},{"rt":null,"stimulus":"<p style=\"font-size: 50px; margin: 0; text-align: center;\">+</p>","response":null,"trial_type":"html-keyboard-response","trial_index":155,"plugin_version":"2.1.0","time_elapsed":395670,"subject_id":"92458","group":"Group2","condition":"3_Rep","full_date":"2026-02-26T21:28:11.426Z","date":"2026-02-26","time":"21:28:11"},{"task":"memory_phase","broad_category":"M","image_png":"M_Quartzite_07.png","image_id":279,"category_name":"Quartzite","category":18,"distinct_rating":1.97,"distinct_type":"Bottom","rt":null,"stimulus":"Stimuli_Rocks480/M_Quartzite_07.png","response":null,"trial_type":"image-keyboard-response","trial_index":156,"plugin_version":"2.1.0","time_elapsed":398173,"subject_id":"92458","group":"Group2","condition":"3_Rep","full_date":"2026-02-26T21:28:11.426Z","date":"2026-02-26","time":"21:28:11"},{"rt":1564,"stimulus":"<p style=\"max-width: 760px; margin: auto; font-size: 35px; line-height: 1.5;\">\n                Press SPACE to continue study phase\n              </p>","response":" ","trial_type":"html-keyboard-response","trial_index":157,"plugin_version":"2.1.0","time_elapsed":399738,"subject_id":"92458","group":"Group2","condition":"3_Rep","full_date":"2026-02-26T21:28:11.426Z","date":"2026-02-26","time":"21:28:11"},{"rt":null,"stimulus":"<p style=\"font-size: 50px; margin: 0; text-align: center;\">+</p>","response":null,"trial_type":"html-keyboard-response","trial_index":158,"plugin_version":"2.1.0","time_elapsed":400755,"subject_id":"92458","group":"Group2","condition":"3_Rep","full_date":"2026-02-26T21:28:11.426Z","date":"2026-02-26","time":"21:28:11"},{"task":"memory_phase","broad_category":"M","image_png":"M_Phyllite_13.png","image_id":269,"category_name":"Phyllite","category":17,"distinct_rating":2.8,"distinct_type":"Bottom","rt":null,"stimulus":"Stimuli_Rocks480/M_Phyllite_13.png","response":null,"trial_type":"image-keyboard-response","trial_index":159,"plugin_version":"2.1.0","time_elapsed":403266,"subject_id":"92458","group":"Group2","condition":"3_Rep","full_date":"2026-02-26T21:28:11.426Z","date":"2026-02-26","time":"21:28:11"},{"rt":null,"stimulus":"<p style=\"font-size: 50px; margin: 0; text-align: center;\">+</p>","response":null,"trial_type":"html-keyboard-response","trial_index":160,"plugin_version":"2.1.0","time_elapsed":404279,"subject_id":"92458","group":"Group2","condition":"3_Rep","full_date":"2026-02-26T21:28:11.426Z","date":"2026-02-26","time":"21:28:11"},{"task":"memory_phase","broad_category":"I","image_png":"I_Andesite_04.png","image_id":4,"category_name":"Andesite","category":1,"distinct_rating":3.18,"distinct_type":"Bottom","rt":null,"stimulus":"Stimuli_Rocks480/I_Andesite_04.png","response":null,"trial_type":"image-keyboard-response","trial_index":161,"plugin_version":"2.1.0","time_elapsed":406797,"subject_id":"92458","group":"Group2","condition":"3_Rep","full_date":"2026-02-26T21:28:11.426Z","date":"2026-02-26","time":"21:28:11"},{"rt":null,"stimulus":"<p style=\"font-size: 50px; margin: 0; text-align: center;\">+</p>","response":null,"trial_type":"html-keyboard-response","trial_index":162,"plugin_version":"2.1.0","time_elapsed":407806,"subject_id":"92458","group":"Group2","condition":"3_Rep","full_date":"2026-02-26T21:28:11.426Z","date":"2026-02-26","time":"21:28:11"},{"task":"memory_phase","broad_category":"I","image_png":"I_Diorite_10.png","image_id":42,"category_name":"Diorite","category":3,"distinct_rating":2.84,"distinct_type":"Bottom","rt":null,"stimulus":"Stimuli_Rocks480/I_Diorite_10.png","response":null,"trial_type":"image-keyboard-response","trial_index":163,"plugin_version":"2.1.0","time_elapsed":410309,"subject_id":"92458","group":"Group2","condition":"3_Rep","full_date":"2026-02-26T21:28:11.426Z","date":"2026-02-26","time":"21:28:11"},{"rt":null,"stimulus":"<p style=\"font-size: 50px; margin: 0; text-align: center;\">+</p>","response":null,"trial_type":"html-keyboard-response","trial_index":164,"plugin_version":"2.1.0","time_elapsed":411319,"subject_id":"92458","group":"Group2","condition":"3_Rep","full_date":"2026-02-26T21:28:11.426Z","date":"2026-02-26","time":"21:28:11"},{"task":"memory_phase","broad_category":"I","image_png":"I_Basalt_13.png","image_id":29,"category_name":"Basalt","category":2,"distinct_rating":2.68,"distinct_type":"Bottom","rt":null,"stimulus":"Stimuli_Rocks480/I_Basalt_13.png","response":null,"trial_type":"image-keyboard-response","trial_index":165,"plugin_version":"2.1.0","time_elapsed":413833,"subject_id":"92458","group":"Group2","condition":"3_Rep","full_date":"2026-02-26T21:28:11.426Z","date":"2026-02-26","time":"21:28:11"},{"rt":null,"stimulus":"<p style=\"font-size: 50px; margin: 0; text-align: center;\">+</p>","response":null,"trial_type":"html-keyboard-response","trial_index":166,"plugin_version":"2.1.0","time_elapsed":414836,"subject_id":"92458","group":"Group2","condition":"3_Rep","full_date":"2026-02-26T21:28:11.426Z","date":"2026-02-26","time":"21:28:11"},{"task":"memory_phase","broad_category":"S","image_png":"S_Rock Salt_13.png","image_id":445,"category_name":"Rock Salt","category":28,"distinct_rating":7.58,"distinct_type":"Top","rt":null,"stimulus":"Stimuli_Rocks480/S_Rock Salt_13.png","response":null,"trial_type":"image-keyboard-response","trial_index":167,"plugin_version":"2.1.0","time_elapsed":417351,"subject_id":"92458","group":"Group2","condition":"3_Rep","full_date":"2026-02-26T21:28:11.426Z","date":"2026-02-26","time":"21:28:11"},{"rt":null,"stimulus":"<p style=\"font-size: 50px; margin: 0; text-align: center;\">+</p>","response":null,"trial_type":"html-keyboard-response","trial_index":168,"plugin_version":"2.1.0","time_elapsed":418358,"subject_id":"92458","group":"Group2","condition":"3_Rep","full_date":"2026-02-26T21:28:11.426Z","date":"2026-02-26","time":"21:28:11"},{"task":"memory_phase","broad_category":"S","image_png":"S_Sandstone_11.png","image_id":459,"category_name":"Sandstone","category":29,"distinct_rating":1.82,"distinct_type":"Bottom","rt":null,"stimulus":"Stimuli_Rocks480/S_Sandstone_11.png","response":null,"trial_type":"image-keyboard-response","trial_index":169,"plugin_version":"2.1.0","time_elapsed":420863,"subject_id":"92458","group":"Group2","condition":"3_Rep","full_date":"2026-02-26T21:28:11.426Z","date":"2026-02-26","time":"21:28:11"},{"rt":null,"stimulus":"<p style=\"font-size: 50px; margin: 0; text-align: center;\">+</p>","response":null,"trial_type":"html-keyboard-response","trial_index":170,"plugin_version":"2.1.0","time_elapsed":421875,"subject_id":"92458","group":"Group2","condition":"3_Rep","full_date":"2026-02-26T21:28:11.426Z","date":"2026-02-26","time":"21:28:11"},{"task":"memory_phase","broad_category":"I","image_png":"I_Diorite_15.png","image_id":47,"category_name":"Diorite","category":3,"distinct_rating":3.05,"distinct_type":"Bottom","rt":null,"stimulus":"Stimuli_Rocks480/I_Diorite_15.png","response":null,"trial_type":"image-keyboard-response","trial_index":171,"plugin_version":"2.1.0","time_elapsed":424390,"subject_id":"92458","group":"Group2","condition":"3_Rep","full_date":"2026-02-26T21:28:11.426Z","date":"2026-02-26","time":"21:28:11"},{"rt":null,"stimulus":"<p style=\"font-size: 50px; margin: 0; text-align: center;\">+</p>","response":null,"trial_type":"html-keyboard-response","trial_index":172,"plugin_version":"2.1.0","time_elapsed":425406,"subject_id":"92458","group":"Group2","condition":"3_Rep","full_date":"2026-02-26T21:28:11.426Z","date":"2026-02-26","time":"21:28:11"},{"task":"memory_phase","broad_category":"S","image_png":"S_Dolomite_07.png","image_id":391,"category_name":"Dolomite","category":25,"distinct_rating":1.73,"distinct_type":"Bottom","rt":null,"stimulus":"Stimuli_Rocks480/S_Dolomite_07.png","response":null,"trial_type":"image-keyboard-response","trial_index":173,"plugin_version":"2.1.0","time_elapsed":427920,"subject_id":"92458","group":"Group2","condition":"3_Rep","full_date":"2026-02-26T21:28:11.426Z","date":"2026-02-26","time":"21:28:11"},{"rt":null,"stimulus":"<p style=\"font-size: 50px; margin: 0; text-align: center;\">+</p>","response":null,"trial_type":"html-keyboard-response","trial_index":174,"plugin_version":"2.1.0","time_elapsed":428930,"subject_id":"92458","group":"Group2","condition":"3_Rep","full_date":"2026-02-26T21:28:11.426Z","date":"2026-02-26","time":"21:28:11"},{"task":"memory_phase","broad_category":"M","image_png":"M_Gneiss_10.png","image_id":202,"category_name":"Gneiss","category":13,"distinct_rating":3.09,"distinct_type":"Bottom","rt":null,"stimulus":"Stimuli_Rocks480/M_Gneiss_10.png","response":null,"trial_type":"image-keyboard-response","trial_index":175,"plugin_version":"2.1.0","time_elapsed":431442,"subject_id":"92458","group":"Group2","condition":"3_Rep","full_date":"2026-02-26T21:28:11.426Z","date":"2026-02-26","time":"21:28:11"},{"rt":null,"stimulus":"<p style=\"font-size: 50px; margin: 0; text-align: center;\">+</p>","response":null,"trial_type":"html-keyboard-response","trial_index":176,"plugin_version":"2.1.0","time_elapsed":432459,"subject_id":"92458","group":"Group2","condition":"3_Rep","full_date":"2026-02-26T21:28:11.426Z","date":"2026-02-26","time":"21:28:11"},{"task":"memory_phase","broad_category":"I","image_png":"I_Andesite_03.png","image_id":3,"category_name":"Andesite","category":1,"distinct_rating":3.17,"distinct_type":"Bottom","rt":null,"stimulus":"Stimuli_Rocks480/I_Andesite_03.png","response":null,"trial_type":"image-keyboard-response","trial_index":177,"plugin_version":"2.1.0","time_elapsed":434971,"subject_id":"92458","group":"Group2","condition":"3_Rep","full_date":"2026-02-26T21:28:11.426Z","date":"2026-02-26","time":"21:28:11"},{"rt":null,"stimulus":"<p style=\"font-size: 50px; margin: 0; text-align: center;\">+</p>","response":null,"trial_type":"html-keyboard-response","trial_index":178,"plugin_version":"2.1.0","time_elapsed":435980,"subject_id":"92458","group":"Group2","condition":"3_Rep","full_date":"2026-02-26T21:28:11.426Z","date":"2026-02-26","time":"21:28:11"},{"task":"memory_phase","broad_category":"S","image_png":"S_Rock Salt_15.png","image_id":447,"category_name":"Rock Salt","category":28,"distinct_rating":7.79,"distinct_type":"Top","rt":null,"stimulus":"Stimuli_Rocks480/S_Rock Salt_15.png","response":null,"trial_type":"image-keyboard-response","trial_index":179,"plugin_version":"2.1.0","time_elapsed":438485,"subject_id":"92458","group":"Group2","condition":"3_Rep","full_date":"2026-02-26T21:28:11.426Z","date":"2026-02-26","time":"21:28:11"},{"rt":null,"stimulus":"<p style=\"font-size: 50px; margin: 0; text-align: center;\">+</p>","response":null,"trial_type":"html-keyboard-response","trial_index":180,"plugin_version":"2.1.0","time_elapsed":439503,"subject_id":"92458","group":"Group2","condition":"3_Rep","full_date":"2026-02-26T21:28:11.426Z","date":"2026-02-26","time":"21:28:11"},{"task":"memory_phase","broad_category":"S","image_png":"S_Shale_07.png","image_id":471,"category_name":"Shale","category":30,"distinct_rating":2.73,"distinct_type":"Bottom","rt":null,"stimulus":"Stimuli_Rocks480/S_Shale_07.png","response":null,"trial_type":"image-keyboard-response","trial_index":181,"plugin_version":"2.1.0","time_elapsed":442006,"subject_id":"92458","group":"Group2","condition":"3_Rep","full_date":"2026-02-26T21:28:11.426Z","date":"2026-02-26","time":"21:28:11"},{"rt":null,"stimulus":"<p style=\"font-size: 50px; margin: 0; text-align: center;\">+</p>","response":null,"trial_type":"html-keyboard-response","trial_index":182,"plugin_version":"2.1.0","time_elapsed":443023,"subject_id":"92458","group":"Group2","condition":"3_Rep","full_date":"2026-02-26T21:28:11.426Z","date":"2026-02-26","time":"21:28:11"},{"task":"memory_phase","broad_category":"M","image_png":"M_Gneiss_14.png","image_id":206,"category_name":"Gneiss","category":13,"distinct_rating":3.41,"distinct_type":"Bottom","rt":null,"stimulus":"Stimuli_Rocks480/M_Gneiss_14.png","response":null,"trial_type":"image-keyboard-response","trial_index":183,"plugin_version":"2.1.0","time_elapsed":445527,"subject_id":"92458","group":"Group2","condition":"3_Rep","full_date":"2026-02-26T21:28:11.426Z","date":"2026-02-26","time":"21:28:11"},{"rt":null,"stimulus":"<p style=\"font-size: 50px; margin: 0; text-align: center;\">+</p>","response":null,"trial_type":"html-keyboard-response","trial_index":184,"plugin_version":"2.1.0","time_elapsed":446540,"subject_id":"92458","group":"Group2","condition":"3_Rep","full_date":"2026-02-26T21:28:11.426Z","date":"2026-02-26","time":"21:28:11"},{"task":"memory_phase","broad_category":"I","image_png":"I_Basalt_08.png","image_id":24,"category_name":"Basalt","category":2,"distinct_rating":2.31,"distinct_type":"Bottom","rt":null,"stimulus":"Stimuli_Rocks480/I_Basalt_08.png","response":null,"trial_type":"image-keyboard-response","trial_index":185,"plugin_version":"2.1.0","time_elapsed":449055,"subject_id":"92458","group":"Group2","condition":"3_Rep","full_date":"2026-02-26T21:28:11.426Z","date":"2026-02-26","time":"21:28:11"},{"rt":null,"stimulus":"<p style=\"font-size: 50px; margin: 0; text-align: center;\">+</p>","response":null,"trial_type":"html-keyboard-response","trial_index":186,"plugin_version":"2.1.0","time_elapsed":450065,"subject_id":"92458","group":"Group2","condition":"3_Rep","full_date":"2026-02-26T21:28:11.426Z","date":"2026-02-26","time":"21:28:11"},{"task":"memory_phase","broad_category":"I","image_png":"I_Rhyolite_08.png","image_id":152,"category_name":"Rhyolite","category":10,"distinct_rating":1.38,"distinct_type":"Bottom","rt":null,"stimulus":"Stimuli_Rocks480/I_Rhyolite_08.png","response":null,"trial_type":"image-keyboard-response","trial_index":187,"plugin_version":"2.1.0","time_elapsed":452578,"subject_id":"92458","group":"Group2","condition":"3_Rep","full_date":"2026-02-26T21:28:11.426Z","date":"2026-02-26","time":"21:28:11"},{"rt":null,"stimulus":"<p style=\"font-size: 50px; margin: 0; text-align: center;\">+</p>","response":null,"trial_type":"html-keyboard-response","trial_index":188,"plugin_version":"2.1.0","time_elapsed":453591,"subject_id":"92458","group":"Group2","condition":"3_Rep","full_date":"2026-02-26T21:28:11.426Z","date":"2026-02-26","time":"21:28:11"},{"task":"memory_phase","broad_category":"S","image_png":"S_Conglomerate_14.png","image_id":382,"category_name":"Conglomerate","category":24,"distinct_rating":6.86,"distinct_type":"Top","rt":null,"stimulus":"Stimuli_Rocks480/S_Conglomerate_14.png","response":null,"trial_type":"image-keyboard-response","trial_index":189,"plugin_version":"2.1.0","time_elapsed":456108,"subject_id":"92458","group":"Group2","condition":"3_Rep","full_date":"2026-02-26T21:28:11.426Z","date":"2026-02-26","time":"21:28:11"},{"rt":null,"stimulus":"<p style=\"font-size: 50px; margin: 0; text-align: center;\">+</p>","response":null,"trial_type":"html-keyboard-response","trial_index":190,"plugin_version":"2.1.0","time_elapsed":457127,"subject_id":"92458","group":"Group2","condition":"3_Rep","full_date":"2026-02-26T21:28:11.426Z","date":"2026-02-26","time":"21:28:11"},{"task":"memory_phase","broad_category":"M","image_png":"M_Quartzite_12.png","image_id":284,"category_name":"Quartzite","category":18,"distinct_rating":1.92,"distinct_type":"Bottom","rt":null,"stimulus":"Stimuli_Rocks480/M_Quartzite_12.png","response":null,"trial_type":"image-keyboard-response","trial_index":191,"plugin_version":"2.1.0","time_elapsed":459643,"subject_id":"92458","group":"Group2","condition":"3_Rep","full_date":"2026-02-26T21:28:11.426Z","date":"2026-02-26","time":"21:28:11"},{"rt":null,"stimulus":"<p style=\"font-size: 50px; margin: 0; text-align: center;\">+</p>","response":null,"trial_type":"html-keyboard-response","trial_index":192,"plugin_version":"2.1.0","time_elapsed":460664,"subject_id":"92458","group":"Group2","condition":"3_Rep","full_date":"2026-02-26T21:28:11.426Z","date":"2026-02-26","time":"21:28:11"},{"task":"memory_phase","broad_category":"M","image_png":"M_Gneiss_15.png","image_id":207,"category_name":"Gneiss","category":13,"distinct_rating":3.11,"distinct_type":"Bottom","rt":null,"stimulus":"Stimuli_Rocks480/M_Gneiss_15.png","response":null,"trial_type":"image-keyboard-response","trial_index":193,"plugin_version":"2.1.0","time_elapsed":463175,"subject_id":"92458","group":"Group2","condition":"3_Rep","full_date":"2026-02-26T21:28:11.426Z","date":"2026-02-26","time":"21:28:11"},{"rt":null,"stimulus":"<p style=\"font-size: 50px; margin: 0; text-align: center;\">+</p>","response":null,"trial_type":"html-keyboard-response","trial_index":194,"plugin_version":"2.1.0","time_elapsed":464178,"subject_id":"92458","group":"Group2","condition":"3_Rep","full_date":"2026-02-26T21:28:11.426Z","date":"2026-02-26","time":"21:28:11"},{"task":"memory_phase","broad_category":"I","image_png":"I_Peridotite_13.png","image_id":125,"category_name":"Peridotite","category":8,"distinct_rating":7.28,"distinct_type":"Top","rt":null,"stimulus":"Stimuli_Rocks480/I_Peridotite_13.png","response":null,"trial_type":"image-keyboard-response","trial_index":195,"plugin_version":"2.1.0","time_elapsed":466686,"subject_id":"92458","group":"Group2","condition":"3_Rep","full_date":"2026-02-26T21:28:11.426Z","date":"2026-02-26","time":"21:28:11"},{"rt":null,"stimulus":"<p style=\"font-size: 50px; margin: 0; text-align: center;\">+</p>","response":null,"trial_type":"html-keyboard-response","trial_index":196,"plugin_version":"2.1.0","time_elapsed":467696,"subject_id":"92458","group":"Group2","condition":"3_Rep","full_date":"2026-02-26T21:28:11.426Z","date":"2026-02-26","time":"21:28:11"},{"task":"memory_phase","broad_category":"S","image_png":"S_Dolomite_16.png","image_id":400,"category_name":"Dolomite","category":25,"distinct_rating":1.71,"distinct_type":"Bottom","rt":null,"stimulus":"Stimuli_Rocks480/S_Dolomite_16.png","response":null,"trial_type":"image-keyboard-response","trial_index":197,"plugin_version":"2.1.0","time_elapsed":470213,"subject_id":"92458","group":"Group2","condition":"3_Rep","full_date":"2026-02-26T21:28:11.426Z","date":"2026-02-26","time":"21:28:11"},{"rt":null,"stimulus":"<p style=\"font-size: 50px; margin: 0; text-align: center;\">+</p>","response":null,"trial_type":"html-keyboard-response","trial_index":198,"plugin_version":"2.1.0","time_elapsed":471229,"subject_id":"92458","group":"Group2","condition":"3_Rep","full_date":"2026-02-26T21:28:11.426Z","date":"2026-02-26","time":"21:28:11"},{"task":"memory_phase","broad_category":"S","image_png":"S_Chert_13.png","image_id":365,"category_name":"Chert","category":23,"distinct_rating":6.57,"distinct_type":"Top","rt":null,"stimulus":"Stimuli_Rocks480/S_Chert_13.png","response":null,"trial_type":"image-keyboard-response","trial_index":199,"plugin_version":"2.1.0","time_elapsed":473732,"subject_id":"92458","group":"Group2","condition":"3_Rep","full_date":"2026-02-26T21:28:11.426Z","date":"2026-02-26","time":"21:28:11"},{"rt":null,"stimulus":"<p style=\"font-size: 50px; margin: 0; text-align: center;\">+</p>","response":null,"trial_type":"html-keyboard-response","trial_index":200,"plugin_version":"2.1.0","time_elapsed":474735,"subject_id":"92458","group":"Group2","condition":"3_Rep","full_date":"2026-02-26T21:28:11.426Z","date":"2026-02-26","time":"21:28:11"},{"task":"memory_phase","broad_category":"I","image_png":"I_Pegmatite_03.png","image_id":99,"category_name":"Pegmatite","category":7,"distinct_rating":7.24,"distinct_type":"Top","rt":null,"stimulus":"Stimuli_Rocks480/I_Pegmatite_03.png","response":null,"trial_type":"image-keyboard-response","trial_index":201,"plugin_version":"2.1.0","time_elapsed":477242,"subject_id":"92458","group":"Group2","condition":"3_Rep","full_date":"2026-02-26T21:28:11.426Z","date":"2026-02-26","time":"21:28:11"},{"rt":null,"stimulus":"<p style=\"font-size: 50px; margin: 0; text-align: center;\">+</p>","response":null,"trial_type":"html-keyboard-response","trial_index":202,"plugin_version":"2.1.0","time_elapsed":478258,"subject_id":"92458","group":"Group2","condition":"3_Rep","full_date":"2026-02-26T21:28:11.426Z","date":"2026-02-26","time":"21:28:11"},{"task":"memory_phase","broad_category":"I","image_png":"I_Gabbro_14.png","image_id":62,"category_name":"Gabbro","category":4,"distinct_rating":2.95,"distinct_type":"Bottom","rt":null,"stimulus":"Stimuli_Rocks480/I_Gabbro_14.png","response":null,"trial_type":"image-keyboard-response","trial_index":203,"plugin_version":"2.1.0","time_elapsed":480768,"subject_id":"92458","group":"Group2","condition":"3_Rep","full_date":"2026-02-26T21:28:11.426Z","date":"2026-02-26","time":"21:28:11"},{"rt":null,"stimulus":"<p style=\"font-size: 50px; margin: 0; text-align: center;\">+</p>","response":null,"trial_type":"html-keyboard-response","trial_index":204,"plugin_version":"2.1.0","time_elapsed":481785,"subject_id":"92458","group":"Group2","condition":"3_Rep","full_date":"2026-02-26T21:28:11.426Z","date":"2026-02-26","time":"21:28:11"},{"task":"memory_phase","broad_category":"I","image_png":"I_Pumice_01.png","image_id":129,"category_name":"Pumice","category":9,"distinct_rating":3.25,"distinct_type":"Bottom","rt":null,"stimulus":"Stimuli_Rocks480/I_Pumice_01.png","response":null,"trial_type":"image-keyboard-response","trial_index":205,"plugin_version":"2.1.0","time_elapsed":484297,"subject_id":"92458","group":"Group2","condition":"3_Rep","full_date":"2026-02-26T21:28:11.426Z","date":"2026-02-26","time":"21:28:11"},{"rt":null,"stimulus":"<p style=\"font-size: 50px; margin: 0; text-align: center;\">+</p>","response":null,"trial_type":"html-keyboard-response","trial_index":206,"plugin_version":"2.1.0","time_elapsed":485307,"subject_id":"92458","group":"Group2","condition":"3_Rep","full_date":"2026-02-26T21:28:11.426Z","date":"2026-02-26","time":"21:28:11"},{"task":"memory_phase","broad_category":"I","image_png":"I_Diorite_01.png","image_id":33,"category_name":"Diorite","category":3,"distinct_rating":2.97,"distinct_type":"Bottom","rt":null,"stimulus":"Stimuli_Rocks480/I_Diorite_01.png","response":null,"trial_type":"image-keyboard-response","trial_index":207,"plugin_version":"2.1.0","time_elapsed":487812,"subject_id":"92458","group":"Group2","condition":"3_Rep","full_date":"2026-02-26T21:28:11.426Z","date":"2026-02-26","time":"21:28:11"},{"rt":2791,"stimulus":"<p style=\"max-width: 760px; margin: auto; font-size: 35px; line-height: 1.5;\">\n                You have completed 2 study phases. \n                Now, we'll show you all the images again 1 more time.\n                <br><br>Press SPACE to continue\n              </p>","response":" ","trial_type":"html-keyboard-response","trial_index":208,"plugin_version":"2.1.0","time_elapsed":490606,"subject_id":"92458","group":"Group2","condition":"3_Rep","full_date":"2026-02-26T21:28:11.426Z","date":"2026-02-26","time":"21:28:11"},{"rt":null,"stimulus":"<p style=\"font-size: 50px; margin: 0; text-align: center;\">+</p>","response":null,"trial_type":"html-keyboard-response","trial_index":209,"plugin_version":"2.1.0","time_elapsed":491618,"subject_id":"92458","group":"Group2","condition":"3_Rep","full_date":"2026-02-26T21:28:11.426Z","date":"2026-02-26","time":"21:28:11"},{"task":"memory_phase","broad_category":"M","image_png":"M_Phyllite_05.png","image_id":261,"category_name":"Phyllite","category":17,"distinct_rating":2.14,"distinct_type":"Bottom","rt":null,"stimulus":"Stimuli_Rocks480/M_Phyllite_05.png","response":null,"trial_type":"image-keyboard-response","trial_index":210,"plugin_version":"2.1.0","time_elapsed":494131,"subject_id":"92458","group":"Group2","condition":"3_Rep","full_date":"2026-02-26T21:28:11.426Z","date":"2026-02-26","time":"21:28:11"},{"rt":null,"stimulus":"<p style=\"font-size: 50px; margin: 0; text-align: center;\">+</p>","response":null,"trial_type":"html-keyboard-response","trial_index":211,"plugin_version":"2.1.0","time_elapsed":495149,"subject_id":"92458","group":"Group2","condition":"3_Rep","full_date":"2026-02-26T21:28:11.426Z","date":"2026-02-26","time":"21:28:11"},{"task":"memory_phase","broad_category":"S","image_png":"S_Dolomite_01.png","image_id":385,"category_name":"Dolomite","category":25,"distinct_rating":1.43,"distinct_type":"Bottom","rt":null,"stimulus":"Stimuli_Rocks480/S_Dolomite_01.png","response":null,"trial_type":"image-keyboard-response","trial_index":212,"plugin_version":"2.1.0","time_elapsed":497666,"subject_id":"92458","group":"Group2","condition":"3_Rep","full_date":"2026-02-26T21:28:11.426Z","date":"2026-02-26","time":"21:28:11"},{"rt":null,"stimulus":"<p style=\"font-size: 50px; margin: 0; text-align: center;\">+</p>","response":null,"trial_type":"html-keyboard-response","trial_index":213,"plugin_version":"2.1.0","time_elapsed":498673,"subject_id":"92458","group":"Group2","condition":"3_Rep","full_date":"2026-02-26T21:28:11.426Z","date":"2026-02-26","time":"21:28:11"},{"task":"memory_phase","broad_category":"I","image_png":"I_Andesite_04.png","image_id":4,"category_name":"Andesite","category":1,"distinct_rating":3.18,"distinct_type":"Bottom","rt":null,"stimulus":"Stimuli_Rocks480/I_Andesite_04.png","response":null,"trial_type":"image-keyboard-response","trial_index":214,"plugin_version":"2.1.0","time_elapsed":501182,"subject_id":"92458","group":"Group2","condition":"3_Rep","full_date":"2026-02-26T21:28:11.426Z","date":"2026-02-26","time":"21:28:11"},{"rt":null,"stimulus":"<p style=\"font-size: 50px; margin: 0; text-align: center;\">+</p>","response":null,"trial_type":"html-keyboard-response","trial_index":215,"plugin_version":"2.1.0","time_elapsed":502201,"subject_id":"92458","group":"Group2","condition":"3_Rep","full_date":"2026-02-26T21:28:11.426Z","date":"2026-02-26","time":"21:28:11"},{"task":"memory_phase","broad_category":"I","image_png":"I_Rhyolite_10.png","image_id":154,"category_name":"Rhyolite","category":10,"distinct_rating":2.88,"distinct_type":"Bottom","rt":null,"stimulus":"Stimuli_Rocks480/I_Rhyolite_10.png","response":null,"trial_type":"image-keyboard-response","trial_index":216,"plugin_version":"2.1.0","time_elapsed":504716,"subject_id":"92458","group":"Group2","condition":"3_Rep","full_date":"2026-02-26T21:28:11.426Z","date":"2026-02-26","time":"21:28:11"},{"rt":null,"stimulus":"<p style=\"font-size: 50px; margin: 0; text-align: center;\">+</p>","response":null,"trial_type":"html-keyboard-response","trial_index":217,"plugin_version":"2.1.0","time_elapsed":505727,"subject_id":"92458","group":"Group2","condition":"3_Rep","full_date":"2026-02-26T21:28:11.426Z","date":"2026-02-26","time":"21:28:11"},{"task":"memory_phase","broad_category":"I","image_png":"I_Basalt_13.png","image_id":29,"category_name":"Basalt","category":2,"distinct_rating":2.68,"distinct_type":"Bottom","rt":null,"stimulus":"Stimuli_Rocks480/I_Basalt_13.png","response":null,"trial_type":"image-keyboard-response","trial_index":218,"plugin_version":"2.1.0","time_elapsed":508236,"subject_id":"92458","group":"Group2","condition":"3_Rep","full_date":"2026-02-26T21:28:11.426Z","date":"2026-02-26","time":"21:28:11"},{"rt":null,"stimulus":"<p style=\"font-size: 50px; margin: 0; text-align: center;\">+</p>","response":null,"trial_type":"html-keyboard-response","trial_index":219,"plugin_version":"2.1.0","time_elapsed":509253,"subject_id":"92458","group":"Group2","condition":"3_Rep","full_date":"2026-02-26T21:28:11.426Z","date":"2026-02-26","time":"21:28:11"},{"task":"memory_phase","broad_category":"I","image_png":"I_Obsidian_06.png","image_id":86,"category_name":"Obsidian","category":6,"distinct_rating":8.01,"distinct_type":"Top","rt":null,"stimulus":"Stimuli_Rocks480/I_Obsidian_06.png","response":null,"trial_type":"image-keyboard-response","trial_index":220,"plugin_version":"2.1.0","time_elapsed":511758,"subject_id":"92458","group":"Group2","condition":"3_Rep","full_date":"2026-02-26T21:28:11.426Z","date":"2026-02-26","time":"21:28:11"},{"rt":null,"stimulus":"<p style=\"font-size: 50px; margin: 0; text-align: center;\">+</p>","response":null,"trial_type":"html-keyboard-response","trial_index":221,"plugin_version":"2.1.0","time_elapsed":512763,"subject_id":"92458","group":"Group2","condition":"3_Rep","full_date":"2026-02-26T21:28:11.426Z","date":"2026-02-26","time":"21:28:11"},{"task":"memory_phase","broad_category":"M","image_png":"M_Gneiss_15.png","image_id":207,"category_name":"Gneiss","category":13,"distinct_rating":3.11,"distinct_type":"Bottom","rt":null,"stimulus":"Stimuli_Rocks480/M_Gneiss_15.png","response":null,"trial_type":"image-keyboard-response","trial_index":222,"plugin_version":"2.1.0","time_elapsed":515270,"subject_id":"92458","group":"Group2","condition":"3_Rep","full_date":"2026-02-26T21:28:11.426Z","date":"2026-02-26","time":"21:28:11"},{"rt":null,"stimulus":"<p style=\"font-size: 50px; margin: 0; text-align: center;\">+</p>","response":null,"trial_type":"html-keyboard-response","trial_index":223,"plugin_version":"2.1.0","time_elapsed":516288,"subject_id":"92458","group":"Group2","condition":"3_Rep","full_date":"2026-02-26T21:28:11.426Z","date":"2026-02-26","time":"21:28:11"},{"task":"memory_phase","broad_category":"S","image_png":"S_Conglomerate_14.png","image_id":382,"category_name":"Conglomerate","category":24,"distinct_rating":6.86,"distinct_type":"Top","rt":null,"stimulus":"Stimuli_Rocks480/S_Conglomerate_14.png","response":null,"trial_type":"image-keyboard-response","trial_index":224,"plugin_version":"2.1.0","time_elapsed":518799,"subject_id":"92458","group":"Group2","condition":"3_Rep","full_date":"2026-02-26T21:28:11.426Z","date":"2026-02-26","time":"21:28:11"},{"rt":null,"stimulus":"<p style=\"font-size: 50px; margin: 0; text-align: center;\">+</p>","response":null,"trial_type":"html-keyboard-response","trial_index":225,"plugin_version":"2.1.0","time_elapsed":519822,"subject_id":"92458","group":"Group2","condition":"3_Rep","full_date":"2026-02-26T21:28:11.426Z","date":"2026-02-26","time":"21:28:11"},{"task":"memory_phase","broad_category":"I","image_png":"I_Basalt_10.png","image_id":26,"category_name":"Basalt","category":2,"distinct_rating":2.76,"distinct_type":"Bottom","rt":null,"stimulus":"Stimuli_Rocks480/I_Basalt_10.png","response":null,"trial_type":"image-keyboard-response","trial_index":226,"plugin_version":"2.1.0","time_elapsed":522333,"subject_id":"92458","group":"Group2","condition":"3_Rep","full_date":"2026-02-26T21:28:11.426Z","date":"2026-02-26","time":"21:28:11"},{"rt":null,"stimulus":"<p style=\"font-size: 50px; margin: 0; text-align: center;\">+</p>","response":null,"trial_type":"html-keyboard-response","trial_index":227,"plugin_version":"2.1.0","time_elapsed":523343,"subject_id":"92458","group":"Group2","condition":"3_Rep","full_date":"2026-02-26T21:28:11.426Z","date":"2026-02-26","time":"21:28:11"},{"task":"memory_phase","broad_category":"I","image_png":"I_Basalt_08.png","image_id":24,"category_name":"Basalt","category":2,"distinct_rating":2.31,"distinct_type":"Bottom","rt":null,"stimulus":"Stimuli_Rocks480/I_Basalt_08.png","response":null,"trial_type":"image-keyboard-response","trial_index":228,"plugin_version":"2.1.0","time_elapsed":525859,"subject_id":"92458","group":"Group2","condition":"3_Rep","full_date":"2026-02-26T21:28:11.426Z","date":"2026-02-26","time":"21:28:11"},{"rt":null,"stimulus":"<p style=\"font-size: 50px; margin: 0; text-align: center;\">+</p>","response":null,"trial_type":"html-keyboard-response","trial_index":229,"plugin_version":"2.1.0","time_elapsed":526865,"subject_id":"92458","group":"Group2","condition":"3_Rep","full_date":"2026-02-26T21:28:11.426Z","date":"2026-02-26","time":"21:28:11"},{"task":"memory_phase","broad_category":"M","image_png":"M_Gneiss_10.png","image_id":202,"category_name":"Gneiss","category":13,"distinct_rating":3.09,"distinct_type":"Bottom","rt":null,"stimulus":"Stimuli_Rocks480/M_Gneiss_10.png","response":null,"trial_type":"image-keyboard-response","trial_index":230,"plugin_version":"2.1.0","time_elapsed":529374,"subject_id":"92458","group":"Group2","condition":"3_Rep","full_date":"2026-02-26T21:28:11.426Z","date":"2026-02-26","time":"21:28:11"},{"rt":null,"stimulus":"<p style=\"font-size: 50px; margin: 0; text-align: center;\">+</p>","response":null,"trial_type":"html-keyboard-response","trial_index":231,"plugin_version":"2.1.0","time_elapsed":530399,"subject_id":"92458","group":"Group2","condition":"3_Rep","full_date":"2026-02-26T21:28:11.426Z","date":"2026-02-26","time":"21:28:11"},{"task":"memory_phase","broad_category":"I","image_png":"I_Rhyolite_05.png","image_id":149,"category_name":"Rhyolite","category":10,"distinct_rating":3.02,"distinct_type":"Bottom","rt":null,"stimulus":"Stimuli_Rocks480/I_Rhyolite_05.png","response":null,"trial_type":"image-keyboard-response","trial_index":232,"plugin_version":"2.1.0","time_elapsed":532909,"subject_id":"92458","group":"Group2","condition":"3_Rep","full_date":"2026-02-26T21:28:11.426Z","date":"2026-02-26","time":"21:28:11"},{"rt":null,"stimulus":"<p style=\"font-size: 50px; margin: 0; text-align: center;\">+</p>","response":null,"trial_type":"html-keyboard-response","trial_index":233,"plugin_version":"2.1.0","time_elapsed":533921,"subject_id":"92458","group":"Group2","condition":"3_Rep","full_date":"2026-02-26T21:28:11.426Z","date":"2026-02-26","time":"21:28:11"},{"task":"memory_phase","broad_category":"S","image_png":"S_Sandstone_04.png","image_id":452,"category_name":"Sandstone","category":29,"distinct_rating":1.8,"distinct_type":"Bottom","rt":null,"stimulus":"Stimuli_Rocks480/S_Sandstone_04.png","response":null,"trial_type":"image-keyboard-response","trial_index":234,"plugin_version":"2.1.0","time_elapsed":536426,"subject_id":"92458","group":"Group2","condition":"3_Rep","full_date":"2026-02-26T21:28:11.426Z","date":"2026-02-26","time":"21:28:11"},{"rt":null,"stimulus":"<p style=\"font-size: 50px; margin: 0; text-align: center;\">+</p>","response":null,"trial_type":"html-keyboard-response","trial_index":235,"plugin_version":"2.1.0","time_elapsed":537429,"subject_id":"92458","group":"Group2","condition":"3_Rep","full_date":"2026-02-26T21:28:11.426Z","date":"2026-02-26","time":"21:28:11"},{"task":"memory_phase","broad_category":"S","image_png":"S_Shale_07.png","image_id":471,"category_name":"Shale","category":30,"distinct_rating":2.73,"distinct_type":"Bottom