[{"width":1272,"height":554,"webaudio":true,"browser":"edge-chromium","browser_version":"145.0.0","mobile":false,"os":"Windows 10","fullscreen":true,"vsync_rate":61.88,"webcam":true,"microphone":true,"trial_type":"browser-check","trial_index":0,"plugin_version":"2.1.0","time_elapsed":1836,"subject_id":"92252","group":"Group2","condition":"3_Rep","full_date":"2026-02-27T17:34:32.501Z","date":"2026-02-27","time":"17:34:32"},{"success":true,"timeout":false,"failed_images":[],"failed_audio":[],"failed_video":[],"trial_type":"preload","trial_index":1,"plugin_version":"2.1.0","time_elapsed":3564,"subject_id":"92252","group":"Group2","condition":"3_Rep","full_date":"2026-02-27T17:34:32.501Z","date":"2026-02-27","time":"17:34:32"},{"rt":7710,"url":"SONA_consent_memorability.html","trial_type":"external-html","trial_index":2,"plugin_version":"2.1.0","time_elapsed":11343,"subject_id":"92252","group":"Group2","condition":"3_Rep","full_date":"2026-02-27T17:34:32.501Z","date":"2026-02-27","time":"17:34:32"},{"success":true,"rt":1101,"trial_type":"fullscreen","trial_index":3,"plugin_version":"2.1.0","time_elapsed":13458,"subject_id":"92252","group":"Group2","condition":"3_Rep","full_date":"2026-02-27T17:34:32.501Z","date":"2026-02-27","time":"17:34:32"},{"rt":14762,"stimulus":"<div style=\"max-width: 760px; margin: auto; font-size: 20px; line-height: 1.5;\">\n      <h1 style=\"text-align:center; font-size: 30px;\">Instructions</h1>\n      <p>\n        Welcome to the study on <b>visual memory</b>. This experiment consists of <b>two phases</b>: \n        a <b>study phase</b> and a <b>test phase</b>.\n      </p>\n      <p>\n        In the study phase, you will see a series of rock images along with their category labels.\n        The images will appear one at a time.\n        <b>Your task</b> is to learn the categories to which the rock images belong \n        and to remember each image as accurately as possible.\n      </p> \n      <p>\n        Note that we will repeat the study phase <b>3 times</b>, \n             so you will have multiple opportunities to see and remember each image.\n      </p>\n      <p>\n        After the study phase, <b>your memory will be tested</b>. \n        Additional instructions for the test phase will be provided at that time.\n      </p>\n      <p>\n        If your computer has multiple <b>language settings</b> (e.g., English and another language),\n        please make sure it is set to English before starting.\n      </p>\n      <p>\n        You can track your progress using the <b>completion bar</b> at the top of the screen. \n        Please note that the bar will refresh when the test phase begins \n        to give you an accurate sense of your progress in both phases.\n      </p> \n      <p>\n        Press the button below when you are ready to begin.\n      </p>\n    </div>","response":0,"trial_type":"html-button-response","trial_index":4,"plugin_version":"2.1.0","time_elapsed":28226,"subject_id":"92252","group":"Group2","condition":"3_Rep","full_date":"2026-02-27T17:34:32.501Z","date":"2026-02-27","time":"17:34:32"},{"rt":null,"stimulus":"<p style=\"font-size: 50px; margin: 0; text-align: center;\">+</p>","response":null,"trial_type":"html-keyboard-response","trial_index":5,"plugin_version":"2.1.0","time_elapsed":29238,"subject_id":"92252","group":"Group2","condition":"3_Rep","full_date":"2026-02-27T17:34:32.501Z","date":"2026-02-27","time":"17:34:32"},{"task":"memory_phase","broad_category":"I","image_png":"I_Andesite_04.png","image_id":4,"category_name":"Andesite","category":1,"distinct_rating":3.18,"distinct_type":"Bottom","rt":null,"stimulus":"Stimuli_Rocks480/I_Andesite_04.png","response":null,"trial_type":"image-keyboard-response","trial_index":6,"plugin_version":"2.1.0","time_elapsed":31754,"subject_id":"92252","group":"Group2","condition":"3_Rep","full_date":"2026-02-27T17:34:32.501Z","date":"2026-02-27","time":"17:34:32"},{"rt":null,"stimulus":"<p style=\"font-size: 50px; margin: 0; text-align: center;\">+</p>","response":null,"trial_type":"html-keyboard-response","trial_index":7,"plugin_version":"2.1.0","time_elapsed":32770,"subject_id":"92252","group":"Group2","condition":"3_Rep","full_date":"2026-02-27T17:34:32.501Z","date":"2026-02-27","time":"17:34:32"},{"task":"memory_phase","broad_category":"M","image_png":"M_Gneiss_10.png","image_id":202,"category_name":"Gneiss","category":13,"distinct_rating":3.09,"distinct_type":"Bottom","rt":null,"stimulus":"Stimuli_Rocks480/M_Gneiss_10.png","response":null,"trial_type":"image-keyboard-response","trial_index":8,"plugin_version":"2.1.0","time_elapsed":35281,"subject_id":"92252","group":"Group2","condition":"3_Rep","full_date":"2026-02-27T17:34:32.501Z","date":"2026-02-27","time":"17:34:32"},{"rt":null,"stimulus":"<p style=\"font-size: 50px; margin: 0; text-align: center;\">+</p>","response":null,"trial_type":"html-keyboard-response","trial_index":9,"plugin_version":"2.1.0","time_elapsed":36297,"subject_id":"92252","group":"Group2","condition":"3_Rep","full_date":"2026-02-27T17:34:32.501Z","date":"2026-02-27","time":"17:34:32"},{"task":"memory_phase","broad_category":"I","image_png":"I_Basalt_08.png","image_id":24,"category_name":"Basalt","category":2,"distinct_rating":2.31,"distinct_type":"Bottom","rt":null,"stimulus":"Stimuli_Rocks480/I_Basalt_08.png","response":null,"trial_type":"image-keyboard-response","trial_index":10,"plugin_version":"2.1.0","time_elapsed":38812,"subject_id":"92252","group":"Group2","condition":"3_Rep","full_date":"2026-02-27T17:34:32.501Z","date":"2026-02-27","time":"17:34:32"},{"rt":null,"stimulus":"<p style=\"font-size: 50px; margin: 0; text-align: center;\">+</p>","response":null,"trial_type":"html-keyboard-response","trial_index":11,"plugin_version":"2.1.0","time_elapsed":39828,"subject_id":"92252","group":"Group2","condition":"3_Rep","full_date":"2026-02-27T17:34:32.501Z","date":"2026-02-27","time":"17:34:32"},{"task":"memory_phase","broad_category":"I","image_png":"I_Basalt_10.png","image_id":26,"category_name":"Basalt","category":2,"distinct_rating":2.76,"distinct_type":"Bottom","rt":null,"stimulus":"Stimuli_Rocks480/I_Basalt_10.png","response":null,"trial_type":"image-keyboard-response","trial_index":12,"plugin_version":"2.1.0","time_elapsed":42346,"subject_id":"92252","group":"Group2","condition":"3_Rep","full_date":"2026-02-27T17:34:32.501Z","date":"2026-02-27","time":"17:34:32"},{"rt":null,"stimulus":"<p style=\"font-size: 50px; margin: 0; text-align: center;\">+</p>","response":null,"trial_type":"html-keyboard-response","trial_index":13,"plugin_version":"2.1.0","time_elapsed":43360,"subject_id":"92252","group":"Group2","condition":"3_Rep","full_date":"2026-02-27T17:34:32.501Z","date":"2026-02-27","time":"17:34:32"},{"task":"memory_phase","broad_category":"I","image_png":"I_Diorite_10.png","image_id":42,"category_name":"Diorite","category":3,"distinct_rating":2.84,"distinct_type":"Bottom","rt":null,"stimulus":"Stimuli_Rocks480/I_Diorite_10.png","response":null,"trial_type":"image-keyboard-response","trial_index":14,"plugin_version":"2.1.0","time_elapsed":45880,"subject_id":"92252","group":"Group2","condition":"3_Rep","full_date":"2026-02-27T17:34:32.501Z","date":"2026-02-27","time":"17:34:32"},{"rt":null,"stimulus":"<p style=\"font-size: 50px; margin: 0; text-align: center;\">+</p>","response":null,"trial_type":"html-keyboard-response","trial_index":15,"plugin_version":"2.1.0","time_elapsed":46897,"subject_id":"92252","group":"Group2","condition":"3_Rep","full_date":"2026-02-27T17:34:32.501Z","date":"2026-02-27","time":"17:34:32"},{"task":"memory_phase","broad_category":"I","image_png":"I_Diorite_01.png","image_id":33,"category_name":"Diorite","category":3,"distinct_rating":2.97,"distinct_type":"Bottom","rt":null,"stimulus":"Stimuli_Rocks480/I_Diorite_01.png","response":null,"trial_type":"image-keyboard-response","trial_index":16,"plugin_version":"2.1.0","time_elapsed":49412,"subject_id":"92252","group":"Group2","condition":"3_Rep","full_date":"2026-02-27T17:34:32.501Z","date":"2026-02-27","time":"17:34:32"},{"rt":null,"stimulus":"<p style=\"font-size: 50px; margin: 0; text-align: center;\">+</p>","response":null,"trial_type":"html-keyboard-response","trial_index":17,"plugin_version":"2.1.0","time_elapsed":50429,"subject_id":"92252","group":"Group2","condition":"3_Rep","full_date":"2026-02-27T17:34:32.501Z","date":"2026-02-27","time":"17:34:32"},{"task":"memory_phase","broad_category":"I","image_png":"I_Andesite_03.png","image_id":3,"category_name":"Andesite","category":1,"distinct_rating":3.17,"distinct_type":"Bottom","rt":null,"stimulus":"Stimuli_Rocks480/I_Andesite_03.png","response":null,"trial_type":"image-keyboard-response","trial_index":18,"plugin_version":"2.1.0","time_elapsed":52937,"subject_id":"92252","group":"Group2","condition":"3_Rep","full_date":"2026-02-27T17:34:32.501Z","date":"2026-02-27","time":"17:34:32"},{"rt":null,"stimulus":"<p style=\"font-size: 50px; margin: 0; text-align: center;\">+</p>","response":null,"trial_type":"html-keyboard-response","trial_index":19,"plugin_version":"2.1.0","time_elapsed":53952,"subject_id":"92252","group":"Group2","condition":"3_Rep","full_date":"2026-02-27T17:34:32.501Z","date":"2026-02-27","time":"17:34:32"},{"task":"memory_phase","broad_category":"M","image_png":"M_Marble_03.png","image_id":227,"category_name":"Marble","category":15,"distinct_rating":2.67,"distinct_type":"Bottom","rt":null,"stimulus":"Stimuli_Rocks480/M_Marble_03.png","response":null,"trial_type":"image-keyboard-response","trial_index":20,"plugin_version":"2.1.0","time_elapsed":56470,"subject_id":"92252","group":"Group2","condition":"3_Rep","full_date":"2026-02-27T17:34:32.501Z","date":"2026-02-27","time":"17:34:32"},{"rt":null,"stimulus":"<p style=\"font-size: 50px; margin: 0; text-align: center;\">+</p>","response":null,"trial_type":"html-keyboard-response","trial_index":21,"plugin_version":"2.1.0","time_elapsed":57472,"subject_id":"92252","group":"Group2","condition":"3_Rep","full_date":"2026-02-27T17:34:32.501Z","date":"2026-02-27","time":"17:34:32"},{"task":"memory_phase","broad_category":"M","image_png":"M_Quartzite_12.png","image_id":284,"category_name":"Quartzite","category":18,"distinct_rating":1.92,"distinct_type":"Bottom","rt":null,"stimulus":"Stimuli_Rocks480/M_Quartzite_12.png","response":null,"trial_type":"image-keyboard-response","trial_index":22,"plugin_version":"2.1.0","time_elapsed":59982,"subject_id":"92252","group":"Group2","condition":"3_Rep","full_date":"2026-02-27T17:34:32.501Z","date":"2026-02-27","time":"17:34:32"},{"rt":null,"stimulus":"<p style=\"font-size: 50px; margin: 0; text-align: center;\">+</p>","response":null,"trial_type":"html-keyboard-response","trial_index":23,"plugin_version":"2.1.0","time_elapsed":60998,"subject_id":"92252","group":"Group2","condition":"3_Rep","full_date":"2026-02-27T17:34:32.501Z","date":"2026-02-27","time":"17:34:32"},{"task":"memory_phase","broad_category":"M","image_png":"M_Slate_14.png","image_id":318,"category_name":"Slate","category":20,"distinct_rating":2.58,"distinct_type":"Bottom","rt":null,"stimulus":"Stimuli_Rocks480/M_Slate_14.png","response":null,"trial_type":"image-keyboard-response","trial_index":24,"plugin_version":"2.1.0","time_elapsed":63517,"subject_id":"92252","group":"Group2","condition":"3_Rep","full_date":"2026-02-27T17:34:32.501Z","date":"2026-02-27","time":"17:34:32"},{"rt":null,"stimulus":"<p style=\"font-size: 50px; margin: 0; text-align: center;\">+</p>","response":null,"trial_type":"html-keyboard-response","trial_index":25,"plugin_version":"2.1.0","time_elapsed":64529,"subject_id":"92252","group":"Group2","condition":"3_Rep","full_date":"2026-02-27T17:34:32.501Z","date":"2026-02-27","time":"17:34:32"},{"task":"memory_phase","broad_category":"S","image_png":"S_Rock Salt_13.png","image_id":445,"category_name":"Rock Salt","category":28,"distinct_rating":7.58,"distinct_type":"Top","rt":null,"stimulus":"Stimuli_Rocks480/S_Rock Salt_13.png","response":null,"trial_type":"image-keyboard-response","trial_index":26,"plugin_version":"2.1.0","time_elapsed":67041,"subject_id":"92252","group":"Group2","condition":"3_Rep","full_date":"2026-02-27T17:34:32.501Z","date":"2026-02-27","time":"17:34:32"},{"rt":null,"stimulus":"<p style=\"font-size: 50px; margin: 0; text-align: center;\">+</p>","response":null,"trial_type":"html-keyboard-response","trial_index":27,"plugin_version":"2.1.0","time_elapsed":68058,"subject_id":"92252","group":"Group2","condition":"3_Rep","full_date":"2026-02-27T17:34:32.501Z","date":"2026-02-27","time":"17:34:32"},{"task":"memory_phase","broad_category":"S","image_png":"S_Rock Salt_15.png","image_id":447,"category_name":"Rock Salt","category":28,"distinct_rating":7.79,"distinct_type":"Top","rt":null,"stimulus":"Stimuli_Rocks480/S_Rock Salt_15.png","response":null,"trial_type":"image-keyboard-response","trial_index":28,"plugin_version":"2.1.0","time_elapsed":70574,"subject_id":"92252","group":"Group2","condition":"3_Rep","full_date":"2026-02-27T17:34:32.501Z","date":"2026-02-27","time":"17:34:32"},{"rt":null,"stimulus":"<p style=\"font-size: 50px; margin: 0; text-align: center;\">+</p>","response":null,"trial_type":"html-keyboard-response","trial_index":29,"plugin_version":"2.1.0","time_elapsed":71589,"subject_id":"92252","group":"Group2","condition":"3_Rep","full_date":"2026-02-27T17:34:32.501Z","date":"2026-02-27","time":"17:34:32"},{"task":"memory_phase","broad_category":"S","image_png":"S_Sandstone_11.png","image_id":459,"category_name":"Sandstone","category":29,"distinct_rating":1.82,"distinct_type":"Bottom","rt":null,"stimulus":"Stimuli_Rocks480/S_Sandstone_11.png","response":null,"trial_type":"image-keyboard-response","trial_index":30,"plugin_version":"2.1.0","time_elapsed":74102,"subject_id":"92252","group":"Group2","condition":"3_Rep","full_date":"2026-02-27T17:34:32.501Z","date":"2026-02-27","time":"17:34:32"},{"rt":null,"stimulus":"<p style=\"font-size: 50px; margin: 0; text-align: center;\">+</p>","response":null,"trial_type":"html-keyboard-response","trial_index":31,"plugin_version":"2.1.0","time_elapsed":75110,"subject_id":"92252","group":"Group2","condition":"3_Rep","full_date":"2026-02-27T17:34:32.501Z","date":"2026-02-27","time":"17:34:32"},{"task":"memory_phase","broad_category":"I","image_png":"I_Rhyolite_10.png","image_id":154,"category_name":"Rhyolite","category":10,"distinct_rating":2.88,"distinct_type":"Bottom","rt":null,"stimulus":"Stimuli_Rocks480/I_Rhyolite_10.png","response":null,"trial_type":"image-keyboard-response","trial_index":32,"plugin_version":"2.1.0","time_elapsed":77623,"subject_id":"92252","group":"Group2","condition":"3_Rep","full_date":"2026-02-27T17:34:32.501Z","date":"2026-02-27","time":"17:34:32"},{"rt":null,"stimulus":"<p style=\"font-size: 50px; margin: 0; text-align: center;\">+</p>","response":null,"trial_type":"html-keyboard-response","trial_index":33,"plugin_version":"2.1.0","time_elapsed":78633,"subject_id":"92252","group":"Group2","condition":"3_Rep","full_date":"2026-02-27T17:34:32.501Z","date":"2026-02-27","time":"17:34:32"},{"task":"memory_phase","broad_category":"I","image_png":"I_Gabbro_14.png","image_id":62,"category_name":"Gabbro","category":4,"distinct_rating":2.95,"distinct_type":"Bottom","rt":null,"stimulus":"Stimuli_Rocks480/I_Gabbro_14.png","response":null,"trial_type":"image-keyboard-response","trial_index":34,"plugin_version":"2.1.0","time_elapsed":81152,"subject_id":"92252","group":"Group2","condition":"3_Rep","full_date":"2026-02-27T17:34:32.501Z","date":"2026-02-27","time":"17:34:32"},{"rt":null,"stimulus":"<p style=\"font-size: 50px; margin: 0; text-align: center;\">+</p>","response":null,"trial_type":"html-keyboard-response","trial_index":35,"plugin_version":"2.1.0","time_elapsed":82156,"subject_id":"92252","group":"Group2","condition":"3_Rep","full_date":"2026-02-27T17:34:32.501Z","date":"2026-02-27","time":"17:34:32"},{"task":"memory_phase","broad_category":"I","image_png":"I_Pumice_14.png","image_id":142,"category_name":"Pumice","category":9,"distinct_rating":3.22,"distinct_type":"Bottom","rt":null,"stimulus":"Stimuli_Rocks480/I_Pumice_14.png","response":null,"trial_type":"image-keyboard-response","trial_index":36,"plugin_version":"2.1.0","time_elapsed":84664,"subject_id":"92252","group":"Group2","condition":"3_Rep","full_date":"2026-02-27T17:34:32.501Z","date":"2026-02-27","time":"17:34:32"},{"rt":null,"stimulus":"<p style=\"font-size: 50px; margin: 0; text-align: center;\">+</p>","response":null,"trial_type":"html-keyboard-response","trial_index":37,"plugin_version":"2.1.0","time_elapsed":85679,"subject_id":"92252","group":"Group2","condition":"3_Rep","full_date":"2026-02-27T17:34:32.501Z","date":"2026-02-27","time":"17:34:32"},{"task":"memory_phase","broad_category":"S","image_png":"S_Dolomite_07.png","image_id":391,"category_name":"Dolomite","category":25,"distinct_rating":1.73,"distinct_type":"Bottom","rt":null,"stimulus":"Stimuli_Rocks480/S_Dolomite_07.png","response":null,"trial_type":"image-keyboard-response","trial_index":38,"plugin_version":"2.1.0","time_elapsed":88188,"subject_id":"92252","group":"Group2","condition":"3_Rep","full_date":"2026-02-27T17:34:32.501Z","date":"2026-02-27","time":"17:34:32"},{"rt":null,"stimulus":"<p style=\"font-size: 50px; margin: 0; text-align: center;\">+</p>","response":null,"trial_type":"html-keyboard-response","trial_index":39,"plugin_version":"2.1.0","time_elapsed":89203,"subject_id":"92252","group":"Group2","condition":"3_Rep","full_date":"2026-02-27T17:34:32.501Z","date":"2026-02-27","time":"17:34:32"},{"task":"memory_phase","broad_category":"M","image_png":"M_Phyllite_02.png","image_id":258,"category_name":"Phyllite","category":17,"distinct_rating":2.89,"distinct_type":"Bottom","rt":null,"stimulus":"Stimuli_Rocks480/M_Phyllite_02.png","response":null,"trial_type":"image-keyboard-response","trial_index":40,"plugin_version":"2.1.0","time_elapsed":91711,"subject_id":"92252","group":"Group2","condition":"3_Rep","full_date":"2026-02-27T17:34:32.501Z","date":"2026-02-27","time":"17:34:32"},{"rt":null,"stimulus":"<p style=\"font-size: 50px; margin: 0; text-align: center;\">+</p>","response":null,"trial_type":"html-keyboard-response","trial_index":41,"plugin_version":"2.1.0","time_elapsed":92716,"subject_id":"92252","group":"Group2","condition":"3_Rep","full_date":"2026-02-27T17:34:32.501Z","date":"2026-02-27","time":"17:34:32"},{"task":"memory_phase","broad_category":"I","image_png":"I_Pegmatite_03.png","image_id":99,"category_name":"Pegmatite","category":7,"distinct_rating":7.24,"distinct_type":"Top","rt":null,"stimulus":"Stimuli_Rocks480/I_Pegmatite_03.png","response":null,"trial_type":"image-keyboard-response","trial_index":42,"plugin_version":"2.1.0","time_elapsed":95225,"subject_id":"92252","group":"Group2","condition":"3_Rep","full_date":"2026-02-27T17:34:32.501Z","date":"2026-02-27","time":"17:34:32"},{"rt":null,"stimulus":"<p style=\"font-size: 50px; margin: 0; text-align: center;\">+</p>","response":null,"trial_type":"html-keyboard-response","trial_index":43,"plugin_version":"2.1.0","time_elapsed":96233,"subject_id":"92252","group":"Group2","condition":"3_Rep","full_date":"2026-02-27T17:34:32.501Z","date":"2026-02-27","time":"17:34:32"},{"task":"memory_phase","broad_category":"M","image_png":"M_Phyllite_05.png","image_id":261,"category_name":"Phyllite","category":17,"distinct_rating":2.14,"distinct_type":"Bottom","rt":null,"stimulus":"Stimuli_Rocks480/M_Phyllite_05.png","response":null,"trial_type":"image-keyboard-response","trial_index":44,"plugin_version":"2.1.0","time_elapsed":98741,"subject_id":"92252","group":"Group2","condition":"3_Rep","full_date":"2026-02-27T17:34:32.501Z","date":"2026-02-27","time":"17:34:32"},{"rt":null,"stimulus":"<p style=\"font-size: 50px; margin: 0; text-align: center;\">+</p>","response":null,"trial_type":"html-keyboard-response","trial_index":45,"plugin_version":"2.1.0","time_elapsed":99752,"subject_id":"92252","group":"Group2","condition":"3_Rep","full_date":"2026-02-27T17:34:32.501Z","date":"2026-02-27","time":"17:34:32"},{"task":"memory_phase","broad_category":"S","image_png":"S_Shale_03.png","image_id":467,"category_name":"Shale","category":30,"distinct_rating":1.95,"distinct_type":"Bottom","rt":null,"stimulus":"Stimuli_Rocks480/S_Shale_03.png","response":null,"trial_type":"image-keyboard-response","trial_index":46,"plugin_version":"2.1.0","time_elapsed":102269,"subject_id":"92252","group":"Group2","condition":"3_Rep","full_date":"2026-02-27T17:34:32.501Z","date":"2026-02-27","time":"17:34:32"},{"rt":null,"stimulus":"<p style=\"font-size: 50px; margin: 0; text-align: center;\">+</p>","response":null,"trial_type":"html-keyboard-response","trial_index":47,"plugin_version":"2.1.0","time_elapsed":103285,"subject_id":"92252","group":"Group2","condition":"3_Rep","full_date":"2026-02-27T17:34:32.501Z","date":"2026-02-27","time":"17:34:32"},{"task":"memory_phase","broad_category":"I","image_png":"I_Rhyolite_05.png","image_id":149,"category_name":"Rhyolite","category":10,"distinct_rating":3.02,"distinct_type":"Bottom","rt":null,"stimulus":"Stimuli_Rocks480/I_Rhyolite_05.png","response":null,"trial_type":"image-keyboard-response","trial_index":48,"plugin_version":"2.1.0","time_elapsed":105803,"subject_id":"92252","group":"Group2","condition":"3_Rep","full_date":"2026-02-27T17:34:32.501Z","date":"2026-02-27","time":"17:34:32"},{"rt":null,"stimulus":"<p style=\"font-size: 50px; margin: 0; text-align: center;\">+</p>","response":null,"trial_type":"html-keyboard-response","trial_index":49,"plugin_version":"2.1.0","time_elapsed":106807,"subject_id":"92252","group":"Group2","condition":"3_Rep","full_date":"2026-02-27T17:34:32.501Z","date":"2026-02-27","time":"17:34:32"},{"task":"memory_phase","broad_category":"M","image_png":"M_Phyllite_13.png","image_id":269,"category_name":"Phyllite","category":17,"distinct_rating":2.8,"distinct_type":"Bottom","rt":null,"stimulus":"Stimuli_Rocks480/M_Phyllite_13.png","response":null,"trial_type":"image-keyboard-response","trial_index":50,"plugin_version":"2.1.0","time_elapsed":109320,"subject_id":"92252","group":"Group2","condition":"3_Rep","full_date":"2026-02-27T17:34:32.501Z","date":"2026-02-27","time":"17:34:32"},{"rt":null,"stimulus":"<p style=\"font-size: 50px; margin: 0; text-align: center;\">+</p>","response":null,"trial_type":"html-keyboard-response","trial_index":51,"plugin_version":"2.1.0","time_elapsed":110325,"subject_id":"92252","group":"Group2","condition":"3_Rep","full_date":"2026-02-27T17:34:32.501Z","date":"2026-02-27","time":"17:34:32"},{"task":"memory_phase","broad_category":"M","image_png":"M_Quartzite_07.png","image_id":279,"category_name":"Quartzite","category":18,"distinct_rating":1.97,"distinct_type":"Bottom","rt":null,"stimulus":"Stimuli_Rocks480/M_Quartzite_07.png","response":null,"trial_type":"image-keyboard-response","trial_index":52,"plugin_version":"2.1.0","time_elapsed":112844,"subject_id":"92252","group":"Group2","condition":"3_Rep","full_date":"2026-02-27T17:34:32.501Z","date":"2026-02-27","time":"17:34:32"},{"rt":null,"stimulus":"<p style=\"font-size: 50px; margin: 0; text-align: center;\">+</p>","response":null,"trial_type":"html-keyboard-response","trial_index":53,"plugin_version":"2.1.0","time_elapsed":113849,"subject_id":"92252","group":"Group2","condition":"3_Rep","full_date":"2026-02-27T17:34:32.501Z","date":"2026-02-27","time":"17:34:32"},{"task":"memory_phase","broad_category":"I","image_png":"I_Diorite_15.png","image_id":47,"category_name":"Diorite","category":3,"distinct_rating":3.05,"distinct_type":"Bottom","rt":null,"stimulus":"Stimuli_Rocks480/I_Diorite_15.png","response":null,"trial_type":"image-keyboard-response","trial_index":54,"plugin_version":"2.1.0","time_elapsed":116353,"subject_id":"92252","group":"Group2","condition":"3_Rep","full_date":"2026-02-27T17:34:32.501Z","date":"2026-02-27","time":"17:34:32"},{"rt":1602,"stimulus":"<p style=\"max-width: 760px; margin: auto; font-size: 35px; line-height: 1.5;\">\n                Press SPACE to continue study phase\n              </p>","response":" ","trial_type":"html-keyboard-response","trial_index":55,"plugin_version":"2.1.0","time_elapsed":117959,"subject_id":"92252","group":"Group2","condition":"3_Rep","full_date":"2026-02-27T17:34:32.501Z","date":"2026-02-27","time":"17:34:32"},{"rt":null,"stimulus":"<p style=\"font-size: 50px; margin: 0; text-align: center;\">+</p>","response":null,"trial_type":"html-keyboard-response","trial_index":56,"plugin_version":"2.1.0","time_elapsed":118972,"subject_id":"92252","group":"Group2","condition":"3_Rep","full_date":"2026-02-27T17:34:32.501Z","date":"2026-02-27","time":"17:34:32"},{"task":"memory_phase","broad_category":"S","image_png":"S_Sandstone_04.png","image_id":452,"category_name":"Sandstone","category":29,"distinct_rating":1.8,"distinct_type":"Bottom","rt":null,"stimulus":"Stimuli_Rocks480/S_Sandstone_04.png","response":null,"trial_type":"image-keyboard-response","trial_index":57,"plugin_version":"2.1.0","time_elapsed":121477,"subject_id":"92252","group":"Group2","condition":"3_Rep","full_date":"2026-02-27T17:34:32.501Z","date":"2026-02-27","time":"17:34:32"},{"rt":null,"stimulus":"<p style=\"font-size: 50px; margin: 0; text-align: center;\">+</p>","response":null,"trial_type":"html-keyboard-response","trial_index":58,"plugin_version":"2.1.0","time_elapsed":122484,"subject_id":"92252","group":"Group2","condition":"3_Rep","full_date":"2026-02-27T17:34:32.501Z","date":"2026-02-27","time":"17:34:32"},{"task":"memory_phase","broad_category":"I","image_png":"I_Basalt_13.png","image_id":29,"category_name":"Basalt","category":2,"distinct_rating":2.68,"distinct_type":"Bottom","rt":null,"stimulus":"Stimuli_Rocks480/I_Basalt_13.png","response":null,"trial_type":"image-keyboard-response","trial_index":59,"plugin_version":"2.1.0","time_elapsed":124989,"subject_id":"92252","group":"Group2","condition":"3_Rep","full_date":"2026-02-27T17:34:32.501Z","date":"2026-02-27","time":"17:34:32"},{"rt":null,"stimulus":"<p style=\"font-size: 50px; margin: 0; text-align: center;\">+</p>","response":null,"trial_type":"html-keyboard-response","trial_index":60,"plugin_version":"2.1.0","time_elapsed":125994,"subject_id":"92252","group":"Group2","condition":"3_Rep","full_date":"2026-02-27T17:34:32.501Z","date":"2026-02-27","time":"17:34:32"},{"task":"memory_phase","broad_category":"M","image_png":"M_Slate_10.png","image_id":314,"category_name":"Slate","category":20,"distinct_rating":1.94,"distinct_type":"Bottom","rt":null,"stimulus":"Stimuli_Rocks480/M_Slate_10.png","response":null,"trial_type":"image-keyboard-response","trial_index":61,"plugin_version":"2.1.0","time_elapsed":128502,"subject_id":"92252","group":"Group2","condition":"3_Rep","full_date":"2026-02-27T17:34:32.501Z","date":"2026-02-27","time":"17:34:32"},{"rt":null,"stimulus":"<p style=\"font-size: 50px; margin: 0; text-align: center;\">+</p>","response":null,"trial_type":"html-keyboard-response","trial_index":62,"plugin_version":"2.1.0","time_elapsed":129518,"subject_id":"92252","group":"Group2","condition":"3_Rep","full_date":"2026-02-27T17:34:32.501Z","date":"2026-02-27","time":"17:34:32"},{"task":"memory_phase","broad_category":"I","image_png":"I_Gabbro_02.png","image_id":50,"category_name":"Gabbro","category":4,"distinct_rating":2.73,"distinct_type":"Bottom","rt":null,"stimulus":"Stimuli_Rocks480/I_Gabbro_02.png","response":null,"trial_type":"image-keyboard-response","trial_index":63,"plugin_version":"2.1.0","time_elapsed":132032,"subject_id":"92252","group":"Group2","condition":"3_Rep","full_date":"2026-02-27T17:34:32.501Z","date":"2026-02-27","time":"17:34:32"},{"rt":null,"stimulus":"<p style=\"font-size: 50px; margin: 0; text-align: center;\">+</p>","response":null,"trial_type":"html-keyboard-response","trial_index":64,"plugin_version":"2.1.0","time_elapsed":133035,"subject_id":"92252","group":"Group2","condition":"3_Rep","full_date":"2026-02-27T17:34:32.501Z","date":"2026-02-27","time":"17:34:32"},{"task":"memory_phase","broad_category":"I","image_png":"I_Pumice_13.png","image_id":141,"category_name":"Pumice","category":9,"distinct_rating":3.12,"distinct_type":"Bottom","rt":null,"stimulus":"Stimuli_Rocks480/I_Pumice_13.png","response":null,"trial_type":"image-keyboard-response","trial_index":65,"plugin_version":"2.1.0","time_elapsed":135554,"subject_id":"92252","group":"Group2","condition":"3_Rep","full_date":"2026-02-27T17:34:32.501Z","date":"2026-02-27","time":"17:34:32"},{"rt":null,"stimulus":"<p style=\"font-size: 50px; margin: 0; text-align: center;\">+</p>","response":null,"trial_type":"html-keyboard-response","trial_index":66,"plugin_version":"2.1.0","time_elapsed":136559,"subject_id":"92252","group":"Group2","condition":"3_Rep","full_date":"2026-02-27T17:34:32.501Z","date":"2026-02-27","time":"17:34:32"},{"task":"memory_phase","broad_category":"M","image_png":"M_Slate_04.png","image_id":308,"category_name":"Slate","category":20,"distinct_rating":2.2,"distinct_type":"Bottom","rt":null,"stimulus":"Stimuli_Rocks480/M_Slate_04.png","response":null,"trial_type":"image-keyboard-response","trial_index":67,"plugin_version":"2.1.0","time_elapsed":139065,"subject_id":"92252","group":"Group2","condition":"3_Rep","full_date":"2026-02-27T17:34:32.501Z","date":"2026-02-27","time":"17:34:32"},{"rt":null,"stimulus":"<p style=\"font-size: 50px; margin: 0; text-align: center;\">+</p>","response":null,"trial_type":"html-keyboard-response","trial_index":68,"plugin_version":"2.1.0","time_elapsed":140067,"subject_id":"92252","group":"Group2","condition":"3_Rep","full_date":"2026-02-27T17:34:32.501Z","date":"2026-02-27","time":"17:34:32"},{"task":"memory_phase","broad_category":"I","image_png":"I_Rhyolite_08.png","image_id":152,"category_name":"Rhyolite","category":10,"distinct_rating":1.38,"distinct_type":"Bottom","rt":null,"stimulus":"Stimuli_Rocks480/I_Rhyolite_08.png","response":null,"trial_type":"image-keyboard-response","trial_index":69,"plugin_version":"2.1.0","time_elapsed":142572,"subject_id":"92252","group":"Group2","condition":"3_Rep","full_date":"2026-02-27T17:34:32.501Z","date":"2026-02-27","time":"17:34:32"},{"rt":null,"stimulus":"<p style=\"font-size: 50px; margin: 0; text-align: center;\">+</p>","response":null,"trial_type":"html-keyboard-response","trial_index":70,"plugin_version":"2.1.0","time_elapsed":143589,"subject_id":"92252","group":"Group2","condition":"3_Rep","full_date":"2026-02-27T17:34:32.501Z","date":"2026-02-27","time":"17:34:32"},{"task":"memory_phase","broad_category":"I","image_png":"I_Obsidian_06.png","image_id":86,"category_name":"Obsidian","category":6,"distinct_rating":8.01,"distinct_type":"Top","rt":null,"stimulus":"Stimuli_Rocks480/I_Obsidian_06.png","response":null,"trial_type":"image-keyboard-response","trial_index":71,"plugin_version":"2.1.0","time_elapsed":146108,"subject_id":"92252","group":"Group2","condition":"3_Rep","full_date":"2026-02-27T17:34:32.501Z","date":"2026-02-27","time":"17:34:32"},{"rt":null,"stimulus":"<p style=\"font-size: 50px; margin: 0; text-align: center;\">+</p>","response":null,"trial_type":"html-keyboard-response","trial_index":72,"plugin_version":"2.1.0","time_elapsed":147117,"subject_id":"92252","group":"Group2","condition":"3_Rep","full_date":"2026-02-27T17:34:32.501Z","date":"2026-02-27","time":"17:34:32"},{"task":"memory_phase","broad_category":"S","image_png":"S_Dolomite_01.png","image_id":385,"category_name":"Dolomite","category":25,"distinct_rating":1.43,"distinct_type":"Bottom","rt":null,"stimulus":"Stimuli_Rocks480/S_Dolomite_01.png","response":null,"trial_type":"image-keyboard-response","trial_index":73,"plugin_version":"2.1.0","time_elapsed":149629,"subject_id":"92252","group":"Group2","condition":"3_Rep","full_date":"2026-02-27T17:34:32.501Z","date":"2026-02-27","time":"17:34:32"},{"rt":null,"stimulus":"<p style=\"font-size: 50px; margin: 0; text-align: center;\">+</p>","response":null,"trial_type":"html-keyboard-response","trial_index":74,"plugin_version":"2.1.0","time_elapsed":150644,"subject_id":"92252","group":"Group2","condition":"3_Rep","full_date":"2026-02-27T17:34:32.501Z","date":"2026-02-27","time":"17:34:32"},{"task":"memory_phase","broad_category":"S","image_png":"S_Sandstone_08.png","image_id":456,"category_name":"Sandstone","category":29,"distinct_rating":1.5,"distinct_type":"Bottom","rt":null,"stimulus":"Stimuli_Rocks480/S_Sandstone_08.png","response":null,"trial_type":"image-keyboard-response","trial_index":75,"plugin_version":"2.1.0","time_elapsed":153154,"subject_id":"92252","group":"Group2","condition":"3_Rep","full_date":"2026-02-27T17:34:32.501Z","date":"2026-02-27","time":"17:34:32"},{"rt":null,"stimulus":"<p style=\"font-size: 50px; margin: 0; text-align: center;\">+</p>","response":null,"trial_type":"html-keyboard-response","trial_index":76,"plugin_version":"2.1.0","time_elapsed":154157,"subject_id":"92252","group":"Group2","condition":"3_Rep","full_date":"2026-02-27T17:34:32.501Z","date":"2026-02-27","time":"17:34:32"},{"task":"memory_phase","broad_category":"M","image_png":"M_Gneiss_15.png","image_id":207,"category_name":"Gneiss","category":13,"distinct_rating":3.11,"distinct_type":"Bottom","rt":null,"stimulus":"Stimuli_Rocks480/M_Gneiss_15.png","response":null,"trial_type":"image-keyboard-response","trial_index":77,"plugin_version":"2.1.0","time_elapsed":156668,"subject_id":"92252","group":"Group2","condition":"3_Rep","full_date":"2026-02-27T17:34:32.501Z","date":"2026-02-27","time":"17:34:32"},{"rt":null,"stimulus":"<p style=\"font-size: 50px; margin: 0; text-align: center;\">+</p>","response":null,"trial_type":"html-keyboard-response","trial_index":78,"plugin_version":"2.1.0","time_elapsed":157683,"subject_id":"92252","group":"Group2","condition":"3_Rep","full_date":"2026-02-27T17:34:32.501Z","date":"2026-02-27","time":"17:34:32"},{"task":"memory_phase","broad_category":"I","image_png":"I_Pegmatite_11.png","image_id":107,"category_name":"Pegmatite","category":7,"distinct_rating":7.11,"distinct_type":"Top","rt":null,"stimulus":"Stimuli_Rocks480/I_Pegmatite_11.png","response":null,"trial_type":"image-keyboard-response","trial_index":79,"plugin_version":"2.1.0","time_elapsed":160200,"subject_id":"92252","group":"Group2","condition":"3_Rep","full_date":"2026-02-27T17:34:32.501Z","date":"2026-02-27","time":"17:34:32"},{"rt":null,"stimulus":"<p style=\"font-size: 50px; margin: 0; text-align: center;\">+</p>","response":null,"trial_type":"html-keyboard-response","trial_index":80,"plugin_version":"2.1.0","time_elapsed":161204,"subject_id":"92252","group":"Group2","condition":"3_Rep","full_date":"2026-02-27T17:34:32.501Z","date":"2026-02-27","time":"17:34:32"},{"task":"memory_phase","broad_category":"I","image_png":"I_Peridotite_13.png","image_id":125,"category_name":"Peridotite","category":8,"distinct_rating":7.28,"distinct_type":"Top","rt":null,"stimulus":"Stimuli_Rocks480/I_Peridotite_13.png","response":null,"trial_type":"image-keyboard-response","trial_index":81,"plugin_version":"2.1.0","time_elapsed":163722,"subject_id":"92252","group":"Group2","condition":"3_Rep","full_date":"2026-02-27T17:34:32.501Z","date":"2026-02-27","time":"17:34:32"},{"rt":null,"stimulus":"<p style=\"font-size: 50px; margin: 0; text-align: center;\">+</p>","response":null,"trial_type":"html-keyboard-response","trial_index":82,"plugin_version":"2.1.0","time_elapsed":164726,"subject_id":"92252","group":"Group2","condition":"3_Rep","full_date":"2026-02-27T17:34:32.501Z","date":"2026-02-27","time":"17:34:32"},{"task":"memory_phase","broad_category":"M","image_png":"M_Marble_14.png","image_id":238,"category_name":"Marble","category":15,"distinct_rating":3.31,"distinct_type":"Bottom","rt":null,"stimulus":"Stimuli_Rocks480/M_Marble_14.png","response":null,"trial_type":"image-keyboard-response","trial_index":83,"plugin_version":"2.1.0","time_elapsed":167233,"subject_id":"92252","group":"Group2","condition":"3_Rep","full_date":"2026-02-27T17:34:32.501Z","date":"2026-02-27","time":"17:34:32"},{"rt":null,"stimulus":"<p style=\"font-size: 50px; margin: 0; text-align: center;\">+</p>","response":null,"trial_type":"html-keyboard-response","trial_index":84,"plugin_version":"2.1.0","time_elapsed":168235,"subject_id":"92252","group":"Group2","condition":"3_Rep","full_date":"2026-02-27T17:34:32.501Z","date":"2026-02-27","time":"17:34:32"},{"task":"memory_phase","broad_category":"I","image_png":"I_Gabbro_12.png","image_id":60,"category_name":"Gabbro","category":4,"distinct_rating":2.6,"distinct_type":"Bottom","rt":null,"stimulus":"Stimuli_Rocks480/I_Gabbro_12.png","response":null,"trial_type":"image-keyboard-response","trial_index":85,"plugin_version":"2.1.0","time_elapsed":170744,"subject_id":"92252","group":"Group2","condition":"3_Rep","full_date":"2026-02-27T17:34:32.501Z","date":"2026-02-27","time":"17:34:32"},{"rt":null,"stimulus":"<p style=\"font-size: 50px; margin: 0; text-align: center;\">+</p>","response":null,"trial_type":"html-keyboard-response","trial_index":86,"plugin_version":"2.1.0","time_elapsed":171759,"subject_id":"92252","group":"Group2","condition":"3_Rep","full_date":"2026-02-27T17:34:32.501Z","date":"2026-02-27","time":"17:34:32"},{"task":"memory_phase","broad_category":"S","image_png":"S_Chert_13.png","image_id":365,"category_name":"Chert","category":23,"distinct_rating":6.57,"distinct_type":"Top","rt":null,"stimulus":"Stimuli_Rocks480/S_Chert_13.png","response":null,"trial_type":"image-keyboard-response","trial_index":87,"plugin_version":"2.1.0","time_elapsed":174265,"subject_id":"92252","group":"Group2","condition":"3_Rep","full_date":"2026-02-27T17:34:32.501Z","date":"2026-02-27","time":"17:34:32"},{"rt":null,"stimulus":"<p style=\"font-size: 50px; margin: 0; text-align: center;\">+</p>","response":null,"trial_type":"html-keyboard-response","trial_index":88,"plugin_version":"2.1.0","time_elapsed":175268,"subject_id":"92252","group":"Group2","condition":"3_Rep","full_date":"2026-02-27T17:34:32.501Z","date":"2026-02-27","time":"17:34:32"},{"task":"memory_phase","broad_category":"M","image_png":"M_Gneiss_14.png","image_id":206,"category_name":"Gneiss","category":13,"distinct_rating":3.41,"distinct_type":"Bottom","rt":null,"stimulus":"Stimuli_Rocks480/M_Gneiss_14.png","response":null,"trial_type":"image-keyboard-response","trial_index":89,"plugin_version":"2.1.0","time_elapsed":177773,"subject_id":"92252","group":"Group2","condition":"3_Rep","full_date":"2026-02-27T17:34:32.501Z","date":"2026-02-27","time":"17:34:32"},{"rt":null,"stimulus":"<p style=\"font-size: 50px; margin: 0; text-align: center;\">+</p>","response":null,"trial_type":"html-keyboard-response","trial_index":90,"plugin_version":"2.1.0","time_elapsed":178777,"subject_id":"92252","group":"Group2","condition":"3_Rep","full_date":"2026-02-27T17:34:32.501Z","date":"2026-02-27","time":"17:34:32"},{"task":"memory_phase","broad_category":"I","image_png":"I_Pumice_01.png","image_id":129,"category_name":"Pumice","category":9,"distinct_rating":3.25,"distinct_type":"Bottom","rt":null,"stimulus":"Stimuli_Rocks480/I_Pumice_01.png","response":null,"trial_type":"image-keyboard-response","trial_index":91,"plugin_version":"2.1.0","time_elapsed":181285,"subject_id":"92252","group":"Group2","condition":"3_Rep","full_date":"2026-02-27T17:34:32.501Z","date":"2026-02-27","time":"17:34:32"},{"rt":null,"stimulus":"<p style=\"font-size: 50px; margin: 0; text-align: center;\">+</p>","response":null,"trial_type":"html-keyboard-response","trial_index":92,"plugin_version":"2.1.0","time_elapsed":182294,"subject_id":"92252","group":"Group2","condition":"3_Rep","full_date":"2026-02-27T17:34:32.501Z","date":"2026-02-27","time":"17:34:32"},{"task":"memory_phase","broad_category":"I","image_png":"I_Andesite_09.png","image_id":9,"category_name":"Andesite","category":1,"distinct_rating":2.49,"distinct_type":"Bottom","rt":null,"stimulus":"Stimuli_Rocks480/I_Andesite_09.png","response":null,"trial_type":"image-keyboard-response","trial_index":93,"plugin_version":"2.1.0","time_elapsed":184809,"subject_id":"92252","group":"Group2","condition":"3_Rep","full_date":"2026-02-27T17:34:32.501Z","date":"2026-02-27","time":"17:34:32"},{"rt":null,"stimulus":"<p style=\"font-size: 50px; margin: 0; text-align: center;\">+</p>","response":null,"trial_type":"html-keyboard-response","trial_index":94,"plugin_version":"2.1.0","time_elapsed":185823,"subject_id":"92252","group":"Group2","condition":"3_Rep","full_date":"2026-02-27T17:34:32.501Z","date":"2026-02-27","time":"17:34:32"},{"task":"memory_phase","broad_category":"S","image_png":"S_Shale_02.png","image_id":466,"category_name":"Shale","category":30,"distinct_rating":2.9,"distinct_type":"Bottom","rt":null,"stimulus":"Stimuli_Rocks480/S_Shale_02.png","response":null,"trial_type":"image-keyboard-response","trial_index":95,"plugin_version":"2.1.0","time_elapsed":188330,"subject_id":"92252","group":"Group2","condition":"3_Rep","full_date":"2026-02-27T17:34:32.501Z","date":"2026-02-27","time":"17:34:32"},{"rt":null,"stimulus":"<p style=\"font-size: 50px; margin: 0; text-align: center;\">+</p>","response":null,"trial_type":"html-keyboard-response","trial_index":96,"plugin_version":"2.1.0","time_elapsed":189339,"subject_id":"92252","group":"Group2","condition":"3_Rep","full_date":"2026-02-27T17:34:32.501Z","date":"2026-02-27","time":"17:34:32"},{"task":"memory_phase","broad_category":"S","image_png":"S_Dolomite_16.png","image_id":400,"category_name":"Dolomite","category":25,"distinct_rating":1.71,"distinct_type":"Bottom","rt":null,"stimulus":"Stimuli_Rocks480/S_Dolomite_16.png","response":null,"trial_type":"image-keyboard-response","trial_index":97,"plugin_version":"2.1.0","time_elapsed":191843,"subject_id":"92252","group":"Group2","condition":"3_Rep","full_date":"2026-02-27T17:34:32.501Z","date":"2026-02-27","time":"17:34:32"},{"rt":null,"stimulus":"<p style=\"font-size: 50px; margin: 0; text-align: center;\">+</p>","response":null,"trial_type":"html-keyboard-response","trial_index":98,"plugin_version":"2.1.0","time_elapsed":192858,"subject_id":"92252","group":"Group2","condition":"3_Rep","full_date":"2026-02-27T17:34:32.501Z","date":"2026-02-27","time":"17:34:32"},{"task":"memory_phase","broad_category":"M","image_png":"M_Quartzite_15.png","image_id":287,"category_name":"Quartzite","category":18,"distinct_rating":2.19,"distinct_type":"Bottom","rt":null,"stimulus":"Stimuli_Rocks480/M_Quartzite_15.png","response":null,"trial_type":"image-keyboard-response","trial_index":99,"plugin_version":"2.1.0","time_elapsed":195370,"subject_id":"92252","group":"Group2","condition":"3_Rep","full_date":"2026-02-27T17:34:32.501Z","date":"2026-02-27","time":"17:34:32"},{"rt":null,"stimulus":"<p style=\"font-size: 50px; margin: 0; text-align: center;\">+</p>","response":null,"trial_type":"html-keyboard-response","trial_index":100,"plugin_version":"2.1.0","time_elapsed":196385,"subject_id":"92252","group":"Group2","condition":"3_Rep","full_date":"2026-02-27T17:34:32.501Z","date":"2026-02-27","time":"17:34:32"},{"task":"memory_phase","broad_category":"S","image_png":"S_Conglomerate_14.png","image_id":382,"category_name":"Conglomerate","category":24,"distinct_rating":6.86,"distinct_type":"Top","rt":null,"stimulus":"Stimuli_Rocks480/S_Conglomerate_14.png","response":null,"trial_type":"image-keyboard-response","trial_index":101,"plugin_version":"2.1.0","time_elapsed":198904,"subject_id":"92252","group":"Group2","condition":"3_Rep","full_date":"2026-02-27T17:34:32.501Z","date":"2026-02-27","time":"17:34:32"},{"rt":null,"stimulus":"<p style=\"font-size: 50px; margin: 0; text-align: center;\">+</p>","response":null,"trial_type":"html-keyboard-response","trial_index":102,"plugin_version":"2.1.0","time_elapsed":199912,"subject_id":"92252","group":"Group2","condition":"3_Rep","full_date":"2026-02-27T17:34:32.501Z","date":"2026-02-27","time":"17:34:32"},{"task":"memory_phase","broad_category":"M","image_png":"M_Marble_02.png","image_id":226,"category_name":"Marble","category":15,"distinct_rating":3.2,"distinct_type":"Bottom","rt":null,"stimulus":"Stimuli_Rocks480/M_Marble_02.png","response":null,"trial_type":"image-keyboard-response","trial_index":103,"plugin_version":"2.1.0","time_elapsed":202430,"subject_id":"92252","group":"Group2","condition":"3_Rep","full_date":"2026-02-27T17:34:32.501Z","date":"2026-02-27","time":"17:34:32"},{"rt":null,"stimulus":"<p style=\"font-size: 50px; margin: 0; text-align: center;\">+</p>","response":null,"trial_type":"html-keyboard-response","trial_index":104,"plugin_version":"2.1.0","time_elapsed":203434,"subject_id":"92252","group":"Group2","condition":"3_Rep","full_date":"2026-02-27T17:34:32.501Z","date":"2026-02-27","time":"17:34:32"},{"task":"memory_phase","broad_category":"S","image_png":"S_Shale_07.png","image_id":471,"category_name":"Shale","category":30,"distinct_rating":2.73,"distinct_type":"Bottom","rt":null,"stimulus":"Stimuli_Rocks480/S_Shale_07.png","response":null,"trial_type":"image-keyboard-response","trial_index":105,"plugin_version":"2.1.0","time_elapsed":205943,"subject_id":"92252","group":"Group2","condition":"3_Rep","full_date":"2026-02-27T17:34:32.501Z","date":"2026-02-27","time":"17:34:32"},{"rt":1517643,"stimulus":"<p style=\"max-width: 760px; margin: auto; font-size: 35px; line-height: 1.5;\">\n                You have completed 1 study phase. \n                Now, we'll show you all the images again 2 more times.\n                <br><br>Press SPACE to continue\n              </p>","response":" ","trial_type":"html-keyboard-response","trial_index":106,"plugin_version":"2.1.0","time_elapsed":1723588,"subject_id":"92252","group":"Group2","condition":"3_Rep","full_date":"2026-02-27T17:34:32.501Z","date":"2026-02-27","time":"17:34:32"},{"rt":null,"stimulus":"<p style=\"font-size: 50px; margin: 0; text-align: center;\">+</p>","response":null,"trial_type":"html-keyboard-response","trial_index":107,"plugin_version":"2.1.0","time_elapsed":1724597,"subject_id":"92252","group":"Group2","condition":"3_Rep","full_date":"2026-02-27T17:34:32.501Z","date":"2026-02-27","time":"17:34:32"},{"task":"memory_phase","broad_category":"M","image_png":"M_Gneiss_15.png","image_id":207,"category_name":"Gneiss","category":13,"distinct_rating":3.11,"distinct_type":"Bottom","rt":null,"stimulus":"Stimuli_Rocks480/M_Gneiss_15.png","response":null,"trial_type":"image-keyboard-response","trial_index":108,"plugin_version":"2.1.0","time_elapsed":1727108,"subject_id":"92252","group":"Group2","condition":"3_Rep","full_date":"2026-02-27T17:34:32.501Z","date":"2026-02-27","time":"17:34:32"},{"rt":null,"stimulus":"<p style=\"font-size: 50px; margin: 0; text-align: center;\">+</p>","response":null,"trial_type":"html-keyboard-response","trial_index":109,"plugin_version":"2.1.0","time_elapsed":1728110,"subject_id":"92252","group":"Group2","condition":"3_Rep","full_date":"2026-02-27T17:34:32.501Z","date":"2026-02-27","time":"17:34:32"},{"task":"memory_phase","broad_category":"I","image_png":"I_Diorite_10.png","image_id":42,"category_name":"Diorite","category":3,"distinct_rating":2.84,"distinct_type":"Bottom","rt":null,"stimulus":"Stimuli_Rocks480/I_Diorite_10.png","response":null,"trial_type":"image-keyboard-response","trial_index":110,"plugin_version":"2.1.0","time_elapsed":1730615,"subject_id":"92252","group":"Group2","condition":"3_Rep","full_date":"2026-02-27T17:34:32.501Z","date":"2026-02-27","time":"17:34:32"},{"rt":null,"stimulus":"<p style=\"font-size: 50px; margin: 0; text-align: center;\">+</p>","response":null,"trial_type":"html-keyboard-response","trial_index":111,"plugin_version":"2.1.0","time_elapsed":1731628,"subject_id":"92252","group":"Group2","condition":"3_Rep","full_date":"2026-02-27T17:34:32.501Z","date":"2026-02-27","time":"17:34:32"},{"task":"memory_phase","broad_category":"I","image_png":"I_Basalt_08.png","image_id":24,"category_name":"Basalt","category":2,"distinct_rating":2.31,"distinct_type":"Bottom","rt":null,"stimulus":"Stimuli_Rocks480/I_Basalt_08.png","response":null,"trial_type":"image-keyboard-response","trial_index":112,"plugin_version":"2.1.0","time_elapsed":1734131,"subject_id":"92252","group":"Group2","condition":"3_Rep","full_date":"2026-02-27T17:34:32.501Z","date":"2026-02-27","time":"17:34:32"},{"rt":null,"stimulus":"<p style=\"font-size: 50px; margin: 0; text-align: center;\">+</p>","response":null,"trial_type":"html-keyboard-response","trial_index":113,"plugin_version":"2.1.0","time_elapsed":1735142,"subject_id":"92252","group":"Group2","condition":"3_Rep","full_date":"2026-02-27T17:34:32.501Z","date":"2026-02-27","time":"17:34:32"},{"task":"memory_phase","broad_category":"S","image_png":"S_Chert_13.png","image_id":365,"category_name":"Chert","category":23,"distinct_rating":6.57,"distinct_type":"Top","rt":null,"stimulus":"Stimuli_Rocks480/S_Chert_13.png","response":null,"trial_type":"image-keyboard-response","trial_index":114,"plugin_version":"2.1.0","time_elapsed":1737655,"subject_id":"92252","group":"Group2","condition":"3_Rep","full_date":"2026-02-27T17:34:32.501Z","date":"2026-02-27","time":"17:34:32"},{"rt":null,"stimulus":"<p style=\"font-size: 50px; margin: 0; text-align: center;\">+</p>","response":null,"trial_type":"html-keyboard-response","trial_index":115,"plugin_version":"2.1.0","time_elapsed":1738670,"subject_id":"92252","group":"Group2","condition":"3_Rep","full_date":"2026-02-27T17:34:32.501Z","date":"2026-02-27","time":"17:34:32"},{"task":"memory_phase","broad_category":"M","image_png":"M_Marble_02.png","image_id":226,"category_name":"Marble","category":15,"distinct_rating":3.2,"distinct_type":"Bottom","rt":null,"stimulus":"Stimuli_Rocks480/M_Marble_02.png","response":null,"trial_type":"image-keyboard-response","trial_index":116,"plugin_version":"2.1.0","time_elapsed":1741181,"subject_id":"92252","group":"Group2","condition":"3_Rep","full_date":"2026-02-27T17:34:32.501Z","date":"2026-02-27","time":"17:34:32"},{"rt":null,"stimulus":"<p style=\"font-size: 50px; margin: 0; text-align: center;\">+</p>","response":null,"trial_type":"html-keyboard-response","trial_index":117,"plugin_version":"2.1.0","time_elapsed":1742198,"subject_id":"92252","group":"Group2","condition":"3_Rep","full_date":"2026-02-27T17:34:32.501Z","date":"2026-02-27","time":"17:34:32"},{"task":"memory_phase","broad_category":"M","image_png":"M_Quartzite_07.png","image_id":279,"category_name":"Quartzite","category":18,"distinct_rating":1.97,"distinct_type":"Bottom","rt":null,"stimulus":"Stimuli_Rocks480/M_Quartzite_07.png","response":null,"trial_type":"image-keyboard-response","trial_index":118,"plugin_version":"2.1.0","time_elapsed":1744704,"subject_id":"92252","group":"Group2","condition":"3_Rep","full_date":"2026-02-27T17:34:32.501Z","date":"2026-02-27","time":"17:34:32"},{"rt":null,"stimulus":"<p style=\"font-size: 50px; margin: 0; text-align: center;\">+</p>","response":null,"trial_type":"html-keyboard-response","trial_index":119,"plugin_version":"2.1.0","time_elapsed":1745709,"subject_id":"92252","group":"Group2","condition":"3_Rep","full_date":"2026-02-27T17:34:32.501Z","date":"2026-02-27","time":"17:34:32"},{"task":"memory_phase","broad_category":"I","image_png":"I_Rhyolite_10.png","image_id":154,"category_name":"Rhyolite","category":10,"distinct_rating":2.88,"distinct_type":"Bottom","rt":null,"stimulus":"Stimuli_Rocks480/I_Rhyolite_10.png","response":null,"trial_type":"image-keyboard-response","trial_index":120,"plugin_version":"2.1.0","time_elapsed":1748219,"subject_id":"92252","group":"Group2","condition":"3_Rep","full_date":"2026-02-27T17:34:32.501Z","date":"2026-02-27","time":"17:34:32"},{"rt":null,"stimulus":"<p style=\"font-size: 50px; margin: 0; text-align: center;\">+</p>","response":null,"trial_type":"html-keyboard-response","trial_index":121,"plugin_version":"2.1.0","time_elapsed":1749222,"subject_id":"92252","group":"Group2","condition":"3_Rep","full_date":"2026-02-27T17:34:32.501Z","date":"2026-02-27","time":"17:34:32"},{"task":"memory_phase","broad_category":"I","image_png":"I_Diorite_01.png","image_id":33,"category_name":"Diorite","category":3,"distinct_rating":2.97,"distinct_type":"Bottom","rt":null,"stimulus":"Stimuli_Rocks480/I_Diorite_01.png","response":null,"trial_type":"image-keyboard-response","trial_index":122,"plugin_version":"2.1.0","time_elapsed":1751727,"subject_id":"92252","group":"Group2","condition":"3_Rep","full_date":"2026-02-27T17:34:32.501Z","date":"2026-02-27","time":"17:34:32"},{"rt":null,"stimulus":"<p style=\"font-size: 50px; margin: 0; text-align: center;\">+</p>","response":null,"trial_type":"html-keyboard-response","trial_index":123,"plugin_version":"2.1.0","time_elapsed":1752742,"subject_id":"92252","group":"Group2","condition":"3_Rep","full_date":"2026-02-27T17:34:32.501Z","date":"2026-02-27","time":"17:34:32"},{"task":"memory_phase","broad_category":"I","image_png":"I_Gabbro_12.png","image_id":60,"category_name":"Gabbro","category":4,"distinct_rating":2.6,"distinct_type":"Bottom","rt":null,"stimulus":"Stimuli_Rocks480/I_Gabbro_12.png","response":null,"trial_type":"image-keyboard-response","trial_index":124,"plugin_version":"2.1.0","time_elapsed":1755252,"subject_id":"92252","group":"Group2","condition":"3_Rep","full_date":"2026-02-27T17:34:32.501Z","date":"2026-02-27","time":"17:34:32"},{"rt":null,"stimulus":"<p style=\"font-size: 50px; margin: 0; text-align: center;\">+</p>","response":null,"trial_type":"html-keyboard-response","trial_index":125,"plugin_version":"2.1.0","time_elapsed":1756255,"subject_id":"92252","group":"Group2","condition":"3_Rep","full_date":"2026-02-27T17:34:32.501Z","date":"2026-02-27","time":"17:34:32"},{"task":"memory_phase","broad_category":"M","image_png":"M_Slate_10.png","image_id":314,"category_name":"Slate","category":20,"distinct_rating":1.94,"distinct_type":"Bottom","rt":null,"stimulus":"Stimuli_Rocks480/M_Slate_10.png","response":null,"trial_type":"image-keyboard-response","trial_index":126,"plugin_version":"2.1.0","time_elapsed":1758771,"subject_id":"92252","group":"Group2","condition":"3_Rep","full_date":"2026-02-27T17:34:32.501Z","date":"2026-02-27","time":"17:34:32"},{"rt":null,"stimulus":"<p style=\"font-size: 50px; margin: 0; text-align: center;\">+</p>","response":null,"trial_type":"html-keyboard-response","trial_index":127,"plugin_version":"2.1.0","time_elapsed":1759773,"subject_id":"92252","group":"Group2","condition":"3_Rep","full_date":"2026-02-27T17:34:32.501Z","date":"2026-02-27","time":"17:34:32"},{"task":"memory_phase","broad_category":"I","image_png":"I_Diorite_15.png","image_id":47,"category_name":"Diorite","category":3,"distinct_rating":3.05,"distinct_type":"Bottom","rt":null,"stimulus":"Stimuli_Rocks480/I_Diorite_15.png","response":null,"trial_type":"image-keyboard-response","trial_index":128,"plugin_version":"2.1.0","time_elapsed":1762283,"subject_id":"92252","group":"Group2","condition":"3_Rep","full_date":"2026-02-27T17:34:32.501Z","date":"2026-02-27","time":"17:34:32"},{"rt":null,"stimulus":"<p style=\"font-size: 50px; margin: 0; text-align: center;\">+</p>","response":null,"trial_type":"html-keyboard-response","trial_index":129,"plugin_version":"2.1.0","time_elapsed":1763294,"subject_id":"92252","group":"Group2","condition":"3_Rep","full_date":"2026-02-27T17:34:32.501Z","date":"2026-02-27","time":"17:34:32"},{"task":"memory_phase","broad_category":"S","image_png":"S_Conglomerate_14.png","image_id":382,"category_name":"Conglomerate","category":24,"distinct_rating":6.86,"distinct_type":"Top","rt":null,"stimulus":"Stimuli_Rocks480/S_Conglomerate_14.png","response":null,"trial_type":"image-keyboard-response","trial_index":130,"plugin_version":"2.1.0","time_elapsed":1765808,"subject_id":"92252","group":"Group2","condition":"3_Rep","full_date":"2026-02-27T17:34:32.501Z","date":"2026-02-27","time":"17:34:32"},{"rt":null,"stimulus":"<p style=\"font-size: 50px; margin: 0; text-align: center;\">+</p>","response":null,"trial_type":"html-keyboard-response","trial_index":131,"plugin_version":"2.1.0","time_elapsed":1766816,"subject_id":"92252","group":"Group2","condition":"3_Rep","full_date":"2026-02-27T17:34:32.501Z","date":"2026-02-27","time":"17:34:32"},{"task":"memory_phase","broad_category":"I","image_png":"I_Basalt_13.png","image_id":29,"category_name":"Basalt","category":2,"distinct_rating":2.68,"distinct_type":"Bottom","rt":null,"stimulus":"Stimuli_Rocks480/I_Basalt_13.png","response":null,"trial_type":"image-keyboard-response","trial_index":132,"plugin_version":"2.1.0","time_elapsed":1769333,"subject_id":"92252","group":"Group2","condition":"3_Rep","full_date":"2026-02-27T17:34:32.501Z","date":"2026-02-27","time":"17:34:32"},{"rt":null,"stimulus":"<p style=\"font-size: 50px; margin: 0; text-align: center;\">+</p>","response":null,"trial_type":"html-keyboard-response","trial_index":133,"plugin_version":"2.1.0","time_elapsed":1770345,"subject_id":"92252","group":"Group2","condition":"3_Rep","full_date":"2026-02-27T17:34:32.501Z","date":"2026-02-27","time":"17:34:32"},{"task":"memory_phase","broad_category":"S","image_png":"S_Dolomite_07.png","image_id":391,"category_name":"Dolomite","category":25,"distinct_rating":1.73,"distinct_type":"Bottom","rt":null,"stimulus":"Stimuli_Rocks480/S_Dolomite_07.png","response":null,"trial_type":"image-keyboard-response","trial_index":134,"plugin_version":"2.1.0","time_elapsed":1772855,"subject_id":"92252","group":"Group2","condition":"3_Rep","full_date":"2026-02-27T17:34:32.501Z","date":"2026-02-27","time":"17:34:32"},{"rt":null,"stimulus":"<p style=\"font-size: 50px; margin: 0; text-align: center;\">+</p>","response":null,"trial_type":"html-keyboard-response","trial_index":135,"plugin_version":"2.1.0","time_elapsed":1773871,"subject_id":"92252","group":"Group2","condition":"3_Rep","full_date":"2026-02-27T17:34:32.501Z","date":"2026-02-27","time":"17:34:32"},{"task":"memory_phase","broad_category":"I","image_png":"I_Andesite_03.png","image_id":3,"category_name":"Andesite","category":1,"distinct_rating":3.17,"distinct_type":"Bottom","rt":null,"stimulus":"Stimuli_Rocks480/I_Andesite_03.png","response":null,"trial_type":"image-keyboard-response","trial_index":136,"plugin_version":"2.1.0","time_elapsed":1776388,"subject_id":"92252","group":"Group2","condition":"3_Rep","full_date":"2026-02-27T17:34:32.501Z","date":"2026-02-27","time":"17:34:32"},{"rt":null,"stimulus":"<p style=\"font-size: 50px; margin: 0; text-align: center;\">+</p>","response":null,"trial_type":"html-keyboard-response","trial_index":137,"plugin_version":"2.1.0","time_elapsed":1777402,"subject_id":"92252","group":"Group2","condition":"3_Rep","full_date":"2026-02-27T17:34:32.501Z","date":"2026-02-27","time":"17:34:32"},{"task":"memory_phase","broad_category":"I","image_png":"I_Basalt_10.png","image_id":26,"category_name":"Basalt","category":2,"distinct_rating":2.76,"distinct_type":"Bottom","rt":null,"stimulus":"Stimuli_Rocks480/I_Basalt_10.png","response":null,"trial_type":"image-keyboard-response","trial_index":138,"plugin_version":"2.1.0","time_elapsed":1779909,"subject_id":"92252","group":"Group2","condition":"3_Rep","full_date":"2026-02-27T17:34:32.501Z","date":"2026-02-27","time":"17:34:32"},{"rt":null,"stimulus":"<p style=\"font-size: 50px; margin: 0; text-align: center;\">+</p>","response":null,"trial_type":"html-keyboard-response","trial_index":139,"plugin_version":"2.1.0","time_elapsed":1780923,"subject_id":"92252","group":"Group2","condition":"3_Rep","full_date":"2026-02-27T17:34:32.501Z","date":"2026-02-27","time":"17:34:32"},{"task":"memory_phase","broad_category":"S","image_png":"S_Rock Salt_13.png","image_id":445,"category_name":"Rock Salt","category":28,"distinct_rating":7.58,"distinct_type":"Top","rt":null,"stimulus":"Stimuli_Rocks480/S_Rock Salt_13.png","response":null,"trial_type":"image-keyboard-response","trial_index":140,"plugin_version":"2.1.0","time_elapsed":1783440,"subject_id":"92252","group":"Group2","condition":"3_Rep","full_date":"2026-02-27T17:34:32.501Z","date":"2026-02-27","time":"17:34:32"},{"rt":null,"stimulus":"<p style=\"font-size: 50px; margin: 0; text-align: center;\">+</p>","response":null,"trial_type":"html-keyboard-response","trial_index":141,"plugin_version":"2.1.0","time_elapsed":1784442,"subject_id":"92252","group":"Group2","condition":"3_Rep","full_date":"2026-02-27T17:34:32.501Z","date":"2026-02-27","time":"17:34:32"},{"task":"memory_phase","broad_category":"M","image_png":"M_Phyllite_05.png","image_id":261,"category_name":"Phyllite","category":17,"distinct_rating":2.14,"distinct_type":"Bottom","rt":null,"stimulus":"Stimuli_Rocks480/M_Phyllite_05.png","response":null,"trial_type":"image-keyboard-response","trial_index":142,"plugin_version":"2.1.0","time_elapsed":1786956,"subject_id":"92252","group":"Group2","condition":"3_Rep","full_date":"2026-02-27T17:34:32.501Z","date":"2026-02-27","time":"17:34:32"},{"rt":null,"stimulus":"<p style=\"font-size: 50px; margin: 0; text-align: center;\">+</p>","response":null,"trial_type":"html-keyboard-response","trial_index":143,"plugin_version":"2.1.0","time_elapsed":1787958,"subject_id":"92252","group":"Group2","condition":"3_Rep","full_date":"2026-02-27T17:34:32.501Z","date":"2026-02-27","time":"17:34:32"},{"task":"memory_phase","broad_category":"M","image_png":"M_Gneiss_14.png","image_id":206,"category_name":"Gneiss","category":13,"distinct_rating":3.41,"distinct_type":"Bottom","rt":null,"stimulus":"Stimuli_Rocks480/M_Gneiss_14.png","response":null,"trial_type":"image-keyboard-response","trial_index":144,"plugin_version":"2.1.0","time_elapsed":1790476,"subject_id":"92252","group":"Group2","condition":"3_Rep","full_date":"2026-02-27T17:34:32.501Z","date":"2026-02-27","time":"17:34:32"},{"rt":null,"stimulus":"<p style=\"font-size: 50px; margin: 0; text-align: center;\">+</p>","response":null,"trial_type":"html-keyboard-response","trial_index":145,"plugin_version":"2.1.0","time_elapsed":1791489,"subject_id":"92252","group":"Group2","condition":"3_Rep","full_date":"2026-02-27T17:34:32.501Z","date":"2026-02-27","time":"17:34:32"},{"task":"memory_phase","broad_category":"M","image_png":"M_Slate_14.png","image_id":318,"category_name":"Slate","category":20,"distinct_rating":2.58,"distinct_type":"Bottom","rt":null,"stimulus":"Stimuli_Rocks480/M_Slate_14.png","response":null,"trial_type":"image-keyboard-response","trial_index":146,"plugin_version":"2.1.0","time_elapsed":1793999,"subject_id":"92252","group":"Group2","condition":"3_Rep","full_date":"2026-02-27T17:34:32.501Z","date":"2026-02-27","time":"17:34:32"},{"rt":null,"stimulus":"<p style=\"font-size: 50px; margin: 0; text-align: center;\">+</p>","response":null,"trial_type":"html-keyboard-response","trial_index":147,"plugin_version":"2.1.0","time_elapsed":1795013,"subject_id":"92252","group":"Group2","condition":"3_Rep","full_date":"2026-02-27T17:34:32.501Z","date":"2026-02-27","time":"17:34:32"},{"task":"memory_phase","broad_category":"S","image_png":"S_Sandstone_11.png","image_id":459,"category_name":"Sandstone","category":29,"distinct_rating":1.82,"distinct_type":"Bottom","rt":null,"stimulus":"Stimuli_Rocks480/S_Sandstone_11.png","response":null,"trial_type":"image-keyboard-response","trial_index":148,"plugin_version":"2.1.0","time_elapsed":1797526,"subject_id":"92252","group":"Group2","condition":"3_Rep","full_date":"2026-02-27T17:34:32.501Z","date":"2026-02-27","time":"17:34:32"},{"rt":null,"stimulus":"<p style=\"font-size: 50px; margin: 0; text-align: center;\">+</p>","response":null,"trial_type":"html-keyboard-response","trial_index":149,"plugin_version":"2.1.0","time_elapsed":1798539,"subject_id":"92252","group":"Group2","condition":"3_Rep","full_date":"2026-02-27T17:34:32.501Z","date":"2026-02-27","time":"17:34:32"},{"task":"memory_phase","broad_category":"I","image_png":"I_Pumice_01.png","image_id":129,"category_name":"Pumice","category":9,"distinct_rating":3.25,"distinct_type":"Bottom","rt":null,"stimulus":"Stimuli_Rocks480/I_Pumice_01.png","response":null,"trial_type":"image-keyboard-response","trial_index":150,"plugin_version":"2.1.0","time_elapsed":1801043,"subject_id":"92252","group":"Group2","condition":"3_Rep","full_date":"2026-02-27T17:34:32.501Z","date":"2026-02-27","time":"17:34:32"},{"rt":null,"stimulus":"<p style=\"font-size: 50px; margin: 0; text-align: center;\">+</p>","response":null,"trial_type":"html-keyboard-response","trial_index":151,"plugin_version":"2.1.0","time_elapsed":1802056,"subject_id":"92252","group":"Group2","condition":"3_Rep","full_date":"2026-02-27T17:34:32.501Z","date":"2026-02-27","time":"17:34:32"},{"task":"memory_phase","broad_category":"M","image_png":"M_Phyllite_13.png","image_id":269,"category_name":"Phyllite","category":17,"distinct_rating":2.8,"distinct_type":"Bottom","rt":null,"stimulus":"Stimuli_Rocks480/M_Phyllite_13.png","response":null,"trial_type":"image-keyboard-response","trial_index":152,"plugin_version":"2.1.0","time_elapsed":1804566,"subject_id":"92252","group":"Group2","condition":"3_Rep","full_date":"2026-02-27T17:34:32.501Z","date":"2026-02-27","time":"17:34:32"},{"rt":null,"stimulus":"<p style=\"font-size: 50px; margin: 0; text-align: center;\">+</p>","response":null,"trial_type":"html-keyboard-response","trial_index":153,"plugin_version":"2.1.0","time_elapsed":1805570,"subject_id":"92252","group":"Group2","condition":"3_Rep","full_date":"2026-02-27T17:34:32.501Z","date":"2026-02-27","time":"17:34:32"},{"task":"memory_phase","broad_category":"I","image_png":"I_Gabbro_14.png","image_id":62,"category_name":"Gabbro","category":4,"distinct_rating":2.95,"distinct_type":"Bottom","rt":null,"stimulus":"Stimuli_Rocks480/I_Gabbro_14.png","response":null,"trial_type":"image-keyboard-response","trial_index":154,"plugin_version":"2.1.0","time_elapsed":1808079,"subject_id":"92252","group":"Group2","condition":"3_Rep","full_date":"2026-02-27T17:34:32.501Z","date":"2026-02-27","time":"17:34:32"},{"rt":null,"stimulus":"<p style=\"font-size: 50px; margin: 0; text-align: center;\">+</p>","response":null,"trial_type":"html-keyboard-response","trial_index":155,"plugin_version":"2.1.0","time_elapsed":1809093,"subject_id":"92252","group":"Group2","condition":"3_Rep","full_date":"2026-02-27T17:34:32.501Z","date":"2026-02-27","time":"17:34:32"},{"task":"memory_phase","broad_category":"M","image_png":"M_Marble_14.png","image_id":238,"category_name":"Marble","category":15,"distinct_rating":3.31,"distinct_type":"Bottom","rt":null,"stimulus":"Stimuli_Rocks480/M_Marble_14.png","response":null,"trial_type":"image-keyboard-response","trial_index":156,"plugin_version":"2.1.0","time_elapsed":1811608,"subject_id":"92252","group":"Group2","condition":"3_Rep","full_date":"2026-02-27T17:34:32.501Z","date":"2026-02-27","time":"17:34:32"},{"rt":16264,"stimulus":"<p style=\"max-width: 760px; margin: auto; font-size: 35px; line-height: 1.5;\">\n                Press SPACE to continue study phase\n              </p>","response":" ","trial_type":"html-keyboard-response","trial_index":157,"plugin_version":"2.1.0","time_elapsed":1827874,"subject_id":"92252","group":"Group2","condition":"3_Rep","full_date":"2026-02-27T17:34:32.501Z","date":"2026-02-27","time":"17:34:32"},{"rt":null,"stimulus":"<p style=\"font-size: 50px; margin: 0; text-align: center;\">+</p>","response":null,"trial_type":"html-keyboard-response","trial_index":158,"plugin_version":"2.1.0","time_elapsed":1828886,"subject_id":"92252","group":"Group2","condition":"3_Rep","full_date":"2026-02-27T17:34:32.501Z","date":"2026-02-27","time":"17:34:32"},{"task":"memory_phase","broad_category":"S","image_png":"S_Sandstone_04.png","image_id":452,"category_name":"Sandstone","category":29,"distinct_rating":1.8,"distinct_type":"Bottom","rt":null,"stimulus":"Stimuli_Rocks480/S_Sandstone_04.png","response":null,"trial_type":"image-keyboard-response","trial_index":159,"plugin_version":"2.1.0","time_elapsed":1831390,"subject_id":"92252","group":"Group2","condition":"3_Rep","full_date":"2026-02-27T17:34:32.501Z","date":"2026-02-27","time":"17:34:32"},{"rt":null,"stimulus":"<p style=\"font-size: 50px; margin: 0; text-align: center;\">+</p>","response":null,"trial_type":"html-keyboard-response","trial_index":160,"plugin_version":"2.1.0","time_elapsed":1832396,"subject_id":"92252","group":"Group2","condition":"3_Rep","full_date":"2026-02-27T17:34:32.501Z","date":"2026-02-27","time":"17:34:32"},{"task":"memory_phase","broad_category":"M","image_png":"M_Quartzite_12.png","image_id":284,"category_name":"Quartzite","category":18,"distinct_rating":1.92,"distinct_type":"Bottom","rt":null,"stimulus":"Stimuli_Rocks480/M_Quartzite_12.png","response":null,"trial_type":"image-keyboard-response","trial_index":161,"plugin_version":"2.1.0","time_elapsed":1834903,"subject_id":"92252","group":"Group2","condition":"3_Rep","full_date":"2026-02-27T17:34:32.501Z","date":"2026-02-27","time":"17:34:32"},{"rt":null,"stimulus":"<p style=\"font-size: 50px; margin: 0; text-align: center;\">+</p>","response":null,"trial_type":"html-keyboard-response","trial_index":162,"plugin_version":"2.1.0","time_elapsed":1835911,"subject_id":"92252","group":"Group2","condition":"3_Rep","full_date":"2026-02-27T17:34:32.501Z","date":"2026-02-27","time":"17:34:32"},{"task":"memory_phase","broad_category":"S","image_png":"S_Rock Salt_15.png","image_id":447,"category_name":"Rock Salt","category":28,"distinct_rating":7.79,"distinct_type":"Top","rt":null,"stimulus":"Stimuli_Rocks480/S_Rock Salt_15.png","response":null,"trial_type":"image-keyboard-response","trial_index":163,"plugin_version":"2.1.0","time_elapsed":1838429,"subject_id":"92252","group":"Group2","condition":"3_Rep","full_date":"2026-02-27T17:34:32.501Z","date":"2026-02-27","time":"17:34:32"},{"rt":null,"stimulus":"<p style=\"font-size: 50px; margin: 0; text-align: center;\">+</p>","response":null,"trial_type":"html-keyboard-response","trial_index":164,"plugin_version":"2.1.0","time_elapsed":1839432,"subject_id":"92252","group":"Group2","condition":"3_Rep","full_date":"2026-02-27T17:34:32.501Z","date":"2026-02-27","time":"17:34:32"},{"task":"memory_phase","broad_category":"I","image_png":"I_Pumice_13.png","image_id":141,"category_name":"Pumice","category":9,"distinct_rating":3.12,"distinct_type":"Bottom","rt":null,"stimulus":"Stimuli_Rocks480/I_Pumice_13.png","response":null,"trial_type":"image-keyboard-response","trial_index":165,"plugin_version":"2.1.0","time_elapsed":1841934,"subject_id":"92252","group":"Group2","condition":"3_Rep","full_date":"2026-02-27T17:34:32.501Z","date":"2026-02-27","time":"17:34:32"},{"rt":null,"stimulus":"<p style=\"font-size: 50px; margin: 0; text-align: center;\">+</p>","response":null,"trial_type":"html-keyboard-response","trial_index":166,"plugin_version":"2.1.0","time_elapsed":1843901,"subject_id":"92252","group":"Group2","condition":"3_Rep","full_date":"2026-02-27T17:34:32.501Z","date":"2026-02-27","time":"17:34:32"},{"task":"memory_phase","broad_category":"S","image_png":"S_Sandstone_08.png","image_id":456,"category_name":"Sandstone","category":29,"distinct_rating":1.5,"distinct_type":"Bottom","rt":null,"stimulus":"Stimuli_Rocks480/S_Sandstone_08.png","response":null,"trial_type":"image-keyboard-response","trial_index":167,"plugin_version":"2.1.0","time_elapsed":1846905,"subject_id":"92252","group":"Group2","condition":"3_Rep","full_date":"2026-02-27T17:34:32.501Z","date":"2026-02-27","time":"17:34:32"},{"rt":null,"stimulus":"<p style=\"font-size: 50px; margin: 0; text-align: center;\">+</p>","response":null,"trial_type":"html-keyboard-response","trial_index":168,"plugin_version":"2.1.0","time_elapsed":1848897,"subject_id":"92252","group":"Group2","condition":"3_Rep","full_date":"2026-02-27T17:34:32.501Z","date":"2026-02-27","time":"17:34:32"},{"task":"memory_phase","broad_category":"I","image_png":"I_Andesite_09.png","image_id":9,"category_name":"Andesite","category":1,"distinct_rating":2.49,"distinct_type":"Bottom","rt":null,"stimulus":"Stimuli_Rocks480/I_Andesite_09.png","response":null,"trial_type":"image-keyboard-response","trial_index":169,"plugin_version":"2.1.0","time_elapsed":1851904,"subject_id":"92252","group":"Group2","condition":"3_Rep","full_date":"2026-02-27T17:34:32.501Z","date":"2026-02-27","time":"17:34:32"},{"rt":null,"stimulus":"<p style=\"font-size: 50px; margin: 0; text-align: center;\">+</p>","response":null,"trial_type":"html-keyboard-response","trial_index":170,"plugin_version":"2.1.0","time_elapsed":1853903,"subject_id":"92252","group":"Group2","condition":"3_Rep","full_date":"2026-02-27T17:34:32.501Z","date":"2026-02-27","time":"17:34:32"},{"task":"memory_phase","broad_category":"M","image_png":"M_Quartzite_15.png","image_id":287,"category_name":"Quartzite","category":18,"distinct_rating":2.19,"distinct_type":"Bottom","rt":null,"stimulus":"Stimuli_Rocks480/M_Quartzite_15.png","response":null,"trial_type":"image-keyboard-response","trial_index":171,"plugin_version":"2.1.0","time_elapsed":1856905,"subject_id":"92252","group":"Group2","condition":"3_Rep","full_date":"2026-02-27T17:34:32.501Z","date":"2026-02-27","time":"17:34:32"},{"rt":null,"stimulus":"<p style=\"font-size: 50px; margin: 0; text-align: center;\">+</p>","response":null,"trial_type":"html-keyboard-response","trial_index":172,"plugin_version":"2.1.0","time_elapsed":1857973,"subject_id":"92252","group":"Group2","condition":"3_Rep","full_date":"2026-02-27T17:34:32.501Z","date":"2026-02-27","time":"17:34:32"},{"task":"memory_phase","broad_category":"I","image_png":"I_Pumice_14.png","image_id":142,"category_name":"Pumice","category":9,"distinct_rating":3.22,"distinct_type":"Bottom","rt":null,"stimulus":"Stimuli_Rocks480/I_Pumice_14.png","response":null,"trial_type":"image-keyboard-response","trial_index":173,"plugin_version":"2.1.0","time_elapsed":1860488,"subject_id":"92252","group":"Group2","condition":"3_Rep","full_date":"2026-02-27T17:34:32.501Z","date":"2026-02-27","time":"17:34:32"},{"rt":null,"stimulus":"<p style=\"font-size: 50px; margin: 0; text-align: center;\">+</p>","response":null,"trial_type":"html-keyboard-response","trial_index":174,"plugin_version":"2.1.0","time_elapsed":1861504,"subject_id":"92252","group":"Group2","condition":"3_Rep","full_date":"2026-02-27T17:34:32.501Z","date":"2026-02-27","time":"17:34:32"},{"task":"memory_phase","broad_category":"S","image_png":"S_Dolomite_16.png","image_id":400,"category_name":"Dolomite","category":25,"distinct_rating":1.71,"distinct_type":"Bottom","rt":null,"stimulus":"Stimuli_Rocks480/S_Dolomite_16.png","response":null,"trial_type":"image-keyboard-response","trial_index":175,"plugin_version":"2.1.0","time_elapsed":1864010,"subject_id":"92252","group":"Group2","condition":"3_Rep","full_date":"2026-02-27T17:34:32.501Z","date":"2026-02-27","time":"17:34:32"},{"rt":null,"stimulus":"<p style=\"font-size: 50px; margin: 0; text-align: center;\">+</p>","response":null,"trial_type":"html-keyboard-response","trial_index":176,"plugin_version":"2.1.0","time_elapsed":1865013,"subject_id":"92252","group":"Group2","condition":"3_Rep","full_date":"2026-02-27T17:34:32.501Z","date":"2026-02-27","time":"17:34:32"},{"task":"memory_phase","broad_category":"I","image_png":"I_Rhyolite_05.png","image_id":149,"category_name":"Rhyolite","category":10,"distinct_rating":3.02,"distinct_type":"Bottom","rt":null,"stimulus":"Stimuli_Rocks480/I_Rhyolite_05.png","response":null,"trial_type":"image-keyboard-response","trial_index":177,"plugin_version":"2.1.0","time_elapsed":1867523,"subject_id":"92252","group":"Group2","condition":"3_Rep","full_date":"2026-02-27T17:34:32.501Z","date":"2026-02-27","time":"17:34:32"},{"rt":null,"stimulus":"<p style=\"font-size: 50px; margin: 0; text-align: center;\">+</p>","response":null,"trial_type":"html-keyboard-response","trial_index":178,"plugin_version":"2.1.0","time_elapsed":1868536,"subject_id":"92252","group":"Group2","condition":"3_Rep","full_date":"2026-02-27T17:34:32.501Z","date":"2026-02-27","time":"17:34:32"},{"task":"memory_phase","broad_category":"I","image_png":"I_Obsidian_06.png","image_id":86,"category_name":"Obsidian","category":6,"distinct_rating":8.01,"distinct_type":"Top","rt":null,"stimulus":"Stimuli_Rocks480/I_Obsidian_06.png","response":null,"trial_type":"image-keyboard-response","trial_index":179,"plugin_version":"2.1.0","time_elapsed":1871042,"subject_id":"92252","group":"Group2","condition":"3_Rep","full_date":"2026-02-27T17:34:32.501Z","date":"2026-02-27","time":"17:34:32"},{"rt":null,"stimulus":"<p style=\"font-size: 50px; margin: 0; text-align: center;\">+</p>","response":null,"trial_type":"html-keyboard-response","trial_index":180,"plugin_version":"2.1.0","time_elapsed":1872054,"subject_id":"92252","group":"Group2","condition":"3_Rep","full_date":"2026-02-27T17:34:32.501Z","date":"2026-02-27","time":"17:34:32"},{"task":"memory_phase","broad_category":"I","image_png":"I_Pegmatite_11.png","image_id":107,"category_name":"Pegmatite","category":7,"distinct_rating":7.11,"distinct_type":"Top","rt":null,"stimulus":"Stimuli_Rocks480/I_Pegmatite_11.png","response":null,"trial_type":"image-keyboard-response","trial_index":181,"plugin_version":"2.1.0","time_elapsed":1874561,"subject_id":"92252","group":"Group2","condition":"3_Rep","full_date":"2026-02-27T17:34:32.501Z","date":"2026-02-27","time":"17:34:32"},{"rt":null,"stimulus":"<p style=\"font-size: 50px; margin: 0; text-align: center;\">+</p>","response":null,"trial_type":"html-keyboard-response","trial_index":182,"plugin_version":"2.1.0","time_elapsed":1875575,"subject_id":"92252","group":"Group2","condition":"3_Rep","full_date":"2026-02-27T17:34:32.501Z","date":"2026-02-27","time":"17:34:32"},{"task":"memory_phase","broad_category":"S","image_png":"S_Shale_07.png","image_id":471,"category_name":"Shale","category":30,"distinct_rating":2.73,"distinct_type":"Bottom","rt":null,"stimulus":"Stimuli_Rocks480/S_Shale_07.png","response":null,"trial_type":"image-keyboard-response","trial_index":183,"plugin_version":"2.1.0","time_elapsed":1878081,"subject_id":"92252","group":"Group2","condition":"3_Rep","full_date":"2026-02-27T17:34:32.501Z","date":"2026-02-27","time":"17:34:32"},{"rt":null,"stimulus":"<p style=\"font-size: 50px; margin: 0; text-align: center;\">+</p>","response":null,"trial_type":"html-keyboard-response","trial_index":184,"plugin_version":"2.1.0","time_elapsed":1879083,"subject_id":"92252","group":"Group2","condition":"3_Rep","full_date":"2026-02-27T17:34:32.501Z","date":"2026-02-27","time":"17:34:32"},{"task":"memory_phase","broad_category":"I","image_png":"I_Gabbro_02.png","image_id":50,"category_name":"Gabbro","category":4,"distinct_rating":2.73,"distinct_type":"Bottom","rt":null,"stimulus":"Stimuli_Rocks480/I_Gabbro_02.png","response":null,"trial_type":"image-keyboard-response","trial_index":185,"plugin_version":"2.1.0","time_elapsed":1881595,"subject_id":"92252","group":"Group2","condition":"3_Rep","full_date":"2026-02-27T17:34:32.501Z","date":"2026-02-27","time":"17:34:32"},{"rt":null,"stimulus":"<p style=\"font-size: 50px; margin: 0; text-align: center;\">+</p>","response":null,"trial_type":"html-keyboard-response","trial_index":186,"plugin_version":"2.1.0","time_elapsed":1882610,"subject_id":"92252","group":"Group2","condition":"3_Rep","full_date":"2026-02-27T17:34:32.501Z","date":"2026-02-27","time":"17:34:32"},{"task":"memory_phase","broad_category":"M","image_png":"M_Marble_03.png","image_id":227,"category_name":"Marble","category":15,"distinct_rating":2.67,"distinct_type":"Bottom","rt":null,"stimulus":"Stimuli_Rocks480/M_Marble_03.png","response":null,"trial_type":"image-keyboard-response","trial_index":187,"plugin_version":"2.1.0","time_elapsed":1885122,"subject_id":"92252","group":"Group2","condition":"3_Rep","full_date":"2026-02-27T17:34:32.501Z","date":"2026-02-27","time":"17:34:32"},{"rt":null,"stimulus":"<p style=\"font-size: 50px; margin: 0; text-align: center;\">+</p>","response":null,"trial_type":"html-keyboard-response","trial_index":188,"plugin_version":"2.1.0","time_elapsed":1886137,"subject_id":"92252","group":"Group2","condition":"3_Rep","full_date":"2026-02-27T17:34:32.501Z","date":"2026-02-27","time":"17:34:32"},{"task":"memory_phase","broad_category":"I","image_png":"I_Pegmatite_03.png","image_id":99,"category_name":"Pegmatite","category":7,"distinct_rating":7.24,"distinct_type":"Top","rt":null,"stimulus":"Stimuli_Rocks480/I_Pegmatite_03.png","response":null,"trial_type":"image-keyboard-response","trial_index":189,"plugin_version":"2.1.0","time_elapsed":1888653,"subject_id":"92252","group":"Group2","condition":"3_Rep","full_date":"2026-02-27T17:34:32.501Z","date":"2026-02-27","time":"17:34:32"},{"rt":null,"stimulus":"<p style=\"font-size: 50px; margin: 0; text-align: center;\">+</p>","response":null,"trial_type":"html-keyboard-response","trial_index":190,"plugin_version":"2.1.0","time_elapsed":1889655,"subject_id":"92252","group":"Group2","condition":"3_Rep","full_date":"2026-02-27T17:34:32.501Z","date":"2026-02-27","time":"17:34:32"},{"task":"memory_phase","broad_category":"S","image_png":"S_Shale_03.png","image_id":467,"category_name":"Shale","category":30,"distinct_rating":1.95,"distinct_type":"Bottom","rt":null,"stimulus":"Stimuli_Rocks480/S_Shale_03.png","response":null,"trial_type":"image-keyboard-response","trial_index":191,"plugin_version":"2.1.0","time_elapsed":1892173,"subject_id":"92252","group":"Group2","condition":"3_Rep","full_date":"2026-02-27T17:34:32.501Z","date":"2026-02-27","time":"17:34:32"},{"rt":null,"stimulus":"<p style=\"font-size: 50px; margin: 0; text-align: center;\">+</p>","response":null,"trial_type":"html-keyboard-response","trial_index":192,"plugin_version":"2.1.0","time_elapsed":1893176,"subject_id":"92252","group":"Group2","condition":"3_Rep","full_date":"2026-02-27T17:34:32.501Z","date":"2026-02-27","time":"17:34:32"},{"task":"memory_phase","broad_category":"M","image_png":"M_Slate_04.png","image_id":308,"category_name":"Slate","category":20,"distinct_rating":2.2,"distinct_type":"Bottom","rt":null,"stimulus":"Stimuli_Rocks480/M_Slate_04.png","response":null,"trial_type":"image-keyboard-response","trial_index":193,"plugin_version":"2.1.0","time_elapsed":1895682,"subject_id":"92252","group":"Group2","condition":"3_Rep","full_date":"2026-02-27T17:34:32.501Z","date":"2026-02-27","time":"17:34:32"},{"rt":null,"stimulus":"<p style=\"font-size: 50px; margin: 0; text-align: center;\">+</p>","response":null,"trial_type":"html-keyboard-response","trial_index":194,"plugin_version":"2.1.0","time_elapsed":1896700,"subject_id":"92252","group":"Group2","condition":"3_Rep","full_date":"2026-02-27T17:34:32.501Z","date":"2026-02-27","time":"17:34:32"},{"task":"memory_phase","broad_category":"S","image_png":"S_Dolomite_01.png","image_id":385,"category_name":"Dolomite","category":25,"distinct_rating":1.43,"distinct_type":"Bottom","rt":null,"stimulus":"Stimuli_Rocks480/S_Dolomite_01.png","response":null,"trial_type":"image-keyboard-response","trial_index":195,"plugin_version":"2.1.0","time_elapsed":1899216,"subject_id":"92252","group":"Group2","condition":"3_Rep","full_date":"2026-02-27T17:34:32.501Z","date":"2026-02-27","time":"17:34:32"},{"rt":null,"stimulus":"<p style=\"font-size: 50px; margin: 0; text-align: center;\">+</p>","response":null,"trial_type":"html-keyboard-response","trial_index":196,"plugin_version":"2.1.0","time_elapsed":1900232,"subject_id":"92252","group":"Group2","condition":"3_Rep","full_date":"2026-02-27T17:34:32.501Z","date":"2026-02-27","time":"17:34:32"},{"task":"memory_phase","broad_category":"I","image_png":"I_Peridotite_13.png","image_id":125,"category_name":"Peridotite","category":8,"distinct_rating":7.28,"distinct_type":"Top","rt":null,"stimulus":"Stimuli_Rocks480/I_Peridotite_13.png","response":null,"trial_type":"image-keyboard-response","trial_index":197,"plugin_version":"2.1.0","time_elapsed":1902735,"subject_id":"92252","group":"Group2","condition":"3_Rep","full_date":"2026-02-27T17:34:32.501Z","date":"2026-02-27","time":"17:34:32"},{"rt":null,"stimulus":"<p style=\"font-size: 50px; margin: 0; text-align: center;\">+</p>","response":null,"trial_type":"html-keyboard-response","trial_index":198,"plugin_version":"2.1.0","time_elapsed":1903750,"subject_id":"92252","group":"Group2","condition":"3_Rep","full_date":"2026-02-27T17:34:32.501Z","date":"2026-02-27","time":"17:34:32"},{"task":"memory_phase","broad_category":"I","image_png":"I_Rhyolite_08.png","image_id":152,"category_name":"Rhyolite","category":10,"distinct_rating":1.38,"distinct_type":"Bottom","rt":null,"stimulus":"Stimuli_Rocks480/I_Rhyolite_08.png","response":null,"trial_type":"image-keyboard-response","trial_index":199,"plugin_version":"2.1.0","time_elapsed":1906265,"subject_id":"92252","group":"Group2","condition":"3_Rep","full_date":"2026-02-27T17:34:32.501Z","date":"2026-02-27","time":"17:34:32"},{"rt":null,"stimulus":"<p style=\"font-size: 50px; margin: 0; text-align: center;\">+</p>","response":null,"trial_type":"html-keyboard-response","trial_index":200,"plugin_version":"2.1.0","time_elapsed":1907279,"subject_id":"92252","group":"Group2","condition":"3_Rep","full_date":"2026-02-27T17:34:32.501Z","date":"2026-02-27","time":"17:34:32"},{"task":"memory_phase","broad_category":"M","image_png":"M_Gneiss_10.png","image_id":202,"category_name":"Gneiss","category":13,"distinct_rating":3.09,"distinct_type":"Bottom","rt":null,"stimulus":"Stimuli_Rocks480/M_Gneiss_10.png","response":null,"trial_type":"image-keyboard-response","trial_index":201,"plugin_version":"2.1.0","time_elapsed":1909793,"subject_id":"92252","group":"Group2","condition":"3_Rep","full_date":"2026-02-27T17:34:32.501Z","date":"2026-02-27","time":"17:34:32"},{"rt":null,"stimulus":"<p style=\"font-size: 50px; margin: 0; text-align: center;\">+</p>","response":null,"trial_type":"html-keyboard-response","trial_index":202,"plugin_version":"2.1.0","time_elapsed":1910800,"subject_id":"92252","group":"Group2","condition":"3_Rep","full_date":"2026-02-27T17:34:32.501Z","date":"2026-02-27","time":"17:34:32"},{"task":"memory_phase","broad_category":"M","image_png":"M_Phyllite_02.png","image_id":258,"category_name":"Phyllite","category":17,"distinct_rating":2.89,"distinct_type":"Bottom","rt":null,"stimulus":"Stimuli_Rocks480/M_Phyllite_02.png","response":null,"trial_type":"image-keyboard-response","trial_index":203,"plugin_version":"2.1.0","time_elapsed":1913315,"subject_id":"92252","group":"Group2","condition":"3_Rep","full_date":"2026-02-27T17:34:32.501Z","date":"2026-02-27","time":"17:34:32"},{"rt":null,"stimulus":"<p style=\"font-size: 50px; margin: 0; text-align: center;\">+</p>","response":null,"trial_type":"html-keyboard-response","trial_index":204,"plugin_version":"2.1.0","time_elapsed":1914318,"subject_id":"92252","group":"Group2","condition":"3_Rep","full_date":"2026-02-27T17:34:32.501Z","date":"2026-02-27","time":"17:34:32"},{"task":"memory_phase","broad_category":"I","image_png":"I_Andesite_04.png","image_id":4,"category_name":"Andesite","category":1,"distinct_rating":3.18,"distinct_type":"Bottom","rt":null,"stimulus":"Stimuli_Rocks480/I_Andesite_04.png","response":null,"trial_type":"image-keyboard-response","trial_index":205,"plugin_version":"2.1.0","time_elapsed":1916826,"subject_id":"92252","group":"Group2","condition":"3_Rep","full_date":"2026-02-27T17:34:32.501Z","date":"2026-02-27","time":"17:34:32"},{"rt":null,"stimulus":"<p style=\"font-size: 50px; margin: 0; text-align: center;\">+</p>","response":null,"trial_type":"html-keyboard-response","trial_index":206,"plugin_version":"2.1.0","time_elapsed":1917842,"subject_id":"92252","group":"Group2","condition":"3_Rep","full_date":"2026-02-27T17:34:32.501Z","date":"2026-02-27","time":"17:34:32"},{"task":"memory_phase","broad_category":"S","image_png":"S_Shale_02.png","image_id":466,"category_name":"Shale","category":30,"distinct_rating":2.9,"distinct_type":"Bottom","rt":null,"stimulus":"Stimuli_Rocks480/S_Shale_02.png","response":null,"trial_type":"image-keyboard-response","trial_index":207,"plugin_version":"2.1.0","time_elapsed":1920351,"subject_id":"92252","group":"Group2","condition":"3_Rep","full_date":"2026-02-27T17:34:32.501Z","date":"2026-02-27","time":"17:34:32"},{"rt":770333,"stimulus":"<p style=\"max-width: 760px; margin: auto; font-size: 35px; line-height: 1.5;\">\n                You have completed 2 study phases. \n                Now, we'll show you all the images again 1 more time.\n                <br><br>Press SPACE to continue\n              </p>","response":" ","trial_type":"html-keyboard-response","trial_index":208,"plugin_version":"2.1.0","time_elapsed":2690685,"subject_id":"92252","group":"Group2","condition":"3_Rep","full_date":"2026-02-27T17:34:32.501Z","date":"2026-02-27","time":"17:34:32"},{"rt":null,"stimulus":"<p style=\"font-size: 50px; margin: 0; text-align: center;\">+</p>","response":null,"trial_type":"html-keyboard-response","trial_index":209,"plugin_version":"2.1.0","time_elapsed":2691700,"subject_id":"92252","group":"Group2","condition":"3_Rep","full_date":"2026-02-27T17:34:32.501Z","date":"2026-02-27","time":"17:34:32"},{"task":"memory_phase","broad_category":"S","image_png":"S_Sandstone_04.png","image_id":452,"category_name":"Sandstone","category":29,"distinct_rating":1.8,"distinct_type":"Bottom","rt":null,"stimulus":"Stimuli_Rocks480/S_Sandstone_04.png","response":null,"trial_type":"image-keyboard-response","trial_index":210,"plugin_version":"2.1.0","time_elapsed":2694214,"subject_id":"92252","group":"Group2","condition":"3_Rep","full_date":"2026-02-27T17:34:32.501Z","date":"2026-02-27","time":"17:34:32"},{"rt":null,"stimulus":"<p style=\"font-size: 50px; margin: 0; text-align: center;\">+</p>","response":null,"trial_type":"html-keyboard-response","trial_index":211,"plugin_version":"2.1.0","time_elapsed":2695217,"subject_id":"92252","group":"Group2","condition":"3_Rep","full_date":"2026-02-27T17:34:32.501Z","date":"2026-02-27","time":"17:34:32"},{"task":"memory_phase","broad_category":"I","image_png":"I_Basalt_10.png","image_id":26,"category_name":"Basalt","category":2,"distinct_rating":2.76,"distinct_type":"Bottom","rt":null,"stimulus":"Stimuli_Rocks480/I_Basalt_10.png","response":null,"trial_type":"image-keyboard-response","trial_index":212,"plugin_version":"2.1.0","time_elapsed":2697724,"subject_id":"92252","group":"Group2","condition":"3_Rep","full_date":"2026-02-27T17:34:32.501Z","date":"2026-02-27","time":"17:34:32"},{"rt":null,"stimulus":"<p style=\"font-size: 50px; margin: 0; text-align: center;\">+</p>","response":null,"trial_type":"html-keyboard-response","trial_index":213,"plugin_version":"2.1.0","time_elapsed":2698726,"subject_id":"92252","group":"Group2","condition":"3_Rep","full_date":"2026-02-27T17:34:32.501Z","date":"2026-02-27","time":"17:34:32"},{"task":"memory_phase","broad_category":"M","image_png":"M_Quartzite_15.png","image_id":287,"category_name":"Quartzite","category":18,"distinct_rating":2.19,"distinct_type":"Bottom","rt":null,"stimulus":"Stimuli_Rocks480/M_Quartzite_15.png","response":null,"trial_type":"image-keyboard-response","trial_index":214,"plugin_version":"2.1.0","time_elapsed":2701235,"subject_id":"92252","group":"Group2","condition":"3_Rep","full_date":"2026-02-27T17:34:32.501Z","date":"2026-02-27","time":"17:34:32"},{"rt":null,"stimulus":"<p style=\"font-size: 50px; margin: 0; text-align: center;\">+</p>","response":null,"trial_type":"html-keyboard-response","trial_index":215,"plugin_version":"2.1.0","time_elapsed":2702238,"subject_id":"92252","group":"Group2","condition":"3_Rep","full_date":"2026-02-27T17:34:32.501Z","date":"2026-02-27","time":"17:34:32"},{"task":"memory_phase","broad_category":"I","image_png":"I_Gabbro_12.png","image_id":60,"category_name":"Gabbro","category":4,"distinct_rating":2.6,"distinct_type":"Bottom","rt":null,"stimulus":"Stimuli_Rocks480/I_Gabbro_12.png","response":null,"trial_type":"image-keyboard-response","trial_index":216,"plugin_version":"2.1.0","time_elapsed":2704748,"subject_id":"92252","group":"Group2","condition":"3_Rep","full_date":"2026-02-27T17:34:32.501Z","date":"2026-02-27","time":"17:34:32"},{"rt":null,"stimulus":"<p style=\"font-size: 50px; margin: 0; text-align: center;\">+</p>","response":null,"trial_type":"html-keyboard-response","trial_index":217,"plugin_version":"2.1.0","time_elapsed":2705763,"subject_id":"92252","group":"Group2","condition":"3_Rep","full_date":"2026-02-27T17:34:32.501Z","date":"2026-02-27","time":"17:34:32"},{"task":"memory_phase","broad_category":"M","image_png":"M_Quartzite_07.png","image_id":279,"category_name":"Quartzite","category":18,"distinct_rating":1.97,"distinct_type":"Bottom","rt":null,"stimulus":"Stimuli_Rocks480/M_Quartzite_07.png","response":null,"trial_type":"image-keyboard-response","trial_index":218,"plugin_version":"2.1.0","time_elapsed":2708275,"subject_id":"92252","group":"Group2","condition":"3_Rep","full_date":"2026-02-27T17:34:32.501Z","date":"2026-02-27","time":"17:34:32"},{"rt":null,"stimulus":"<p style=\"font-size: 50px; margin: 0; text-align: center;\">+</p>","response":null,"trial_type":"html-keyboard-response","trial_index":219,"plugin_version":"2.1.0","time_elapsed":2709292,"subject_id":"92252","group":"Group2","condition":"3_Rep","full_date":"2026-02-27T17:34:32.501Z","date":"2026-02-27","time":"17:34:32"},{"task":"memory_phase","broad_category":"M","image_png":"M_Phyllite_02.png","image_id":258,"category_name":"Phyllite","category":17,"distinct_rating":2.89,"distinct_type":"Bottom","rt":null,"stimulus":"Stimuli_Rocks480/M_Phyllite_02.png","response":null,"trial_type":"image-keyboard-response","trial_index":220,"plugin_version":"2.1.0","time_elapsed":2711808,"subject_id":"92252","group":"Group2","condition":"3_Rep","full_date":"2026-02-27T17:34:32.501Z","date":"2026-02-27","time":"17:34:32"},{"rt":null,"stimulus":"<p style=\"font-size: 50px; margin: 0; text-align: center;\">+</p>","response":null,"trial_type":"html-keyboard-response","trial_index":221,"plugin_version":"2.1.0","time_elapsed":2712821,"subject_id":"92252","group":"Group2","condition":"3_Rep","full_date":"2026-02-27T17:34:32.501Z","date":"2026-02-27","time":"17:34:32"},{"task":"memory_phase","broad_category":"I","image_png":"I_Pumice_14.png","image_id":142,"category_name":"Pumice","category":9,"distinct_rating":3.22,"distinct_type":"Bottom","rt":null,"stimulus":"Stimuli_Rocks480/I_Pumice_14.png","response":null,"trial_type":"image-keyboard-response","trial_index":222,"plugin_version":"2.1.0","time_elapsed":2715325,"subject_id":"92252","group":"Group2","condition":"3_Rep","full_date":"2026-02-27T17:34:32.501Z","date":"2026-02-27","time":"17:34:32"},{"rt":null,"stimulus":"<p style=\"font-size: 50px; margin: 0; text-align: center;\">+</p>","response":null,"trial_type":"html-keyboard-response","trial_index":223,"plugin_version":"2.1.0","time_elapsed":2716338,"subject_id":"92252","group":"Group2","condition":"3_Rep","full_date":"2026-02-27T17:34:32.501Z","date":"2026-02-27","time":"17:34:32"},{"task":"memory_phase","broad_category":"I","image_png":"I_Diorite_10.png","image_id":42,"category_name":"Diorite","category":3,"distinct_rating":2.84,"distinct_type":"Bottom","rt":null,"stimulus":"Stimuli_Rocks480/I_Diorite_10.png","response":null,"trial_type":"image-keyboard-response","trial_index":224,"plugin_version":"2.1.0","time_elapsed":2718847,"subject_id":"92252","group":"Group2","condition":"3_Rep","full_date":"2026-02-27T17:34:32.501Z","date":"2026-02-27","time":"17:34:32"},{"rt":null,"stimulus":"<p style=\"font-size: 50px; margin: 0; text-align: center;\">+</p>","response":null,"trial_type":"html-keyboard-response","trial_index":225,"plugin_version":"2.1.0","time_elapsed":2719854,"subject_id":"92252","group":"Group2","condition":"3_Rep","full_date":"2026-02-27T17:34:32.501Z","date":"2026-02-27","time":"17:34:32"},{"task":"memory_phase","broad_category":"I","image_png":"I_Rhyolite_10.png","image_id":154,"category_name":"Rhyolite","category":10,"distinct_rating":2.88,"distinct_type":"Bottom","rt":null,"stimulus":"Stimuli_Rocks480/I_Rhyolite_10.png","response":null,"trial_type":"image-keyboard-response","trial_index":226,"plugin_version":"2.1.0","time_elapsed":2722371,"subject_id":"92252","group":"Group2","condition":"3_Rep","full_date":"2026-02-27T17:34:32.501Z","date":"2026-02-27","time":"17:34:32"},{"rt":null,"stimulus":"<p style=\"font-size: 50px; margin: 0; text-align: center;\">+</p>","response":null,"trial_type":"html-keyboard-response","trial_index":227,"plugin_version":"2.1.0","time_elapsed":2723373,"subject_id":"92252","group":"Group2","condition":"3_Rep","full_date":"2026-02-27T17:34:32.501Z","date":"2026-02-27","time":"17:34:32"},{"task":"memory_phase","broad_category":"M","image_png":"M_Slate_04.png","image_id":308,"category_name":"Slate","category":20,"distinct_rating":2.2,"distinct_type":"Bottom","rt":null,"stimulus":"Stimuli_Rocks480/M_Slate_04.png","response":null,"trial_type":"image-keyboard-response","trial_index":228,"plugin_version":"2.1.0","time_elapsed":2725888,"subject_id":"92252","group":"Group2","condition":"3_Rep","full_date":"2026-02-27T17:34:32.501Z","date":"2026-02-27","time":"17:34:32"},{"rt":null,"stimulus":"<p style=\"font-size: 50px; margin: 0; text-align: center;\">+</p>","response":null,"trial_type":"html-keyboard-response","trial_index":229,"plugin_version":"2.1.0","time_elapsed":2726892,"subject_id":"92252","group":"Group2","condition":"3_Rep","full_date":"2026-02-27T17:34:32.501Z","date":"2026-02-27","time":"17:34:32"},{"task":"memory_phase","broad_category":"I","image_png":"I_Pumice_01.png","image_id":129,"category_name":"Pumice","category":9,"distinct_rating":3.25,"distinct_type":"Bottom","rt":null,"stimulus":"Stimuli_Rocks480/I_Pumice_01.png","response":null,"trial_type":"image-keyboard-response","trial_index":230,"plugin_version":"2.1.0","time_elapsed":2729400,"subject_id":"92252","group":"Group2","condition":"3_Rep","full_date":"2026-02-27T17:34:32.501Z","date":"2026-02-27","time":"17:34:32"},{"rt":null,"stimulus":"<p style=\"font-size: 50px; margin: 0; text-align: center;\">+</p>","response":null,"trial_type":"html-keyboard-response","trial_index":231,"plugin_version":"2.1.0","time_elapsed":2730416,"subject_id":"92252","group":"Group2","condition":"3_Rep","full_date":"2026-02-27T17:34:32.501Z","date":"2026-02-27","time":"17:34:32"},{"task":"memory_phase","broad_category":"I","image_png":"I_Obsidian_06.png","image_id":86,"category_name":"Obsidian","category":6,"distinct_rating":8.01,"distinct_type":"Top","rt":null,"stimulus":"Stimuli_Rocks480/I_Obsidian_06.png","response":null,"trial_type":"image-keyboard-response","trial_index":232,"plugin_version":"2.1.0","time_elapsed":2732931,"subject_id":"92252","group":"Group2","condition":"3_Rep","full_date":"2026-02-27T17:34:32.501Z","date":"2026-02-27","time":"17:34:32"},{"rt":null,"stimulus":"<p style=\"font-size: 50px; margin: 0; text-align: center;\">+</p>","response":null,"trial_type":"html-keyboard-response","trial_index":233,"plugin_version":"2.1.0","time_elapsed":2733943,"subject_id":"92252","group":"Group2","condition":"3_Rep","full_date":"2026-02-27T17:34:32.501Z","date":"2026-02-27","time":"17:34:32"},{"task":"memory_phase","broad_category":"M","image_png":"M_Slate_14.png","image_id":318,"category_name":"Slate","category":20,"distinct_rating":2.58,"distinct_type":"Bottom","rt":null,"stimulus":"Stimuli_Rocks480/M_Slate_14.png","response":null,"trial_type":"image-keyboard-response","trial_index":234,"plugin_version":"2.1.0","time_elapsed":2736446,"subject_id":"92252","group":"Group2","condition":"3_Rep","full_date":"2026-02-27T17:34:32.501Z","date":"2026-02-27","time":"17:34:32"},{"rt":null,"stimulus":"<p style=\"font-size: 50px; margin: 0; text-align: center;\">+</p>","response":null,"trial_type":"html-keyboard-response","trial_index":235,"plugin_version":"2.1.0","time_elapsed":2737459,"subject_id":"92252","group":"Group2","condition":"3_Rep","full_date":"2026-02-27T17:34:32.501Z","date":"2026-02-27","time":"17:34:32"},{"task":"memory_phase","broad_category":"I","image_png":"I_Diorite_01.png","image_id":33,"ca