[{"width":1440,"height":692,"webaudio":true,"browser":"chrome","browser_version":"143.0.0","mobile":false,"os":"Mac OS","fullscreen":true,"vsync_rate":60.33,"webcam":true,"microphone":true,"trial_type":"browser-check","trial_index":0,"plugin_version":"2.1.0","time_elapsed":1007,"subject_id":"91913","group":"Group2","condition":"1_Rep","full_date":"2026-03-02T23:26:34.250Z","date":"2026-03-02","time":"23:26:34"},{"success":true,"timeout":false,"failed_images":[],"failed_audio":[],"failed_video":[],"trial_type":"preload","trial_index":1,"plugin_version":"2.1.0","time_elapsed":13869,"subject_id":"91913","group":"Group2","condition":"1_Rep","full_date":"2026-03-02T23:26:34.250Z","date":"2026-03-02","time":"23:26:34"},{"rt":10218,"url":"SONA_consent_memorability.html","trial_type":"external-html","trial_index":2,"plugin_version":"2.1.0","time_elapsed":24137,"subject_id":"91913","group":"Group2","condition":"1_Rep","full_date":"2026-03-02T23:26:34.250Z","date":"2026-03-02","time":"23:26:34"},{"success":true,"rt":1298,"trial_type":"fullscreen","trial_index":3,"plugin_version":"2.1.0","time_elapsed":26441,"subject_id":"91913","group":"Group2","condition":"1_Rep","full_date":"2026-03-02T23:26:34.250Z","date":"2026-03-02","time":"23:26:34"},{"rt":9793,"stimulus":"<div style=\"max-width: 760px; margin: auto; font-size: 20px; line-height: 1.5;\">\n      <h1 style=\"text-align:center; font-size: 30px;\">Instructions</h1>\n      <p>\n        Welcome to the study on <b>visual memory</b>. This experiment consists of <b>two phases</b>: \n        a <b>study phase</b> and a <b>test phase</b>.\n      </p>\n      <p>\n        In the study phase, you will see a series of rock images along with their category labels.\n        The images will appear one at a time.\n        <b>Your task</b> is to learn the categories to which the rock images belong \n        and to remember each image as accurately as possible.\n      </p> \n      <p>\n        Note that you will see each image only <b>once</b> during the study phase. \n          So, please pay close attention and try to remember each image carefully.\n      </p>\n      <p>\n        After the study phase, <b>your memory will be tested</b>. \n        Additional instructions for the test phase will be provided at that time.\n      </p>\n      <p>\n        If your computer has multiple <b>language settings</b> (e.g., English and another language),\n        please make sure it is set to English before starting.\n      </p>\n      <p>\n        You can track your progress using the <b>completion bar</b> at the top of the screen. \n        Please note that the bar will refresh when the test phase begins \n        to give you an accurate sense of your progress in both phases.\n      </p> \n      <p>\n        Press the button below when you are ready to begin.\n      </p>\n    </div>","response":0,"trial_type":"html-button-response","trial_index":4,"plugin_version":"2.1.0","time_elapsed":36238,"subject_id":"91913","group":"Group2","condition":"1_Rep","full_date":"2026-03-02T23:26:34.250Z","date":"2026-03-02","time":"23:26:34"},{"rt":null,"stimulus":"<p style=\"font-size: 50px; margin: 0; text-align: center;\">+</p>","response":null,"trial_type":"html-keyboard-response","trial_index":5,"plugin_version":"2.1.0","time_elapsed":37243,"subject_id":"91913","group":"Group2","condition":"1_Rep","full_date":"2026-03-02T23:26:34.250Z","date":"2026-03-02","time":"23:26:34"},{"task":"memory_phase","broad_category":"I","image_png":"I_Andesite_04.png","image_id":4,"category_name":"Andesite","category":1,"distinct_rating":3.18,"distinct_type":"Bottom","rt":null,"stimulus":"Stimuli_Rocks480/I_Andesite_04.png","response":null,"trial_type":"image-keyboard-response","trial_index":6,"plugin_version":"2.1.0","time_elapsed":39748,"subject_id":"91913","group":"Group2","condition":"1_Rep","full_date":"2026-03-02T23:26:34.250Z","date":"2026-03-02","time":"23:26:34"},{"rt":null,"stimulus":"<p style=\"font-size: 50px; margin: 0; text-align: center;\">+</p>","response":null,"trial_type":"html-keyboard-response","trial_index":7,"plugin_version":"2.1.0","time_elapsed":40751,"subject_id":"91913","group":"Group2","condition":"1_Rep","full_date":"2026-03-02T23:26:34.250Z","date":"2026-03-02","time":"23:26:34"},{"task":"memory_phase","broad_category":"M","image_png":"M_Slate_14.png","image_id":318,"category_name":"Slate","category":20,"distinct_rating":2.58,"distinct_type":"Bottom","rt":null,"stimulus":"Stimuli_Rocks480/M_Slate_14.png","response":null,"trial_type":"image-keyboard-response","trial_index":8,"plugin_version":"2.1.0","time_elapsed":43256,"subject_id":"91913","group":"Group2","condition":"1_Rep","full_date":"2026-03-02T23:26:34.250Z","date":"2026-03-02","time":"23:26:34"},{"rt":null,"stimulus":"<p style=\"font-size: 50px; margin: 0; text-align: center;\">+</p>","response":null,"trial_type":"html-keyboard-response","trial_index":9,"plugin_version":"2.1.0","time_elapsed":44259,"subject_id":"91913","group":"Group2","condition":"1_Rep","full_date":"2026-03-02T23:26:34.250Z","date":"2026-03-02","time":"23:26:34"},{"task":"memory_phase","broad_category":"M","image_png":"M_Gneiss_10.png","image_id":202,"category_name":"Gneiss","category":13,"distinct_rating":3.09,"distinct_type":"Bottom","rt":null,"stimulus":"Stimuli_Rocks480/M_Gneiss_10.png","response":null,"trial_type":"image-keyboard-response","trial_index":10,"plugin_version":"2.1.0","time_elapsed":46763,"subject_id":"91913","group":"Group2","condition":"1_Rep","full_date":"2026-03-02T23:26:34.250Z","date":"2026-03-02","time":"23:26:34"},{"rt":null,"stimulus":"<p style=\"font-size: 50px; margin: 0; text-align: center;\">+</p>","response":null,"trial_type":"html-keyboard-response","trial_index":11,"plugin_version":"2.1.0","time_elapsed":47766,"subject_id":"91913","group":"Group2","condition":"1_Rep","full_date":"2026-03-02T23:26:34.250Z","date":"2026-03-02","time":"23:26:34"},{"task":"memory_phase","broad_category":"I","image_png":"I_Diorite_15.png","image_id":47,"category_name":"Diorite","category":3,"distinct_rating":3.05,"distinct_type":"Bottom","rt":null,"stimulus":"Stimuli_Rocks480/I_Diorite_15.png","response":null,"trial_type":"image-keyboard-response","trial_index":12,"plugin_version":"2.1.0","time_elapsed":50270,"subject_id":"91913","group":"Group2","condition":"1_Rep","full_date":"2026-03-02T23:26:34.250Z","date":"2026-03-02","time":"23:26:34"},{"rt":null,"stimulus":"<p style=\"font-size: 50px; margin: 0; text-align: center;\">+</p>","response":null,"trial_type":"html-keyboard-response","trial_index":13,"plugin_version":"2.1.0","time_elapsed":51272,"subject_id":"91913","group":"Group2","condition":"1_Rep","full_date":"2026-03-02T23:26:34.250Z","date":"2026-03-02","time":"23:26:34"},{"task":"memory_phase","broad_category":"I","image_png":"I_Pumice_01.png","image_id":129,"category_name":"Pumice","category":9,"distinct_rating":3.25,"distinct_type":"Bottom","rt":null,"stimulus":"Stimuli_Rocks480/I_Pumice_01.png","response":null,"trial_type":"image-keyboard-response","trial_index":14,"plugin_version":"2.1.0","time_elapsed":53775,"subject_id":"91913","group":"Group2","condition":"1_Rep","full_date":"2026-03-02T23:26:34.250Z","date":"2026-03-02","time":"23:26:34"},{"rt":null,"stimulus":"<p style=\"font-size: 50px; margin: 0; text-align: center;\">+</p>","response":null,"trial_type":"html-keyboard-response","trial_index":15,"plugin_version":"2.1.0","time_elapsed":54778,"subject_id":"91913","group":"Group2","condition":"1_Rep","full_date":"2026-03-02T23:26:34.250Z","date":"2026-03-02","time":"23:26:34"},{"task":"memory_phase","broad_category":"M","image_png":"M_Quartzite_12.png","image_id":284,"category_name":"Quartzite","category":18,"distinct_rating":1.92,"distinct_type":"Bottom","rt":null,"stimulus":"Stimuli_Rocks480/M_Quartzite_12.png","response":null,"trial_type":"image-keyboard-response","trial_index":16,"plugin_version":"2.1.0","time_elapsed":57282,"subject_id":"91913","group":"Group2","condition":"1_Rep","full_date":"2026-03-02T23:26:34.250Z","date":"2026-03-02","time":"23:26:34"},{"rt":null,"stimulus":"<p style=\"font-size: 50px; margin: 0; text-align: center;\">+</p>","response":null,"trial_type":"html-keyboard-response","trial_index":17,"plugin_version":"2.1.0","time_elapsed":58285,"subject_id":"91913","group":"Group2","condition":"1_Rep","full_date":"2026-03-02T23:26:34.250Z","date":"2026-03-02","time":"23:26:34"},{"task":"memory_phase","broad_category":"S","image_png":"S_Dolomite_01.png","image_id":385,"category_name":"Dolomite","category":25,"distinct_rating":1.43,"distinct_type":"Bottom","rt":null,"stimulus":"Stimuli_Rocks480/S_Dolomite_01.png","response":null,"trial_type":"image-keyboard-response","trial_index":18,"plugin_version":"2.1.0","time_elapsed":60789,"subject_id":"91913","group":"Group2","condition":"1_Rep","full_date":"2026-03-02T23:26:34.250Z","date":"2026-03-02","time":"23:26:34"},{"rt":null,"stimulus":"<p style=\"font-size: 50px; margin: 0; text-align: center;\">+</p>","response":null,"trial_type":"html-keyboard-response","trial_index":19,"plugin_version":"2.1.0","time_elapsed":61792,"subject_id":"91913","group":"Group2","condition":"1_Rep","full_date":"2026-03-02T23:26:34.250Z","date":"2026-03-02","time":"23:26:34"},{"task":"memory_phase","broad_category":"I","image_png":"I_Obsidian_06.png","image_id":86,"category_name":"Obsidian","category":6,"distinct_rating":8.01,"distinct_type":"Top","rt":null,"stimulus":"Stimuli_Rocks480/I_Obsidian_06.png","response":null,"trial_type":"image-keyboard-response","trial_index":20,"plugin_version":"2.1.0","time_elapsed":64296,"subject_id":"91913","group":"Group2","condition":"1_Rep","full_date":"2026-03-02T23:26:34.250Z","date":"2026-03-02","time":"23:26:34"},{"rt":null,"stimulus":"<p style=\"font-size: 50px; margin: 0; text-align: center;\">+</p>","response":null,"trial_type":"html-keyboard-response","trial_index":21,"plugin_version":"2.1.0","time_elapsed":65300,"subject_id":"91913","group":"Group2","condition":"1_Rep","full_date":"2026-03-02T23:26:34.250Z","date":"2026-03-02","time":"23:26:34"},{"task":"memory_phase","broad_category":"I","image_png":"I_Pegmatite_03.png","image_id":99,"category_name":"Pegmatite","category":7,"distinct_rating":7.24,"distinct_type":"Top","rt":null,"stimulus":"Stimuli_Rocks480/I_Pegmatite_03.png","response":null,"trial_type":"image-keyboard-response","trial_index":22,"plugin_version":"2.1.0","time_elapsed":67804,"subject_id":"91913","group":"Group2","condition":"1_Rep","full_date":"2026-03-02T23:26:34.250Z","date":"2026-03-02","time":"23:26:34"},{"rt":null,"stimulus":"<p style=\"font-size: 50px; margin: 0; text-align: center;\">+</p>","response":null,"trial_type":"html-keyboard-response","trial_index":23,"plugin_version":"2.1.0","time_elapsed":68806,"subject_id":"91913","group":"Group2","condition":"1_Rep","full_date":"2026-03-02T23:26:34.250Z","date":"2026-03-02","time":"23:26:34"},{"task":"memory_phase","broad_category":"M","image_png":"M_Marble_02.png","image_id":226,"category_name":"Marble","category":15,"distinct_rating":3.2,"distinct_type":"Bottom","rt":null,"stimulus":"Stimuli_Rocks480/M_Marble_02.png","response":null,"trial_type":"image-keyboard-response","trial_index":24,"plugin_version":"2.1.0","time_elapsed":71311,"subject_id":"91913","group":"Group2","condition":"1_Rep","full_date":"2026-03-02T23:26:34.250Z","date":"2026-03-02","time":"23:26:34"},{"rt":null,"stimulus":"<p style=\"font-size: 50px; margin: 0; text-align: center;\">+</p>","response":null,"trial_type":"html-keyboard-response","trial_index":25,"plugin_version":"2.1.0","time_elapsed":72314,"subject_id":"91913","group":"Group2","condition":"1_Rep","full_date":"2026-03-02T23:26:34.250Z","date":"2026-03-02","time":"23:26:34"},{"task":"memory_phase","broad_category":"M","image_png":"M_Phyllite_05.png","image_id":261,"category_name":"Phyllite","category":17,"distinct_rating":2.14,"distinct_type":"Bottom","rt":null,"stimulus":"Stimuli_Rocks480/M_Phyllite_05.png","response":null,"trial_type":"image-keyboard-response","trial_index":26,"plugin_version":"2.1.0","time_elapsed":74818,"subject_id":"91913","group":"Group2","condition":"1_Rep","full_date":"2026-03-02T23:26:34.250Z","date":"2026-03-02","time":"23:26:34"},{"rt":null,"stimulus":"<p style=\"font-size: 50px; margin: 0; text-align: center;\">+</p>","response":null,"trial_type":"html-keyboard-response","trial_index":27,"plugin_version":"2.1.0","time_elapsed":75820,"subject_id":"91913","group":"Group2","condition":"1_Rep","full_date":"2026-03-02T23:26:34.250Z","date":"2026-03-02","time":"23:26:34"},{"task":"memory_phase","broad_category":"M","image_png":"M_Marble_03.png","image_id":227,"category_name":"Marble","category":15,"distinct_rating":2.67,"distinct_type":"Bottom","rt":null,"stimulus":"Stimuli_Rocks480/M_Marble_03.png","response":null,"trial_type":"image-keyboard-response","trial_index":28,"plugin_version":"2.1.0","time_elapsed":78324,"subject_id":"91913","group":"Group2","condition":"1_Rep","full_date":"2026-03-02T23:26:34.250Z","date":"2026-03-02","time":"23:26:34"},{"rt":null,"stimulus":"<p style=\"font-size: 50px; margin: 0; text-align: center;\">+</p>","response":null,"trial_type":"html-keyboard-response","trial_index":29,"plugin_version":"2.1.0","time_elapsed":79327,"subject_id":"91913","group":"Group2","condition":"1_Rep","full_date":"2026-03-02T23:26:34.250Z","date":"2026-03-02","time":"23:26:34"},{"task":"memory_phase","broad_category":"S","image_png":"S_Sandstone_08.png","image_id":456,"category_name":"Sandstone","category":29,"distinct_rating":1.5,"distinct_type":"Bottom","rt":null,"stimulus":"Stimuli_Rocks480/S_Sandstone_08.png","response":null,"trial_type":"image-keyboard-response","trial_index":30,"plugin_version":"2.1.0","time_elapsed":81831,"subject_id":"91913","group":"Group2","condition":"1_Rep","full_date":"2026-03-02T23:26:34.250Z","date":"2026-03-02","time":"23:26:34"},{"rt":null,"stimulus":"<p style=\"font-size: 50px; margin: 0; text-align: center;\">+</p>","response":null,"trial_type":"html-keyboard-response","trial_index":31,"plugin_version":"2.1.0","time_elapsed":82833,"subject_id":"91913","group":"Group2","condition":"1_Rep","full_date":"2026-03-02T23:26:34.250Z","date":"2026-03-02","time":"23:26:34"},{"task":"memory_phase","broad_category":"S","image_png":"S_Dolomite_07.png","image_id":391,"category_name":"Dolomite","category":25,"distinct_rating":1.73,"distinct_type":"Bottom","rt":null,"stimulus":"Stimuli_Rocks480/S_Dolomite_07.png","response":null,"trial_type":"image-keyboard-response","trial_index":32,"plugin_version":"2.1.0","time_elapsed":85337,"subject_id":"91913","group":"Group2","condition":"1_Rep","full_date":"2026-03-02T23:26:34.250Z","date":"2026-03-02","time":"23:26:34"},{"rt":null,"stimulus":"<p style=\"font-size: 50px; margin: 0; text-align: center;\">+</p>","response":null,"trial_type":"html-keyboard-response","trial_index":33,"plugin_version":"2.1.0","time_elapsed":86340,"subject_id":"91913","group":"Group2","condition":"1_Rep","full_date":"2026-03-02T23:26:34.250Z","date":"2026-03-02","time":"23:26:34"},{"task":"memory_phase","broad_category":"M","image_png":"M_Gneiss_14.png","image_id":206,"category_name":"Gneiss","category":13,"distinct_rating":3.41,"distinct_type":"Bottom","rt":null,"stimulus":"Stimuli_Rocks480/M_Gneiss_14.png","response":null,"trial_type":"image-keyboard-response","trial_index":34,"plugin_version":"2.1.0","time_elapsed":88844,"subject_id":"91913","group":"Group2","condition":"1_Rep","full_date":"2026-03-02T23:26:34.250Z","date":"2026-03-02","time":"23:26:34"},{"rt":null,"stimulus":"<p style=\"font-size: 50px; margin: 0; text-align: center;\">+</p>","response":null,"trial_type":"html-keyboard-response","trial_index":35,"plugin_version":"2.1.0","time_elapsed":89848,"subject_id":"91913","group":"Group2","condition":"1_Rep","full_date":"2026-03-02T23:26:34.250Z","date":"2026-03-02","time":"23:26:34"},{"task":"memory_phase","broad_category":"S","image_png":"S_Rock Salt_15.png","image_id":447,"category_name":"Rock Salt","category":28,"distinct_rating":7.79,"distinct_type":"Top","rt":null,"stimulus":"Stimuli_Rocks480/S_Rock Salt_15.png","response":null,"trial_type":"image-keyboard-response","trial_index":36,"plugin_version":"2.1.0","time_elapsed":92352,"subject_id":"91913","group":"Group2","condition":"1_Rep","full_date":"2026-03-02T23:26:34.250Z","date":"2026-03-02","time":"23:26:34"},{"rt":null,"stimulus":"<p style=\"font-size: 50px; margin: 0; text-align: center;\">+</p>","response":null,"trial_type":"html-keyboard-response","trial_index":37,"plugin_version":"2.1.0","time_elapsed":93355,"subject_id":"91913","group":"Group2","condition":"1_Rep","full_date":"2026-03-02T23:26:34.250Z","date":"2026-03-02","time":"23:26:34"},{"task":"memory_phase","broad_category":"I","image_png":"I_Basalt_10.png","image_id":26,"category_name":"Basalt","category":2,"distinct_rating":2.76,"distinct_type":"Bottom","rt":null,"stimulus":"Stimuli_Rocks480/I_Basalt_10.png","response":null,"trial_type":"image-keyboard-response","trial_index":38,"plugin_version":"2.1.0","time_elapsed":95859,"subject_id":"91913","group":"Group2","condition":"1_Rep","full_date":"2026-03-02T23:26:34.250Z","date":"2026-03-02","time":"23:26:34"},{"rt":null,"stimulus":"<p style=\"font-size: 50px; margin: 0; text-align: center;\">+</p>","response":null,"trial_type":"html-keyboard-response","trial_index":39,"plugin_version":"2.1.0","time_elapsed":96862,"subject_id":"91913","group":"Group2","condition":"1_Rep","full_date":"2026-03-02T23:26:34.250Z","date":"2026-03-02","time":"23:26:34"},{"task":"memory_phase","broad_category":"S","image_png":"S_Chert_13.png","image_id":365,"category_name":"Chert","category":23,"distinct_rating":6.57,"distinct_type":"Top","rt":null,"stimulus":"Stimuli_Rocks480/S_Chert_13.png","response":null,"trial_type":"image-keyboard-response","trial_index":40,"plugin_version":"2.1.0","time_elapsed":99366,"subject_id":"91913","group":"Group2","condition":"1_Rep","full_date":"2026-03-02T23:26:34.250Z","date":"2026-03-02","time":"23:26:34"},{"rt":null,"stimulus":"<p style=\"font-size: 50px; margin: 0; text-align: center;\">+</p>","response":null,"trial_type":"html-keyboard-response","trial_index":41,"plugin_version":"2.1.0","time_elapsed":100369,"subject_id":"91913","group":"Group2","condition":"1_Rep","full_date":"2026-03-02T23:26:34.250Z","date":"2026-03-02","time":"23:26:34"},{"task":"memory_phase","broad_category":"I","image_png":"I_Basalt_08.png","image_id":24,"category_name":"Basalt","category":2,"distinct_rating":2.31,"distinct_type":"Bottom","rt":null,"stimulus":"Stimuli_Rocks480/I_Basalt_08.png","response":null,"trial_type":"image-keyboard-response","trial_index":42,"plugin_version":"2.1.0","time_elapsed":102873,"subject_id":"91913","group":"Group2","condition":"1_Rep","full_date":"2026-03-02T23:26:34.250Z","date":"2026-03-02","time":"23:26:34"},{"rt":null,"stimulus":"<p style=\"font-size: 50px; margin: 0; text-align: center;\">+</p>","response":null,"trial_type":"html-keyboard-response","trial_index":43,"plugin_version":"2.1.0","time_elapsed":103876,"subject_id":"91913","group":"Group2","condition":"1_Rep","full_date":"2026-03-02T23:26:34.250Z","date":"2026-03-02","time":"23:26:34"},{"task":"memory_phase","broad_category":"M","image_png":"M_Quartzite_15.png","image_id":287,"category_name":"Quartzite","category":18,"distinct_rating":2.19,"distinct_type":"Bottom","rt":null,"stimulus":"Stimuli_Rocks480/M_Quartzite_15.png","response":null,"trial_type":"image-keyboard-response","trial_index":44,"plugin_version":"2.1.0","time_elapsed":106380,"subject_id":"91913","group":"Group2","condition":"1_Rep","full_date":"2026-03-02T23:26:34.250Z","date":"2026-03-02","time":"23:26:34"},{"rt":null,"stimulus":"<p style=\"font-size: 50px; margin: 0; text-align: center;\">+</p>","response":null,"trial_type":"html-keyboard-response","trial_index":45,"plugin_version":"2.1.0","time_elapsed":107383,"subject_id":"91913","group":"Group2","condition":"1_Rep","full_date":"2026-03-02T23:26:34.250Z","date":"2026-03-02","time":"23:26:34"},{"task":"memory_phase","broad_category":"S","image_png":"S_Sandstone_11.png","image_id":459,"category_name":"Sandstone","category":29,"distinct_rating":1.82,"distinct_type":"Bottom","rt":null,"stimulus":"Stimuli_Rocks480/S_Sandstone_11.png","response":null,"trial_type":"image-keyboard-response","trial_index":46,"plugin_version":"2.1.0","time_elapsed":109887,"subject_id":"91913","group":"Group2","condition":"1_Rep","full_date":"2026-03-02T23:26:34.250Z","date":"2026-03-02","time":"23:26:34"},{"rt":null,"stimulus":"<p style=\"font-size: 50px; margin: 0; text-align: center;\">+</p>","response":null,"trial_type":"html-keyboard-response","trial_index":47,"plugin_version":"2.1.0","time_elapsed":110890,"subject_id":"91913","group":"Group2","condition":"1_Rep","full_date":"2026-03-02T23:26:34.250Z","date":"2026-03-02","time":"23:26:34"},{"task":"memory_phase","broad_category":"I","image_png":"I_Diorite_01.png","image_id":33,"category_name":"Diorite","category":3,"distinct_rating":2.97,"distinct_type":"Bottom","rt":null,"stimulus":"Stimuli_Rocks480/I_Diorite_01.png","response":null,"trial_type":"image-keyboard-response","trial_index":48,"plugin_version":"2.1.0","time_elapsed":113394,"subject_id":"91913","group":"Group2","condition":"1_Rep","full_date":"2026-03-02T23:26:34.250Z","date":"2026-03-02","time":"23:26:34"},{"rt":null,"stimulus":"<p style=\"font-size: 50px; margin: 0; text-align: center;\">+</p>","response":null,"trial_type":"html-keyboard-response","trial_index":49,"plugin_version":"2.1.0","time_elapsed":114396,"subject_id":"91913","group":"Group2","condition":"1_Rep","full_date":"2026-03-02T23:26:34.250Z","date":"2026-03-02","time":"23:26:34"},{"task":"memory_phase","broad_category":"S","image_png":"S_Shale_02.png","image_id":466,"category_name":"Shale","category":30,"distinct_rating":2.9,"distinct_type":"Bottom","rt":null,"stimulus":"Stimuli_Rocks480/S_Shale_02.png","response":null,"trial_type":"image-keyboard-response","trial_index":50,"plugin_version":"2.1.0","time_elapsed":116900,"subject_id":"91913","group":"Group2","condition":"1_Rep","full_date":"2026-03-02T23:26:34.250Z","date":"2026-03-02","time":"23:26:34"},{"rt":null,"stimulus":"<p style=\"font-size: 50px; margin: 0; text-align: center;\">+</p>","response":null,"trial_type":"html-keyboard-response","trial_index":51,"plugin_version":"2.1.0","time_elapsed":117904,"subject_id":"91913","group":"Group2","condition":"1_Rep","full_date":"2026-03-02T23:26:34.250Z","date":"2026-03-02","time":"23:26:34"},{"task":"memory_phase","broad_category":"I","image_png":"I_Pumice_13.png","image_id":141,"category_name":"Pumice","category":9,"distinct_rating":3.12,"distinct_type":"Bottom","rt":null,"stimulus":"Stimuli_Rocks480/I_Pumice_13.png","response":null,"trial_type":"image-keyboard-response","trial_index":52,"plugin_version":"2.1.0","time_elapsed":120407,"subject_id":"91913","group":"Group2","condition":"1_Rep","full_date":"2026-03-02T23:26:34.250Z","date":"2026-03-02","time":"23:26:34"},{"rt":null,"stimulus":"<p style=\"font-size: 50px; margin: 0; text-align: center;\">+</p>","response":null,"trial_type":"html-keyboard-response","trial_index":53,"plugin_version":"2.1.0","time_elapsed":121410,"subject_id":"91913","group":"Group2","condition":"1_Rep","full_date":"2026-03-02T23:26:34.250Z","date":"2026-03-02","time":"23:26:34"},{"task":"memory_phase","broad_category":"I","image_png":"I_Peridotite_13.png","image_id":125,"category_name":"Peridotite","category":8,"distinct_rating":7.28,"distinct_type":"Top","rt":null,"stimulus":"Stimuli_Rocks480/I_Peridotite_13.png","response":null,"trial_type":"image-keyboard-response","trial_index":54,"plugin_version":"2.1.0","time_elapsed":123913,"subject_id":"91913","group":"Group2","condition":"1_Rep","full_date":"2026-03-02T23:26:34.250Z","date":"2026-03-02","time":"23:26:34"},{"rt":26441,"stimulus":"<p style=\"max-width: 760px; margin: auto; font-size: 35px; line-height: 1.5;\">\n                Press SPACE to continue study phase\n              </p>","response":" ","trial_type":"html-keyboard-response","trial_index":55,"plugin_version":"2.1.0","time_elapsed":150355,"subject_id":"91913","group":"Group2","condition":"1_Rep","full_date":"2026-03-02T23:26:34.250Z","date":"2026-03-02","time":"23:26:34"},{"rt":null,"stimulus":"<p style=\"font-size: 50px; margin: 0; text-align: center;\">+</p>","response":null,"trial_type":"html-keyboard-response","trial_index":56,"plugin_version":"2.1.0","time_elapsed":151358,"subject_id":"91913","group":"Group2","condition":"1_Rep","full_date":"2026-03-02T23:26:34.250Z","date":"2026-03-02","time":"23:26:34"},{"task":"memory_phase","broad_category":"I","image_png":"I_Pumice_14.png","image_id":142,"category_name":"Pumice","category":9,"distinct_rating":3.22,"distinct_type":"Bottom","rt":null,"stimulus":"Stimuli_Rocks480/I_Pumice_14.png","response":null,"trial_type":"image-keyboard-response","trial_index":57,"plugin_version":"2.1.0","time_elapsed":153863,"subject_id":"91913","group":"Group2","condition":"1_Rep","full_date":"2026-03-02T23:26:34.250Z","date":"2026-03-02","time":"23:26:34"},{"rt":null,"stimulus":"<p style=\"font-size: 50px; margin: 0; text-align: center;\">+</p>","response":null,"trial_type":"html-keyboard-response","trial_index":58,"plugin_version":"2.1.0","time_elapsed":154866,"subject_id":"91913","group":"Group2","condition":"1_Rep","full_date":"2026-03-02T23:26:34.250Z","date":"2026-03-02","time":"23:26:34"},{"task":"memory_phase","broad_category":"I","image_png":"I_Rhyolite_10.png","image_id":154,"category_name":"Rhyolite","category":10,"distinct_rating":2.88,"distinct_type":"Bottom","rt":null,"stimulus":"Stimuli_Rocks480/I_Rhyolite_10.png","response":null,"trial_type":"image-keyboard-response","trial_index":59,"plugin_version":"2.1.0","time_elapsed":157370,"subject_id":"91913","group":"Group2","condition":"1_Rep","full_date":"2026-03-02T23:26:34.250Z","date":"2026-03-02","time":"23:26:34"},{"rt":null,"stimulus":"<p style=\"font-size: 50px; margin: 0; text-align: center;\">+</p>","response":null,"trial_type":"html-keyboard-response","trial_index":60,"plugin_version":"2.1.0","time_elapsed":158373,"subject_id":"91913","group":"Group2","condition":"1_Rep","full_date":"2026-03-02T23:26:34.250Z","date":"2026-03-02","time":"23:26:34"},{"task":"memory_phase","broad_category":"I","image_png":"I_Rhyolite_08.png","image_id":152,"category_name":"Rhyolite","category":10,"distinct_rating":1.38,"distinct_type":"Bottom","rt":null,"stimulus":"Stimuli_Rocks480/I_Rhyolite_08.png","response":null,"trial_type":"image-keyboard-response","trial_index":61,"plugin_version":"2.1.0","time_elapsed":160877,"subject_id":"91913","group":"Group2","condition":"1_Rep","full_date":"2026-03-02T23:26:34.250Z","date":"2026-03-02","time":"23:26:34"},{"rt":null,"stimulus":"<p style=\"font-size: 50px; margin: 0; text-align: center;\">+</p>","response":null,"trial_type":"html-keyboard-response","trial_index":62,"plugin_version":"2.1.0","time_elapsed":161881,"subject_id":"91913","group":"Group2","condition":"1_Rep","full_date":"2026-03-02T23:26:34.250Z","date":"2026-03-02","time":"23:26:34"},{"task":"memory_phase","broad_category":"S","image_png":"S_Shale_03.png","image_id":467,"category_name":"Shale","category":30,"distinct_rating":1.95,"distinct_type":"Bottom","rt":null,"stimulus":"Stimuli_Rocks480/S_Shale_03.png","response":null,"trial_type":"image-keyboard-response","trial_index":63,"plugin_version":"2.1.0","time_elapsed":164385,"subject_id":"91913","group":"Group2","condition":"1_Rep","full_date":"2026-03-02T23:26:34.250Z","date":"2026-03-02","time":"23:26:34"},{"rt":null,"stimulus":"<p style=\"font-size: 50px; margin: 0; text-align: center;\">+</p>","response":null,"trial_type":"html-keyboard-response","trial_index":64,"plugin_version":"2.1.0","time_elapsed":165388,"subject_id":"91913","group":"Group2","condition":"1_Rep","full_date":"2026-03-02T23:26:34.250Z","date":"2026-03-02","time":"23:26:34"},{"task":"memory_phase","broad_category":"I","image_png":"I_Andesite_03.png","image_id":3,"category_name":"Andesite","category":1,"distinct_rating":3.17,"distinct_type":"Bottom","rt":null,"stimulus":"Stimuli_Rocks480/I_Andesite_03.png","response":null,"trial_type":"image-keyboard-response","trial_index":65,"plugin_version":"2.1.0","time_elapsed":167893,"subject_id":"91913","group":"Group2","condition":"1_Rep","full_date":"2026-03-02T23:26:34.250Z","date":"2026-03-02","time":"23:26:34"},{"rt":null,"stimulus":"<p style=\"font-size: 50px; margin: 0; text-align: center;\">+</p>","response":null,"trial_type":"html-keyboard-response","trial_index":66,"plugin_version":"2.1.0","time_elapsed":168895,"subject_id":"91913","group":"Group2","condition":"1_Rep","full_date":"2026-03-02T23:26:34.250Z","date":"2026-03-02","time":"23:26:34"},{"task":"memory_phase","broad_category":"I","image_png":"I_Gabbro_12.png","image_id":60,"category_name":"Gabbro","category":4,"distinct_rating":2.6,"distinct_type":"Bottom","rt":null,"stimulus":"Stimuli_Rocks480/I_Gabbro_12.png","response":null,"trial_type":"image-keyboard-response","trial_index":67,"plugin_version":"2.1.0","time_elapsed":171400,"subject_id":"91913","group":"Group2","condition":"1_Rep","full_date":"2026-03-02T23:26:34.250Z","date":"2026-03-02","time":"23:26:34"},{"rt":null,"stimulus":"<p style=\"font-size: 50px; margin: 0; text-align: center;\">+</p>","response":null,"trial_type":"html-keyboard-response","trial_index":68,"plugin_version":"2.1.0","time_elapsed":172402,"subject_id":"91913","group":"Group2","condition":"1_Rep","full_date":"2026-03-02T23:26:34.250Z","date":"2026-03-02","time":"23:26:34"},{"task":"memory_phase","broad_category":"I","image_png":"I_Gabbro_14.png","image_id":62,"category_name":"Gabbro","category":4,"distinct_rating":2.95,"distinct_type":"Bottom","rt":null,"stimulus":"Stimuli_Rocks480/I_Gabbro_14.png","response":null,"trial_type":"image-keyboard-response","trial_index":69,"plugin_version":"2.1.0","time_elapsed":174906,"subject_id":"91913","group":"Group2","condition":"1_Rep","full_date":"2026-03-02T23:26:34.250Z","date":"2026-03-02","time":"23:26:34"},{"rt":null,"stimulus":"<p style=\"font-size: 50px; margin: 0; text-align: center;\">+</p>","response":null,"trial_type":"html-keyboard-response","trial_index":70,"plugin_version":"2.1.0","time_elapsed":175909,"subject_id":"91913","group":"Group2","condition":"1_Rep","full_date":"2026-03-02T23:26:34.250Z","date":"2026-03-02","time":"23:26:34"},{"task":"memory_phase","broad_category":"I","image_png":"I_Rhyolite_05.png","image_id":149,"category_name":"Rhyolite","category":10,"distinct_rating":3.02,"distinct_type":"Bottom","rt":null,"stimulus":"Stimuli_Rocks480/I_Rhyolite_05.png","response":null,"trial_type":"image-keyboard-response","trial_index":71,"plugin_version":"2.1.0","time_elapsed":178413,"subject_id":"91913","group":"Group2","condition":"1_Rep","full_date":"2026-03-02T23:26:34.250Z","date":"2026-03-02","time":"23:26:34"},{"rt":null,"stimulus":"<p style=\"font-size: 50px; margin: 0; text-align: center;\">+</p>","response":null,"trial_type":"html-keyboard-response","trial_index":72,"plugin_version":"2.1.0","time_elapsed":179415,"subject_id":"91913","group":"Group2","condition":"1_Rep","full_date":"2026-03-02T23:26:34.250Z","date":"2026-03-02","time":"23:26:34"},{"task":"memory_phase","broad_category":"M","image_png":"M_Phyllite_13.png","image_id":269,"category_name":"Phyllite","category":17,"distinct_rating":2.8,"distinct_type":"Bottom","rt":null,"stimulus":"Stimuli_Rocks480/M_Phyllite_13.png","response":null,"trial_type":"image-keyboard-response","trial_index":73,"plugin_version":"2.1.0","time_elapsed":181919,"subject_id":"91913","group":"Group2","condition":"1_Rep","full_date":"2026-03-02T23:26:34.250Z","date":"2026-03-02","time":"23:26:34"},{"rt":null,"stimulus":"<p style=\"font-size: 50px; margin: 0; text-align: center;\">+</p>","response":null,"trial_type":"html-keyboard-response","trial_index":74,"plugin_version":"2.1.0","time_elapsed":182922,"subject_id":"91913","group":"Group2","condition":"1_Rep","full_date":"2026-03-02T23:26:34.250Z","date":"2026-03-02","time":"23:26:34"},{"task":"memory_phase","broad_category":"I","image_png":"I_Andesite_09.png","image_id":9,"category_name":"Andesite","category":1,"distinct_rating":2.49,"distinct_type":"Bottom","rt":null,"stimulus":"Stimuli_Rocks480/I_Andesite_09.png","response":null,"trial_type":"image-keyboard-response","trial_index":75,"plugin_version":"2.1.0","time_elapsed":185425,"subject_id":"91913","group":"Group2","condition":"1_Rep","full_date":"2026-03-02T23:26:34.250Z","date":"2026-03-02","time":"23:26:34"},{"rt":null,"stimulus":"<p style=\"font-size: 50px; margin: 0; text-align: center;\">+</p>","response":null,"trial_type":"html-keyboard-response","trial_index":76,"plugin_version":"2.1.0","time_elapsed":186428,"subject_id":"91913","group":"Group2","condition":"1_Rep","full_date":"2026-03-02T23:26:34.250Z","date":"2026-03-02","time":"23:26:34"},{"task":"memory_phase","broad_category":"I","image_png":"I_Pegmatite_11.png","image_id":107,"category_name":"Pegmatite","category":7,"distinct_rating":7.11,"distinct_type":"Top","rt":null,"stimulus":"Stimuli_Rocks480/I_Pegmatite_11.png","response":null,"trial_type":"image-keyboard-response","trial_index":77,"plugin_version":"2.1.0","time_elapsed":188932,"subject_id":"91913","group":"Group2","condition":"1_Rep","full_date":"2026-03-02T23:26:34.250Z","date":"2026-03-02","time":"23:26:34"},{"rt":null,"stimulus":"<p style=\"font-size: 50px; margin: 0; text-align: center;\">+</p>","response":null,"trial_type":"html-keyboard-response","trial_index":78,"plugin_version":"2.1.0","time_elapsed":189935,"subject_id":"91913","group":"Group2","condition":"1_Rep","full_date":"2026-03-02T23:26:34.250Z","date":"2026-03-02","time":"23:26:34"},{"task":"memory_phase","broad_category":"I","image_png":"I_Gabbro_02.png","image_id":50,"category_name":"Gabbro","category":4,"distinct_rating":2.73,"distinct_type":"Bottom","rt":null,"stimulus":"Stimuli_Rocks480/I_Gabbro_02.png","response":null,"trial_type":"image-keyboard-response","trial_index":79,"plugin_version":"2.1.0","time_elapsed":192439,"subject_id":"91913","group":"Group2","condition":"1_Rep","full_date":"2026-03-02T23:26:34.250Z","date":"2026-03-02","time":"23:26:34"},{"rt":null,"stimulus":"<p style=\"font-size: 50px; margin: 0; text-align: center;\">+</p>","response":null,"trial_type":"html-keyboard-response","trial_index":80,"plugin_version":"2.1.0","time_elapsed":193443,"subject_id":"91913","group":"Group2","condition":"1_Rep","full_date":"2026-03-02T23:26:34.250Z","date":"2026-03-02","time":"23:26:34"},{"task":"memory_phase","broad_category":"M","image_png":"M_Phyllite_02.png","image_id":258,"category_name":"Phyllite","category":17,"distinct_rating":2.89,"distinct_type":"Bottom","rt":null,"stimulus":"Stimuli_Rocks480/M_Phyllite_02.png","response":null,"trial_type":"image-keyboard-response","trial_index":81,"plugin_version":"2.1.0","time_elapsed":195947,"subject_id":"91913","group":"Group2","condition":"1_Rep","full_date":"2026-03-02T23:26:34.250Z","date":"2026-03-02","time":"23:26:34"},{"rt":null,"stimulus":"<p style=\"font-size: 50px; margin: 0; text-align: center;\">+</p>","response":null,"trial_type":"html-keyboard-response","trial_index":82,"plugin_version":"2.1.0","time_elapsed":196950,"subject_id":"91913","group":"Group2","condition":"1_Rep","full_date":"2026-03-02T23:26:34.250Z","date":"2026-03-02","time":"23:26:34"},{"task":"memory_phase","broad_category":"M","image_png":"M_Quartzite_07.png","image_id":279,"category_name":"Quartzite","category":18,"distinct_rating":1.97,"distinct_type":"Bottom","rt":null,"stimulus":"Stimuli_Rocks480/M_Quartzite_07.png","response":null,"trial_type":"image-keyboard-response","trial_index":83,"plugin_version":"2.1.0","time_elapsed":199454,"subject_id":"91913","group":"Group2","condition":"1_Rep","full_date":"2026-03-02T23:26:34.250Z","date":"2026-03-02","time":"23:26:34"},{"rt":null,"stimulus":"<p style=\"font-size: 50px; margin: 0; text-align: center;\">+</p>","response":null,"trial_type":"html-keyboard-response","trial_index":84,"plugin_version":"2.1.0","time_elapsed":200456,"subject_id":"91913","group":"Group2","condition":"1_Rep","full_date":"2026-03-02T23:26:34.250Z","date":"2026-03-02","time":"23:26:34"},{"task":"memory_phase","broad_category":"M","image_png":"M_Slate_04.png","image_id":308,"category_name":"Slate","category":20,"distinct_rating":2.2,"distinct_type":"Bottom","rt":null,"stimulus":"Stimuli_Rocks480/M_Slate_04.png","response":null,"trial_type":"image-keyboard-response","trial_index":85,"plugin_version":"2.1.0","time_elapsed":202960,"subject_id":"91913","group":"Group2","condition":"1_Rep","full_date":"2026-03-02T23:26:34.250Z","date":"2026-03-02","time":"23:26:34"},{"rt":null,"stimulus":"<p style=\"font-size: 50px; margin: 0; text-align: center;\">+</p>","response":null,"trial_type":"html-keyboard-response","trial_index":86,"plugin_version":"2.1.0","time_elapsed":203963,"subject_id":"91913","group":"Group2","condition":"1_Rep","full_date":"2026-03-02T23:26:34.250Z","date":"2026-03-02","time":"23:26:34"},{"task":"memory_phase","broad_category":"M","image_png":"M_Gneiss_15.png","image_id":207,"category_name":"Gneiss","category":13,"distinct_rating":3.11,"distinct_type":"Bottom","rt":null,"stimulus":"Stimuli_Rocks480/M_Gneiss_15.png","response":null,"trial_type":"image-keyboard-response","trial_index":87,"plugin_version":"2.1.0","time_elapsed":206468,"subject_id":"91913","group":"Group2","condition":"1_Rep","full_date":"2026-03-02T23:26:34.250Z","date":"2026-03-02","time":"23:26:34"},{"rt":null,"stimulus":"<p style=\"font-size: 50px; margin: 0; text-align: center;\">+</p>","response":null,"trial_type":"html-keyboard-response","trial_index":88,"plugin_version":"2.1.0","time_elapsed":207471,"subject_id":"91913","group":"Group2","condition":"1_Rep","full_date":"2026-03-02T23:26:34.250Z","date":"2026-03-02","time":"23:26:34"},{"task":"memory_phase","broad_category":"M","image_png":"M_Slate_10.png","image_id":314,"category_name":"Slate","category":20,"distinct_rating":1.94,"distinct_type":"Bottom","rt":null,"stimulus":"Stimuli_Rocks480/M_Slate_10.png","response":null,"trial_type":"image-keyboard-response","trial_index":89,"plugin_version":"2.1.0","time_elapsed":209975,"subject_id":"91913","group":"Group2","condition":"1_Rep","full_date":"2026-03-02T23:26:34.250Z","date":"2026-03-02","time":"23:26:34"},{"rt":null,"stimulus":"<p style=\"font-size: 50px; margin: 0; text-align: center;\">+</p>","response":null,"trial_type":"html-keyboard-response","trial_index":90,"plugin_version":"2.1.0","time_elapsed":210977,"subject_id":"91913","group":"Group2","condition":"1_Rep","full_date":"2026-03-02T23:26:34.250Z","date":"2026-03-02","time":"23:26:34"},{"task":"memory_phase","broad_category":"S","image_png":"S_Dolomite_16.png","image_id":400,"category_name":"Dolomite","category":25,"distinct_rating":1.71,"distinct_type":"Bottom","rt":null,"stimulus":"Stimuli_Rocks480/S_Dolomite_16.png","response":null,"trial_type":"image-keyboard-response","trial_index":91,"plugin_version":"2.1.0","time_elapsed":213479,"subject_id":"91913","group":"Group2","condition":"1_Rep","full_date":"2026-03-02T23:26:34.250Z","date":"2026-03-02","time":"23:26:34"},{"rt":null,"stimulus":"<p style=\"font-size: 50px; margin: 0; text-align: center;\">+</p>","response":null,"trial_type":"html-keyboard-response","trial_index":92,"plugin_version":"2.1.0","time_elapsed":214482,"subject_id":"91913","group":"Group2","condition":"1_Rep","full_date":"2026-03-02T23:26:34.250Z","date":"2026-03-02","time":"23:26:34"},{"task":"memory_phase","broad_category":"S","image_png":"S_Shale_07.png","image_id":471,"category_name":"Shale","category":30,"distinct_rating":2.73,"distinct_type":"Bottom","rt":null,"stimulus":"Stimuli_Rocks480/S_Shale_07.png","response":null,"trial_type":"image-keyboard-response","trial_index":93,"plugin_version":"2.1.0","time_elapsed":216986,"subject_id":"91913","group":"Group2","condition":"1_Rep","full_date":"2026-03-02T23:26:34.250Z","date":"2026-03-02","time":"23:26:34"},{"rt":null,"stimulus":"<p style=\"font-size: 50px; margin: 0; text-align: center;\">+</p>","response":null,"trial_type":"html-keyboard-response","trial_index":94,"plugin_version":"2.1.0","time_elapsed":217988,"subject_id":"91913","group":"Group2","condition":"1_Rep","full_date":"2026-03-02T23:26:34.250Z","date":"2026-03-02","time":"23:26:34"},{"task":"memory_phase","broad_category":"S","image_png":"S_Rock Salt_13.png","image_id":445,"category_name":"Rock Salt","category":28,"distinct_rating":7.58,"distinct_type":"Top","rt":null,"stimulus":"Stimuli_Rocks480/S_Rock Salt_13.png","response":null,"trial_type":"image-keyboard-response","trial_index":95,"plugin_version":"2.1.0","time_elapsed":220492,"subject_id":"91913","group":"Group2","condition":"1_Rep","full_date":"2026-03-02T23:26:34.250Z","date":"2026-03-02","time":"23:26:34"},{"rt":null,"stimulus":"<p style=\"font-size: 50px; margin: 0; text-align: center;\">+</p>","response":null,"trial_type":"html-keyboard-response","trial_index":96,"plugin_version":"2.1.0","time_elapsed":221495,"subject_id":"91913","group":"Group2","condition":"1_Rep","full_date":"2026-03-02T23:26:34.250Z","date":"2026-03-02","time":"23:26:34"},{"task":"memory_phase","broad_category":"S","image_png":"S_Conglomerate_14.png","image_id":382,"category_name":"Conglomerate","category":24,"distinct_rating":6.86,"distinct_type":"Top","rt":null,"stimulus":"Stimuli_Rocks480/S_Conglomerate_14.png","response":null,"trial_type":"image-keyboard-response","trial_index":97,"plugin_version":"2.1.0","time_elapsed":223999,"subject_id":"91913","group":"Group2","condition":"1_Rep","full_date":"2026-03-02T23:26:34.250Z","date":"2026-03-02","time":"23:26:34"},{"rt":null,"stimulus":"<p style=\"font-size: 50px; margin: 0; text-align: center;\">+</p>","response":null,"trial_type":"html-keyboard-response","trial_index":98,"plugin_version":"2.1.0","time_elapsed":225003,"subject_id":"91913","group":"Group2","condition":"1_Rep","full_date":"2026-03-02T23:26:34.250Z","date":"2026-03-02","time":"23:26:34"},{"task":"memory_phase","broad_category":"M","image_png":"M_Marble_14.png","image_id":238,"category_name":"Marble","category":15,"distinct_rating":3.31,"distinct_type":"Bottom","rt":null,"stimulus":"Stimuli_Rocks480/M_Marble_14.png","response":null,"trial_type":"image-keyboard-response","trial_index":99,"plugin_version":"2.1.0","time_elapsed":227505,"subject_id":"91913","group":"Group2","condition":"1_Rep","full_date":"2026-03-02T23:26:34.250Z","date":"2026-03-02","time":"23:26:34"},{"rt":null,"stimulus":"<p style=\"font-size: 50px; margin: 0; text-align: center;\">+</p>","response":null,"trial_type":"html-keyboard-response","trial_index":100,"plugin_version":"2.1.0","time_elapsed":228509,"subject_id":"91913","group":"Group2","condition":"1_Rep","full_date":"2026-03-02T23:26:34.250Z","date":"2026-03-02","time":"23:26:34"},{"task":"memory_phase","broad_category":"I","image_png":"I_Basalt_13.png","image_id":29,"category_name":"Basalt","category":2,"distinct_rating":2.68,"distinct_type":"Bottom","rt":null,"stimulus":"Stimuli_Rocks480/I_Basalt_13.png","response":null,"trial_type":"image-keyboard-response","trial_index":101,"plugin_version":"2.1.0","time_elapsed":231013,"subject_id":"91913","group":"Group2","condition":"1_Rep","full_date":"2026-03-02T23:26:34.250Z","date":"2026-03-02","time":"23:26:34"},{"rt":null,"stimulus":"<p style=\"font-size: 50px; margin: 0; text-align: center;\">+</p>","response":null,"trial_type":"html-keyboard-response","trial_index":102,"plugin_version":"2.1.0","time_elapsed":232016,"subject_id":"91913","group":"Group2","condition":"1_Rep","full_date":"2026-03-02T23:26:34.250Z","date":"2026-03-02","time":"23:26:34"},{"task":"memory_phase","broad_category":"I","image_png":"I_Diorite_10.png","image_id":42,"category_name":"Diorite","category":3,"distinct_rating":2.84,"distinct_type":"Bottom","rt":null,"stimulus":"Stimuli_Rocks480/I_Diorite_10.png","response":null,"trial_type":"image-keyboard-response","trial_index":103,"plugin_version":"2.1.0","time_elapsed":234519,"subject_id":"91913","group":"Group2","condition":"1_Rep","full_date":"2026-03-02T23:26:34.250Z","date":"2026-03-02","time":"23:26:34"},{"rt":null,"stimulus":"<p style=\"font-size: 50px; margin: 0; text-align: center;\">+</p>","response":null,"trial_type":"html-keyboard-response","trial_index":104,"plugin_version":"2.1.0","time_elapsed":235522,"subject_id":"91913","group":"Group2","condition":"1_Rep","full_date":"2026-03-02T23:26:34.250Z","date":"2026-03-02","time":"23:26:34"},{"task":"memory_phase","broad_category":"S","image_png":"S_Sandstone_04.png","image_id":452,"category_name":"Sandstone","category":29,"distinct_rating":1.8,"distinct_type":"Bottom","rt":null,"stimulus":"Stimuli_Rocks480/S_Sandstone_04.png","response":null,"trial_type":"image-keyboard-response","trial_index":105,"plugin_version":"2.1.0","time_elapsed":238027,"subject_id":"91913","group":"Group2","condition":"1_Rep","full_date":"2026-03-02T23:26:34.250Z","date":"2026-03-02","time":"23:26:34"},{"rt":13707,"stimulus":"<div style=\"max-width: 760px; margin: auto; font-size: 20px; line-height: 1.5;\">\n      <h1 style=\"text-align:center; font-size: 30px;\">Instructions for the Test Phase</h1>\n      <p>\n        The study phase is now complete.\n      </p>\n      <p>\n        In the test phase, you will again see a series of rock images. \n        Some will be ones you saw before - during the study phase, while others will be new.  \n        <b>Your task</b> is to decide whether you have seen each image before by pressing the corresponding key on your keyboard:<br><br>\n          <b>A</b> - NO (you did not see this image before)<br>\n          <b>L</b> - YES (you saw this image before)<br><br>\n        The test will proceed at your own pace. You will receive feedback after each response.  \n        Please try to respond <b>as accurately as possible</b>.\n      </p>\n      <p>\n        <b>Reminder:</b> If your computer has multiple language settings (e.g., English and another language),\n        please ensure it is set to English during the test phase.\n      </p>\n      <p>\n        You can track your progress using the <b>completion bar</b> at the top of the screen.  \n        Note that it has been refreshed to reflect your progress during this final phase.\n      </p>\n      <p>\n        Press the button below when you are ready to continue.\n      </p>\n    </div>","response":0,"trial_type":"html-button-response","trial_index":106,"plugin_version":"2.1.0","time_elapsed":251737,"subject_id":"91913","group":"Group2","condition":"1_Rep","full_date":"2026-03-02T23:26:34.250Z","date":"2026-03-02","time":"23:26:34"},{"correct_response":"a","task":"test_phase","broad_category":"I","image_png":"I_Rhyolite_16.png","image_id":160,"category_name":"Rhyolite","category":10,"distinct_rating":2.19,"distinct_type":"Bottom","item_type":"Foil","rt":2451,"stimulus":"Stimuli_Rocks480/I_Rhyolite_16.png","response":"a","trial_type":"image-keyboard-response","trial_index":107,"plugin_version":"2.1.0","time_elapsed":254191,"subject_id":"91913","group":"Group2","condition":"1_Rep","full_date":"2026-03-02T23:26:34.250Z","date":"2026-03-02","time":"23:26:34","cor_ans":true},{"trial_type":"html-keyboard-response","rt":null,"stimulus":"<p style=\"color: green; font-size: 50px; font-weight: bold;\">Correct</p>","response":null,"trial_index":108,"plugin_version":"2.1.0","time_elapsed":254695,"subject_id":"91913","group":"Group2","condition":"1_Rep","full_date":"2026-03-02T23:26:34.250Z","date":"2026-03-02","time":"23:26:34"},{"correct_response":"l","task":"test_phase","broad_category":"I","image_png":"I_Diorite_15.png","image_id":47,"category_name":"Diorite","category":3,"distinct_rating":3.05,"distinct_type":"Bottom","item_type":"Target","rt":2706,"stimulus":"Stimuli_Rocks480/I_Diorite_15.png","response":"l","trial_type":"image-keyboard-response","trial_index":109,"plugin_version":"2.1.0","time_elapsed":257404,"subject_id":"91913","group":"Group2","condition":"1_Rep","full_date":"2026-03-02T23:26:34.250Z","date":"2026-03-02","time":"23:26:34","cor_ans":true},{"trial_type":"html-keyboard-response","rt":null,"stimulus":"<p style=\"color: green; font-size: 50px; font-weight: bold;\">Correct</p>","response":null,"trial_index":110,"plugin_version":"2.1.0","time_elapsed":257906,"subject_id":"91913","group":"Group2","condition":"1_Rep","full_date":"2026-03-02T23:26:34.250Z","date":"2026-03-02","time":"23:26:34"},{"correct_response":"a","task":"test_phase","broad_category":"M","image_png":"M_Marble_06.png","image_id":230,"category_name":"Marble","category":15,"distinct_rating":3.4,"distinct_type":"Bottom","item_type":"Foil","rt":1424,"stimulus":"Stimuli_Rocks480/M_Marble_06.png","response":"l","trial_type":"image-keyboard-response","trial_index":111,"plugin_version":"2.1.0","time_elapsed":259333,"subject_id":"91913","group":"Group2","condition":"1_Rep","full_date":"2026-03-02T23:26:34.250Z","date":"2026-03-02","time":"23:26:34","cor_ans":false},{"trial_type":"html-keyboard-response","rt":null,"stimulus":"<p style=\"color: red; font-size: 50px; font-weight: bold;\">Incorrect</p>","response":null,"trial_index":112,"plugin_version":"2.1.0","time_elapsed":259835,"subject_id":"91913","group":"Group2","condition":"1_Rep","full_date":"2026-03-02T23:26:34.250Z","date":"2026-03-02","time":"23:26:34"},{"correct_response":"a","task":"test_phase","broad_category":"I","image_png":"I_Pumice_11.png","image_id":139,"category_name":"Pumice","category":9,"distinct_rating":1.74,"distinct_type":"Bottom","item_type":"Foil","rt":2417,"stimulus":"Stimuli_Rocks480/I_Pumice_11.png","response":"l","trial_type":"image-keyboard-response","trial_index":113,"plugin_version":"2.1.0","time_elapsed":262255,"subject_id":"91913","group":"Group2","condition":"1_Rep","full_date":"2026-03-02T23:26:34.250Z","date":"2026-03-02","time":"23:26:34","cor_ans":false},{"trial_type":"html-keyboard-response","rt":null,"stimulus":"<p style=\"color: red; font-size: 50px; font-weight: bold;\">Incorrect</p>","response":null,"trial_index":114,"plugin_version":"2.1.0","time_elapsed":262758,"subject_id":"91913","group":"Group2","condition":"1_Rep","full_date":"2026-03-02T23:26:34.250Z","date":"2026-03-02","time":"23:26:34"},{"correct_response":"a","task":"test_phase","broad_category":"S","image_png":"S_Rock Gypsum_04.png","image_id":420,"category_name":"Rock Gypsum","category":27,"distinct_rating":7.61,"distinct_type":"Top","item_type":"Foil","rt":3071,"stimulus":"Stimuli_Rocks480/S_Rock Gypsum_04.png","response":"a","trial_type":"image-keyboard-response","trial_index":115,"plugin_version":"2.1.0","time_elapsed":265831,"subject_id":"91913","group":"Group2","condition":"1_Rep","full_date":"2026-03-02T23:26:34.250Z","date":"2026-03-02","time":"23:26:34","cor_ans":true},{"trial_type":"html-keyboard-response","rt":null,"stimulus":"<p style=\"color: green; font-size: 50px; font-weight: bold;\">Correct</p>","response":null,"trial_index":116,"plugin_version":"2.1.0","time_elapsed":266333,"subject_id":"91913","group":"Group2","condition":"1_Rep","full_date":"2026-03-02T23:26:34.250Z","date":"2026-03-02","time":"23:26:34"},{"correct_response":"a","task":"test_phase","broad_category":"S","image_png":"S_Dolomite_13.png","image_id":397,"category_name":"Dolomite","category":25,"distinct_rating":1.77,"distinct_type":"Bottom","item_type":"Foil","rt":1362,"stimulus":"Stimuli_Rocks480/S_Dolomite_13.png","response":"l","trial_type":"image-keyboard-response","trial_index":117,"plugin_version":"2.1.0","time_elapsed":267697,"subject_id":"91913","group":"Group2","condition":"1_Rep","full_date":"2026-03-02T23:26:34.250Z","date":"2026-03-02","time":"23:26:34","cor_ans":false},{"trial_type":"html-keyboard-response","rt":null,"stimulus":"<p style=\"color: red; font-size: 50px; font-weight: bold;\">Incorrect</p>","response":null,"trial_index":118,"plugin_version":"2.1.0","time_elapsed":268200,"subject_id":"91913","group":"Group2","condition":"1_Rep","full_date":"2026-03-02T23:26:34.250Z","date":"2026-03-02","time":"23:26:34"},{"correct_response":"l","task":"test_phase","broad_category":"S","image_png":"S_Dolomite_16.png","image_id":400,"category_name":"Dolomite","category":25,"distinct_rating":1.71,"distinct_type":"Bottom","item_type":"Target","rt":1178,"stimulus":"Stimuli_Rocks480/S_Dolomite_16.png","response":"a","trial_type":"image-keyboard-response","trial_index":119,"plugin_version":"2.1.0","time_elapsed":269381,"subject_id":"91913","group":"Group2","condition":"1_Rep","full_date":"2026-03-02T23:26:34.250Z","date":"2026-03-02","time":"23:26:34","cor_ans":false},{"trial_type":"html-keyboard-response","rt":null,"stimulus":"<p style=\"color: red; font-size: 50px; font-weight: bold;\">Incorrect</p>","response":null,"trial_index":120,"plugin_version":"2.1.0","time_elapsed":269882,"subject_id":"91913","group":"Group2","condition":"1_Rep","full_date":"2026-03-02T23:26:34.250Z","date":"2026-03-02","time":"23:26:34"},{"correct_response":"l","task":"test_phase","broad_category":"M","image_png":"M_Quartzite_07.png","image_id":279,"category_name":"Quartzite","category":18,"distinct_rating":1.97,"distinct_type":"Bottom","item_type":"Target","rt":781,"stimulus":"Stimuli_Rocks480/M_Quartzite_07.png","response":"l","trial_type":"image-keyboard-response","trial_index":121,"plugin_version":"2.1.0","time_elapsed":270665,"subject_id":"91913","group":"Group2","condition":"1_Rep","full_date":"2026-03-02T23:26:34.250Z","date":"2026-03-02","time":"23:26:34","cor_ans":true},{"trial_type":"html-keyboard-response","rt":null,"stimulus":"<p style=\"color: green; font-size: 50px; font-weight: bold;\">Correct</p>","response":null,"trial_index":122,"plugin_version":"2.1.0","time_elapsed":271167,"subject_id":"91913","group":"Group2","condition":"1_Rep","full_date":"2026-03-02T23:26:34.250Z","date":"2026-03-02","time":"23:26:34"},{"correct_response":"a","task":"test_phase","broad_category":"I","image_png":"I_Andesite_08.png","image_id":8,"category_name":"Andesite","category":1,"distinct_rating":1.95,"distinct_type":"Bottom","item_type":"Foil","rt":911,"stimulus":"Stimuli_Rocks480/I_Andesite_08.png","response":"l","trial_type":"image-keyboard-response","trial_index":123,"plugin_version":"2.1.0","time_elapsed":272082,"subject_id":"91913","group":"Group2","condition":"1_Rep","full_date":"2026-03-02T23:26:34.250Z","date":"2026-03-02","time":"23:26:34","cor_ans":false},{"trial_type":"html-keyboard-response","rt":null,"stimulus":"<p style=\"color: red; font-size: 50px; font-weight: bold;\">Incorrect</p>","response":null,"trial_index":124,"plugin_version":"2.1.0","time_elapsed":272584,"subject_id":"91913","group":"Group2","condition":"1_Rep","full_date":"2026-03-02T23:26:34.250Z","date":"2026-03-02","time":"23:26:34"},{"correct_response":"l","task":"test_phase","broad_category":"I","image_png":"I_Andesite_09.png","image_id":9,"category_name":"Andesite","category":1,"distinct_rating":2.49,"distinct_type":"Bottom","item_type":"Target","rt":819,"stimulus":"Stimuli_Rocks480/I_Andesite_09.png","response":"l","trial_type":"image-keyboard-response","trial_index":125,"plugin_version":"2.1.0","time_elapsed":273405,"subject_id":"91913","group":"Group2","condition":"1_Rep","full_date":"2026-03-02T23:26:34.250Z","date":"2026-03-02","time":"23:26:34","cor_ans":true},{"trial_type":"html-keyboard-response","rt":null,"stimulus":"<p style=\"color: green; font-size: 50px; font-weight: bold;\">Correct</p>","response":null,"trial_index":126,"plugin_version":"2.1.0","time_elapsed":273906,"subject_id":"91913","group":"Group2","condition":"1_Rep","full_date":"2026-03-02T23:26:34.250Z","date":"2026-03-02","time":"23:26:34"},{"correct_response":"l","task":"test_phase","broad_category":"S","image_png":"S_Sandstone_08.png","image_id":456,"category_name":"Sandstone","category":29,"distinct_rating":1.5,"distinct_type":"Bottom","item_type":"Target","rt":691,"stimulus":"Stimuli_Rocks480/S_Sandstone_08.png","response":"l","trial_type":"image-keyboard-response","trial_index":127,"plugin_version":"2.1.0","time_elapsed":274600,"subject_id":"91913","group":"Group2","condition":"1_Rep","full_date":"2026-03-02T23:26:34.250Z","date":"2026-03-02","time":"23:26:34","cor_ans":true},{"trial_type":"html-keyboard-response","rt":null,"stimulus":"<p style=\"color: green; font-size: 50px; font-weight: bold;\">Correct</p>","response":null,"trial_index":128,"plugin_version":"2.1.0","time_elapsed":275102,"subject_id":"91913","group":"Group2","condition":"1_Rep","full_date":"2026-03-02T23:26:34.250Z","date":"2026-03-02","time":"23:26:34"},{"correct_response":"a","task":"test_phase","broad_category":"S","image_png":"S_Dolomite_14.png","image_id":398,"category_name":"Dolomite","category":25,"distinct_rating":1.43,"distinct_type":"Bottom","item_type":"Foil","rt":1234,"stimulus":"Stimuli_Rocks480/S_Dolomite_14.png","response":"a","trial_type":"image-keyboard-response","trial_index":129,"plugin_version":"2.1.0","time_elapsed":276338,"subject_id":"91913","group":"Group2","condition":"1_Rep","full_date":"2026-03-02T23:26:34.250Z","date":"2026-03-02","time":"23:26:34","cor_ans":true},{"trial_type":"html-keyboard-response","rt":null,"stimulus":"<p style=\"color: green; font-size: 50px; font-weight: bold;\">Correct</p>","response":null,"trial_index":130,"plugin_version":"2.1.0","time_elapsed":276840,"subject_id":"91913","group":"Group2","condition":"1_Rep","full_date":"2026-03-02T23:26:34.250Z","date":"2026-03-02","time":"23:26:34"},{"correct_response":"a","task":"test_phase","broad_category":"M","image_png":"M_Slate_11.png","image_id":315,"category_name":"Slate","category":20,"distinct_rating":2.75,"distinct_type":"Bottom","item_type":"Foil","rt":3782,"stimulus":"Stimuli_Rocks480/M_Slate_11.png","response":"a","trial_type":"image-keyboard-response","trial_index":131,"plugin_version":"2.1.0","time_elapsed":280624,"subject_id":"91913","group":"Group2","condition":"1_Rep","full_date":"2026-03-02T23:26:34.250Z","date":"2026-03-02","time":"23:26:34","cor_ans":true},{"trial_type":"html-keyboard-response","rt":null,"stimulus":"<p style=\"color: green; font-size: 50px; font-weight: bold;\">Correct</p>","response":null,"trial_index":132,"plugin_version":"2.1.0","time_elapsed":281126,"subject_id":"91913","group":"Group2","condition":"1_Rep","full_date":"2026-03-02T23:26:34.250Z","date":"2026-03-02","time":"23:26:34"},{"correct_response":"a","task":"test_phase","broad_category":"I","image_png":"I_Pegmatite_16.png","image_id":112,"category_name":"Pegmatite","category":7,"distinct_rating":7.03,"distinct_type":"Top","item_type":"Foil","rt":1095,"stimulus":"Stimuli_Rocks480/I_Pegmatite_16.png","response":"a","trial_type":"image-keyboard-response","trial_index":133,"plugin_version":"2.1.0","time_elapsed":282223,"subject_id":"91913","group":"Group2","condition":"1_Rep","full_date":"2026-03-02T23:26:34.250Z","date":"2026-03-02","time":"23:26:34","cor_ans":true},{"trial_type":"html-keyboard-response","rt":null,"stimulus":"<p style=\"color: green; font-size: 50px; font-weight: bold;\">Correct</p>","response":null,"trial_index":134,"plugin_version":"2.1.0","time_elapsed":282724,"subject_id":"91913","group":"Group2","condition":"1_Rep","full_date":"2026-03-02T23:26:34.250Z","date":"2026-03-02","time":"23:26:34"},{"correct_response":"a","task":"test_phase","broad_category":"S","image_png":"S_Shale_12.png","image_id":476,"category_name":"Shale","category":30,"distinct_rating":2.48,"distinct_type":"Bottom","item_type":"Foil","rt":982,"stimulus":"Stimuli_Rocks480/S_Shale_12.png","response":"l","trial_type":"image-keyboard-response","trial_index":135,"plugin_version":"2.1.0","time_elapsed":283709,"subject_id":"91913","group":"Group2","condition":"1_Rep","full_date":"2026-03-02T23:26:34.250Z","date":"2026-03-02","time":"23:26:34","cor_ans":false},{"trial_type":"html-keyboard-response","rt":null,"stimulus":"<p style=\"color: red; font-size: 50px; font-weight: bold;\">Incorrect</p>","response":null,"trial_index":136,"plugin_version":"2.1.0","time_elapsed":284211,"subject_id":"91913","group":"Group2","condition":"1_Rep","full_date":"2026-03-02T23:26:34.250Z","date":"2026-03-02","time":"23:26:34"},{"correct_response":"l","task":"test_phase","broad_category":"M","image_png":"M_Quartzite_15.png","image_id":287,"category_name":"Quartzite","category":18,"distinct_rating":2.19,"distinct_type":"Bottom","item_type":"Target","rt":851,"stimulus":"Stimuli_Rocks480/M_Quartzite_15.png","response":"a","trial_type":"image-keyboard-response","trial_index":137,"plugin_version":"2.1.0","time_elapsed":285064,"subject_id":"91913","group":"Group2","condition":"1_Rep","full_date":"2026-03-02T23:26:34.250Z","date":"2026-03-02","time":"23:26:34","cor_ans":false},{"trial_type":"html-keyboard-response","rt":null,"stimulus":"<p style=\"color: red; font-size: 50px; font-weight: bold;\">Incorrect</p>","response":null,"trial_index":138,"plugin_version":"2.1.0","time_elapsed":285566,"subject_id":"91913","group":"Group2","condition":"1_Rep","full_date":"2026-03-02T23:26:34.250Z","date":"2026-03-02","time":"23:26:34"},{"correct_response":"l","task":"test_phase","broad_category":"M","image_png":"M_Gneiss_14.png","image_id":206,"category_name":"Gneiss","category":13,"distinct_rating":3.41,"distinct_type":"Bottom","item_type":"Target","rt":1565,"stimulus":"Stimuli_Rocks480/M_Gneiss_14.png","response":"l","trial_type":"image-keyboard-response","trial_index":139,"plugin_version":"2.1.0","time_elapsed":287133,"subject_id":"91913","group":"Group2","condition":"1_Rep","full_date":"2026-03-02T23:26:34.250Z","date":"2026-03-02","time":"23:26:34","cor_ans":true},{"trial_type":"html-keyboard-response","rt":null,"stimulus":"<p style=\"color: green; font-size: 50px; font-weight: bold;\">Correct</p>","response":null,"trial_index":140,"plugin_version":"2.1.0","time_elapsed":287635,"subject_id":"91913","group":"Group2","condition":"1_Rep","full_date":"2026-03-02T23:26:34.250Z","date":"2026-03-02","time":"23:26:34"},{"correct_response":"a","task":"test_phase","broad_category":"M","image_png":"M_Gneiss_13.png","image_id":205,"category_name":"Gneiss","category":13,"distinct_rating":3.26,"distinct_type":"Bottom","item_type":"Foil","rt":968,"stimulus":"Stimuli_Rocks480/M_Gneiss_13.png","response":"l","trial_type":"image-keyboard-response","trial_index":141,"plugin_version":"2.1.0","time_elapsed":288606,"subject_id":"91913","group":"Group2","condition":"1_Rep","full_date":"2026-03-02T23:26:34.250Z","date":"2026-03-02","time":"23:26:34","cor_ans":false},{"trial_type":"html-keyboard-response","rt":null,"stimulus":"<p style=\"color: red; font-size: 50px; font-weight: bold;\">Incorrect</p>","response":null,"trial_index":142,"plugin_version":"2.1.0","time_elapsed":289108,"subject_id":"91913","group":"Group2","condition":"1_Rep","full_date":"2026-03-02T23:26:34.250Z","date":"2026-03-02","time":"23:26:34"},{"correct_response":"l","task":"test_phase","broad_category":"S","image_png":"S_Shale_07.png","image_id":471,"category_name":"Shale","category":30,"distinct_rating":2.73,"distinct_type":"Bottom","item_type":"Target","rt":1085,"stimulus":"Stimuli_Rocks480/S_Shale_07.png","response":"l","trial_type":"image-keyboard-response","trial_index":143,"plugin_version":"2.1.0","time_elapsed":290195,"subject_id":"91913","group":"Group2","condition":"1_Rep","full_date":"2026-03-02T23:26:34.250Z","date":"2026-03-02","time":"23:26:34","cor_ans":true},{"trial_type":"html-keyboard-response","rt":null,"stimulus":"<p style=\"color: green; font-size: 50px; font-weight: bold;\">Correct</p>","response":null,"trial_index":144,"plugin_version":"2.1.0","time_elapsed":290698,"subject_id":"91913","group":"Group2","condition":"1_Rep","full_date":"2026-03-02T23:26:34.250Z","date":"2026-03-02","time":"23:26:34"},{"correct_response":"l","task":"test_phase","broad_category":"I","image_png":"I_Pumice_13.png","image_id":141,"category_name":"Pumice","category":9,"distinct_rating":3.12,"distinct_type":"Bottom","item_type":"Target","rt":1244,"stimulus":"Stimuli_Rocks480/I_Pumice_13.png","response":"a","trial_type":"image-keyboard-response","trial_index":145,"plugin_version":"2.1.0","time_elapsed":291944,"subject_id":"91913","group":"Group2","condition":"1_Rep","full_date":"2026-03-02T23:26:34.250Z","date":"2026-03-02","time":"23:26:34","cor_ans":false},{"trial_type":"html-keyboard-response","rt":null,"stimulus":"<p style=\"color: red; font-size: 50px; font-weight: bold;\">Incorrect</p>","response":null,"trial_index":146,"plugin_version":"2.1.0","time_elapsed":292446,"subject_id":"91913","group":"Group2","condition":"1_Rep","full_date":"2026-03-02T23:26:34.250Z","date":"2026-03-02","time":"23:26:34"},{"correct_response":"l","task":"test_phase","broad_category":"M","image_png":"M_Marble_02.png","image_id":226,"category_name":"Marble","category":15,"distinct_rating":3.2,"distinct_type":"Bottom","item_type":"Target","rt":701,"stimulus":"Stimuli_Rocks480/M_Marble_02.png","response":"l","trial_type":"image-keyboard-response","trial_index":147,"plugin_version":"2.1.0","time_elapsed":293149,"subject_id":"91913","group":"Group2","condition":"1_Rep","full_date":"2026-03-02T23:26:34.250Z","date":"2026-03-02","time":"23:26:34","cor_ans":true},{"trial_type":"html-keyboard-response","rt":null,"stimulus":"<p style=\"color: green; font-size: 50px; font-weight: bold;\">Correct</p>","response":null,"trial_index":148,"plugin_version":"2.1.0","time_elapsed":293651,"subject_id":"91913","group":"Group2","condition":"1_Rep","full_date":"2026-03-02T23:26:34.250Z","date":"2026-03-02","time":"23:26:34"},{"correct_response":"l","task":"test_phase","broad_category":"S","image_png":"S_Conglomerate_14.png","image_id":382,"category_name":"Conglomerate","category":24,"distinct_rating":6.86,"distinct_type":"Top","item_type":"Target","rt":851,"stimulus":"Stimuli_Rocks480/S_Conglomerate_14.png","response":"l","trial_type":"image-keyboard-response","trial_index":149,"plugin_version":"2.1.0","time_elapsed":294505,"subject_id":"91913","group":"Group2","condition":"1_Rep","full_date":"2026-03-02T23:26:34.250Z","date":"2026-03-02","time":"23:26:34","cor_ans":true},{"trial_type":"html-keyboard-response","rt":null,"stimulus":"<p style=\"color: green; font-size: 50px; font-weight: bold;\">Correct</p>","response":null,"trial_index":150,"plugin_version":"2.1.0","time_elapsed":295006,"subject_id":"91913","group":"Group2","condition":"1_Rep","full_date":"2026-03-02T23:26:34.250Z","date":"2026-03-02","time":"23:26:34"},{"correct_response":"a","task":"test_phase","broad_category":"S","image_png":"S_Rock Salt_01.png","image_id":433,"category_name":"Rock Salt","category":28,"distinct_rating":7.18,"distinct_type":"Top","item_type":"Foil","rt":1043,"stimulus":"Stimuli_Rocks480/S_Rock Salt_01.png","response":"l","trial_type":"image-keyboard-response","trial_index":151,"plugin_version":"2.1.0","time_elapsed":296052,"subject_id":"91913","group":"Group2","condition":"1_Rep","full_date":"2026-03-02T23:26:34.250Z","date":"2026-03-02","time":"23:26:34","cor_ans":false},{"trial_type":"html-keyboard-response","rt":null,"stimulus":"<p style=\"color: red; font-size: 50px; font-weight: bold;\">Incorrect</p>","response":null,"trial_index":152,"plugin_version":"2.1.0","time_elapsed":296554,"subject_id":"91913","group":"Group2","condition":"1_Rep","full_date":"2026-03-02T23:26:34.250Z","date":"2026-03-02","time":"23:26:34"},{"correct_response":"a","task":"test_phase","broad_category":"M","image_png":"M_Marble_04.png","image_id":228,"category_name":"Marble","category":15,"distinct_rating":3.15,"distinct_type":"Bottom","item_type":"Foil","rt":699,"stimulus":"Stimuli_Rocks480/M_Marble_04.png","response":"l","trial_type":"image-keyboard-response","trial_index":153,"plugin_version":"2.1.0","time_elapsed":297255,"subject_id":"91913","group":"Group2","condition":"1_Rep","full_date":"2026-03-02T23:26:34.250Z","date":"2026-03-02","time":"23:26:34","cor_ans":false},{"trial_type":"html-keyboard-response","rt":null,"stimulus":"<p style=\"color: red; font-size: 50px; font-weight: bold;\">Incorrect</p>","response":null,"trial_index":154,"plugin_version":"2.1.0","time_elapsed":297757,"subject_id":"91913","group":"Group2","condition":"1_Rep","full_date":"2026-03-02T23:26:34.250Z","date":"2026-03-02","time":"23:26:34"},{"correct_response":"l","task":"test_phase","broad_category":"I","image_png":"I_Pumice_01.png","image_id":129,"category_name":"Pumice","category":9,"distinct_rating":3.25,"distinct_type":"Bottom","item_type":"Target","rt":699,"stimulus":"Stimuli_Rocks480/I_Pumice_01.png","response":"l","trial_type":"image-keyboard-response","trial_index":155,"plugin_version":"2.1.0","time_elapsed":298458,"subject_id":"91913","group":"Group2","condition":"1_Rep","full_date":"2026-03-02T23:26:34.250Z","date":"2026-03-02","time":"23:26:34","cor_ans":true},{"trial_type":"html-keyboard-response","rt":null,"stimulus":"<p style=\"color: green; font-size: 50px; font-weight: bold;\">Correct</p>","response":null,"trial_index":156,"plugin_version":"2.1.0","time_elapsed":298960,"subject_id":"91913","group":"Group2","condition":"1_Rep","full_date":"2026-03-02T23:26:34.250Z","date":"2026-03-02","time":"23:26:34"},{"correct_response":"l","task":"test_phase","broad_category":"S","image_png":"S_Sandstone_04.png","image_id":452,"category_name":"Sandstone","category":29,"distinct_rating":1.8,"distinct_type":"Bottom","item_type":"Target","rt":1022,"stimulus":"Stimuli_Rocks480/S_Sandstone_04.png","response":"a","trial_type":"image-keyboard-response","trial_index":157,"plugin_version":"2.1.0","time_elapsed":299984,"subject_id":"91913","group":"Group2","condition":"1_Rep","full_date":"2026-03-02T23:26:34.250Z","date":"2026-03-02","time":"23:26:34","cor_ans":false},{"trial_type":"html-keyboard-response","rt":null,"stimulus":"<p style=\"color: red; font-size: 50px; font-weight: bold;\">Incorrect</p>","response":null,"trial_index":158,"plugin_version":"2.1.0","time_elapsed":300485,"subject_id":"91913","group":"Group2","condition":"1_Rep","full_date":"2026-03-02T23:26:34.250Z","date":"2026-03-02","time":"23:26:34"},{"correct_response":"a","task":"test_phase","broad_category":"S","image_png":"S_Breccia_11.png","image_id":347,"category_name":"Breccia","category":22,"distinct_rating":6.7,"distinct_type":"Top","item_type":"Foil","rt":1005,"stimulus":"Stimuli_Rocks480/S_Breccia_11.png","response":"a","trial_type":"image-keyboard-response","trial_index":159,"plugin_version":"2.1.0","time_elapsed":301493,"subject_id":"91913","group":"Group2","condition":"1_Rep","full_date":"2026-03-02T23:26:34.250Z","date":"2026-03-02","time":"23:26:34","cor_ans":true},{"trial_type":"html-keyboard-response","rt":null,"stimulus":"<p style=\"color: green; font-size: 50px; font-weight: bold;\">Correct</p>","response":null,"trial_index":160,"plugin_version":"2.1.0","time_elapsed":301995,"subject_id":"91913","group":"Group2","condition":"1_Rep","full_date":"2026-03-02T23:26:34.250Z","date":"2026-03-02","time":"23:26:34"},{"correct_response":"a","task":"test_phase","broad_category":"I","image_png":"I_Obsidian_05.png","image_id":85,"category_name":"Obsidian","category":6,"distinct_rating":7.32,"distinct_type":"Top","item_type":"Foil","rt":955,"stimulus":"Stimuli_Rocks480/I_Obsidian_05.png","response":"a","trial_type":"image-keyboard-response","trial_index":161,"plugin_version":"2.1.0","time_elapsed":302953,"subject_id":"91913","group":"Group2","condition":"1_Rep","full_date":"2026-03-02T23:26:34.250Z","date":"2026-03-02","time":"23:26:34","cor_ans":true},{"trial_type":"html-keyboard-response","rt":null,"stimulus":"<p style=\"color: green; font-size: 50px; font-weight: bold;\">Correct</p>","response":null,"trial_index":162,"plugin_version":"2.1.0","time_elapsed":303455,"subject_id":"91913","group":"Group2","condition":"1_Rep","full_date":"2026-03-02T23:26:34.250Z","date":"2026-03-02","time":"23:26:34"},{"correct_response":"l","task":"test_phase","broad_category":"I","image_png":"I_Rhyolite_10.png","image_id":154,"category_name":"Rhyolite","category":10,"distinct_rating":2.88,"distinct_type":"Bottom","item_type":"Target","rt":831,"stimulus":"Stimuli_Rocks480/I_Rhyolite_10.png","response":"l","trial_type":"image-keyboard-response","trial_index":163,"plugin_version":"2.1.0","time_elapsed":304289,"subject_id":"91913","group":"Group2","condition":"1_Rep","full_date":"2026-03-02T23:26:34.250Z","date":"2026-03-02","time":"23:26:34","cor_ans":true},{"trial_type":"html-keyboard-response","rt":null,"stimulus":"<p style=\"color: green; font-size: 50px; font-weight: bold;\">Correct</p>","response":null,"trial_index":164,"plugin_version":"2.1.0","time_elapsed":304790,"subject_id":"91913","group":"Group2","condition":"1_Rep","full_date":"2026-03-02T23:26:34.250Z","date":"2026-03-02","time":"23:26:34"},{"correct_response":"a","task":"test_phase","broad_category":"I","image_png":"I_Basalt_01.png","image_id":17,"category_name":"Basalt","category":2,"distinct_rating":1.92,"distinct_type":"Bottom","item_type":"Foil","rt":785,"stimulus":"Stimuli_Rocks480/I_Basalt_01.png","response":"l","trial_type":"image-keyboard-response","trial_index":165,"plugin_version":"2.1.0","time_elapsed":305578,"subject_id":"91913","group":"Group2","condition":"1_Rep","full_date":"2026-03-02T23:26:34.250Z","date":"2026-03-02","time":"23:26:34","cor_ans":false},{"trial_type":"html-keyboard-response","rt":null,"stimulus":"<p style=\"color: red; font-size: 50px; font-weight: bold;\">Incorrect</p>","response":null,"trial_index":166,"plugin_version":"2.1.0","time_elapsed":306080,"subject_id":"91913","group":"Group2","condition":"1_Rep","full_date":"2026-03-02T23:26:34.250Z","date":"2026-03-02","time":"23:26:34"},{"correct_response":"a","task":"test_phase","broad_category":"I","image_png":"I_Basalt_02.png","image_id":18,"category_name":"Basalt","category":2,"distinct_rating":1.84,"distinct_type":"Bottom","item_type":"Foil","rt":811,"stimulus":"Stimuli_Rocks480/I_Basalt_02.png","response":"l","trial_type":"image-keyboard-response","trial_index":167,"plugin_version":"2.1.0","time_elapsed":306893,"subject_id":"91913","group":"Group2","condition":"1_Rep","full_date":"2026-03-02T23:26:34.250Z","date":"2026-03-02","time":"23:26:34","cor_ans":false},{"trial_type":"html-keyboard-response","rt":null,"stimulus":"<p style=\"color: red; font-size: 50px; font-weight: bold;\">Incorrect</p>","response":null,"trial_index":168,"plugin_version":"2.1.0","time_elapsed":307394,"subject_id":"91913","group":"Group2","condition":"1_Rep","full_date":"2026-03-02T23:26:34.250Z","date":"2026-03-02","time":"23:26:34"},{"correct_response":"a","task":"test_phase","broad_category":"I","image_png":"I_Pegmatite_10.png","image_id":106,"category_name":"Pegmatite","category":7,"distinct_rating":7.66,"distinct_type":"Top","item_type":"Foil","rt":859,"stimulus":"Stimuli_Rocks480/I_Pegmatite_10.png","response":"a","trial_type":"image-keyboard-response","trial_index":169,"plugin_version":"2.1.0","time_elapsed":308256,"subject_id":"91913","group":"Group2","condition":"1_Rep","full_date":"2026-03-02T23:26:34.250Z","date":"2026-03-02","time":"23:26:34","cor_ans":true},{"trial_type":"html-keyboard-response","rt":null,"stimulus":"<p style=\"color: green; font-size: 50px; font-weight: bold;\">Correct</p>","response":null,"trial_index":170,"plugin_version":"2.1.0","time_elapsed":308758,"subject_id":"91913","group":"Group2","condition":"1_Rep","full_date":"2026-03-02T23:26:34.250Z","date":"2026-03-02","time":"23:26:34"},{"correct_response":"l","task":"test_phase","broad_category":"M","image_png":"M_Slate_04.png","image_id":308,"category_name":"Slate","category":20,"distinct_rating":2.2,"distinct_type":"Bottom","item_type":"Target","rt":817,"stimulus":"Stimuli_Rocks480/M_Slate_04.png","response":"l","trial_type":"image-keyboard-response","trial_index":171,"plugin_version":"2.1.0","time_elapsed":309577,"subject_id":"91913","group":"Group2","condition":"1_Rep","full_date":"2026-03-02T23:26:34.250Z","date":"2026-03-02","time":"23:26:34","cor_ans":true},{"trial_type":"html-keyboard-response","rt":null,"stimulus":"<p style=\"color: green; font-size: 50px; font-weight: bold;\">Correct</p>","response":null,"trial_index":172,"plugin_version":"2.1.0","time_elapsed":310079,"subject_id":"91913","group":"Group2","condition":"1_Rep","full_date":"2026-03-02T23:26:34.250Z","date":"2026-03-02","time":"23:26:34"},{"correct_response":"a","task":"test_phase","broad_category":"I","image_png":"I_Andesite_06.png","image_id":6,"category_name":"Andesite","category":1,"distinct_rating":3.17,"distinct_type":"Bottom","item_type":"Foil","rt":2805,"stimulus":"Stimuli_Rocks480/I_Andesite_06.png","response":"l","trial_type":"image-keyboard-response","trial_index":173,"plugin_version":"2.1.0","time_elapsed":312886,"subject_id":"91913","group":"Group2","condition":"1_Rep","full_date":"2026-03-02T23:26:34.250Z","date":"2026-03-02","time":"23:26:34","cor_ans":false},{"trial_type":"html-keyboard-response","rt":null,"stimulus":"<p style=\"color: red; font-size: 50px; font-weight: bold;\">Incorrect</p>","response":null,"trial_index":174,"plugin_version":"2.1.0","time_elapsed":313388,"subject_id":"91913","group":"Group2","condition":"1_Rep","full_date":"2026-03-02T23:26:34.250Z","date":"2026-03-02","time":"23:26:34"},{"correct_response":"a","task":"test_phase","broad_category":"M","image_png":"M_Phyllite_10.png","image_id":266,"category_name":"Phyllite","category":17,"distinct_rating":2.6,"distinct_type":"Bottom","item_type":"Foil","rt":899,"stimulus":"Stimuli_Rocks480/M_Phyllite_10.png","response":"a","trial_type":"image-keyboard-response","trial_index":175,"plugin_version":"2.1.0","time_elapsed":314289,"subject_id":"91913","group":"Group2","condition":"1_Rep","full_date":"2026-03-02T23:26:34.250Z","date":"2026-03-02","time":"23:26:34","cor_ans":true},{"trial_type":"html-keyboard-response","rt":null,"stimulus":"<p style=\"color: green; font-size: 50px; font-weight: bold;\">Correct</p>","response":null,"trial_index":176,"plugin_version":"2.1.0","time_elapsed":314790,"subject_id":"91913","group":"Group2","condition":"1_Rep","full_date":"2026-03-02T23:26:34.250Z","date":"2026-03-02","time":"23:26:34"},{"correct_response":"l","task":"test_phase","broad_category":"I","image_png":"I_Andesite_04.png","image_id":4,"category_name":"Andesite","category":1,"distinct_rating":3.18,"distinct_type":"Bottom","item_type":"Target","rt":1817,"stimulus":"Stimuli_Rocks480/I_Andesite_04.png","response":"a","trial_type":"image-keyboard-response","trial_index":177,"plugin_version":"2.1.0","time_elapsed":316610,"subject_id":"91913","group":"Group2","condition":"1_Rep","full_date":"2026-03-02T23:26:34.250Z","date":"2026-03-02","time":"23:26:34","cor_ans":false},{"trial_type":"html-keyboard-response","rt":null,"stimulus":"<p style=\"color: red; font-size: 50px; font-weight: bold;\">Incorrect</p>","response":null,"trial_index":178,"plugin_version":"2.1.0","time_elapsed":317111,"subject_id":"91913","group":"Group2","condition":"1_Rep","full_date":"2026-03-02T23:26:34.250Z","date":"2026-03-02","time":"23:26:34"},{"correct_response":"l","task":"test_phase","broad_category":"I","image_png":"I_Basalt_13.png","image_id":29,"category_name":"Basalt","category":2,"distinct_rating":2.68,"distinct_type":"Bottom","item_type":"Target","rt":1318,"stimulus":"Stimuli_Rocks480/I_Basalt_13.png","response":"a","trial_type":"image-keyboard-response","trial_index":179,"plugin_version":"2.1.0","time_elapsed":318432,"subject_id":"91913","group":"Group2","condition":"1_Rep","full_date":"2026-03-02T23:26:34.250Z","date":"2026-03-02","time":"23:26:34","cor_ans":false},{"trial_type":"html-keyboard-response","rt":null,"stimulus":"<p style=\"color: red; font-size: 50px; font-weight: bold;\">Incorrect</p>","response":null,"trial_index":180,"plugin_version":"2.1.0","time_elapsed":318934,"subject_id":"91913","group":"Group2","condition":"1_Rep","full_date":"2026-03-02T23:26:34.250Z","date":"2026-03-02","time":"23:26:34"},{"correct_response":"a","task":"test_phase","broad_category":"S","image_png":"S_Shale_01.png","image_id":465,"category_name":"Shale","category":30,"distinct_rating":2.7,"distinct_type":"Bottom","item_type":"Foil","rt":13719,"stimulus":"Stimuli_Rocks480/S_Shale_01.png","response":"l","trial_type":"image-keyboard-response","trial_index":181,"plugin_version":"2.1.0","time_elapsed":332655,"subject_id":"91913","group":"Group2","condition":"1_Rep","full_date":"2026-03-02T23:26:34.250Z","date":"2026-03-02","time":"23:26:34","cor_ans":false},{"trial_type":"html-keyboard-response","rt":null,"stimulus":"<p style=\"color: red; font-size: 50px; font-weight: bold;\">Incorrect</p>","response":null,"trial_index":182,"plugin_version":"2.1.0","time_elapsed":333156,"subject_id":"91913","group":"Group2","condition":"1_Rep","full_date":"2026-03-02T23:26:34.250Z","date":"2026-03-02","time":"23:26:34"},{"correct_response":"l","task":"test_phase","broad_category":"S","image_png":"S_Dolomite_01.png","image_id":385,"category_name":"Dolomite","category":25,"distinct_rating":1.43,"distinct_type":"Bottom","item_type":"Target","rt":1421,"stimulus":"Stimuli_Rocks480/S_Dolomite_01.png","response":"l","trial_type":"image-keyboard-response","trial_index":183,"plugin_version":"2.1.0","time_elapsed":334580,"subject_id":"91913","group":"Group2","condition":"1_Rep","full_date":"2026-03-02T23:26:34.250Z","date":"2026-03-02","time":"23:26:34","cor_ans":true},{"trial_type":"html-keyboard-response","rt":null,"stimulus":"<p style=\"color: green; font-size: 50px; font-weight: bold;\">Correct</p>","response":null,"trial_index":184,"plugin_version":"2.1.0","time_elapsed":335081,"subject_id":"91913","group":"Group2","condition":"1_Rep","full_date":"2026-03-02T23:26:34.250Z","date":"2026-03-02","time":"23:26:34"},{"correct_response":"l","task":"test_phase","broad_category":"I","image_png":"I_Andesite_03.png","image_id":3,"category_name":"Andesite","category":1,"distinct_rating":3.17,"distinct_type":"Bottom","item_type":"Target","rt":2173,"stimulus":"Stimuli_Rocks480/I_Andesite_03.png","response":"a","trial_type":"image-keyboard-response","trial_index":185,"plugin_version":"2.1.0","time_elapsed":337256,"subject_id":"91913","group":"Group2","condition":"1_Rep","full_date":"2026-03-02T23:26:34.250Z","date":"2026-03-02","time":"23:26:34","cor_ans":false},{"trial_type":"html-keyboard-response","rt":null,"stimulus":"<p style=\"color: red; font-size: 50px; font-weight: bold;\">Incorrect</p>","response":null,"trial_index":186,"plugin_version":"2.1.0","time_elapsed":337758,"subject_id":"91913","group":"Group2","condition":"1_Rep","full_date":"2026-03-02T23:26:34.250Z","date":"2026-03-02","time":"23:26:34"},{"correct_response":"l","task":"test_phase","broad_category":"S","image_png":"S_Rock Salt_15.png","image_id":447,"category_name":"Rock Salt","category":28,"distinct_rating":7.79,"distinct_type":"Top","item_type":"Target","rt":1065,"stimulus":"Stimuli_Rocks480/S_Rock Salt_15.png","response":"l","trial_type":"image-keyboard-response","trial_index":187,"plugin_version":"2.1.0","time_elapsed":338825,"subject_id":"91913","group":"Group2","condition":"1_Rep","full_date":"2026-03-02T23:26:34.250Z","date":"2026-03-02","time":"23:26:34","cor_ans":true},{"trial_type":"html-keyboard-response","rt":null,"stimulus":"<p style=\"color: green; font-size: 50px; font-weight: bold;\">Correct</p>","response":null,"trial_index":188,"plugin_version":"2.1.0","time_elapsed":339327,"subject_id":"91913","group":"Group2","condition":"1_Rep","full_date":"2026-03-02T23:26:34.250Z","date":"2026-03-02","time":"23:26:34"},{"correct_response":"l","task":"test_phase","broad_category":"M","image_png":"M_Gneiss_15.png","image_id":207,"category_name":"Gneiss","category":13,"distinct_rating":3.11,"distinct_type":"Bottom","item_type":"Target","rt":1193,"stimulus":"Stimuli_Rocks480/M_Gneiss_15.png","response":"l","trial_type":"image-keyboard-response","trial_index":189,"plugin_version":"2.1.0","time_elapsed":340522,"subject_id":"91913","group":"Group2","condition":"1_Rep","full_date":"2026-03-02T23:26:34.250Z","date":"2026-03-02","time":"23:26:34","cor_ans":true},{"trial_type":"html-keyboard-response","rt":null,"stimulus":"<p style=\"color: green; font-size: 50px; font-weight: bold;\">Correct</p>","response":null,"trial_index":190,"plugin_version":"2.1.0","time_elapsed":341024,"subject_id":"91913","group":"Group2","condition":"1_Rep","full_date":"2026-03-02T23:26:34.250Z","date":"2026-03-02","time":"23:26:34"},{"correct_response":"l","task":"test_phase","broad_category":"I","image_png":"I_Obsidian_06.png","image_id":86,"category_name":"Obsidian","category":6,"distinct_rating":8.01,"distinct_type":"Top","item_type":"Target","rt":702,"stimulus":"Stimuli_Rocks480/I_Obsidian_06.png","response":"l","trial_type":"image-keyboard-response","trial_index":191,"plugin_version":"2.1.0","time_elapsed":341728,"subject_id":"91913","group":"Group2","condition":"1_Rep","full_date":"2026-03-02T23:26:34.250Z","date":"2026-03-02","time":"23:26:34","cor_ans":true},{"trial_type":"html-keyboard-response","rt":null,"stimulus":"<p style=\"color: green; font-size: 50px; font-weight: bold;\">Correct</p>","response":null,"trial_index":192,"plugin_version":"2.1.0","time_elapsed":342230,"subject_id":"91913","group":"Group2","condition":"1_Rep","full_date":"2026-03-02T23:26:34.250Z","date":"2026-03-02","time":"23:26:34"},{"correct_response":"l","task":"test_phase","broad_category":"I","image_png":"I_Diorite_01.png","image_id":33,"category_name":"Diorite","category":3,"distinct_rating":2.97,"distinct_type":"Bottom","item_type":"Target","rt":884,"stimulus":"Stimuli_Rocks480/I_Diorite_01.png","response":"l","trial_type":"image-keyboard-response","trial_index":193,"plugin_version":"2.1.0","time_elapsed":343117,"subject_id":"91913","group":"Group2","condition":"1_Rep","full_date":"2026-03-02T23:26:34.250Z","date":"2026-03-02","time":"23:26:34","cor_ans":true},{"trial_type":"html-keyboard-response","rt":null,"stimulus":"<p style=\"color: green; font-size: 50px; font-weight: bold;\">Correct</p>","response":null,"trial_index":194,"plugin_version":"2.1.0","time_elapsed":343618,"subject_id":"91913","group":"Group2","condition":"1_Rep","full_date":"2026-03-02T23:26:34.250Z","date":"2026-03-02","time":"23:26:34"},{"correct_response":"l","task":"test_phase","broad_category":"M","image_png":"M_Gneiss_10.png","image_id":202,"category_name":"Gneiss","category":13,"distinct_rating":3.09,"distinct_type":"Bottom","item_type":"Target","rt":670,"stimulus":"Stimuli_Rocks480/M_Gneiss_10.png","response":"l","trial_type":"image-keyboard-response","trial_index":195,"plugin_version":"2.1.0","time_elapsed":344291,"subject_id":"91913","group":"Group2","condition":"1_Rep","full_date":"2026-03-02T23:26:34.250Z","date":"2026-03-02","time":"23:26:34","cor_ans":true},{"trial_type":"html-keyboard-response","rt":null,"stimulus":"<p style=\"color: green; font-size: 50px; font-weight: bold;\">Correct</p>","response":null,"trial_index":196,"plugin_version":"2.1.0","time_elapsed":344792,"subject_id":"91913","group":"Group2","condition":"1_Rep","full_date":"2026-03-02T23:26:34.250Z","date":"2026-03-02","time":"23:26:34"},{"correct_response":"l","task":"test_phase","broad_category":"M","image_png":"M_Phyllite_13.png","image_id":269,"category_name":"Phyllite","category":17,"distinct_rating":2.8,"distinct_type":"Bottom","item_type":"Target","rt":1484,"stimulus":"Stimuli_Rocks480/M_Phyllite_13.png","response":"l","trial_type":"image-keyboard-response","trial_index":197,"plugin_version":"2.1.0","time_elapsed":346279,"subject_id":"91913","group":"Group2","condition":"1_Rep","full_date":"2026-03-02T23:26:34.250Z","date":"2026-03-02","time":"23:26:34","cor_ans":true},{"trial_type":"html-keyboard-response","rt":null,"stimulus":"<p style=\"color: green; font-size: 50px; font-weight: bold;\">Correct</p>","response":null,"trial_index":198,"plugin_version":"2.1.0","time_elapsed":346780,"subject_id":"91913","group":"Group2","condition":"1_Rep","full_date":"2026-03-02T23:26:34.250Z","date":"2026-03-02","time":"23:26:34"},{"correct_response":"a","task":"test_phase","broad_category":"S","image_png":"S_Chert_10.png","image_id":362,"category_name":"Chert","category":23,"distinct_rating":7.17,"distinct_type":"Top","item_type":"Foil","rt":1160,"stimulus":"Stimuli_Rocks480/S_Chert_10.png","response":"a","trial_type":"image-keyboard-response","trial_index":199,"plugin_version":"2.1.0","time_elapsed":347943,"subject_id":"91913","group":"Group2","condition":"1_Rep","full_date":"2026-03-02T23:26:34.250Z","date":"2026-03-02","time":"23:26:34","cor_ans":true},{"trial_type":"html-keyboard-response","rt":null,"stimulus":"<p style=\"color: green; font-size: 50px; font-weight: bold;\">Correct</p>","response":null,"trial_index":200,"plugin_version":"2.1.0","time_elapsed":348445,"subject_id":"91913","group":"Group2","condition":"1_Rep","full_date":"2026-03-02T23:26:34.250Z","date":"2026-03-02","time":"23:26:34"},{"correct_response":"l","task":"test_phase","broad_category":"I","image_png":"I_Peridotite_13.png","image_id":125,"category_name":"Peridotite","category":8,"distinct_rating":7.28,"distinct_type":"Top","item_type":"Target","rt":1466,"stimulus":"Stimuli_Rocks480/I_Peridotite_13.png","response":"a","trial_type":"image-keyboard-response","trial_index":201,"plugin_version":"2.1.0","time_elapsed":349913,"subject_id":"91913","group":"Group2","condition":"1_Rep","full_date":"2026-03-02T23:26:34.250Z","date":"2026-03-02","time":"23:26:34","cor_ans":false},{"trial_type":"html-keyboard-response","rt":null,"stimulus":"<p style=\"color: red; font-size: 50px; font-weight: bold;\">Incorrect</p>","response":null,"trial_index":202,"plugin_version":"2.1.0","time_elapsed":350415,"subject_id":"91913","group":"Group2","condition":"1_Rep","full_date":"2026-03-02T23:26:34.250Z","date":"2026-03-02","time":"23:26:34"},{"correct_response":"l","task":"test_phase","broad_category":"I","image_png":"I_Gabbro_02.png","image_id":50,"category_name":"Gabbro","category":4,"distinct_rating":2.73,"distinct_type":"Bottom","item_type":"Target","rt":857,"stimulus":"Stimuli_Rocks480/I_Gabbro_02.png","response":"l","trial_type":"image-keyboard-response","trial_index":203,"plugin_version":"2.1.0","time_elapsed":351275,"subject_id":"91913","group":"Group2","condition":"1_Rep","full_date":"2026-03-02T23:26:34.250Z","date":"2026-03-02","time":"23:26:34","cor_ans":true},{"trial_type":"html-keyboard-response","rt":null,"stimulus":"<p style=\"color: green; font-size: 50px; font-weight: bold;\">Correct</p>","response":null,"trial_index":204,"plugin_version":"2.1.0","time_elapsed":351777,"subject_id":"91913","group":"Group2","condition":"1_Rep","full_date":"2026-03-02T23:26:34.250Z","date":"2026-03-02","time":"23:26:34"},{"correct_response":"a","task":"test_phase","broad_category":"I","image_png":"I_Rhyolite_14.png","image_id":158,"category_name":"Rhyolite","category":10,"distinct_rating":2.59,"distinct_type":"Bottom","item_type":"Foil","rt":1248,"stimulus":"Stimuli_Rocks480/I_Rhyolite_14.png","response":"a","trial_type":"image-keyboard-response","trial_index":205,"plugin_version":"2.1.0","time_elapsed":353027,"subject_id":"91913","group":"Group2","condition":"1_Rep","full_date":"2026-03-02T23:26:34.250Z","date":"2026-03-02","time":"23:26:34","cor_ans":true},{"trial_type":"html-keyboard-response","rt":null,"stimulus":"<p style=\"color: green; font-size: 50px; font-weight: bold;\">Correct</p>","response":null,"trial_index":206,"plugin_version":"2.1.0","time_elapsed":353529,"subject_id":"91913","group":"Group2","condition":"1_Rep","full_date":"2026-03-02T23:26:34.250Z","date":"2026-03-02","time":"23:26:34"},{"correct_response":"l","task":"test_phase","broad_category":"M","image_png":"M_Slate_14.png","image_id":318,"category_name":"Slate","category":20,"distinct_rating":2.58,"distinct_type":"Bottom","item_type":"Target","rt":782,"stimulus":"Stimuli_Rocks480/M_Slate_14.png","response":"l","trial_type":"image-keyboard-response","trial_index":207,"plugin_version":"2.1.0","time_elapsed":354314,"subject_id":"91913","group":"Group2","condition":"1_Rep","full_date":"2026-03-02T23:26:34.250Z","date":"2026-03-02","time":"23:26:34","cor_ans":true},{"trial_type":"html-keyboard-response","rt":null,"stimulus":"<p style=\"color: green; font-size: 50px; font-weight: bold;\">Correct</p>","response":null,"trial_index":208,"plugin_version":"2.1.0","time_elapsed":354816,"subject_id":"91913","group":"Group2","condition":"1_Rep","full_date":"2026-03-02T23:26:34.250Z","date":"2026-03-02","time":"23:26:34"},{"correct_response":"a","task":"test_phase","broad_category":"S","image_png":"S_Sandstone_03.png","image_id":451,"category_name":"Sandstone","category":29,"distinct_rating":1.86,"distinct_type":"Bottom","item_type":"Foil","rt":1684,"stimulus":"Stimuli_Rocks480/S_Sandstone_03.png","response":"l","trial_type":"image-keyboard-response","trial_index":209,"plugin_version":"2.1.0","time_elapsed":356502,"subject_id":"91913","group":"Group2","condition":"1_Rep","full_date":"2026-03-02T23:26:34.250Z","date":"2026-03-02","time":"23:26:34","cor_ans":false},{"trial_type":"html-keyboard-response","rt":null,"stimulus":"<p style=\"color: red; font-size: 50px; font-weight: bold;\">Incorrect</p>","response":null,"trial_index":210,"plugin_version":"2.1.0","time_elapsed":357004,"subject_id":"91913","group":"Group2","condition":"1_Rep","full_date":"2026-03-02T23:26:34.250Z","date":"2026-03-02","time":"23:26:34"},{"correct_response":"a","task":"test_phase","broad_category":"S","image_png":"S_Sandstone_16.png","image_id":464,"category_name":"Sandstone","category":29,"distinct_rating":1.93,"distinct_type":"Bottom","item_type":"Foil","rt":1387,"stimulus":"Stimuli_Rocks480/S_Sandstone_16.png","response":"a","trial_type":"image-keyboard-response","trial_index":211,"plugin_version":"2.1.0","time_elapsed":358393,"subject_id":"91913","group":"Group2","condition":"1_Rep","full_date":"2026-03-02T23:26:34.250Z","date":"2026-03-02","time":"23:26:34","cor_ans":true},{"trial_type":"html-keyboard-response","rt":null,"stimulus":"<p style=\"color: green; font-size: 50px; font-weight: bold;\">Correct</p>","response":null,"trial_index":212,"plugin_version":"2.1.0","time_elapsed":358895,"subject_id":"91913","group":"Group2","condition":"1_Rep","full_date":"2026-03-02T23:26:34.250Z","date":"2026-03-02","time":"23:26:34"},{"correct_response":"l","task":"test_phase","broad_category":"M","image_png":"M_Marble_03.png","image_id":227,"category_name":"Marble","category":15,"distinct_rating":2.67,"distinct_type":"Bottom","item_type":"Target","rt":875,"stimulus":"Stimuli_Rocks480/M_Marble_03.png","response":"l","trial_type":"image-keyboard-response","trial_index":213,"plugin_version":"2.1.0","time_elapsed":359772,"subject_id":"91913","group":"Group2","condition":"1_Rep","full_date":"2026-03-02T23:26:34.250Z","date":"2026-03-02","time":"23:26:34","cor_ans":true},{"trial_type":"html-keyboard-response","rt":null,"stimulus":"<p style=\"color: green; font-size: 50px; font-weight: bold;\">Correct</p>","response":null,"trial_index":214,"plugin_version":"2.1.0","time_elapsed":360274,"subject_id":"91913","group":"Group2","condition":"1_Rep","full_date":"2026-03-02T23:26:34.250Z","date":"2026-03-02","time":"23:26:34"},{"correct_response":"l","task":"test_phase","broad_category":"I","image_png":"I_Basalt_10.png","image_id":26,"category_name":"Basalt","category":2,"distinct_rating":2.76,"distinct_type":"Bottom","item_type":"Target","rt":1348,"stimulus":"Stimuli_Rocks480/I_Basalt_10.png","response":"a","trial_type":"image-keyboard-response","trial_index":215,"plugin_version":"2.1.0","time_elapsed":361624,"subject_id":"91913","group":"Group2","condition":"1_Rep","full_date":"2026-03-02T23:26:34.250Z","date":"2026-03-02","time":"23:26:34","cor_ans":false},{"trial_type":"html-keyboard-response","rt":null,"stimulus":"<p style=\"color: red; font-size: 50px; font-weight: bold;\">Incorrect</p>","response":null,"trial_index":216,"plugin_version":"2.1.0","time_elapsed":362127,"subject_id":"91913","group":"Group2","condition":"1_Rep","full_date":"2026-03-02T23:26:34.250Z","date":"2026-03-02","time":"23:26:34"},{"correct_response":"l","task":"test_phase","broad_category":"I","image_png":"I_Rhyolite_08.png","image_id":152,"category_name":"Rhyolite","category":10,"distinct_rating":1.38,"distinct_type":"Bottom","item_type":"Target","rt":975,"stimulus":"Stimuli_Rocks480/I_Rhyolite_08.png","response":"a","trial_type":"image-keyboard-response","trial_index":217,"plugin_version":"2.1.0","time_elapsed":363104,"subject_id":"91913","group":"Group2","condition":"1_Rep","full_date":"2026-03-02T23:26:34.250Z","date":"2026-03-02","time":"23:26:34","cor_ans":false},{"trial_type":"html-keyboard-response","rt":null,"stimulus":"<p style=\"color: red; font-size: 50px; font-weight: bold;\">Incorrect</p>","response":null,"trial_index":218,"plugin_version":"2.1.0","time_elapsed":363607,"subject_id":"91913","group":"Group2","condition":"1_Rep","full_date":"2026-03-02T23:26:34.250Z","date":"2026-03-02","time":"23:26:34"},{"correct_response":"a","task":"test_phase","broad_category":"S","image_png":"S_Sandstone_15.png","image_id":463,"category_name":"Sandstone","category":29,"distinct_rating":2,"distinct_type":"Bottom","item_type":"Foil","rt":877,"stimulus":"Stimuli_Rocks480/S_Sandstone_15.png","response":"a","trial_type":"image-keyboard-response","trial_index":219,"plugin_version":"2.1.0","time_elapsed":364486,"subject_id":"91913","group":"Group2","condition":"1_Rep","full_date":"2026-03-02T23:26:34.250Z","date":"2026-03-02","time":"23:26:34","cor_ans":true},{"trial_type":"html-keyboard-response","rt":null,"stimulus":"<p style=\"color: green; font-size: 50px; font-weight: bold;\">Correct</p>","response":null,"trial_index":220,"plugin_version":"2.1.0","time_elapsed":364988,"subject_id":"91913","group":"Group2","condition":"1_Rep","full_date":"2026-03-02T23:26:34.250Z","date":"2026-03-02","time":"23:26:34"},{"correct_response":"l","task":"test_phase","broad_category":"M","image_png":"M_Phyllite_05.png","image_id":261,"category_name":"Phyllite","category":17,"distinct_rating":2.14,"distinct_type":"Bottom","item_type":"Target","rt":722,"stimulus":"Stimuli_Rocks480/M_Phyllite_05.png","response":"l","trial_type":"image-keyboard-response","trial_index":221,"plugin_version":"2.1.0","time_elapsed":365712,"subject_id":"91913","group":"Group2","condition":"1_Rep","full_date":"2026-03-02T23:26:34.250Z","date":"2026-03-02","time":"23:26:34","cor_ans":true},{"trial_type":"html-keyboard-response","rt":null,"stimulus":"<p style=\"color: green; font-size: 50px; font-weight: bold;\">Correct</p>","response":null,"trial_index":222,"plugin_version":"2.1.0","time_elapsed":366214,"subject_id":"91913","group":"Group2","condition":"1_Rep","full_date":"2026-03-02T23:26:34.250Z","date":"2026-03-02","time":"23:26:34"},{"correct_response":"a","task":"test_phase","broad_category":"I","image_png":"I_Diorite_05.png","image_id":37,"category_name":"Diorite","category":3,"distinct_rating":3.08,"distinct_type":"Bottom","item_type":"Foil","rt":899,"stimulus":"Stimuli_Rocks480/I_Diorite_05.png","response":"l","trial_type":"image-keyboard-response","trial_index":223,"plugin_version":"2.1.0","time_elapsed":367116,"subject_id":"91913","group":"Group2","condition":"1_Rep","full_date":"2026-03-02T23:26:34.250Z","date":"2026-03-02","time":"23:26:34","cor_ans":false},{"trial_type":"html-keyboard-response","rt":null,"stimulus":"<p style=\"color: red; font-size: 50px; font-weight: bold;\">Incorrect</p>","response":null,"trial_index":224,"plugin_version":"2.1.0","time_elapsed":367618,"subject_id":"91913","group":"Group2","condition":"1_Rep","full_date":"2026-03-02T23:26:34.250Z","date":"2026-03-02","time":"23:26:34"},{"correct_response":"a","task":"test_phase","broad_ca