[{"width":1528,"height":828,"webaudio":true,"browser":"edge-chromium","browser_version":"144.0.0","mobile":false,"os":"Windows 10","fullscreen":true,"vsync_rate":60.01,"webcam":true,"microphone":true,"trial_type":"browser-check","trial_index":0,"plugin_version":"2.1.0","time_elapsed":1008,"subject_id":"92631","group":"Group2","condition":"3_Rep","full_date":"2026-02-23T18:42:55.672Z","date":"2026-02-23","time":"18:42:55"},{"success":true,"timeout":false,"failed_images":[],"failed_audio":[],"failed_video":[],"trial_type":"preload","trial_index":1,"plugin_version":"2.1.0","time_elapsed":5722,"subject_id":"92631","group":"Group2","condition":"3_Rep","full_date":"2026-02-23T18:42:55.672Z","date":"2026-02-23","time":"18:42:55"},{"rt":6170,"url":"SONA_consent_memorability.html","trial_type":"external-html","trial_index":2,"plugin_version":"2.1.0","time_elapsed":11946,"subject_id":"92631","group":"Group2","condition":"3_Rep","full_date":"2026-02-23T18:42:55.672Z","date":"2026-02-23","time":"18:42:55"},{"success":true,"rt":1293,"trial_type":"fullscreen","trial_index":3,"plugin_version":"2.1.0","time_elapsed":14250,"subject_id":"92631","group":"Group2","condition":"3_Rep","full_date":"2026-02-23T18:42:55.672Z","date":"2026-02-23","time":"18:42:55"},{"rt":5275,"stimulus":"<div style=\"max-width: 760px; margin: auto; font-size: 20px; line-height: 1.5;\">\n      <h1 style=\"text-align:center; font-size: 30px;\">Instructions</h1>\n      <p>\n        Welcome to the study on <b>visual memory</b>. This experiment consists of <b>two phases</b>: \n        a <b>study phase</b> and a <b>test phase</b>.\n      </p>\n      <p>\n        In the study phase, you will see a series of rock images along with their category labels.\n        The images will appear one at a time.\n        <b>Your task</b> is to learn the categories to which the rock images belong \n        and to remember each image as accurately as possible.\n      </p> \n      <p>\n        Note that we will repeat the study phase <b>3 times</b>, \n             so you will have multiple opportunities to see and remember each image.\n      </p>\n      <p>\n        After the study phase, <b>your memory will be tested</b>. \n        Additional instructions for the test phase will be provided at that time.\n      </p>\n      <p>\n        If your computer has multiple <b>language settings</b> (e.g., English and another language),\n        please make sure it is set to English before starting.\n      </p>\n      <p>\n        You can track your progress using the <b>completion bar</b> at the top of the screen. \n        Please note that the bar will refresh when the test phase begins \n        to give you an accurate sense of your progress in both phases.\n      </p> \n      <p>\n        Press the button below when you are ready to begin.\n      </p>\n    </div>","response":0,"trial_type":"html-button-response","trial_index":4,"plugin_version":"2.1.0","time_elapsed":19527,"subject_id":"92631","group":"Group2","condition":"3_Rep","full_date":"2026-02-23T18:42:55.672Z","date":"2026-02-23","time":"18:42:55"},{"rt":null,"stimulus":"<p style=\"font-size: 50px; margin: 0; text-align: center;\">+</p>","response":null,"trial_type":"html-keyboard-response","trial_index":5,"plugin_version":"2.1.0","time_elapsed":20544,"subject_id":"92631","group":"Group2","condition":"3_Rep","full_date":"2026-02-23T18:42:55.672Z","date":"2026-02-23","time":"18:42:55"},{"task":"memory_phase","broad_category":"I","image_png":"I_Diorite_15.png","image_id":47,"category_name":"Diorite","category":3,"distinct_rating":3.05,"distinct_type":"Bottom","rt":null,"stimulus":"Stimuli_Rocks480/I_Diorite_15.png","response":null,"trial_type":"image-keyboard-response","trial_index":6,"plugin_version":"2.1.0","time_elapsed":23052,"subject_id":"92631","group":"Group2","condition":"3_Rep","full_date":"2026-02-23T18:42:55.672Z","date":"2026-02-23","time":"18:42:55"},{"rt":null,"stimulus":"<p style=\"font-size: 50px; margin: 0; text-align: center;\">+</p>","response":null,"trial_type":"html-keyboard-response","trial_index":7,"plugin_version":"2.1.0","time_elapsed":24069,"subject_id":"92631","group":"Group2","condition":"3_Rep","full_date":"2026-02-23T18:42:55.672Z","date":"2026-02-23","time":"18:42:55"},{"task":"memory_phase","broad_category":"S","image_png":"S_Dolomite_07.png","image_id":391,"category_name":"Dolomite","category":25,"distinct_rating":1.73,"distinct_type":"Bottom","rt":null,"stimulus":"Stimuli_Rocks480/S_Dolomite_07.png","response":null,"trial_type":"image-keyboard-response","trial_index":8,"plugin_version":"2.1.0","time_elapsed":26585,"subject_id":"92631","group":"Group2","condition":"3_Rep","full_date":"2026-02-23T18:42:55.672Z","date":"2026-02-23","time":"18:42:55"},{"rt":null,"stimulus":"<p style=\"font-size: 50px; margin: 0; text-align: center;\">+</p>","response":null,"trial_type":"html-keyboard-response","trial_index":9,"plugin_version":"2.1.0","time_elapsed":27597,"subject_id":"92631","group":"Group2","condition":"3_Rep","full_date":"2026-02-23T18:42:55.672Z","date":"2026-02-23","time":"18:42:55"},{"task":"memory_phase","broad_category":"S","image_png":"S_Shale_07.png","image_id":471,"category_name":"Shale","category":30,"distinct_rating":2.73,"distinct_type":"Bottom","rt":null,"stimulus":"Stimuli_Rocks480/S_Shale_07.png","response":null,"trial_type":"image-keyboard-response","trial_index":10,"plugin_version":"2.1.0","time_elapsed":30100,"subject_id":"92631","group":"Group2","condition":"3_Rep","full_date":"2026-02-23T18:42:55.672Z","date":"2026-02-23","time":"18:42:55"},{"rt":null,"stimulus":"<p style=\"font-size: 50px; margin: 0; text-align: center;\">+</p>","response":null,"trial_type":"html-keyboard-response","trial_index":11,"plugin_version":"2.1.0","time_elapsed":31112,"subject_id":"92631","group":"Group2","condition":"3_Rep","full_date":"2026-02-23T18:42:55.672Z","date":"2026-02-23","time":"18:42:55"},{"task":"memory_phase","broad_category":"S","image_png":"S_Sandstone_04.png","image_id":452,"category_name":"Sandstone","category":29,"distinct_rating":1.8,"distinct_type":"Bottom","rt":null,"stimulus":"Stimuli_Rocks480/S_Sandstone_04.png","response":null,"trial_type":"image-keyboard-response","trial_index":12,"plugin_version":"2.1.0","time_elapsed":33617,"subject_id":"92631","group":"Group2","condition":"3_Rep","full_date":"2026-02-23T18:42:55.672Z","date":"2026-02-23","time":"18:42:55"},{"rt":null,"stimulus":"<p style=\"font-size: 50px; margin: 0; text-align: center;\">+</p>","response":null,"trial_type":"html-keyboard-response","trial_index":13,"plugin_version":"2.1.0","time_elapsed":34633,"subject_id":"92631","group":"Group2","condition":"3_Rep","full_date":"2026-02-23T18:42:55.672Z","date":"2026-02-23","time":"18:42:55"},{"task":"memory_phase","broad_category":"M","image_png":"M_Slate_10.png","image_id":314,"category_name":"Slate","category":20,"distinct_rating":1.94,"distinct_type":"Bottom","rt":null,"stimulus":"Stimuli_Rocks480/M_Slate_10.png","response":null,"trial_type":"image-keyboard-response","trial_index":14,"plugin_version":"2.1.0","time_elapsed":37144,"subject_id":"92631","group":"Group2","condition":"3_Rep","full_date":"2026-02-23T18:42:55.672Z","date":"2026-02-23","time":"18:42:55"},{"rt":null,"stimulus":"<p style=\"font-size: 50px; margin: 0; text-align: center;\">+</p>","response":null,"trial_type":"html-keyboard-response","trial_index":15,"plugin_version":"2.1.0","time_elapsed":38160,"subject_id":"92631","group":"Group2","condition":"3_Rep","full_date":"2026-02-23T18:42:55.672Z","date":"2026-02-23","time":"18:42:55"},{"task":"memory_phase","broad_category":"M","image_png":"M_Marble_02.png","image_id":226,"category_name":"Marble","category":15,"distinct_rating":3.2,"distinct_type":"Bottom","rt":null,"stimulus":"Stimuli_Rocks480/M_Marble_02.png","response":null,"trial_type":"image-keyboard-response","trial_index":16,"plugin_version":"2.1.0","time_elapsed":40666,"subject_id":"92631","group":"Group2","condition":"3_Rep","full_date":"2026-02-23T18:42:55.672Z","date":"2026-02-23","time":"18:42:55"},{"rt":null,"stimulus":"<p style=\"font-size: 50px; margin: 0; text-align: center;\">+</p>","response":null,"trial_type":"html-keyboard-response","trial_index":17,"plugin_version":"2.1.0","time_elapsed":41683,"subject_id":"92631","group":"Group2","condition":"3_Rep","full_date":"2026-02-23T18:42:55.672Z","date":"2026-02-23","time":"18:42:55"},{"task":"memory_phase","broad_category":"M","image_png":"M_Quartzite_15.png","image_id":287,"category_name":"Quartzite","category":18,"distinct_rating":2.19,"distinct_type":"Bottom","rt":null,"stimulus":"Stimuli_Rocks480/M_Quartzite_15.png","response":null,"trial_type":"image-keyboard-response","trial_index":18,"plugin_version":"2.1.0","time_elapsed":44196,"subject_id":"92631","group":"Group2","condition":"3_Rep","full_date":"2026-02-23T18:42:55.672Z","date":"2026-02-23","time":"18:42:55"},{"rt":null,"stimulus":"<p style=\"font-size: 50px; margin: 0; text-align: center;\">+</p>","response":null,"trial_type":"html-keyboard-response","trial_index":19,"plugin_version":"2.1.0","time_elapsed":45211,"subject_id":"92631","group":"Group2","condition":"3_Rep","full_date":"2026-02-23T18:42:55.672Z","date":"2026-02-23","time":"18:42:55"},{"task":"memory_phase","broad_category":"M","image_png":"M_Gneiss_14.png","image_id":206,"category_name":"Gneiss","category":13,"distinct_rating":3.41,"distinct_type":"Bottom","rt":null,"stimulus":"Stimuli_Rocks480/M_Gneiss_14.png","response":null,"trial_type":"image-keyboard-response","trial_index":20,"plugin_version":"2.1.0","time_elapsed":47718,"subject_id":"92631","group":"Group2","condition":"3_Rep","full_date":"2026-02-23T18:42:55.672Z","date":"2026-02-23","time":"18:42:55"},{"rt":null,"stimulus":"<p style=\"font-size: 50px; margin: 0; text-align: center;\">+</p>","response":null,"trial_type":"html-keyboard-response","trial_index":21,"plugin_version":"2.1.0","time_elapsed":48733,"subject_id":"92631","group":"Group2","condition":"3_Rep","full_date":"2026-02-23T18:42:55.672Z","date":"2026-02-23","time":"18:42:55"},{"task":"memory_phase","broad_category":"S","image_png":"S_Conglomerate_14.png","image_id":382,"category_name":"Conglomerate","category":24,"distinct_rating":6.86,"distinct_type":"Top","rt":null,"stimulus":"Stimuli_Rocks480/S_Conglomerate_14.png","response":null,"trial_type":"image-keyboard-response","trial_index":22,"plugin_version":"2.1.0","time_elapsed":51238,"subject_id":"92631","group":"Group2","condition":"3_Rep","full_date":"2026-02-23T18:42:55.672Z","date":"2026-02-23","time":"18:42:55"},{"rt":null,"stimulus":"<p style=\"font-size: 50px; margin: 0; text-align: center;\">+</p>","response":null,"trial_type":"html-keyboard-response","trial_index":23,"plugin_version":"2.1.0","time_elapsed":52247,"subject_id":"92631","group":"Group2","condition":"3_Rep","full_date":"2026-02-23T18:42:55.672Z","date":"2026-02-23","time":"18:42:55"},{"task":"memory_phase","broad_category":"M","image_png":"M_Phyllite_02.png","image_id":258,"category_name":"Phyllite","category":17,"distinct_rating":2.89,"distinct_type":"Bottom","rt":null,"stimulus":"Stimuli_Rocks480/M_Phyllite_02.png","response":null,"trial_type":"image-keyboard-response","trial_index":24,"plugin_version":"2.1.0","time_elapsed":54758,"subject_id":"92631","group":"Group2","condition":"3_Rep","full_date":"2026-02-23T18:42:55.672Z","date":"2026-02-23","time":"18:42:55"},{"rt":null,"stimulus":"<p style=\"font-size: 50px; margin: 0; text-align: center;\">+</p>","response":null,"trial_type":"html-keyboard-response","trial_index":25,"plugin_version":"2.1.0","time_elapsed":55776,"subject_id":"92631","group":"Group2","condition":"3_Rep","full_date":"2026-02-23T18:42:55.672Z","date":"2026-02-23","time":"18:42:55"},{"task":"memory_phase","broad_category":"M","image_png":"M_Marble_03.png","image_id":227,"category_name":"Marble","category":15,"distinct_rating":2.67,"distinct_type":"Bottom","rt":null,"stimulus":"Stimuli_Rocks480/M_Marble_03.png","response":null,"trial_type":"image-keyboard-response","trial_index":26,"plugin_version":"2.1.0","time_elapsed":58278,"subject_id":"92631","group":"Group2","condition":"3_Rep","full_date":"2026-02-23T18:42:55.672Z","date":"2026-02-23","time":"18:42:55"},{"rt":null,"stimulus":"<p style=\"font-size: 50px; margin: 0; text-align: center;\">+</p>","response":null,"trial_type":"html-keyboard-response","trial_index":27,"plugin_version":"2.1.0","time_elapsed":59282,"subject_id":"92631","group":"Group2","condition":"3_Rep","full_date":"2026-02-23T18:42:55.672Z","date":"2026-02-23","time":"18:42:55"},{"task":"memory_phase","broad_category":"S","image_png":"S_Rock Salt_13.png","image_id":445,"category_name":"Rock Salt","category":28,"distinct_rating":7.58,"distinct_type":"Top","rt":null,"stimulus":"Stimuli_Rocks480/S_Rock Salt_13.png","response":null,"trial_type":"image-keyboard-response","trial_index":28,"plugin_version":"2.1.0","time_elapsed":61792,"subject_id":"92631","group":"Group2","condition":"3_Rep","full_date":"2026-02-23T18:42:55.672Z","date":"2026-02-23","time":"18:42:55"},{"rt":null,"stimulus":"<p style=\"font-size: 50px; margin: 0; text-align: center;\">+</p>","response":null,"trial_type":"html-keyboard-response","trial_index":29,"plugin_version":"2.1.0","time_elapsed":62796,"subject_id":"92631","group":"Group2","condition":"3_Rep","full_date":"2026-02-23T18:42:55.672Z","date":"2026-02-23","time":"18:42:55"},{"task":"memory_phase","broad_category":"I","image_png":"I_Pumice_01.png","image_id":129,"category_name":"Pumice","category":9,"distinct_rating":3.25,"distinct_type":"Bottom","rt":null,"stimulus":"Stimuli_Rocks480/I_Pumice_01.png","response":null,"trial_type":"image-keyboard-response","trial_index":30,"plugin_version":"2.1.0","time_elapsed":65311,"subject_id":"92631","group":"Group2","condition":"3_Rep","full_date":"2026-02-23T18:42:55.672Z","date":"2026-02-23","time":"18:42:55"},{"rt":null,"stimulus":"<p style=\"font-size: 50px; margin: 0; text-align: center;\">+</p>","response":null,"trial_type":"html-keyboard-response","trial_index":31,"plugin_version":"2.1.0","time_elapsed":66327,"subject_id":"92631","group":"Group2","condition":"3_Rep","full_date":"2026-02-23T18:42:55.672Z","date":"2026-02-23","time":"18:42:55"},{"task":"memory_phase","broad_category":"I","image_png":"I_Pumice_14.png","image_id":142,"category_name":"Pumice","category":9,"distinct_rating":3.22,"distinct_type":"Bottom","rt":null,"stimulus":"Stimuli_Rocks480/I_Pumice_14.png","response":null,"trial_type":"image-keyboard-response","trial_index":32,"plugin_version":"2.1.0","time_elapsed":68839,"subject_id":"92631","group":"Group2","condition":"3_Rep","full_date":"2026-02-23T18:42:55.672Z","date":"2026-02-23","time":"18:42:55"},{"rt":null,"stimulus":"<p style=\"font-size: 50px; margin: 0; text-align: center;\">+</p>","response":null,"trial_type":"html-keyboard-response","trial_index":33,"plugin_version":"2.1.0","time_elapsed":69848,"subject_id":"92631","group":"Group2","condition":"3_Rep","full_date":"2026-02-23T18:42:55.672Z","date":"2026-02-23","time":"18:42:55"},{"task":"memory_phase","broad_category":"M","image_png":"M_Marble_14.png","image_id":238,"category_name":"Marble","category":15,"distinct_rating":3.31,"distinct_type":"Bottom","rt":null,"stimulus":"Stimuli_Rocks480/M_Marble_14.png","response":null,"trial_type":"image-keyboard-response","trial_index":34,"plugin_version":"2.1.0","time_elapsed":72359,"subject_id":"92631","group":"Group2","condition":"3_Rep","full_date":"2026-02-23T18:42:55.672Z","date":"2026-02-23","time":"18:42:55"},{"rt":null,"stimulus":"<p style=\"font-size: 50px; margin: 0; text-align: center;\">+</p>","response":null,"trial_type":"html-keyboard-response","trial_index":35,"plugin_version":"2.1.0","time_elapsed":73372,"subject_id":"92631","group":"Group2","condition":"3_Rep","full_date":"2026-02-23T18:42:55.672Z","date":"2026-02-23","time":"18:42:55"},{"task":"memory_phase","broad_category":"I","image_png":"I_Rhyolite_08.png","image_id":152,"category_name":"Rhyolite","category":10,"distinct_rating":1.38,"distinct_type":"Bottom","rt":null,"stimulus":"Stimuli_Rocks480/I_Rhyolite_08.png","response":null,"trial_type":"image-keyboard-response","trial_index":36,"plugin_version":"2.1.0","time_elapsed":75875,"subject_id":"92631","group":"Group2","condition":"3_Rep","full_date":"2026-02-23T18:42:55.672Z","date":"2026-02-23","time":"18:42:55"},{"rt":null,"stimulus":"<p style=\"font-size: 50px; margin: 0; text-align: center;\">+</p>","response":null,"trial_type":"html-keyboard-response","trial_index":37,"plugin_version":"2.1.0","time_elapsed":76889,"subject_id":"92631","group":"Group2","condition":"3_Rep","full_date":"2026-02-23T18:42:55.672Z","date":"2026-02-23","time":"18:42:55"},{"task":"memory_phase","broad_category":"I","image_png":"I_Basalt_13.png","image_id":29,"category_name":"Basalt","category":2,"distinct_rating":2.68,"distinct_type":"Bottom","rt":null,"stimulus":"Stimuli_Rocks480/I_Basalt_13.png","response":null,"trial_type":"image-keyboard-response","trial_index":38,"plugin_version":"2.1.0","time_elapsed":79398,"subject_id":"92631","group":"Group2","condition":"3_Rep","full_date":"2026-02-23T18:42:55.672Z","date":"2026-02-23","time":"18:42:55"},{"rt":null,"stimulus":"<p style=\"font-size: 50px; margin: 0; text-align: center;\">+</p>","response":null,"trial_type":"html-keyboard-response","trial_index":39,"plugin_version":"2.1.0","time_elapsed":80411,"subject_id":"92631","group":"Group2","condition":"3_Rep","full_date":"2026-02-23T18:42:55.672Z","date":"2026-02-23","time":"18:42:55"},{"task":"memory_phase","broad_category":"S","image_png":"S_Chert_13.png","image_id":365,"category_name":"Chert","category":23,"distinct_rating":6.57,"distinct_type":"Top","rt":null,"stimulus":"Stimuli_Rocks480/S_Chert_13.png","response":null,"trial_type":"image-keyboard-response","trial_index":40,"plugin_version":"2.1.0","time_elapsed":82914,"subject_id":"92631","group":"Group2","condition":"3_Rep","full_date":"2026-02-23T18:42:55.672Z","date":"2026-02-23","time":"18:42:55"},{"rt":null,"stimulus":"<p style=\"font-size: 50px; margin: 0; text-align: center;\">+</p>","response":null,"trial_type":"html-keyboard-response","trial_index":41,"plugin_version":"2.1.0","time_elapsed":83927,"subject_id":"92631","group":"Group2","condition":"3_Rep","full_date":"2026-02-23T18:42:55.672Z","date":"2026-02-23","time":"18:42:55"},{"task":"memory_phase","broad_category":"I","image_png":"I_Diorite_10.png","image_id":42,"category_name":"Diorite","category":3,"distinct_rating":2.84,"distinct_type":"Bottom","rt":null,"stimulus":"Stimuli_Rocks480/I_Diorite_10.png","response":null,"trial_type":"image-keyboard-response","trial_index":42,"plugin_version":"2.1.0","time_elapsed":86441,"subject_id":"92631","group":"Group2","condition":"3_Rep","full_date":"2026-02-23T18:42:55.672Z","date":"2026-02-23","time":"18:42:55"},{"rt":null,"stimulus":"<p style=\"font-size: 50px; margin: 0; text-align: center;\">+</p>","response":null,"trial_type":"html-keyboard-response","trial_index":43,"plugin_version":"2.1.0","time_elapsed":87445,"subject_id":"92631","group":"Group2","condition":"3_Rep","full_date":"2026-02-23T18:42:55.672Z","date":"2026-02-23","time":"18:42:55"},{"task":"memory_phase","broad_category":"M","image_png":"M_Phyllite_13.png","image_id":269,"category_name":"Phyllite","category":17,"distinct_rating":2.8,"distinct_type":"Bottom","rt":null,"stimulus":"Stimuli_Rocks480/M_Phyllite_13.png","response":null,"trial_type":"image-keyboard-response","trial_index":44,"plugin_version":"2.1.0","time_elapsed":89947,"subject_id":"92631","group":"Group2","condition":"3_Rep","full_date":"2026-02-23T18:42:55.672Z","date":"2026-02-23","time":"18:42:55"},{"rt":null,"stimulus":"<p style=\"font-size: 50px; margin: 0; text-align: center;\">+</p>","response":null,"trial_type":"html-keyboard-response","trial_index":45,"plugin_version":"2.1.0","time_elapsed":90955,"subject_id":"92631","group":"Group2","condition":"3_Rep","full_date":"2026-02-23T18:42:55.672Z","date":"2026-02-23","time":"18:42:55"},{"task":"memory_phase","broad_category":"I","image_png":"I_Obsidian_06.png","image_id":86,"category_name":"Obsidian","category":6,"distinct_rating":8.01,"distinct_type":"Top","rt":null,"stimulus":"Stimuli_Rocks480/I_Obsidian_06.png","response":null,"trial_type":"image-keyboard-response","trial_index":46,"plugin_version":"2.1.0","time_elapsed":93459,"subject_id":"92631","group":"Group2","condition":"3_Rep","full_date":"2026-02-23T18:42:55.672Z","date":"2026-02-23","time":"18:42:55"},{"rt":null,"stimulus":"<p style=\"font-size: 50px; margin: 0; text-align: center;\">+</p>","response":null,"trial_type":"html-keyboard-response","trial_index":47,"plugin_version":"2.1.0","time_elapsed":94461,"subject_id":"92631","group":"Group2","condition":"3_Rep","full_date":"2026-02-23T18:42:55.672Z","date":"2026-02-23","time":"18:42:55"},{"task":"memory_phase","broad_category":"S","image_png":"S_Dolomite_16.png","image_id":400,"category_name":"Dolomite","category":25,"distinct_rating":1.71,"distinct_type":"Bottom","rt":null,"stimulus":"Stimuli_Rocks480/S_Dolomite_16.png","response":null,"trial_type":"image-keyboard-response","trial_index":48,"plugin_version":"2.1.0","time_elapsed":96974,"subject_id":"92631","group":"Group2","condition":"3_Rep","full_date":"2026-02-23T18:42:55.672Z","date":"2026-02-23","time":"18:42:55"},{"rt":null,"stimulus":"<p style=\"font-size: 50px; margin: 0; text-align: center;\">+</p>","response":null,"trial_type":"html-keyboard-response","trial_index":49,"plugin_version":"2.1.0","time_elapsed":97977,"subject_id":"92631","group":"Group2","condition":"3_Rep","full_date":"2026-02-23T18:42:55.672Z","date":"2026-02-23","time":"18:42:55"},{"task":"memory_phase","broad_category":"S","image_png":"S_Shale_02.png","image_id":466,"category_name":"Shale","category":30,"distinct_rating":2.9,"distinct_type":"Bottom","rt":null,"stimulus":"Stimuli_Rocks480/S_Shale_02.png","response":null,"trial_type":"image-keyboard-response","trial_index":50,"plugin_version":"2.1.0","time_elapsed":100494,"subject_id":"92631","group":"Group2","condition":"3_Rep","full_date":"2026-02-23T18:42:55.672Z","date":"2026-02-23","time":"18:42:55"},{"rt":null,"stimulus":"<p style=\"font-size: 50px; margin: 0; text-align: center;\">+</p>","response":null,"trial_type":"html-keyboard-response","trial_index":51,"plugin_version":"2.1.0","time_elapsed":101497,"subject_id":"92631","group":"Group2","condition":"3_Rep","full_date":"2026-02-23T18:42:55.672Z","date":"2026-02-23","time":"18:42:55"},{"task":"memory_phase","broad_category":"S","image_png":"S_Sandstone_11.png","image_id":459,"category_name":"Sandstone","category":29,"distinct_rating":1.82,"distinct_type":"Bottom","rt":null,"stimulus":"Stimuli_Rocks480/S_Sandstone_11.png","response":null,"trial_type":"image-keyboard-response","trial_index":52,"plugin_version":"2.1.0","time_elapsed":104009,"subject_id":"92631","group":"Group2","condition":"3_Rep","full_date":"2026-02-23T18:42:55.672Z","date":"2026-02-23","time":"18:42:55"},{"rt":null,"stimulus":"<p style=\"font-size: 50px; margin: 0; text-align: center;\">+</p>","response":null,"trial_type":"html-keyboard-response","trial_index":53,"plugin_version":"2.1.0","time_elapsed":105014,"subject_id":"92631","group":"Group2","condition":"3_Rep","full_date":"2026-02-23T18:42:55.672Z","date":"2026-02-23","time":"18:42:55"},{"task":"memory_phase","broad_category":"I","image_png":"I_Pegmatite_03.png","image_id":99,"category_name":"Pegmatite","category":7,"distinct_rating":7.24,"distinct_type":"Top","rt":null,"stimulus":"Stimuli_Rocks480/I_Pegmatite_03.png","response":null,"trial_type":"image-keyboard-response","trial_index":54,"plugin_version":"2.1.0","time_elapsed":107532,"subject_id":"92631","group":"Group2","condition":"3_Rep","full_date":"2026-02-23T18:42:55.672Z","date":"2026-02-23","time":"18:42:55"},{"rt":1744,"stimulus":"<p style=\"max-width: 760px; margin: auto; font-size: 35px; line-height: 1.5;\">\n                Press SPACE to continue study phase\n              </p>","response":" ","trial_type":"html-keyboard-response","trial_index":55,"plugin_version":"2.1.0","time_elapsed":109277,"subject_id":"92631","group":"Group2","condition":"3_Rep","full_date":"2026-02-23T18:42:55.672Z","date":"2026-02-23","time":"18:42:55"},{"rt":null,"stimulus":"<p style=\"font-size: 50px; margin: 0; text-align: center;\">+</p>","response":null,"trial_type":"html-keyboard-response","trial_index":56,"plugin_version":"2.1.0","time_elapsed":110289,"subject_id":"92631","group":"Group2","condition":"3_Rep","full_date":"2026-02-23T18:42:55.672Z","date":"2026-02-23","time":"18:42:55"},{"task":"memory_phase","broad_category":"M","image_png":"M_Slate_04.png","image_id":308,"category_name":"Slate","category":20,"distinct_rating":2.2,"distinct_type":"Bottom","rt":null,"stimulus":"Stimuli_Rocks480/M_Slate_04.png","response":null,"trial_type":"image-keyboard-response","trial_index":57,"plugin_version":"2.1.0","time_elapsed":112797,"subject_id":"92631","group":"Group2","condition":"3_Rep","full_date":"2026-02-23T18:42:55.672Z","date":"2026-02-23","time":"18:42:55"},{"rt":null,"stimulus":"<p style=\"font-size: 50px; margin: 0; text-align: center;\">+</p>","response":null,"trial_type":"html-keyboard-response","trial_index":58,"plugin_version":"2.1.0","time_elapsed":113802,"subject_id":"92631","group":"Group2","condition":"3_Rep","full_date":"2026-02-23T18:42:55.672Z","date":"2026-02-23","time":"18:42:55"},{"task":"memory_phase","broad_category":"M","image_png":"M_Gneiss_10.png","image_id":202,"category_name":"Gneiss","category":13,"distinct_rating":3.09,"distinct_type":"Bottom","rt":null,"stimulus":"Stimuli_Rocks480/M_Gneiss_10.png","response":null,"trial_type":"image-keyboard-response","trial_index":59,"plugin_version":"2.1.0","time_elapsed":116318,"subject_id":"92631","group":"Group2","condition":"3_Rep","full_date":"2026-02-23T18:42:55.672Z","date":"2026-02-23","time":"18:42:55"},{"rt":null,"stimulus":"<p style=\"font-size: 50px; margin: 0; text-align: center;\">+</p>","response":null,"trial_type":"html-keyboard-response","trial_index":60,"plugin_version":"2.1.0","time_elapsed":117322,"subject_id":"92631","group":"Group2","condition":"3_Rep","full_date":"2026-02-23T18:42:55.672Z","date":"2026-02-23","time":"18:42:55"},{"task":"memory_phase","broad_category":"I","image_png":"I_Andesite_09.png","image_id":9,"category_name":"Andesite","category":1,"distinct_rating":2.49,"distinct_type":"Bottom","rt":null,"stimulus":"Stimuli_Rocks480/I_Andesite_09.png","response":null,"trial_type":"image-keyboard-response","trial_index":61,"plugin_version":"2.1.0","time_elapsed":119825,"subject_id":"92631","group":"Group2","condition":"3_Rep","full_date":"2026-02-23T18:42:55.672Z","date":"2026-02-23","time":"18:42:55"},{"rt":null,"stimulus":"<p style=\"font-size: 50px; margin: 0; text-align: center;\">+</p>","response":null,"trial_type":"html-keyboard-response","trial_index":62,"plugin_version":"2.1.0","time_elapsed":120830,"subject_id":"92631","group":"Group2","condition":"3_Rep","full_date":"2026-02-23T18:42:55.672Z","date":"2026-02-23","time":"18:42:55"},{"task":"memory_phase","broad_category":"M","image_png":"M_Gneiss_15.png","image_id":207,"category_name":"Gneiss","category":13,"distinct_rating":3.11,"distinct_type":"Bottom","rt":null,"stimulus":"Stimuli_Rocks480/M_Gneiss_15.png","response":null,"trial_type":"image-keyboard-response","trial_index":63,"plugin_version":"2.1.0","time_elapsed":123340,"subject_id":"92631","group":"Group2","condition":"3_Rep","full_date":"2026-02-23T18:42:55.672Z","date":"2026-02-23","time":"18:42:55"},{"rt":null,"stimulus":"<p style=\"font-size: 50px; margin: 0; text-align: center;\">+</p>","response":null,"trial_type":"html-keyboard-response","trial_index":64,"plugin_version":"2.1.0","time_elapsed":124344,"subject_id":"92631","group":"Group2","condition":"3_Rep","full_date":"2026-02-23T18:42:55.672Z","date":"2026-02-23","time":"18:42:55"},{"task":"memory_phase","broad_category":"I","image_png":"I_Peridotite_13.png","image_id":125,"category_name":"Peridotite","category":8,"distinct_rating":7.28,"distinct_type":"Top","rt":null,"stimulus":"Stimuli_Rocks480/I_Peridotite_13.png","response":null,"trial_type":"image-keyboard-response","trial_index":65,"plugin_version":"2.1.0","time_elapsed":126846,"subject_id":"92631","group":"Group2","condition":"3_Rep","full_date":"2026-02-23T18:42:55.672Z","date":"2026-02-23","time":"18:42:55"},{"rt":null,"stimulus":"<p style=\"font-size: 50px; margin: 0; text-align: center;\">+</p>","response":null,"trial_type":"html-keyboard-response","trial_index":66,"plugin_version":"2.1.0","time_elapsed":127863,"subject_id":"92631","group":"Group2","condition":"3_Rep","full_date":"2026-02-23T18:42:55.672Z","date":"2026-02-23","time":"18:42:55"},{"task":"memory_phase","broad_category":"I","image_png":"I_Rhyolite_10.png","image_id":154,"category_name":"Rhyolite","category":10,"distinct_rating":2.88,"distinct_type":"Bottom","rt":null,"stimulus":"Stimuli_Rocks480/I_Rhyolite_10.png","response":null,"trial_type":"image-keyboard-response","trial_index":67,"plugin_version":"2.1.0","time_elapsed":130379,"subject_id":"92631","group":"Group2","condition":"3_Rep","full_date":"2026-02-23T18:42:55.672Z","date":"2026-02-23","time":"18:42:55"},{"rt":null,"stimulus":"<p style=\"font-size: 50px; margin: 0; text-align: center;\">+</p>","response":null,"trial_type":"html-keyboard-response","trial_index":68,"plugin_version":"2.1.0","time_elapsed":131396,"subject_id":"92631","group":"Group2","condition":"3_Rep","full_date":"2026-02-23T18:42:55.672Z","date":"2026-02-23","time":"18:42:55"},{"task":"memory_phase","broad_category":"I","image_png":"I_Pegmatite_11.png","image_id":107,"category_name":"Pegmatite","category":7,"distinct_rating":7.11,"distinct_type":"Top","rt":null,"stimulus":"Stimuli_Rocks480/I_Pegmatite_11.png","response":null,"trial_type":"image-keyboard-response","trial_index":69,"plugin_version":"2.1.0","time_elapsed":133914,"subject_id":"92631","group":"Group2","condition":"3_Rep","full_date":"2026-02-23T18:42:55.672Z","date":"2026-02-23","time":"18:42:55"},{"rt":null,"stimulus":"<p style=\"font-size: 50px; margin: 0; text-align: center;\">+</p>","response":null,"trial_type":"html-keyboard-response","trial_index":70,"plugin_version":"2.1.0","time_elapsed":134930,"subject_id":"92631","group":"Group2","condition":"3_Rep","full_date":"2026-02-23T18:42:55.672Z","date":"2026-02-23","time":"18:42:55"},{"task":"memory_phase","broad_category":"I","image_png":"I_Basalt_10.png","image_id":26,"category_name":"Basalt","category":2,"distinct_rating":2.76,"distinct_type":"Bottom","rt":null,"stimulus":"Stimuli_Rocks480/I_Basalt_10.png","response":null,"trial_type":"image-keyboard-response","trial_index":71,"plugin_version":"2.1.0","time_elapsed":137446,"subject_id":"92631","group":"Group2","condition":"3_Rep","full_date":"2026-02-23T18:42:55.672Z","date":"2026-02-23","time":"18:42:55"},{"rt":null,"stimulus":"<p style=\"font-size: 50px; margin: 0; text-align: center;\">+</p>","response":null,"trial_type":"html-keyboard-response","trial_index":72,"plugin_version":"2.1.0","time_elapsed":138448,"subject_id":"92631","group":"Group2","condition":"3_Rep","full_date":"2026-02-23T18:42:55.672Z","date":"2026-02-23","time":"18:42:55"},{"task":"memory_phase","broad_category":"S","image_png":"S_Dolomite_01.png","image_id":385,"category_name":"Dolomite","category":25,"distinct_rating":1.43,"distinct_type":"Bottom","rt":null,"stimulus":"Stimuli_Rocks480/S_Dolomite_01.png","response":null,"trial_type":"image-keyboard-response","trial_index":73,"plugin_version":"2.1.0","time_elapsed":140959,"subject_id":"92631","group":"Group2","condition":"3_Rep","full_date":"2026-02-23T18:42:55.672Z","date":"2026-02-23","time":"18:42:55"},{"rt":null,"stimulus":"<p style=\"font-size: 50px; margin: 0; text-align: center;\">+</p>","response":null,"trial_type":"html-keyboard-response","trial_index":74,"plugin_version":"2.1.0","time_elapsed":141962,"subject_id":"92631","group":"Group2","condition":"3_Rep","full_date":"2026-02-23T18:42:55.672Z","date":"2026-02-23","time":"18:42:55"},{"task":"memory_phase","broad_category":"M","image_png":"M_Phyllite_05.png","image_id":261,"category_name":"Phyllite","category":17,"distinct_rating":2.14,"distinct_type":"Bottom","rt":null,"stimulus":"Stimuli_Rocks480/M_Phyllite_05.png","response":null,"trial_type":"image-keyboard-response","trial_index":75,"plugin_version":"2.1.0","time_elapsed":144475,"subject_id":"92631","group":"Group2","condition":"3_Rep","full_date":"2026-02-23T18:42:55.672Z","date":"2026-02-23","time":"18:42:55"},{"rt":null,"stimulus":"<p style=\"font-size: 50px; margin: 0; text-align: center;\">+</p>","response":null,"trial_type":"html-keyboard-response","trial_index":76,"plugin_version":"2.1.0","time_elapsed":145490,"subject_id":"92631","group":"Group2","condition":"3_Rep","full_date":"2026-02-23T18:42:55.672Z","date":"2026-02-23","time":"18:42:55"},{"task":"memory_phase","broad_category":"I","image_png":"I_Pumice_13.png","image_id":141,"category_name":"Pumice","category":9,"distinct_rating":3.12,"distinct_type":"Bottom","rt":null,"stimulus":"Stimuli_Rocks480/I_Pumice_13.png","response":null,"trial_type":"image-keyboard-response","trial_index":77,"plugin_version":"2.1.0","time_elapsed":147999,"subject_id":"92631","group":"Group2","condition":"3_Rep","full_date":"2026-02-23T18:42:55.672Z","date":"2026-02-23","time":"18:42:55"},{"rt":null,"stimulus":"<p style=\"font-size: 50px; margin: 0; text-align: center;\">+</p>","response":null,"trial_type":"html-keyboard-response","trial_index":78,"plugin_version":"2.1.0","time_elapsed":149014,"subject_id":"92631","group":"Group2","condition":"3_Rep","full_date":"2026-02-23T18:42:55.672Z","date":"2026-02-23","time":"18:42:55"},{"task":"memory_phase","broad_category":"S","image_png":"S_Sandstone_08.png","image_id":456,"category_name":"Sandstone","category":29,"distinct_rating":1.5,"distinct_type":"Bottom","rt":null,"stimulus":"Stimuli_Rocks480/S_Sandstone_08.png","response":null,"trial_type":"image-keyboard-response","trial_index":79,"plugin_version":"2.1.0","time_elapsed":151526,"subject_id":"92631","group":"Group2","condition":"3_Rep","full_date":"2026-02-23T18:42:55.672Z","date":"2026-02-23","time":"18:42:55"},{"rt":null,"stimulus":"<p style=\"font-size: 50px; margin: 0; text-align: center;\">+</p>","response":null,"trial_type":"html-keyboard-response","trial_index":80,"plugin_version":"2.1.0","time_elapsed":152529,"subject_id":"92631","group":"Group2","condition":"3_Rep","full_date":"2026-02-23T18:42:55.672Z","date":"2026-02-23","time":"18:42:55"},{"task":"memory_phase","broad_category":"S","image_png":"S_Rock Salt_15.png","image_id":447,"category_name":"Rock Salt","category":28,"distinct_rating":7.79,"distinct_type":"Top","rt":null,"stimulus":"Stimuli_Rocks480/S_Rock Salt_15.png","response":null,"trial_type":"image-keyboard-response","trial_index":81,"plugin_version":"2.1.0","time_elapsed":155043,"subject_id":"92631","group":"Group2","condition":"3_Rep","full_date":"2026-02-23T18:42:55.672Z","date":"2026-02-23","time":"18:42:55"},{"rt":null,"stimulus":"<p style=\"font-size: 50px; margin: 0; text-align: center;\">+</p>","response":null,"trial_type":"html-keyboard-response","trial_index":82,"plugin_version":"2.1.0","time_elapsed":156059,"subject_id":"92631","group":"Group2","condition":"3_Rep","full_date":"2026-02-23T18:42:55.672Z","date":"2026-02-23","time":"18:42:55"},{"task":"memory_phase","broad_category":"S","image_png":"S_Shale_03.png","image_id":467,"category_name":"Shale","category":30,"distinct_rating":1.95,"distinct_type":"Bottom","rt":null,"stimulus":"Stimuli_Rocks480/S_Shale_03.png","response":null,"trial_type":"image-keyboard-response","trial_index":83,"plugin_version":"2.1.0","time_elapsed":158575,"subject_id":"92631","group":"Group2","condition":"3_Rep","full_date":"2026-02-23T18:42:55.672Z","date":"2026-02-23","time":"18:42:55"},{"rt":null,"stimulus":"<p style=\"font-size: 50px; margin: 0; text-align: center;\">+</p>","response":null,"trial_type":"html-keyboard-response","trial_index":84,"plugin_version":"2.1.0","time_elapsed":159579,"subject_id":"92631","group":"Group2","condition":"3_Rep","full_date":"2026-02-23T18:42:55.672Z","date":"2026-02-23","time":"18:42:55"},{"task":"memory_phase","broad_category":"M","image_png":"M_Quartzite_12.png","image_id":284,"category_name":"Quartzite","category":18,"distinct_rating":1.92,"distinct_type":"Bottom","rt":null,"stimulus":"Stimuli_Rocks480/M_Quartzite_12.png","response":null,"trial_type":"image-keyboard-response","trial_index":85,"plugin_version":"2.1.0","time_elapsed":162095,"subject_id":"92631","group":"Group2","condition":"3_Rep","full_date":"2026-02-23T18:42:55.672Z","date":"2026-02-23","time":"18:42:55"},{"rt":null,"stimulus":"<p style=\"font-size: 50px; margin: 0; text-align: center;\">+</p>","response":null,"trial_type":"html-keyboard-response","trial_index":86,"plugin_version":"2.1.0","time_elapsed":163111,"subject_id":"92631","group":"Group2","condition":"3_Rep","full_date":"2026-02-23T18:42:55.672Z","date":"2026-02-23","time":"18:42:55"},{"task":"memory_phase","broad_category":"I","image_png":"I_Rhyolite_05.png","image_id":149,"category_name":"Rhyolite","category":10,"distinct_rating":3.02,"distinct_type":"Bottom","rt":null,"stimulus":"Stimuli_Rocks480/I_Rhyolite_05.png","response":null,"trial_type":"image-keyboard-response","trial_index":87,"plugin_version":"2.1.0","time_elapsed":165627,"subject_id":"92631","group":"Group2","condition":"3_Rep","full_date":"2026-02-23T18:42:55.672Z","date":"2026-02-23","time":"18:42:55"},{"rt":null,"stimulus":"<p style=\"font-size: 50px; margin: 0; text-align: center;\">+</p>","response":null,"trial_type":"html-keyboard-response","trial_index":88,"plugin_version":"2.1.0","time_elapsed":166638,"subject_id":"92631","group":"Group2","condition":"3_Rep","full_date":"2026-02-23T18:42:55.672Z","date":"2026-02-23","time":"18:42:55"},{"task":"memory_phase","broad_category":"M","image_png":"M_Quartzite_07.png","image_id":279,"category_name":"Quartzite","category":18,"distinct_rating":1.97,"distinct_type":"Bottom","rt":null,"stimulus":"Stimuli_Rocks480/M_Quartzite_07.png","response":null,"trial_type":"image-keyboard-response","trial_index":89,"plugin_version":"2.1.0","time_elapsed":169146,"subject_id":"92631","group":"Group2","condition":"3_Rep","full_date":"2026-02-23T18:42:55.672Z","date":"2026-02-23","time":"18:42:55"},{"rt":null,"stimulus":"<p style=\"font-size: 50px; margin: 0; text-align: center;\">+</p>","response":null,"trial_type":"html-keyboard-response","trial_index":90,"plugin_version":"2.1.0","time_elapsed":170154,"subject_id":"92631","group":"Group2","condition":"3_Rep","full_date":"2026-02-23T18:42:55.672Z","date":"2026-02-23","time":"18:42:55"},{"task":"memory_phase","broad_category":"I","image_png":"I_Basalt_08.png","image_id":24,"category_name":"Basalt","category":2,"distinct_rating":2.31,"distinct_type":"Bottom","rt":null,"stimulus":"Stimuli_Rocks480/I_Basalt_08.png","response":null,"trial_type":"image-keyboard-response","trial_index":91,"plugin_version":"2.1.0","time_elapsed":172661,"subject_id":"92631","group":"Group2","condition":"3_Rep","full_date":"2026-02-23T18:42:55.672Z","date":"2026-02-23","time":"18:42:55"},{"rt":null,"stimulus":"<p style=\"font-size: 50px; margin: 0; text-align: center;\">+</p>","response":null,"trial_type":"html-keyboard-response","trial_index":92,"plugin_version":"2.1.0","time_elapsed":173678,"subject_id":"92631","group":"Group2","condition":"3_Rep","full_date":"2026-02-23T18:42:55.672Z","date":"2026-02-23","time":"18:42:55"},{"task":"memory_phase","broad_category":"I","image_png":"I_Gabbro_12.png","image_id":60,"category_name":"Gabbro","category":4,"distinct_rating":2.6,"distinct_type":"Bottom","rt":null,"stimulus":"Stimuli_Rocks480/I_Gabbro_12.png","response":null,"trial_type":"image-keyboard-response","trial_index":93,"plugin_version":"2.1.0","time_elapsed":176193,"subject_id":"92631","group":"Group2","condition":"3_Rep","full_date":"2026-02-23T18:42:55.672Z","date":"2026-02-23","time":"18:42:55"},{"rt":null,"stimulus":"<p style=\"font-size: 50px; margin: 0; text-align: center;\">+</p>","response":null,"trial_type":"html-keyboard-response","trial_index":94,"plugin_version":"2.1.0","time_elapsed":177194,"subject_id":"92631","group":"Group2","condition":"3_Rep","full_date":"2026-02-23T18:42:55.672Z","date":"2026-02-23","time":"18:42:55"},{"task":"memory_phase","broad_category":"I","image_png":"I_Gabbro_14.png","image_id":62,"category_name":"Gabbro","category":4,"distinct_rating":2.95,"distinct_type":"Bottom","rt":null,"stimulus":"Stimuli_Rocks480/I_Gabbro_14.png","response":null,"trial_type":"image-keyboard-response","trial_index":95,"plugin_version":"2.1.0","time_elapsed":179707,"subject_id":"92631","group":"Group2","condition":"3_Rep","full_date":"2026-02-23T18:42:55.672Z","date":"2026-02-23","time":"18:42:55"},{"rt":null,"stimulus":"<p style=\"font-size: 50px; margin: 0; text-align: center;\">+</p>","response":null,"trial_type":"html-keyboard-response","trial_index":96,"plugin_version":"2.1.0","time_elapsed":180713,"subject_id":"92631","group":"Group2","condition":"3_Rep","full_date":"2026-02-23T18:42:55.672Z","date":"2026-02-23","time":"18:42:55"},{"task":"memory_phase","broad_category":"M","image_png":"M_Slate_14.png","image_id":318,"category_name":"Slate","category":20,"distinct_rating":2.58,"distinct_type":"Bottom","rt":null,"stimulus":"Stimuli_Rocks480/M_Slate_14.png","response":null,"trial_type":"image-keyboard-response","trial_index":97,"plugin_version":"2.1.0","time_elapsed":183229,"subject_id":"92631","group":"Group2","condition":"3_Rep","full_date":"2026-02-23T18:42:55.672Z","date":"2026-02-23","time":"18:42:55"},{"rt":null,"stimulus":"<p style=\"font-size: 50px; margin: 0; text-align: center;\">+</p>","response":null,"trial_type":"html-keyboard-response","trial_index":98,"plugin_version":"2.1.0","time_elapsed":184238,"subject_id":"92631","group":"Group2","condition":"3_Rep","full_date":"2026-02-23T18:42:55.672Z","date":"2026-02-23","time":"18:42:55"},{"task":"memory_phase","broad_category":"I","image_png":"I_Gabbro_02.png","image_id":50,"category_name":"Gabbro","category":4,"distinct_rating":2.73,"distinct_type":"Bottom","rt":null,"stimulus":"Stimuli_Rocks480/I_Gabbro_02.png","response":null,"trial_type":"image-keyboard-response","trial_index":99,"plugin_version":"2.1.0","time_elapsed":186748,"subject_id":"92631","group":"Group2","condition":"3_Rep","full_date":"2026-02-23T18:42:55.672Z","date":"2026-02-23","time":"18:42:55"},{"rt":null,"stimulus":"<p style=\"font-size: 50px; margin: 0; text-align: center;\">+</p>","response":null,"trial_type":"html-keyboard-response","trial_index":100,"plugin_version":"2.1.0","time_elapsed":187755,"subject_id":"92631","group":"Group2","condition":"3_Rep","full_date":"2026-02-23T18:42:55.672Z","date":"2026-02-23","time":"18:42:55"},{"task":"memory_phase","broad_category":"I","image_png":"I_Andesite_03.png","image_id":3,"category_name":"Andesite","category":1,"distinct_rating":3.17,"distinct_type":"Bottom","rt":null,"stimulus":"Stimuli_Rocks480/I_Andesite_03.png","response":null,"trial_type":"image-keyboard-response","trial_index":101,"plugin_version":"2.1.0","time_elapsed":190266,"subject_id":"92631","group":"Group2","condition":"3_Rep","full_date":"2026-02-23T18:42:55.672Z","date":"2026-02-23","time":"18:42:55"},{"rt":null,"stimulus":"<p style=\"font-size: 50px; margin: 0; text-align: center;\">+</p>","response":null,"trial_type":"html-keyboard-response","trial_index":102,"plugin_version":"2.1.0","time_elapsed":191273,"subject_id":"92631","group":"Group2","condition":"3_Rep","full_date":"2026-02-23T18:42:55.672Z","date":"2026-02-23","time":"18:42:55"},{"task":"memory_phase","broad_category":"I","image_png":"I_Andesite_04.png","image_id":4,"category_name":"Andesite","category":1,"distinct_rating":3.18,"distinct_type":"Bottom","rt":null,"stimulus":"Stimuli_Rocks480/I_Andesite_04.png","response":null,"trial_type":"image-keyboard-response","trial_index":103,"plugin_version":"2.1.0","time_elapsed":193781,"subject_id":"92631","group":"Group2","condition":"3_Rep","full_date":"2026-02-23T18:42:55.672Z","date":"2026-02-23","time":"18:42:55"},{"rt":null,"stimulus":"<p style=\"font-size: 50px; margin: 0; text-align: center;\">+</p>","response":null,"trial_type":"html-keyboard-response","trial_index":104,"plugin_version":"2.1.0","time_elapsed":194795,"subject_id":"92631","group":"Group2","condition":"3_Rep","full_date":"2026-02-23T18:42:55.672Z","date":"2026-02-23","time":"18:42:55"},{"task":"memory_phase","broad_category":"I","image_png":"I_Diorite_01.png","image_id":33,"category_name":"Diorite","category":3,"distinct_rating":2.97,"distinct_type":"Bottom","rt":null,"stimulus":"Stimuli_Rocks480/I_Diorite_01.png","response":null,"trial_type":"image-keyboard-response","trial_index":105,"plugin_version":"2.1.0","time_elapsed":197313,"subject_id":"92631","group":"Group2","condition":"3_Rep","full_date":"2026-02-23T18:42:55.672Z","date":"2026-02-23","time":"18:42:55"},{"rt":2482,"stimulus":"<p style=\"max-width: 760px; margin: auto; font-size: 35px; line-height: 1.5;\">\n                You have completed 1 study phase. \n                Now, we'll show you all the images again 2 more times.\n                <br><br>Press SPACE to continue\n              </p>","response":" ","trial_type":"html-keyboard-response","trial_index":106,"plugin_version":"2.1.0","time_elapsed":199795,"subject_id":"92631","group":"Group2","condition":"3_Rep","full_date":"2026-02-23T18:42:55.672Z","date":"2026-02-23","time":"18:42:55"},{"rt":null,"stimulus":"<p style=\"font-size: 50px; margin: 0; text-align: center;\">+</p>","response":null,"trial_type":"html-keyboard-response","trial_index":107,"plugin_version":"2.1.0","time_elapsed":200812,"subject_id":"92631","group":"Group2","condition":"3_Rep","full_date":"2026-02-23T18:42:55.672Z","date":"2026-02-23","time":"18:42:55"},{"task":"memory_phase","broad_category":"M","image_png":"M_Slate_14.png","image_id":318,"category_name":"Slate","category":20,"distinct_rating":2.58,"distinct_type":"Bottom","rt":null,"stimulus":"Stimuli_Rocks480/M_Slate_14.png","response":null,"trial_type":"image-keyboard-response","trial_index":108,"plugin_version":"2.1.0","time_elapsed":203324,"subject_id":"92631","group":"Group2","condition":"3_Rep","full_date":"2026-02-23T18:42:55.672Z","date":"2026-02-23","time":"18:42:55"},{"rt":null,"stimulus":"<p style=\"font-size: 50px; margin: 0; text-align: center;\">+</p>","response":null,"trial_type":"html-keyboard-response","trial_index":109,"plugin_version":"2.1.0","time_elapsed":204329,"subject_id":"92631","group":"Group2","condition":"3_Rep","full_date":"2026-02-23T18:42:55.672Z","date":"2026-02-23","time":"18:42:55"},{"task":"memory_phase","broad_category":"I","image_png":"I_Gabbro_02.png","image_id":50,"category_name":"Gabbro","category":4,"distinct_rating":2.73,"distinct_type":"Bottom","rt":null,"stimulus":"Stimuli_Rocks480/I_Gabbro_02.png","response":null,"trial_type":"image-keyboard-response","trial_index":110,"plugin_version":"2.1.0","time_elapsed":206836,"subject_id":"92631","group":"Group2","condition":"3_Rep","full_date":"2026-02-23T18:42:55.672Z","date":"2026-02-23","time":"18:42:55"},{"rt":null,"stimulus":"<p style=\"font-size: 50px; margin: 0; text-align: center;\">+</p>","response":null,"trial_type":"html-keyboard-response","trial_index":111,"plugin_version":"2.1.0","time_elapsed":207843,"subject_id":"92631","group":"Group2","condition":"3_Rep","full_date":"2026-02-23T18:42:55.672Z","date":"2026-02-23","time":"18:42:55"},{"task":"memory_phase","broad_category":"I","image_png":"I_Basalt_13.png","image_id":29,"category_name":"Basalt","category":2,"distinct_rating":2.68,"distinct_type":"Bottom","rt":null,"stimulus":"Stimuli_Rocks480/I_Basalt_13.png","response":null,"trial_type":"image-keyboard-response","trial_index":112,"plugin_version":"2.1.0","time_elapsed":210346,"subject_id":"92631","group":"Group2","condition":"3_Rep","full_date":"2026-02-23T18:42:55.672Z","date":"2026-02-23","time":"18:42:55"},{"rt":null,"stimulus":"<p style=\"font-size: 50px; margin: 0; text-align: center;\">+</p>","response":null,"trial_type":"html-keyboard-response","trial_index":113,"plugin_version":"2.1.0","time_elapsed":211362,"subject_id":"92631","group":"Group2","condition":"3_Rep","full_date":"2026-02-23T18:42:55.672Z","date":"2026-02-23","time":"18:42:55"},{"task":"memory_phase","broad_category":"M","image_png":"M_Phyllite_02.png","image_id":258,"category_name":"Phyllite","category":17,"distinct_rating":2.89,"distinct_type":"Bottom","rt":null,"stimulus":"Stimuli_Rocks480/M_Phyllite_02.png","response":null,"trial_type":"image-keyboard-response","trial_index":114,"plugin_version":"2.1.0","time_elapsed":213869,"subject_id":"92631","group":"Group2","condition":"3_Rep","full_date":"2026-02-23T18:42:55.672Z","date":"2026-02-23","time":"18:42:55"},{"rt":null,"stimulus":"<p style=\"font-size: 50px; margin: 0; text-align: center;\">+</p>","response":null,"trial_type":"html-keyboard-response","trial_index":115,"plugin_version":"2.1.0","time_elapsed":214872,"subject_id":"92631","group":"Group2","condition":"3_Rep","full_date":"2026-02-23T18:42:55.672Z","date":"2026-02-23","time":"18:42:55"},{"task":"memory_phase","broad_category":"I","image_png":"I_Andesite_04.png","image_id":4,"category_name":"Andesite","category":1,"distinct_rating":3.18,"distinct_type":"Bottom","rt":null,"stimulus":"Stimuli_Rocks480/I_Andesite_04.png","response":null,"trial_type":"image-keyboard-response","trial_index":116,"plugin_version":"2.1.0","time_elapsed":217388,"subject_id":"92631","group":"Group2","condition":"3_Rep","full_date":"2026-02-23T18:42:55.672Z","date":"2026-02-23","time":"18:42:55"},{"rt":null,"stimulus":"<p style=\"font-size: 50px; margin: 0; text-align: center;\">+</p>","response":null,"trial_type":"html-keyboard-response","trial_index":117,"plugin_version":"2.1.0","time_elapsed":218394,"subject_id":"92631","group":"Group2","condition":"3_Rep","full_date":"2026-02-23T18:42:55.672Z","date":"2026-02-23","time":"18:42:55"},{"task":"memory_phase","broad_category":"S","image_png":"S_Rock Salt_15.png","image_id":447,"category_name":"Rock Salt","category":28,"distinct_rating":7.79,"distinct_type":"Top","rt":null,"stimulus":"Stimuli_Rocks480/S_Rock Salt_15.png","response":null,"trial_type":"image-keyboard-response","trial_index":118,"plugin_version":"2.1.0","time_elapsed":220907,"subject_id":"92631","group":"Group2","condition":"3_Rep","full_date":"2026-02-23T18:42:55.672Z","date":"2026-02-23","time":"18:42:55"},{"rt":null,"stimulus":"<p style=\"font-size: 50px; margin: 0; text-align: center;\">+</p>","response":null,"trial_type":"html-keyboard-response","trial_index":119,"plugin_version":"2.1.0","time_elapsed":221923,"subject_id":"92631","group":"Group2","condition":"3_Rep","full_date":"2026-02-23T18:42:55.672Z","date":"2026-02-23","time":"18:42:55"},{"task":"memory_phase","broad_category":"I","image_png":"I_Pegmatite_11.png","image_id":107,"category_name":"Pegmatite","category":7,"distinct_rating":7.11,"distinct_type":"Top","rt":null,"stimulus":"Stimuli_Rocks480/I_Pegmatite_11.png","response":null,"trial_type":"image-keyboard-response","trial_index":120,"plugin_version":"2.1.0","time_elapsed":224431,"subject_id":"92631","group":"Group2","condition":"3_Rep","full_date":"2026-02-23T18:42:55.672Z","date":"2026-02-23","time":"18:42:55"},{"rt":null,"stimulus":"<p style=\"font-size: 50px; margin: 0; text-align: center;\">+</p>","response":null,"trial_type":"html-keyboard-response","trial_index":121,"plugin_version":"2.1.0","time_elapsed":225444,"subject_id":"92631","group":"Group2","condition":"3_Rep","full_date":"2026-02-23T18:42:55.672Z","date":"2026-02-23","time":"18:42:55"},{"task":"memory_phase","broad_category":"M","image_png":"M_Quartzite_15.png","image_id":287,"category_name":"Quartzite","category":18,"distinct_rating":2.19,"distinct_type":"Bottom","rt":null,"stimulus":"Stimuli_Rocks480/M_Quartzite_15.png","response":null,"trial_type":"image-keyboard-response","trial_index":122,"plugin_version":"2.1.0","time_elapsed":227953,"subject_id":"92631","group":"Group2","condition":"3_Rep","full_date":"2026-02-23T18:42:55.672Z","date":"2026-02-23","time":"18:42:55"},{"rt":null,"stimulus":"<p style=\"font-size: 50px; margin: 0; text-align: center;\">+</p>","response":null,"trial_type":"html-keyboard-response","trial_index":123,"plugin_version":"2.1.0","time_elapsed":228957,"subject_id":"92631","group":"Group2","condition":"3_Rep","full_date":"2026-02-23T18:42:55.672Z","date":"2026-02-23","time":"18:42:55"},{"task":"memory_phase","broad_category":"I","image_png":"I_Gabbro_14.png","image_id":62,"category_name":"Gabbro","category":4,"distinct_rating":2.95,"distinct_type":"Bottom","rt":null,"stimulus":"Stimuli_Rocks480/I_Gabbro_14.png","response":null,"trial_type":"image-keyboard-response","trial_index":124,"plugin_version":"2.1.0","time_elapsed":231475,"subject_id":"92631","group":"Group2","condition":"3_Rep","full_date":"2026-02-23T18:42:55.672Z","date":"2026-02-23","time":"18:42:55"},{"rt":null,"stimulus":"<p style=\"font-size: 50px; margin: 0; text-align: center;\">+</p>","response":null,"trial_type":"html-keyboard-response","trial_index":125,"plugin_version":"2.1.0","time_elapsed":232477,"subject_id":"92631","group":"Group2","condition":"3_Rep","full_date":"2026-02-23T18:42:55.672Z","date":"2026-02-23","time":"18:42:55"},{"task":"memory_phase","broad_category":"I","image_png":"I_Gabbro_12.png","image_id":60,"category_name":"Gabbro","category":4,"distinct_rating":2.6,"distinct_type":"Bottom","rt":null,"stimulus":"Stimuli_Rocks480/I_Gabbro_12.png","response":null,"trial_type":"image-keyboard-response","trial_index":126,"plugin_version":"2.1.0","time_elapsed":234980,"subject_id":"92631","group":"Group2","condition":"3_Rep","full_date":"2026-02-23T18:42:55.672Z","date":"2026-02-23","time":"18:42:55"},{"rt":null,"stimulus":"<p style=\"font-size: 50px; margin: 0; text-align: center;\">+</p>","response":null,"trial_type":"html-keyboard-response","trial_index":127,"plugin_version":"2.1.0","time_elapsed":235998,"subject_id":"92631","group":"Group2","condition":"3_Rep","full_date":"2026-02-23T18:42:55.672Z","date":"2026-02-23","time":"18:42:55"},{"task":"memory_phase","broad_category":"I","image_png":"I_Rhyolite_05.png","image_id":149,"category_name":"Rhyolite","category":10,"distinct_rating":3.02,"distinct_type":"Bottom","rt":null,"stimulus":"Stimuli_Rocks480/I_Rhyolite_05.png","response":null,"trial_type":"image-keyboard-response","trial_index":128,"plugin_version":"2.1.0","time_elapsed":238513,"subject_id":"92631","group":"Group2","condition":"3_Rep","full_date":"2026-02-23T18:42:55.672Z","date":"2026-02-23","time":"18:42:55"},{"rt":null,"stimulus":"<p style=\"font-size: 50px; margin: 0; text-align: center;\">+</p>","response":null,"trial_type":"html-keyboard-response","trial_index":129,"plugin_version":"2.1.0","time_elapsed":239522,"subject_id":"92631","group":"Group2","condition":"3_Rep","full_date":"2026-02-23T18:42:55.672Z","date":"2026-02-23","time":"18:42:55"},{"task":"memory_phase","broad_category":"M","image_png":"M_Gneiss_14.png","image_id":206,"category_name":"Gneiss","category":13,"distinct_rating":3.41,"distinct_type":"Bottom","rt":null,"stimulus":"Stimuli_Rocks480/M_Gneiss_14.png","response":null,"trial_type":"image-keyboard-response","trial_index":130,"plugin_version":"2.1.0","time_elapsed":242027,"subject_id":"92631","group":"Group2","condition":"3_Rep","full_date":"2026-02-23T18:42:55.672Z","date":"2026-02-23","time":"18:42:55"},{"rt":null,"stimulus":"<p style=\"font-size: 50px; margin: 0; text-align: center;\">+</p>","response":null,"trial_type":"html-keyboard-response","trial_index":131,"plugin_version":"2.1.0","time_elapsed":243035,"subject_id":"92631","group":"Group2","condition":"3_Rep","full_date":"2026-02-23T18:42:55.672Z","date":"2026-02-23","time":"18:42:55"},{"task":"memory_phase","broad_category":"I","image_png":"I_Rhyolite_08.png","image_id":152,"category_name":"Rhyolite","category":10,"distinct_rating":1.38,"distinct_type":"Bottom","rt":null,"stimulus":"Stimuli_Rocks480/I_Rhyolite_08.png","response":null,"trial_type":"image-keyboard-response","trial_index":132,"plugin_version":"2.1.0","time_elapsed":245542,"subject_id":"92631","group":"Group2","condition":"3_Rep","full_date":"2026-02-23T18:42:55.672Z","date":"2026-02-23","time":"18:42:55"},{"rt":null,"stimulus":"<p style=\"font-size: 50px; margin: 0; text-align: center;\">+</p>","response":null,"trial_type":"html-keyboard-response","trial_index":133,"plugin_version":"2.1.0","time_elapsed":246556,"subject_id":"92631","group":"Group2","condition":"3_Rep","full_date":"2026-02-23T18:42:55.672Z","date":"2026-02-23","time":"18:42:55"},{"task":"memory_phase","broad_category":"I","image_png":"I_Diorite_01.png","image_id":33,"category_name":"Diorite","category":3,"distinct_rating":2.97,"distinct_type":"Bottom","rt":null,"stimulus":"Stimuli_Rocks480/I_Diorite_01.png","response":null,"trial_type":"image-keyboard-response","trial_index":134,"plugin_version":"2.1.0","time_elapsed":249059,"subject_id":"92631","group":"Group2","condition":"3_Rep","full_date":"2026-02-23T18:42:55.672Z","date":"2026-02-23","time":"18:42:55"},{"rt":null,"stimulus":"<p style=\"font-size: 50px; margin: 0; text-align: center;\">+</p>","response":null,"trial_type":"html-keyboard-response","trial_index":135,"plugin_version":"2.1.0","time_elapsed":250076,"subject_id":"92631","group":"Group2","condition":"3_Rep","full_date":"2026-02-23T18:42:55.672Z","date":"2026-02-23","time":"18:42:55"},{"task":"memory_phase","broad_category":"S","image_png":"S_Dolomite_16.png","image_id":400,"category_name":"Dolomite","category":25,"distinct_rating":1.71,"distinct_type":"Bottom","rt":null,"stimulus":"Stimuli_Rocks480/S_Dolomite_16.png","response":null,"trial_type":"image-keyboard-response","trial_index":136,"plugin_version":"2.1.0","time_elapsed":252589,"subject_id":"92631","group":"Group2","condition":"3_Rep","full_date":"2026-02-23T18:42:55.672Z","date":"2026-02-23","time":"18:42:55"},{"rt":null,"stimulus":"<p style=\"font-size: 50px; margin: 0; text-align: center;\">+</p>","response":null,"trial_type":"html-keyboard-response","trial_index":137,"plugin_version":"2.1.0","time_elapsed":253606,"subject_id":"92631","group":"Group2","condition":"3_Rep","full_date":"2026-02-23T18:42:55.672Z","date":"2026-02-23","time":"18:42:55"},{"task":"memory_phase","broad_category":"I","image_png":"I_Obsidian_06.png","image_id":86,"category_name":"Obsidian","category":6,"distinct_rating":8.01,"distinct_type":"Top","rt":null,"stimulus":"Stimuli_Rocks480/I_Obsidian_06.png","response":null,"trial_type":"image-keyboard-response","trial_index":138,"plugin_version":"2.1.0","time_elapsed":256108,"subject_id":"92631","group":"Group2","condition":"3_Rep","full_date":"2026-02-23T18:42:55.672Z","date":"2026-02-23","time":"18:42:55"},{"rt":null,"stimulus":"<p style=\"font-size: 50px; margin: 0; text-align: center;\">+</p>","response":null,"trial_type":"html-keyboard-response","trial_index":139,"plugin_version":"2.1.0","time_elapsed":257120,"subject_id":"92631","group":"Group2","condition":"3_Rep","full_date":"2026-02-23T18:42:55.672Z","date":"2026-02-23","time":"18:42:55"},{"task":"memory_phase","broad_category":"I","image_png":"I_Diorite_15.png","image_id":47,"category_name":"Diorite","category":3,"distinct_rating":3.05,"distinct_type":"Bottom","rt":null,"stimulus":"Stimuli_Rocks480/I_Diorite_15.png","response":null,"trial_type":"image-keyboard-response","trial_index":140,"plugin_version":"2.1.0","time_elapsed":259625,"subject_id":"92631","group":"Group2","condition":"3_Rep","full_date":"2026-02-23T18:42:55.672Z","date":"2026-02-23","time":"18:42:55"},{"rt":null,"stimulus":"<p style=\"font-size: 50px; margin: 0; text-align: center;\">+</p>","response":null,"trial_type":"html-keyboard-response","trial_index":141,"plugin_version":"2.1.0","time_elapsed":260634,"subject_id":"92631","group":"Group2","condition":"3_Rep","full_date":"2026-02-23T18:42:55.672Z","date":"2026-02-23","time":"18:42:55"},{"task":"memory_phase","broad_category":"S","image_png":"S_Sandstone_11.png","image_id":459,"category_name":"Sandstone","category":29,"distinct_rating":1.82,"distinct_type":"Bottom","rt":null,"stimulus":"Stimuli_Rocks480/S_Sandstone_11.png","response":null,"trial_type":"image-keyboard-response","trial_index":142,"plugin_version":"2.1.0","time_elapsed":263140,"subject_id":"92631","group":"Group2","condition":"3_Rep","full_date":"2026-02-23T18:42:55.672Z","date":"2026-02-23","time":"18:42:55"},{"rt":null,"stimulus":"<p style=\"font-size: 50px; margin: 0; text-align: center;\">+</p>","response":null,"trial_type":"html-keyboard-response","trial_index":143,"plugin_version":"2.1.0","time_elapsed":264158,"subject_id":"92631","group":"Group2","condition":"3_Rep","full_date":"2026-02-23T18:42:55.672Z","date":"2026-02-23","time":"18:42:55"},{"task":"memory_phase","broad_category":"S","image_png":"S_Rock Salt_13.png","image_id":445,"category_name":"Rock Salt","category":28,"distinct_rating":7.58,"distinct_type":"Top","rt":null,"stimulus":"Stimuli_Rocks480/S_Rock Salt_13.png","response":null,"trial_type":"image-keyboard-response","trial_index":144,"plugin_version":"2.1.0","time_elapsed":266667,"subject_id":"92631","group":"Group2","condition":"3_Rep","full_date":"2026-02-23T18:42:55.672Z","date":"2026-02-23","time":"18:42:55"},{"rt":null,"stimulus":"<p style=\"font-size: 50px; margin: 0; text-align: center;\">+</p>","response":null,"trial_type":"html-keyboard-response","trial_index":145,"plugin_version":"2.1.0","time_elapsed":267676,"subject_id":"92631","group":"Group2","condition":"3_Rep","full_date":"2026-02-23T18:42:55.672Z","date":"2026-02-23","time":"18:42:55"},{"task":"memory_phase","broad_category":"I","image_png":"I_Basalt_08.png","image_id":24,"category_name":"Basalt","category":2,"distinct_rating":2.31,"distinct_type":"Bottom","rt":null,"stimulus":"Stimuli_Rocks480/I_Basalt_08.png","response":null,"trial_type":"image-keyboard-response","trial_index":146,"plugin_version":"2.1.0","time_elapsed":270181,"subject_id":"92631","group":"Group2","condition":"3_Rep","full_date":"2026-02-23T18:42:55.672Z","date":"2026-02-23","time":"18:42:55"},{"rt":null,"stimulus":"<p style=\"font-size: 50px; margin: 0; text-align: center;\">+</p>","response":null,"trial_type":"html-keyboard-response","trial_index":147,"plugin_version":"2.1.0","time_elapsed":271184,"subject_id":"92631","group":"Group2","condition":"3_Rep","full_date":"2026-02-23T18:42:55.672Z","date":"2026-02-23","time":"18:42:55"},{"task":"memory_phase","broad_category":"M","image_png":"M_Phyllite_13.png","image_id":269,"category_name":"Phyllite","category":17,"distinct_rating":2.8,"distinct_type":"Bottom","rt":null,"stimulus":"Stimuli_Rocks480/M_Phyllite_13.png","response":null,"trial_type":"image-keyboard-response","trial_index":148,"plugin_version":"2.1.0","time_elapsed":273700,"subject_id":"92631","group":"Group2","condition":"3_Rep","full_date":"2026-02-23T18:42:55.672Z","date":"2026-02-23","time":"18:42:55"},{"rt":null,"stimulus":"<p style=\"font-size: 50px; margin: 0; text-align: center;\">+</p>","response":null,"trial_type":"html-keyboard-response","trial_index":149,"plugin_version":"2.1.0","time_elapsed":274716,"subject_id":"92631","group":"Group2","condition":"3_Rep","full_date":"2026-02-23T18:42:55.672Z","date":"2026-02-23","time":"18:42:55"},{"task":"memory_phase","broad_category":"S","image_png":"S_Dolomite_01.png","image_id":385,"category_name":"Dolomite","category":25,"distinct_rating":1.43,"distinct_type":"Bottom","rt":null,"stimulus":"Stimuli_Rocks480/S_Dolomite_01.png","response":null,"trial_type":"image-keyboard-response","trial_index":150,"plugin_version":"2.1.0","time_elapsed":277226,"subject_id":"92631","group":"Group2","condition":"3_Rep","full_date":"2026-02-23T18:42:55.672Z","date":"2026-02-23","time":"18:42:55"},{"rt":null,"stimulus":"<p style=\"font-size: 50px; margin: 0; text-align: center;\">+</p>","response":null,"trial_type":"html-keyboard-response","trial_index":151,"plugin_version":"2.1.0","time_elapsed":278229,"subject_id":"92631","group":"Group2","condition":"3_Rep","full_date":"2026-02-23T18:42:55.672Z","date":"2026-02-23","time":"18:42:55"},{"task":"memory_phase","broad_category":"M","image_png":"M_Marble_03.png","image_id":227,"category_name":"Marble","category":15,"distinct_rating":2.67,"distinct_type":"Bottom","rt":null,"stimulus":"Stimuli_Rocks480/M_Marble_03.png","response":null,"trial_type":"image-keyboard-response","trial_index":152,"plugin_version":"2.1.0","time_elapsed":280741,"subject_id":"92631","group":"Group2","condition":"3_Rep","full_date":"2026-02-23T18:42:55.672Z","date":"2026-02-23","time":"18:42:55"},{"rt":null,"stimulus":"<p style=\"font-size: 50px; margin: 0; text-align: center;\">+</p>","response":null,"trial_type":"html-keyboard-response","trial_index":153,"plugin_version":"2.1.0","time_elapsed":281756,"subject_id":"92631","group":"Group2","condition":"3_Rep","full_date":"2026-02-23T18:42:55.672Z","date":"2026-02-23","time":"18:42:55"},{"task":"memory_phase","broad_category":"M","image_png":"M_Marble_14.png","image_id":238,"category_name":"Marble","category":15,"distinct_rating":3.31,"distinct_type":"Bottom","rt":null,"stimulus":"Stimuli_Rocks480/M_Marble_14.png","response":null,"trial_type":"image-keyboard-response","trial_index":154,"plugin_version":"2.1.0","time_elapsed":284259,"subject_id":"92631","group":"Group2","condition":"3_Rep","full_date":"2026-02-23T18:42:55.672Z","date":"2026-02-23","time":"18:42:55"},{"rt":null,"stimulus":"<p style=\"font-size: 50px; margin: 0; text-align: center;\">+</p>","response":null,"trial_type":"html-keyboard-response","trial_index":155,"plugin_version":"2.1.0","time_elapsed":285268,"subject_id":"92631","group":"Group2","condition":"3_Rep","full_date":"2026-02-23T18:42:55.672Z","date":"2026-02-23","time":"18:42:55"},{"task":"memory_phase","broad_category":"I","image_png":"I_Pumice_14.png","image_id":142,"category_name":"Pumice","category":9,"distinct_rating":3.22,"distinct_type":"Bottom","rt":null,"stimulus":"Stimuli_Rocks480/I_Pumice_14.png","response":null,"trial_type":"image-keyboard-response","trial_index":156,"plugin_version":"2.1.0","time_elapsed":287771,"subject_id":"92631","group":"Group2","condition":"3_Rep","full_date":"2026-02-23T18:42:55.672Z","date":"2026-02-23","time":"18:42:55"},{"rt":9625,"stimulus":"<p style=\"max-width: 760px; margin: auto; font-size: 35px; line-height: 1.5;\">\n                Press SPACE to continue study phase\n              </p>","response":" ","trial_type":"html-keyboard-response","trial_index":157,"plugin_version":"2.1.0","time_elapsed":297398,"subject_id":"92631","group":"Group2","condition":"3_Rep","full_date":"2026-02-23T18:42:55.672Z","date":"2026-02-23","time":"18:42:55"},{"rt":null,"stimulus":"<p style=\"font-size: 50px; margin: 0; text-align: center;\">+</p>","response":null,"trial_type":"html-keyboard-response","trial_index":158,"plugin_version":"2.1.0","time_elapsed":298413,"subject_id":"92631","group":"Group2","condition":"3_Rep","full_date":"2026-02-23T18:42:55.672Z","date":"2026-02-23","time":"18:42:55"},{"task":"memory_phase","broad_category":"I","image_png":"I_Pegmatite_03.png","image_id":99,"category_name":"Pegmatite","category":7,"distinct_rating":7.24,"distinct_type":"Top","rt":null,"stimulus":"Stimuli_Rocks480/I_Pegmatite_03.png","response":null,"trial_type":"image-keyboard-response","trial_index":159,"plugin_version":"2.1.0","time_elapsed":300925,"subject_id":"92631","group":"Group2","condition":"3_Rep","full_date":"2026-02-23T18:42:55.672Z","date":"2026-02-23","time":"18:42:55"},{"rt":null,"stimulus":"<p style=\"font-size: 50px; margin: 0; text-align: center;\">+</p>","response":null,"trial_type":"html-keyboard-response","trial_index":160,"plugin_version":"2.1.0","time_elapsed":301938,"subject_id":"92631","group":"Group2","condition":"3_Rep","full_date":"2026-02-23T18:42:55.672Z","date":"2026-02-23","time":"18:42:55"},{"task":"memory_phase","broad_category":"I","image_png":"I_Andesite_03.png","image_id":3,"category_name":"Andesite","category":1,"distinct_rating":3.17,"distinct_type":"Bottom","rt":null,"stimulus":"Stimuli_Rocks480/I_Andesite_03.png","response":null,"trial_type":"image-keyboard-response","trial_index":161,"plugin_version":"2.1.0","time_elapsed":304444,"subject_id":"92631","group":"Group2","condition":"3_Rep","full_date":"2026-02-23T18:42:55.672Z","date":"2026-02-23","time":"18:42:55"},{"rt":null,"stimulus":"<p style=\"font-size: 50px; margin: 0; text-align: center;\">+</p>","response":null,"trial_type":"html-keyboard-response","trial_index":162,"plugin_version":"2.1.0","time_elapsed":305450,"subject_id":"92631","group":"Group2","condition":"3_Rep","full_date":"2026-02-23T18:42:55.672Z","date":"2026-02-23","time":"18:42:55"},{"task":"memory_phase","broad_category":"I","image_png":"I_Diorite_10.png","image_id":42,"category_name":"Diorite","category":3,"distinct_rating":2.84,"distinct_type":"Bottom","rt":null,"stimulus":"Stimuli_Rocks480/I_Diorite_10.png","response":null,"trial_type":"image-keyboard-response","trial_index":163,"plugin_version":"2.1.0","time_elapsed":307967,"subject_id":"92631","group":"Group2","condition":"3_Rep","full_date":"2026-02-23T18:42:55.672Z","date":"2026-02-23","time":"18:42:55"},{"rt":null,"stimulus":"<p style=\"font-size: 50px; margin: 0; text-align: center;\">+</p>","response":null,"trial_type":"html-keyboard-response","trial_index":164,"plugin_version":"2.1.0","time_elapsed":308983,"subject_id":"92631","group":"Group2","condition":"3_Rep","full_date":"2026-02-23T18:42:55.672Z","date":"2026-02-23","time":"18:42:55"},{"task":"memory_phase","broad_category":"I","image_png":"I_Peridotite_13.png","image_id":125,"category_name":"Peridotite","category":8,"distinct_rating":7.28,"distinct_type":"Top","rt":null,"stimulus":"Stimuli_Rocks480/I_Peridotite_13.png","response":null,"trial_type":"image-keyboard-response","trial_index":165,"plugin_version":"2.1.0","time_elapsed":311488,"subject_id":"92631","group":"Group2","condition":"3_Rep","full_date":"2026-02-23T18:42:55.672Z","date":"2026-02-23","time":"18:42:55"},{"rt":null,"stimulus":"<p style=\"font-size: 50px; margin: 0; text-align: center;\">+</p>","response":null,"trial_type":"html-keyboard-response","trial_index":166,"plugin_version":"2.1.0","time_elapsed":312495,"subject_id":"92631","group":"Group2","condition":"3_Rep","full_date":"2026-02-23T18:42:55.672Z","date":"2026-02-23","time":"18:42:55"},{"task":"memory_phase","broad_category":"M","image_png":"M_Quartzite_07.png","image_id":279,"category_name":"Quartzite","category":18,"distinct_rating":1.97,"distinct_type":"Bottom","rt":null,"stimulus":"Stimuli_Rocks480/M_Quartzite_07.png","response":null,"trial_type":"image-keyboard-response","trial_index":167,"plugin_version":"2.1.0","time_elapsed":315009,"subject_id":"92631","group":"Group2","condition":"3_Rep","full_date":"2026-02-23T18:42:55.672Z","date":"2026-02-23","time":"18:42:55"},{"rt":null,"stimulus":"<p style=\"font-size: 50px; margin: 0; text-align: center;\">+</p>","response":null,"trial_type":"html-keyboard-response","trial_index":168,"plugin_version":"2.1.0","time_elapsed":316015,"subject_id":"92631","group":"Group2","condition":"3_Rep","full_date":"2026-02-23T18:42:55.672Z","date":"2026-02-23","time":"18:42:55"},{"task":"memory_phase","broad_category":"S","image_png":"S_Sandstone_08.png","image_id":456,"category_name":"Sandstone","category":29,"distinct_rating":1.5,"distinct_type":"Bottom","rt":null,"stimulus":"Stimuli_Rocks480/S_Sandstone_08.png","response":null,"trial_type":"image-keyboard-response","trial_index":169,"plugin_version":"2.1.0","time_elapsed":318527,"subject_id":"92631","group":"Group2","condition":"3_Rep","full_date":"2026-02-23T18:42:55.672Z","date":"2026-02-23","time":"18:42:55"},{"rt":null,"stimulus":"<p style=\"font-size: 50px; margin: 0; text-align: center;\">+</p>","response":null,"trial_type":"html-keyboard-response","trial_index":170,"plugin_version":"2.1.0","time_elapsed":319536,"subject_id":"92631","group":"Group2","condition":"3_Rep","full_date":"2026-02-23T18:42:55.672Z","date":"2026-02-23","time":"18:42:55"},{"task":"memory_phase","broad_category":"M","image_png":"M_Phyllite_05.png","image_id":261,"category_name":"Phyllite","category":17,"distinct_rating":2.14,"distinct_type":"Bottom","rt":null,"stimulus":"Stimuli_Rocks480/M_Phyllite_05.png","response":null,"trial_type":"image-keyboard-response","trial_index":171,"plugin_version":"2.1.0","time_elapsed":322045,"subject_id":"92631","group":"Group2","condition":"3_Rep","full_date":"2026-02-23T18:42:55.672Z","date":"2026-02-23","time":"18:42:55"},{"rt":null,"stimulus":"<p style=\"font-size: 50px; margin: 0; text-align: center;\">+</p>","response":null,"trial_type":"html-keyboard-response","trial_index":172,"plugin_version":"2.1.0","time_elapsed":323062,"subject_id":"92631","group":"Group2","condition":"3_Rep","full_date":"2026-02-23T18:42:55.672Z","date":"2026-02-23","time":"18:42:55"},{"task":"memory_phase","broad_category":"I","image_png":"I_Rhyolite_10.png","image_id":154,"category_name":"Rhyolite","category":10,"distinct_rating":2.88,"distinct_type":"Bottom","rt":null,"stimulus":"Stimuli_Rocks480/I_Rhyolite_10.png","response":null,"trial_type":"image-keyboard-response","trial_index":173,"plugin_version":"2.1.0","time_elapsed":325569,"subject_id":"92631","group":"Group2","condition":"3_Rep","full_date":"2026-02-23T18:42:55.672Z","date":"2026-02-23","time":"18:42:55"},{"rt":null,"stimulus":"<p style=\"font-size: 50px; margin: 0; text-align: center;\">+</p>","response":null,"trial_type":"html-keyboard-response","trial_index":174,"plugin_version":"2.1.0","time_elapsed":326575,"subject_id":"92631","group":"Group2","condition":"3_Rep","full_date":"2026-02-23T18:42:55.672Z","date":"2026-02-23","time":"18:42:55"},{"task":"memory_phase","broad_category":"S","image_png":"S_Shale_07.png","image_id":471,"category_name":"Shale","category":30,"distinct_rating":2.73,"distinct_type":"Bottom","rt":null,"stimulus":"Stimuli_Rocks480/S_Shale_07.png","response":null,"trial_type":"image-keyboard-response","trial_index":175,"plugin_version":"2.1.0","time_elapsed":329088,"subject_id":"92631","group":"Group2","condition":"3_Rep","full_date":"2026-02-23T18:42:55.672Z","date":"2026-02-23","time":"18:42:55"},{"rt":null,"stimulus":"<p style=\"font-size: 50px; margin: 0; text-align: center;\">+</p>","response":null,"trial_type":"html-keyboard-response","trial_index":176,"plugin_version":"2.1.0","time_elapsed":330098,"subject_id":"92631","group":"Group2","condition":"3_Rep","full_date":"2026-02-23T18:42:55.672Z","date":"2026-02-23","time":"18:42:55"},{"task":"memory_phase","broad_category":"I","image_png":"I_Pumice_13.png","image_id":141,"category_name":"Pumice","category":9,"distinct_rating":3.12,"distinct_type":"Bottom","rt":null,"stimulus":"Stimuli_Rocks480/I_Pumice_13.png","response":null,"trial_type":"image-keyboard-response","trial_index":177,"plugin_version":"2.1.0","time_elapsed":332605,"subject_id":"92631","group":"Group2","condition":"3_Rep","full_date":"2026-02-23T18:42:55.672Z","date":"2026-02-23","time":"18:42:55"},{"rt":null,"stimulus":"<p style=\"font-size: 50px; margin: 0; text-align: center;\">+</p>","response":null,"trial_type":"html-keyboard-response","trial_index":178,"plugin_version":"2.1.0","time_elapsed":333614,"subject_id":"92631","group":"Group2","condition":"3_Rep","full_date":"2026-02-23T18:42:55.672Z","date":"2026-02-23","time":"18:42:55"},{"task":"memory_phase","broad_category":"S","image_png":"S_Conglomerate_14.png","image_id":382,"category_name":"Conglomerate","category":24,"distinct_rating":6.86,"distinct_type":"Top","rt":null,"stimulus":"Stimuli_Rocks480/S_Conglomerate_14.png","response":null,"trial_type":"image-keyboard-response","trial_index":179,"plugin_version":"2.1.0","time_elapsed":336117,"subject_id":"92631","group":"Group2","condition":"3_Rep","full_date":"2026-02-23T18:42:55.672Z","date":"2026-02-23","time":"18:42:55"},{"rt":null,"stimulus":"<p style=\"font-size: 50px; margin: 0; text-align: center;\">+</p>","response":null,"trial_type":"html-keyboard-response","trial_index":180,"plugin_version":"2.1.0","time_elapsed":337130,"subject_id":"92631","group":"Group2","condition":"3_Rep","full_date":"2026-02-23T18:42:55.672Z","date":"2026-02-23","time":"18:42:55"},{"task":"memory_phase","broad_category":"M","image_png":"M_Gneiss_10.png","image_id":202,"category_name":"Gneiss","category":13,"distinct_rating":3.09,"distinct_type":"Bottom","rt":null,"stimulus":"Stimuli_Rocks480/M_Gneiss_10.png","response":null,"trial_type":"image-keyboard-response","trial_index":181,"plugin_version":"2.1.0","time_elapsed":339644,"subject_id":"92631","group":"Group2","condition":"3_Rep","full_date":"2026-02-23T18:42:55.672Z","date":"2026-02-23","time":"18:42:55"},{"rt":null,"stimulus":"<p style=\"font-size: 50px; margin: 0; text-align: center;\">+</p>","response":null,"trial_type":"html-keyboard-response","trial_index":182,"plugin_version":"2.1.0","time_elapsed":340647,"subject_id":"92631","group":"Group2","condition":"3_Rep","full_date":"2026-02-23T18:42:55.672Z","date":"2026-02-23","time":"18:42:55"},{"task":"memory_phase","broad_category":"S","image_png":"S_Shale_03.png","image_id":467,"category_name":"Shale","category":30,"distinct_rating":1.95,"distinct_type":"Bottom","rt":null,"stimulus":"Stimuli_Rocks480/S_Shale_03.png","response":null,"trial_type":"image-keyboard-response","trial_index":183,"plugin_version":"2.1.0","time_elapsed":343157,"subject_id":"92631","group":"Group2","condition":"3_Rep","full_date":"2026-02-23T18:42:55.672Z","date":"2026-02-23","time":"18:42:55"},{"rt":null,"stimulus":"<p style=\"font-size: 50px; margin: 0; text-align: center;\">+</p>","response":null,"trial_type":"html-keyboard-response","trial_index":184,"plugin_version":"2.1.0","time_elapsed":344168,"subject_id":"92631","group":"Group2","condition":"3_Rep","full_date":"2026-02-23T18:42:55.672Z","date":"2026-02-23","time":"18:42:55"},{"task":"memory_phase","broad_category":"M","image_png":"M_Slate_04.png","image_id":308,"category_name":"Slate","category":20,"distinct_rating":2.2,"distinct_type":"Bottom","rt":null,"stimulus":"Stimuli_Rocks480/M_Slate_04.png","response":null,"trial_type":"image-keyboard-response","trial_index":185,"plugin_version":"2.1.0","time_elapsed":346675,"subject_id":"92631","group":"Group2","condition":"3_Rep","full_date":"2026-02-23T18:42:55.672Z","date":"2026-02-23","time":"18:42:55"},{"rt":null,"stimulus":"<p style=\"font-size: 50px; margin: 0; text-align: center;\">+</p>","response":null,"trial_type":"html-keyboard-response","trial_index":186,"plugin_version":"2.1.0","time_elapsed":347688,"subject_id":"92631","group":"Group2","condition":"3_Rep","full_date":"2026-02-23T18:42:55.672Z","date":"2026-02-23","time":"18:42:55"},{"task":"memory_phase","broad_category":"S","image_png":"S_Sandstone_04.png","image_id":452,"category_name":"Sandstone","category":29,"distinct_rating":1.8,"distinct_type":"Bottom","rt":null,"stimulus":"Stimuli_Rocks480/S_Sandstone_04.png","response":null,"trial_type":"image-keyboard-response","trial_index":187,"plugin_version":"2.1.0","time_elapsed":350191,"subject_id":"92631","group":"Group2","condition":"3_Rep","full_date":"2026-02-23T18:42:55.672Z","date":"2026-02-23","time":"18:42:55"},{"rt":null,"stimulus":"<p style=\"font-size: 50px; margin: 0; text-align: center;\">+</p>","response":null,"trial_type":"html-keyboard-response","trial_index":188,"plugin_version":"2.1.0","time_elapsed":351204,"subject_id":"92631","group":"Group2","condition":"3_Rep","full_date":"2026-02-23T18:42:55.672Z","date":"2026-02-23","time":"18:42:55"},{"task":"memory_phase","broad_category":"S","image_png":"S_Shale_02.png","image_id":466,"category_name":"Shale","category":30,"distinct_rating":2.9,"distinct_type":"Bottom","rt":null,"stimulus":"Stimuli_Rocks480/S_Shale_02.png","response":null,"trial_type":"image-keyboard-response","trial_index":189,"plugin_version":"2.1.0","time_elapsed":353713,"subject_id":"92631","group":"Group2","condition":"3_Rep","full_date":"2026-02-23T18:42:55.672Z","date":"2026-02-23","time":"18:42:55"},{"rt":null,"stimulus":"<p style=\"font-size: 50px; margin: 0; text-align: center;\">+</p>","response":null,"trial_type":"html-keyboard-response","trial_index":190,"plugin_version":"2.1.0","time_elapsed":354731,"subject_id":"92631","group":"Group2","condition":"3_Rep","full_date":"2026-02-23T18:42:55.672Z","date":"2026-02-23","time":"18:42:55"},{"task":"memory_phase","broad_category":"M","image_png":"M_Marble_02.png","image_id":226,"category_name":"Marble","category":15,"distinct_rating":3.2,"distinct_type":"Bottom","rt":null,"stimulus":"Stimuli_Rocks480/M_Marble_02.png","response":null,"trial_type":"image-keyboard-response","trial_index":191,"plugin_version":"2.1.0","time_elapsed":357237,"subject_id":"92631","group":"Group2","condition":"3_Rep","full_date":"2026-02-23T18:42:55.672Z","date":"2026-02-23","time":"18:42:55"},{"rt":null,"stimulus":"<p style=\"font-size: 50px; margin: 0; text-align: center;\">+</p>","response":null,"trial_type":"html-keyboard-response","trial_index":192,"plugin_version":"2.1.0","time_elapsed":358253,"subject_id":"92631","group":"Group2","condition":"3_Rep","full_date":"2026-02-23T18:42:55.672Z","date":"2026-02-23","time":"18:42:55"},{"task":"memory_phase","broad_category":"I","image_png":"I_Pumice_01.png","image_id":129,"category_name":"Pumice","category":9,"distinct_rating":3.25,"distinct_type":"Bottom","rt":null,"stimulus":"Stimuli_Rocks480/I_Pumice_01.png","response":null,"trial_type":"image-keyboard-response","trial_index":193,"plugin_version":"2.1.0","time_elapsed":360769,"subject_id":"92631","group":"Group2","condition":"3_Rep","full_date":"2026-02-23T18:42:55.672Z","date":"2026-02-23","time":"18:42:55"},{"rt":null,"stimulus":"<p style=\"font-size: 50px; margin: 0; text-align: center;\">+</p>","response":null,"trial_type":"html-keyboard-response","trial_index":194,"plugin_version":"2.1.0","time_elapsed":361782,"subject_id":"92631","group":"Group2","condition":"3_Rep","full_date":"2026-02-23T18:42:55.672Z","date":"2026-02-23","time":"18:42:55"},{"task":"memory_phase","broad_category":"M","image_png":"M_Slate_10.png","image_id":314,"category_name":"Slate","category":20,"distinct_rating":1.94,"distinct_type":"Bottom","rt":null,"stimulus":"Stimuli_Rocks480/M_Slate_10.png","response":null,"trial_type":"image-keyboard-response","trial_index":195,"plugin_version":"2.1.0","time_elapsed":364294,"subject_id":"92631","group":"Group2","condition":"3_Rep","full_date":"2026-02-23T18:42:55.672Z","date":"2026-02-23","time":"18:42:55"},{"rt":null,"stimulus":"<p style=\"font-size: 50px; margin: 0; text-align: center;\">+</p>","response":null,"trial_type":"html-keyboard-response","trial_index":196,"plugin_version":"2.1.0","time_elapsed":365300,"subject_id":"92631","group":"Group2","condition":"3_Rep","full_date":"2026-02-23T18:42:55.672Z","date":"2026-02-23","time":"18:42:55"},{"task":"memory_phase","broad_category":"S","image_png":"S_Chert_13.png","image_id":365,"category_name":"Chert","category":23,"distinct_rating":6.57,"distinct_type":"Top","rt":null,"stimulus":"Stimuli_Rocks480/S_Chert_13.png","response":null,"trial_type":"image-keyboard-response","trial_index":197,"plugin_version":"2.1.0","time_elapsed":367812,"subject_id":"92631","group":"Group2","condition":"3_Rep","full_date":"2026-02-23T18:42:55.672Z","date":"2026-02-23","time":"18:42:55"},{"rt":null,"stimulus":"<p style=\"font-size: 50px; margin: 0; text-align: center;\">+</p>","response":null,"trial_type":"html-keyboard-response","trial_index":198,"plugin_version":"2.1.0","time_elapsed":368818,"subject_id":"92631","group":"Group2","condition":"3_Rep","full_date":"2026-02-23T18:42:55.672Z","date":"2026-02-23","time":"18:42:55"},{"task":"memory_phase","broad_category":"M","image_png":"M_Gneiss_15.png","image_id":207,"category_name":"Gneiss","category":13,"distinct_rating":3.11,"distinct_type":"Bottom","rt":null,"stimulus":"Stimuli_Rocks480/M_Gneiss_15.png","response":null,"trial_type":"image-keyboard-response","trial_index":199,"plugin_version":"2.1.0","time_elapsed":371326,"subject_id":"92631","group":"Group2","condition":"3_Rep","full_date":"2026-02-23T18:42:55.672Z","date":"2026-02-23","time":"18:42:55"},{"rt":null,"stimulus":"<p style=\"font-size: 50px; margin: 0; text-align: center;\">+</p>","response":null,"trial_type":"html-keyboard-response","trial_index":200,"plugin_version":"2.1.0","time_elapsed":372329,"subject_id":"92631","group":"Group2","condition":"3_Rep","full_date":"2026-02-23T18:42:55.672Z","date":"2026-02-23","time":"18:42:55"},{"task":"memory_phase","broad_category":"S","image_png":"S_Dolomite_07.png","image_id":391,"category_name":"Dolomite","category":25,"distinct_rating":1.73,"distinct_type":"Bottom","rt":null,"stimulus":"Stimuli_Rocks480/S_Dolomite_07.png","response":null,"trial_type":"image-keyboard-response","trial_index":201,"plugin_version":"2.1.0","time_elapsed":374845,"subject_id":"92631","group":"Group2","condition":"3_Rep","full_date":"2026-02-23T18:42:55.672Z","date":"2026-02-23","time":"18:42:55"},{"rt":null,"stimulus":"<p style=\"font-size: 50px; margin: 0; text-align: center;\">+</p>","response":null,"trial_type":"html-keyboard-response","trial_index":202,"plugin_version":"2.1.0","time_elapsed":375847,"subject_id":"92631","group":"Group2","condition":"3_Rep","full_date":"2026-02-23T18:42:55.672Z","date":"2026-02-23","time":"18:42:55"},{"task":"memory_phase","broad_category":"I","image_png":"I_Andesite_09.png","image_id":9,"category_name":"Andesite","category":1,"distinct_rating":2.49,"distinct_type":"Bottom","rt":null,"stimulus":"Stimuli_Rocks480/I_Andesite_09.png","response":null,"trial_type":"image-keyboard-response","trial_index":203,"plugin_version":"2.1.0","time_elapsed":378362,"subject_id":"92631","group":"Group2","condition":"3_Rep","full_date":"2026-02-23T18:42:55.672Z","date":"2026-02-23","time":"18:42:55"},{"rt":null,"stimulus":"<p style=\"font-size: 50px; margin: 0; text-align: center;\">+</p>","response":null,"trial_type":"html-keyboard-response","trial_index":204,"plugin_version":"2.1.0","time_elapsed":379366,"subject_id":"92631","group":"Group2","condition":"3_Rep","full_date":"2026-02-23T18:42:55.672Z","date":"2026-02-23","time":"18:42:55"},{"task":"memory_phase","broad_category":"M","image_png":"M_Quartzite_12.png","image_id":284,"category_name":"Quartzite","category":18,"distinct_rating":1.92,"distinct_type":"Bottom","rt":null,"stimulus":"Stimuli_Rocks480/M_Quartzite_12.png","response":null,"trial_type":"image-keyboard-response","trial_index":205,"plugin_version":"2.1.0","time_elapsed":381875,"subject_id":"92631","group":"Group2","condition":"3_Rep","full_date":"2026-02-23T18:42:55.672Z","date":"2026-02-23","time":"18:42:55"},{"rt":null,"stimulus":"<p style=\"font-size: 50px; margin: 0; text-align: center;\">+</p>","response":null,"trial_type":"html-keyboard-response","trial_index":206,"plugin_version":"2.1.0","time_elapsed":382882,"subject_id":"92631","group":"Group2","condition":"3_Rep","full_date":"2026-02-23T18:42:55.672Z","date":"2026-02-23","time":"18:42:55"},{"task":"memory_phase","broad_category":"I","image_png":"I_Basalt_10.png","image_id":26,"category_name":"Basalt","category":2,"distinct_rating":2.76,"distinct_type":"Bottom","rt":null,"stimulus":"Stimuli_Rocks480/I_Basalt_10.png","response":null,"trial_type":"image-keyboard-response","trial_index":207,"plugin_version":"2.1.0","time_elapsed":385400,"subject_id":"92631","group":"Group2","condition":"3_Rep","full_date":"2026-02-23T18:42:55.672Z","date":"2026-02-23","time":"18:42:55"},{"rt":3995,"stimulus":"<p style=\"max-width: 760px; margin: auto; font-size: 35px; line-height: 1.5;\">\n                You have completed 2 study phases. \n                Now, we'll show you all the images again 1 more time.\n                <br><br>Press SPACE to continue\n              </p>","response":" ","trial_type":"html-keyboard-response","trial_index":208,"plugin_version":"2.1.0","time_elapsed":389395,"subject_id":"92631","group":"Group2","condition":"3_Rep","full_date":"2026-02-23T18:42:55.672Z","date":"2026-02-23","time":"18:42:55"},{"rt":null,"stimulus":"<p style=\"font-size: 50px; margin: 0; text-align: center;\">+</p>","response":null,"trial_type":"html-keyboard-response","trial_index":209,"plugin_version":"2.1.0","time_elapsed":390400,"subject_id":"92631","group":"Group2","condition":"3_Rep","full_date":"2026-02-23T18:42:55.672Z","date":"2026-02-23","time":"18:42:55"},{"task":"memory_phase","broad_category":"S","image_png":"S_Sandstone_08.png","image_id":456,"category_name":"Sandstone","category":29,"distinct_rating":1.5,"distinct_type":"Bottom","rt":null,"stimulus":"Stimuli_Rocks480/S_Sandstone_08.png","response":null,"trial_type":"image-keyboard-response","trial_index":210,"plugin_version":"2.1.0","time_elapsed":392916,"subject_id":"92631","group":"Group2","condition":"3_Rep","full_date":"2026-02-23T18:42:55.672Z","date":"2026-02-23","time":"18:42:55"},{"rt":null,"stimulus":"<p style=\"font-size: 50px; margin: 0; text-align: center;\">+</p>","response":null,"trial_type":"html-keyboard-response","trial_index":211,"plugin_version":"2.1.0","time_elapsed":393928,"subject_id":"92631","group":"Group2","condition":"3_Rep","full_date":"2026-02-23T18:42:55.672Z","date":"2026-02-23","time":"18:42:55"},{"task":"memory_phase","broad_category":"M","image_png":"M_Slate_04.png","image_id":308,"category_name":"Slate","category":20,"distinct_rating":2.2,"distinct_type":"Bottom","rt":null,"stimulus":"Stimuli_Rocks480/M_Slate_04.png","response":null,"trial_type":"image-keyboard-response","trial_index":212,"plugin_version":"2.1.0","time_elapsed":396433,"subject_id":"92631","group":"Group2","condition":"3_Rep","full_date":"2026-02-23T18:42:55.672Z","date":"2026-02-23","time":"18:42:55"},{"rt":null,"stimulus":"<p style=\"font-size: 50px; margin: 0; text-align: center;\">+</p>","response":null,"trial_type":"html-keyboard-response","trial_index":213,"plugin_version":"2.1.0","time_elapsed":397445,"subject_id":"92631","group":"Group2","condition":"3_Rep","full_date":"2026-02-23T18:42:55.672Z","date":"2026-02-23","time":"18:42:55"},{"task":"memory_phase","broad_category":"I","image_png":"I_Rhyolite_08.png","image_id":152,"category_name":"Rhyolite","category":10,"distinct_rating":1.38,"distinct_type":"Bottom","rt":null,"stimulus":"Stimuli_Rocks480/I_Rhyolite_08.png","response":null,"trial_type":"image-keyboard-response","trial_index":214,"plugin_version":"2.1.0","time_elapsed":399948,"subject_id":"92631","group":"Group2","condition":"3_Rep","full_date":"2026-02-23T18:42:55.672Z","date":"2026-02-23","time":"18:42:55"},{"rt":null,"stimulus":"<p style=\"font-size: 50px; margin: 0; text-align: center;\">+</p>","response":null,"trial_type":"html-keyboard-response","trial_index":215,"plugin_version":"2.1.0","time_elapsed":400961,"subject_id":"92631","group":"Group2","condition":"3_Rep","full_date":"2026-02-23T18:42:55.672Z","date":"2026-02-23","time":"18:42:55"},{"task":"memory_phase","broad_category":"I","image_png":"I_Andesite_03.png","image_id":3,"category_name":"Andesite","category":1,"distinct_rating":3.17,"distinct_type":"Bottom","rt":null,"stimulus":"Stimuli_Rocks480/I_Andesite_03.png","response":null,"trial_type":"image-keyboard-response","trial_index":216,"plugin_version":"2.1.0","time_elapsed":403467,"subject_id":"92631","group":"Group2","condition":"3_Rep","full_date":"2026-02-23T18:42:55.672Z","date":"2026-02-23","time":"18:42:55"},{"rt":null,"stimulus":"<p style=\"font-size: 50px; margin: 0; text-align: center;\">+</p>","response":null,"trial_type":"html-keyboard-response","trial_index":217,"plugin_version":"2.1.0","time_elapsed":404480,"subject_id":"92631","group":"Group2","condition":"3_Rep","full_date":"2026-02-23T18:42:55.672Z","date":"2026-02-23","time":"18:42:55"},{"task":"memory_phase","broad_category":"I","image_png":"I_Pegmatite_11.png","image_id":107,"category_name":"Pegmatite","category":7,"distinct_rating":7.11,"distinct_type":"Top","rt":null,"stimulus":"Stimuli_Rocks480/I_Pegmatite_11.png","response":null,"trial_type":"image-keyboard-response","trial_index":218,"plugin_version":"2.1.0","time_elapsed":406992,"subject_id":"92631","group":"Group2","condition":"3_Rep","full_date":"2026-02-23T18:42:55.672Z","date":"2026-02-23","time":"18:42:55"},{"rt":null,"stimulus":"<p style=\"font-size: 50px; margin: 0; text-align: center;\">+</p>","response":null,"trial_type":"html-keyboard-response","trial_index":219,"plugin_version":"2.1.0","time_elapsed":408001,"subject_id":"92631","group":"Group2","condition":"3_Rep","full_date":"2026-02-23T18:42:55.672Z","date":"2026-02-23","time":"18:42:55"},{"task":"memory_phase","broad_category":"I","image_png":"I_Gabbro_12.png","image_id":60,"category_name":"Gabbro","category":4,"distinct_rating":2.6,"distinct_type":"Bottom","rt":null,"stimulus":"Stimuli_Rocks480/I_Gabbro_12.png","response":null,"trial_type":"image-keyboard-response","trial_index":220,"plugin_version":"2.1.0","time_elapsed":410517,"subject_id":"92631","group":"Group2","condition":"3_Rep","full_date":"2026-02-23T18:42:55.672Z","date":"2026-02-23","time":"18:42:55"},{"rt":null,"stimulus":"<p style=\"font-size: 50px; margin: 0; text-align: center;\">+</p>","response":null,"trial_type":"html-keyboard-response","trial_index":221,"plugin_version":"2.1.0","time_elapsed":411525,"subject_id":"92631","group":"Group2","condition":"3_Rep","full_date":"2026-02-23T18:42:55.672Z","date":"2026-02-23","time":"18:42:55"},{"task":"memory_phase","broad_category":"M","image_png":"M_Marble_03.png","image_id":227,"category_name":"Marble","category":15,"distinct_rating":2.67,"distinct_type":"Bottom","rt":null,"stimulus":"Stimuli_Rocks480/M_Marble_03.png","response":null,"trial_type":"image-keyboard-response","trial_index":222,"plugin_version":"2.1.0","time_elapsed":414028,"subject_id":"92631","group":"Group2","condition":"3_Rep","full_date":"2026-02-23T18:42:55.672Z","date":"2026-02-23","time":"18:42:55"},{"rt":null,"stimulus":"<p style=\"font-size: 50px; margin: 0; text-align: center;\">+</p>","response":null,"trial_type":"html-keyboard-response","trial_index":223,"plugin_version":"2.1.0","time_elapsed":415030,"subject_id":"92631","group":"Group2","condition":"3_Rep","full_date":"2026-02-23T18:42:55.672Z","date":"2026-02-23","time":"18:42:55"},{"task":"memory_phase","broad_category":"M","image_png":"M_Gneiss_10.png","image_id":202,"category_name":"Gneiss","category":13,"distinct_rating":3.09,"distinct_type":"Bottom","rt":null,"stimulus":"Stimuli_Rocks480/M_Gneiss_10.png","response":null,"trial_type":"image-keyboard-response","trial_index":224,"plugin_version":"2.1.0","time_elapsed":417548,"subject_id":"92631","group":"Group2","condition":"3_Rep","full_date":"2026-02-23T18:42:55.672Z","date":"2026-02-23","time":"18:42:55"},{"rt":null,"stimulus":"<p style=\"font-size: 50px; margin: 0; text-align: center;\">+</p>","response":null,"trial_type":"html-keyboard-response","trial_index":225,"plugin_version":"2.1.0","time_elapsed":418559,"subject_id":"92631","group":"Group2","condition":"3_Rep","full_date":"2026-02-23T18:42:55.672Z","date":"2026-02-23","time":"18:42:55"},{"task":"memory_phase","broad_category":"S","image_png":"S_Rock Salt_13.png","image_id":445,"category_name":"Rock Salt","category":28,"distinct_rating":7.58,"distinct_type":"Top","rt":null,"stimulus":"Stimuli_Rocks480/S_Rock Salt_13.png","response":null,"trial_type":"image-keyboard-response","trial_index":226,"plugin_version":"2.1.0","time_elapsed":421068,"subject_id":"92631","group":"Group2","condition":"3_Rep","full_date":"2026-02-23T18:42:55.672Z","date":"2026-02-23","time":"18:42:55"},{"rt":null,"stimulus":"<p style=\"font-size: 50px; margin: 0; text-align: center;\">+</p>","response":null,"trial_type":"html-keyboard-response","trial_index":227,"plugin_version":"2.1.0","time_elapsed":422084,"subject_id":"92631","group":"Group2","condition":"3_Rep","full_date":"2026-02-23T18:42:55.672Z","date":"2026-02-23","time":"18:42:55"},{"task":"memory_phase","broad_category":"M","image_png":"M_Slate_14.png","image_id":318,"category_name":"Slate","category":20,"distinct_rating":2.58,"distinct_type":"Bottom","rt":null,"stimulus":"Stimuli_Rocks480/M_Slate_14.png","response":null,"trial_type":"image-keyboard-response","trial_index":228,"plugin_version":"2.1.0","time_elapsed":424602,"subject_id":"92631","group":"Group2","condition":"3_Rep","full_date":"2026-02-23T18:42:55.672Z","date":"2026-02-23","time":"18:42:55"},{"rt":null,"stimulus":"<p style=\"font-size: 50px; margin: 0; text-align: center;\">+</p>","response":null,"trial_type":"html-keyboard-response","trial_index":229,"plugin_version":"2.1.0","time_elapsed":425608,"subject_id":"92631","group":"Group2","condition":"3_Rep","full_date":"2026-02-23T18:42:55.672Z","date":"2026-02-23","time":"18:42:55"},{"task":"memory_phase","broad_category":"I","image_png":"I_Andesite_04.png","image_id":4,"category_name":"Andesite","category":1,"distinct_rating":3.18,"distinct_type":"Bottom","rt":null,"stimulus":"Stimuli_Rocks480/I_Andesite_04.png","response":null,"trial_type":"image-keyboard-response","trial_index":230,"plugin_version":"2.1.0","time_elapsed":428113,"subject_id":"92631","group":"Group2","condition":"3_Rep","full_date":"2026-02-23T18:42:55.672Z","date":"2026-02-23","time":"18:42:55"},{"rt":null,"stimulus":"<p style=\"font-size: 50px; margin: 0; text-align: center;\">+</p>","response":null,"trial_type":"html-keyboard-response","trial_index":231,"plugin_version":"2.1.0","time_elapsed":429129,"subject_id":"92631","group":"Group2","condition":"3_Rep","full_date":"2026-02-23T18:42:55.672Z","date":"2026-02-23","time":"18:42:55"},{"task":"memory_phase","broad_category":"S","image_png":"S_Sandstone_04.png","image_id":452,"category_name":"Sandstone","category":29,"distinct_rating":1.8,"distinct_type":"Bottom","rt":null,"stimulus":"Stimuli_Rocks480/S_Sandstone_04.png","response":null,"trial_type":"image-keyboard-response","trial_index":232,"plugin_version":"2.1.0","time_elapsed":431646,"subject_id":"92631","group":"Group2","condition":"3_Rep","full_date":"2026-02-23T18:42:55.672Z","date":"2026-02-23","time":"18:42:55"},{"rt":null,"stimulus":"<p style=\"font-size: 50px; margin: 0; text-align: center;\">+</p>","response":null,"trial_type":"html-keyboard-response","trial_index":233,"plugin_version":"2.1.0","time_elapsed":432651,"subject_id":"92631","group":"Group2","condition":"3_Rep","full_date":"2026-02-23T18:42:55.672Z","date":"2026-02-23","time":"18:42:55"},{"task":"memory_phase","broad_category":"I","image_png":"I_Pumice_13.png","image_id":141,"category_name":"Pumice","category":9,"distinct_rating":3.12,"distinct_type":"Bottom","rt":null,"stimulus":"Stimuli_Rocks480/I_Pumice_13.png","response":null,"trial_type":"image-keyboard-response","trial_index":234,"plugin_version":"2.1.0","time_elapsed":435169,"subject_id":"92631","group":"Group2","condition":"3_Rep","full_date":"2026-02-23T18:42:55.672Z","date":"2026-02-23","time":"18:42:55"},{"rt":null,"stimulus":"<p style=\"font-size: 50px; margin: 0; text-align: center;\">+</p>","response":null,"trial_type":"html-keyboard-response","trial_index":235,"plugin_version":"2.1.0","time_elapsed":436183,"subject_id":"92631","group":"Group2","condition":"3_Rep","full_date":"2026-02-23T18:42:55.672Z","date":"2026-02-23","time":"18:42:55"},{"task":"memory_phase","broad_category":"I","image_png":"I_Basalt_10.png","image_id":26,"category_name":"Basalt","category":2,"distinct_rating":2.76,"distinct_type":"Bottom","rt":null,"stimulus":"Stimuli_Rocks480/I_Basalt_10.png","