[{"width":1280,"height":671,"webaudio":true,"browser":"edge-chromium","browser_version":"145.0.0","mobile":false,"os":"Windows 10","fullscreen":true,"vsync_rate":61.62,"webcam":true,"microphone":true,"trial_type":"browser-check","trial_index":0,"plugin_version":"2.1.0","time_elapsed":1016,"subject_id":"90768","group":"Group2","condition":"1_Rep","full_date":"2026-03-04T18:34:00.404Z","date":"2026-03-04","time":"18:34:00"},{"success":true,"timeout":false,"failed_images":[],"failed_audio":[],"failed_video":[],"trial_type":"preload","trial_index":1,"plugin_version":"2.1.0","time_elapsed":4808,"subject_id":"90768","group":"Group2","condition":"1_Rep","full_date":"2026-03-04T18:34:00.404Z","date":"2026-03-04","time":"18:34:00"},{"rt":5137,"url":"SONA_consent_memorability.html","trial_type":"external-html","trial_index":2,"plugin_version":"2.1.0","time_elapsed":10048,"subject_id":"90768","group":"Group2","condition":"1_Rep","full_date":"2026-03-04T18:34:00.404Z","date":"2026-03-04","time":"18:34:00"},{"success":true,"rt":1492,"trial_type":"fullscreen","trial_index":3,"plugin_version":"2.1.0","time_elapsed":12553,"subject_id":"90768","group":"Group2","condition":"1_Rep","full_date":"2026-03-04T18:34:00.404Z","date":"2026-03-04","time":"18:34:00"},{"rt":26124,"stimulus":"<div style=\"max-width: 760px; margin: auto; font-size: 20px; line-height: 1.5;\">\n      <h1 style=\"text-align:center; font-size: 30px;\">Instructions</h1>\n      <p>\n        Welcome to the study on <b>visual memory</b>. This experiment consists of <b>two phases</b>: \n        a <b>study phase</b> and a <b>test phase</b>.\n      </p>\n      <p>\n        In the study phase, you will see a series of rock images along with their category labels.\n        The images will appear one at a time.\n        <b>Your task</b> is to learn the categories to which the rock images belong \n        and to remember each image as accurately as possible.\n      </p> \n      <p>\n        Note that you will see each image only <b>once</b> during the study phase. \n          So, please pay close attention and try to remember each image carefully.\n      </p>\n      <p>\n        After the study phase, <b>your memory will be tested</b>. \n        Additional instructions for the test phase will be provided at that time.\n      </p>\n      <p>\n        If your computer has multiple <b>language settings</b> (e.g., English and another language),\n        please make sure it is set to English before starting.\n      </p>\n      <p>\n        You can track your progress using the <b>completion bar</b> at the top of the screen. \n        Please note that the bar will refresh when the test phase begins \n        to give you an accurate sense of your progress in both phases.\n      </p> \n      <p>\n        Press the button below when you are ready to begin.\n      </p>\n    </div>","response":0,"trial_type":"html-button-response","trial_index":4,"plugin_version":"2.1.0","time_elapsed":38681,"subject_id":"90768","group":"Group2","condition":"1_Rep","full_date":"2026-03-04T18:34:00.404Z","date":"2026-03-04","time":"18:34:00"},{"rt":null,"stimulus":"<p style=\"font-size: 50px; margin: 0; text-align: center;\">+</p>","response":null,"trial_type":"html-keyboard-response","trial_index":5,"plugin_version":"2.1.0","time_elapsed":39686,"subject_id":"90768","group":"Group2","condition":"1_Rep","full_date":"2026-03-04T18:34:00.404Z","date":"2026-03-04","time":"18:34:00"},{"task":"memory_phase","broad_category":"S","image_png":"S_Dolomite_01.png","image_id":385,"category_name":"Dolomite","category":25,"distinct_rating":1.43,"distinct_type":"Bottom","rt":null,"stimulus":"Stimuli_Rocks480/S_Dolomite_01.png","response":null,"trial_type":"image-keyboard-response","trial_index":6,"plugin_version":"2.1.0","time_elapsed":42197,"subject_id":"90768","group":"Group2","condition":"1_Rep","full_date":"2026-03-04T18:34:00.404Z","date":"2026-03-04","time":"18:34:00"},{"rt":null,"stimulus":"<p style=\"font-size: 50px; margin: 0; text-align: center;\">+</p>","response":null,"trial_type":"html-keyboard-response","trial_index":7,"plugin_version":"2.1.0","time_elapsed":43200,"subject_id":"90768","group":"Group2","condition":"1_Rep","full_date":"2026-03-04T18:34:00.404Z","date":"2026-03-04","time":"18:34:00"},{"task":"memory_phase","broad_category":"S","image_png":"S_Shale_02.png","image_id":466,"category_name":"Shale","category":30,"distinct_rating":2.9,"distinct_type":"Bottom","rt":null,"stimulus":"Stimuli_Rocks480/S_Shale_02.png","response":null,"trial_type":"image-keyboard-response","trial_index":8,"plugin_version":"2.1.0","time_elapsed":45709,"subject_id":"90768","group":"Group2","condition":"1_Rep","full_date":"2026-03-04T18:34:00.404Z","date":"2026-03-04","time":"18:34:00"},{"rt":null,"stimulus":"<p style=\"font-size: 50px; margin: 0; text-align: center;\">+</p>","response":null,"trial_type":"html-keyboard-response","trial_index":9,"plugin_version":"2.1.0","time_elapsed":46712,"subject_id":"90768","group":"Group2","condition":"1_Rep","full_date":"2026-03-04T18:34:00.404Z","date":"2026-03-04","time":"18:34:00"},{"task":"memory_phase","broad_category":"M","image_png":"M_Marble_02.png","image_id":226,"category_name":"Marble","category":15,"distinct_rating":3.2,"distinct_type":"Bottom","rt":null,"stimulus":"Stimuli_Rocks480/M_Marble_02.png","response":null,"trial_type":"image-keyboard-response","trial_index":10,"plugin_version":"2.1.0","time_elapsed":49227,"subject_id":"90768","group":"Group2","condition":"1_Rep","full_date":"2026-03-04T18:34:00.404Z","date":"2026-03-04","time":"18:34:00"},{"rt":null,"stimulus":"<p style=\"font-size: 50px; margin: 0; text-align: center;\">+</p>","response":null,"trial_type":"html-keyboard-response","trial_index":11,"plugin_version":"2.1.0","time_elapsed":50248,"subject_id":"90768","group":"Group2","condition":"1_Rep","full_date":"2026-03-04T18:34:00.404Z","date":"2026-03-04","time":"18:34:00"},{"task":"memory_phase","broad_category":"S","image_png":"S_Sandstone_04.png","image_id":452,"category_name":"Sandstone","category":29,"distinct_rating":1.8,"distinct_type":"Bottom","rt":null,"stimulus":"Stimuli_Rocks480/S_Sandstone_04.png","response":null,"trial_type":"image-keyboard-response","trial_index":12,"plugin_version":"2.1.0","time_elapsed":52752,"subject_id":"90768","group":"Group2","condition":"1_Rep","full_date":"2026-03-04T18:34:00.404Z","date":"2026-03-04","time":"18:34:00"},{"rt":null,"stimulus":"<p style=\"font-size: 50px; margin: 0; text-align: center;\">+</p>","response":null,"trial_type":"html-keyboard-response","trial_index":13,"plugin_version":"2.1.0","time_elapsed":53757,"subject_id":"90768","group":"Group2","condition":"1_Rep","full_date":"2026-03-04T18:34:00.404Z","date":"2026-03-04","time":"18:34:00"},{"task":"memory_phase","broad_category":"I","image_png":"I_Pumice_13.png","image_id":141,"category_name":"Pumice","category":9,"distinct_rating":3.12,"distinct_type":"Bottom","rt":null,"stimulus":"Stimuli_Rocks480/I_Pumice_13.png","response":null,"trial_type":"image-keyboard-response","trial_index":14,"plugin_version":"2.1.0","time_elapsed":56275,"subject_id":"90768","group":"Group2","condition":"1_Rep","full_date":"2026-03-04T18:34:00.404Z","date":"2026-03-04","time":"18:34:00"},{"rt":null,"stimulus":"<p style=\"font-size: 50px; margin: 0; text-align: center;\">+</p>","response":null,"trial_type":"html-keyboard-response","trial_index":15,"plugin_version":"2.1.0","time_elapsed":57289,"subject_id":"90768","group":"Group2","condition":"1_Rep","full_date":"2026-03-04T18:34:00.404Z","date":"2026-03-04","time":"18:34:00"},{"task":"memory_phase","broad_category":"S","image_png":"S_Conglomerate_14.png","image_id":382,"category_name":"Conglomerate","category":24,"distinct_rating":6.86,"distinct_type":"Top","rt":null,"stimulus":"Stimuli_Rocks480/S_Conglomerate_14.png","response":null,"trial_type":"image-keyboard-response","trial_index":16,"plugin_version":"2.1.0","time_elapsed":59798,"subject_id":"90768","group":"Group2","condition":"1_Rep","full_date":"2026-03-04T18:34:00.404Z","date":"2026-03-04","time":"18:34:00"},{"rt":null,"stimulus":"<p style=\"font-size: 50px; margin: 0; text-align: center;\">+</p>","response":null,"trial_type":"html-keyboard-response","trial_index":17,"plugin_version":"2.1.0","time_elapsed":60802,"subject_id":"90768","group":"Group2","condition":"1_Rep","full_date":"2026-03-04T18:34:00.404Z","date":"2026-03-04","time":"18:34:00"},{"task":"memory_phase","broad_category":"M","image_png":"M_Quartzite_15.png","image_id":287,"category_name":"Quartzite","category":18,"distinct_rating":2.19,"distinct_type":"Bottom","rt":null,"stimulus":"Stimuli_Rocks480/M_Quartzite_15.png","response":null,"trial_type":"image-keyboard-response","trial_index":18,"plugin_version":"2.1.0","time_elapsed":63316,"subject_id":"90768","group":"Group2","condition":"1_Rep","full_date":"2026-03-04T18:34:00.404Z","date":"2026-03-04","time":"18:34:00"},{"rt":null,"stimulus":"<p style=\"font-size: 50px; margin: 0; text-align: center;\">+</p>","response":null,"trial_type":"html-keyboard-response","trial_index":19,"plugin_version":"2.1.0","time_elapsed":64326,"subject_id":"90768","group":"Group2","condition":"1_Rep","full_date":"2026-03-04T18:34:00.404Z","date":"2026-03-04","time":"18:34:00"},{"task":"memory_phase","broad_category":"S","image_png":"S_Chert_13.png","image_id":365,"category_name":"Chert","category":23,"distinct_rating":6.57,"distinct_type":"Top","rt":null,"stimulus":"Stimuli_Rocks480/S_Chert_13.png","response":null,"trial_type":"image-keyboard-response","trial_index":20,"plugin_version":"2.1.0","time_elapsed":66842,"subject_id":"90768","group":"Group2","condition":"1_Rep","full_date":"2026-03-04T18:34:00.404Z","date":"2026-03-04","time":"18:34:00"},{"rt":null,"stimulus":"<p style=\"font-size: 50px; margin: 0; text-align: center;\">+</p>","response":null,"trial_type":"html-keyboard-response","trial_index":21,"plugin_version":"2.1.0","time_elapsed":67850,"subject_id":"90768","group":"Group2","condition":"1_Rep","full_date":"2026-03-04T18:34:00.404Z","date":"2026-03-04","time":"18:34:00"},{"task":"memory_phase","broad_category":"I","image_png":"I_Pumice_01.png","image_id":129,"category_name":"Pumice","category":9,"distinct_rating":3.25,"distinct_type":"Bottom","rt":null,"stimulus":"Stimuli_Rocks480/I_Pumice_01.png","response":null,"trial_type":"image-keyboard-response","trial_index":22,"plugin_version":"2.1.0","time_elapsed":70369,"subject_id":"90768","group":"Group2","condition":"1_Rep","full_date":"2026-03-04T18:34:00.404Z","date":"2026-03-04","time":"18:34:00"},{"rt":null,"stimulus":"<p style=\"font-size: 50px; margin: 0; text-align: center;\">+</p>","response":null,"trial_type":"html-keyboard-response","trial_index":23,"plugin_version":"2.1.0","time_elapsed":71380,"subject_id":"90768","group":"Group2","condition":"1_Rep","full_date":"2026-03-04T18:34:00.404Z","date":"2026-03-04","time":"18:34:00"},{"task":"memory_phase","broad_category":"S","image_png":"S_Sandstone_11.png","image_id":459,"category_name":"Sandstone","category":29,"distinct_rating":1.82,"distinct_type":"Bottom","rt":null,"stimulus":"Stimuli_Rocks480/S_Sandstone_11.png","response":null,"trial_type":"image-keyboard-response","trial_index":24,"plugin_version":"2.1.0","time_elapsed":73890,"subject_id":"90768","group":"Group2","condition":"1_Rep","full_date":"2026-03-04T18:34:00.404Z","date":"2026-03-04","time":"18:34:00"},{"rt":null,"stimulus":"<p style=\"font-size: 50px; margin: 0; text-align: center;\">+</p>","response":null,"trial_type":"html-keyboard-response","trial_index":25,"plugin_version":"2.1.0","time_elapsed":74905,"subject_id":"90768","group":"Group2","condition":"1_Rep","full_date":"2026-03-04T18:34:00.404Z","date":"2026-03-04","time":"18:34:00"},{"task":"memory_phase","broad_category":"I","image_png":"I_Andesite_03.png","image_id":3,"category_name":"Andesite","category":1,"distinct_rating":3.17,"distinct_type":"Bottom","rt":null,"stimulus":"Stimuli_Rocks480/I_Andesite_03.png","response":null,"trial_type":"image-keyboard-response","trial_index":26,"plugin_version":"2.1.0","time_elapsed":77421,"subject_id":"90768","group":"Group2","condition":"1_Rep","full_date":"2026-03-04T18:34:00.404Z","date":"2026-03-04","time":"18:34:00"},{"rt":null,"stimulus":"<p style=\"font-size: 50px; margin: 0; text-align: center;\">+</p>","response":null,"trial_type":"html-keyboard-response","trial_index":27,"plugin_version":"2.1.0","time_elapsed":78430,"subject_id":"90768","group":"Group2","condition":"1_Rep","full_date":"2026-03-04T18:34:00.404Z","date":"2026-03-04","time":"18:34:00"},{"task":"memory_phase","broad_category":"S","image_png":"S_Sandstone_08.png","image_id":456,"category_name":"Sandstone","category":29,"distinct_rating":1.5,"distinct_type":"Bottom","rt":null,"stimulus":"Stimuli_Rocks480/S_Sandstone_08.png","response":null,"trial_type":"image-keyboard-response","trial_index":28,"plugin_version":"2.1.0","time_elapsed":80936,"subject_id":"90768","group":"Group2","condition":"1_Rep","full_date":"2026-03-04T18:34:00.404Z","date":"2026-03-04","time":"18:34:00"},{"rt":null,"stimulus":"<p style=\"font-size: 50px; margin: 0; text-align: center;\">+</p>","response":null,"trial_type":"html-keyboard-response","trial_index":29,"plugin_version":"2.1.0","time_elapsed":81948,"subject_id":"90768","group":"Group2","condition":"1_Rep","full_date":"2026-03-04T18:34:00.404Z","date":"2026-03-04","time":"18:34:00"},{"task":"memory_phase","broad_category":"M","image_png":"M_Phyllite_13.png","image_id":269,"category_name":"Phyllite","category":17,"distinct_rating":2.8,"distinct_type":"Bottom","rt":null,"stimulus":"Stimuli_Rocks480/M_Phyllite_13.png","response":null,"trial_type":"image-keyboard-response","trial_index":30,"plugin_version":"2.1.0","time_elapsed":84454,"subject_id":"90768","group":"Group2","condition":"1_Rep","full_date":"2026-03-04T18:34:00.404Z","date":"2026-03-04","time":"18:34:00"},{"rt":null,"stimulus":"<p style=\"font-size: 50px; margin: 0; text-align: center;\">+</p>","response":null,"trial_type":"html-keyboard-response","trial_index":31,"plugin_version":"2.1.0","time_elapsed":85470,"subject_id":"90768","group":"Group2","condition":"1_Rep","full_date":"2026-03-04T18:34:00.404Z","date":"2026-03-04","time":"18:34:00"},{"task":"memory_phase","broad_category":"I","image_png":"I_Rhyolite_08.png","image_id":152,"category_name":"Rhyolite","category":10,"distinct_rating":1.38,"distinct_type":"Bottom","rt":null,"stimulus":"Stimuli_Rocks480/I_Rhyolite_08.png","response":null,"trial_type":"image-keyboard-response","trial_index":32,"plugin_version":"2.1.0","time_elapsed":87985,"subject_id":"90768","group":"Group2","condition":"1_Rep","full_date":"2026-03-04T18:34:00.404Z","date":"2026-03-04","time":"18:34:00"},{"rt":null,"stimulus":"<p style=\"font-size: 50px; margin: 0; text-align: center;\">+</p>","response":null,"trial_type":"html-keyboard-response","trial_index":33,"plugin_version":"2.1.0","time_elapsed":88989,"subject_id":"90768","group":"Group2","condition":"1_Rep","full_date":"2026-03-04T18:34:00.404Z","date":"2026-03-04","time":"18:34:00"},{"task":"memory_phase","broad_category":"M","image_png":"M_Gneiss_10.png","image_id":202,"category_name":"Gneiss","category":13,"distinct_rating":3.09,"distinct_type":"Bottom","rt":null,"stimulus":"Stimuli_Rocks480/M_Gneiss_10.png","response":null,"trial_type":"image-keyboard-response","trial_index":34,"plugin_version":"2.1.0","time_elapsed":91493,"subject_id":"90768","group":"Group2","condition":"1_Rep","full_date":"2026-03-04T18:34:00.404Z","date":"2026-03-04","time":"18:34:00"},{"rt":null,"stimulus":"<p style=\"font-size: 50px; margin: 0; text-align: center;\">+</p>","response":null,"trial_type":"html-keyboard-response","trial_index":35,"plugin_version":"2.1.0","time_elapsed":92498,"subject_id":"90768","group":"Group2","condition":"1_Rep","full_date":"2026-03-04T18:34:00.404Z","date":"2026-03-04","time":"18:34:00"},{"task":"memory_phase","broad_category":"I","image_png":"I_Gabbro_02.png","image_id":50,"category_name":"Gabbro","category":4,"distinct_rating":2.73,"distinct_type":"Bottom","rt":null,"stimulus":"Stimuli_Rocks480/I_Gabbro_02.png","response":null,"trial_type":"image-keyboard-response","trial_index":36,"plugin_version":"2.1.0","time_elapsed":95015,"subject_id":"90768","group":"Group2","condition":"1_Rep","full_date":"2026-03-04T18:34:00.404Z","date":"2026-03-04","time":"18:34:00"},{"rt":null,"stimulus":"<p style=\"font-size: 50px; margin: 0; text-align: center;\">+</p>","response":null,"trial_type":"html-keyboard-response","trial_index":37,"plugin_version":"2.1.0","time_elapsed":96019,"subject_id":"90768","group":"Group2","condition":"1_Rep","full_date":"2026-03-04T18:34:00.404Z","date":"2026-03-04","time":"18:34:00"},{"task":"memory_phase","broad_category":"I","image_png":"I_Pumice_14.png","image_id":142,"category_name":"Pumice","category":9,"distinct_rating":3.22,"distinct_type":"Bottom","rt":null,"stimulus":"Stimuli_Rocks480/I_Pumice_14.png","response":null,"trial_type":"image-keyboard-response","trial_index":38,"plugin_version":"2.1.0","time_elapsed":98527,"subject_id":"90768","group":"Group2","condition":"1_Rep","full_date":"2026-03-04T18:34:00.404Z","date":"2026-03-04","time":"18:34:00"},{"rt":null,"stimulus":"<p style=\"font-size: 50px; margin: 0; text-align: center;\">+</p>","response":null,"trial_type":"html-keyboard-response","trial_index":39,"plugin_version":"2.1.0","time_elapsed":99538,"subject_id":"90768","group":"Group2","condition":"1_Rep","full_date":"2026-03-04T18:34:00.404Z","date":"2026-03-04","time":"18:34:00"},{"task":"memory_phase","broad_category":"I","image_png":"I_Gabbro_14.png","image_id":62,"category_name":"Gabbro","category":4,"distinct_rating":2.95,"distinct_type":"Bottom","rt":null,"stimulus":"Stimuli_Rocks480/I_Gabbro_14.png","response":null,"trial_type":"image-keyboard-response","trial_index":40,"plugin_version":"2.1.0","time_elapsed":102053,"subject_id":"90768","group":"Group2","condition":"1_Rep","full_date":"2026-03-04T18:34:00.404Z","date":"2026-03-04","time":"18:34:00"},{"rt":null,"stimulus":"<p style=\"font-size: 50px; margin: 0; text-align: center;\">+</p>","response":null,"trial_type":"html-keyboard-response","trial_index":41,"plugin_version":"2.1.0","time_elapsed":103061,"subject_id":"90768","group":"Group2","condition":"1_Rep","full_date":"2026-03-04T18:34:00.404Z","date":"2026-03-04","time":"18:34:00"},{"task":"memory_phase","broad_category":"M","image_png":"M_Phyllite_05.png","image_id":261,"category_name":"Phyllite","category":17,"distinct_rating":2.14,"distinct_type":"Bottom","rt":null,"stimulus":"Stimuli_Rocks480/M_Phyllite_05.png","response":null,"trial_type":"image-keyboard-response","trial_index":42,"plugin_version":"2.1.0","time_elapsed":105581,"subject_id":"90768","group":"Group2","condition":"1_Rep","full_date":"2026-03-04T18:34:00.404Z","date":"2026-03-04","time":"18:34:00"},{"rt":null,"stimulus":"<p style=\"font-size: 50px; margin: 0; text-align: center;\">+</p>","response":null,"trial_type":"html-keyboard-response","trial_index":43,"plugin_version":"2.1.0","time_elapsed":106596,"subject_id":"90768","group":"Group2","condition":"1_Rep","full_date":"2026-03-04T18:34:00.404Z","date":"2026-03-04","time":"18:34:00"},{"task":"memory_phase","broad_category":"M","image_png":"M_Gneiss_15.png","image_id":207,"category_name":"Gneiss","category":13,"distinct_rating":3.11,"distinct_type":"Bottom","rt":null,"stimulus":"Stimuli_Rocks480/M_Gneiss_15.png","response":null,"trial_type":"image-keyboard-response","trial_index":44,"plugin_version":"2.1.0","time_elapsed":109113,"subject_id":"90768","group":"Group2","condition":"1_Rep","full_date":"2026-03-04T18:34:00.404Z","date":"2026-03-04","time":"18:34:00"},{"rt":null,"stimulus":"<p style=\"font-size: 50px; margin: 0; text-align: center;\">+</p>","response":null,"trial_type":"html-keyboard-response","trial_index":45,"plugin_version":"2.1.0","time_elapsed":110120,"subject_id":"90768","group":"Group2","condition":"1_Rep","full_date":"2026-03-04T18:34:00.404Z","date":"2026-03-04","time":"18:34:00"},{"task":"memory_phase","broad_category":"I","image_png":"I_Rhyolite_10.png","image_id":154,"category_name":"Rhyolite","category":10,"distinct_rating":2.88,"distinct_type":"Bottom","rt":null,"stimulus":"Stimuli_Rocks480/I_Rhyolite_10.png","response":null,"trial_type":"image-keyboard-response","trial_index":46,"plugin_version":"2.1.0","time_elapsed":112632,"subject_id":"90768","group":"Group2","condition":"1_Rep","full_date":"2026-03-04T18:34:00.404Z","date":"2026-03-04","time":"18:34:00"},{"rt":null,"stimulus":"<p style=\"font-size: 50px; margin: 0; text-align: center;\">+</p>","response":null,"trial_type":"html-keyboard-response","trial_index":47,"plugin_version":"2.1.0","time_elapsed":113636,"subject_id":"90768","group":"Group2","condition":"1_Rep","full_date":"2026-03-04T18:34:00.404Z","date":"2026-03-04","time":"18:34:00"},{"task":"memory_phase","broad_category":"S","image_png":"S_Dolomite_16.png","image_id":400,"category_name":"Dolomite","category":25,"distinct_rating":1.71,"distinct_type":"Bottom","rt":null,"stimulus":"Stimuli_Rocks480/S_Dolomite_16.png","response":null,"trial_type":"image-keyboard-response","trial_index":48,"plugin_version":"2.1.0","time_elapsed":116148,"subject_id":"90768","group":"Group2","condition":"1_Rep","full_date":"2026-03-04T18:34:00.404Z","date":"2026-03-04","time":"18:34:00"},{"rt":null,"stimulus":"<p style=\"font-size: 50px; margin: 0; text-align: center;\">+</p>","response":null,"trial_type":"html-keyboard-response","trial_index":49,"plugin_version":"2.1.0","time_elapsed":117153,"subject_id":"90768","group":"Group2","condition":"1_Rep","full_date":"2026-03-04T18:34:00.404Z","date":"2026-03-04","time":"18:34:00"},{"task":"memory_phase","broad_category":"I","image_png":"I_Andesite_09.png","image_id":9,"category_name":"Andesite","category":1,"distinct_rating":2.49,"distinct_type":"Bottom","rt":null,"stimulus":"Stimuli_Rocks480/I_Andesite_09.png","response":null,"trial_type":"image-keyboard-response","trial_index":50,"plugin_version":"2.1.0","time_elapsed":119664,"subject_id":"90768","group":"Group2","condition":"1_Rep","full_date":"2026-03-04T18:34:00.404Z","date":"2026-03-04","time":"18:34:00"},{"rt":null,"stimulus":"<p style=\"font-size: 50px; margin: 0; text-align: center;\">+</p>","response":null,"trial_type":"html-keyboard-response","trial_index":51,"plugin_version":"2.1.0","time_elapsed":120675,"subject_id":"90768","group":"Group2","condition":"1_Rep","full_date":"2026-03-04T18:34:00.404Z","date":"2026-03-04","time":"18:34:00"},{"task":"memory_phase","broad_category":"S","image_png":"S_Dolomite_07.png","image_id":391,"category_name":"Dolomite","category":25,"distinct_rating":1.73,"distinct_type":"Bottom","rt":null,"stimulus":"Stimuli_Rocks480/S_Dolomite_07.png","response":null,"trial_type":"image-keyboard-response","trial_index":52,"plugin_version":"2.1.0","time_elapsed":123187,"subject_id":"90768","group":"Group2","condition":"1_Rep","full_date":"2026-03-04T18:34:00.404Z","date":"2026-03-04","time":"18:34:00"},{"rt":null,"stimulus":"<p style=\"font-size: 50px; margin: 0; text-align: center;\">+</p>","response":null,"trial_type":"html-keyboard-response","trial_index":53,"plugin_version":"2.1.0","time_elapsed":124202,"subject_id":"90768","group":"Group2","condition":"1_Rep","full_date":"2026-03-04T18:34:00.404Z","date":"2026-03-04","time":"18:34:00"},{"task":"memory_phase","broad_category":"I","image_png":"I_Diorite_01.png","image_id":33,"category_name":"Diorite","category":3,"distinct_rating":2.97,"distinct_type":"Bottom","rt":null,"stimulus":"Stimuli_Rocks480/I_Diorite_01.png","response":null,"trial_type":"image-keyboard-response","trial_index":54,"plugin_version":"2.1.0","time_elapsed":126720,"subject_id":"90768","group":"Group2","condition":"1_Rep","full_date":"2026-03-04T18:34:00.404Z","date":"2026-03-04","time":"18:34:00"},{"rt":1501,"stimulus":"<p style=\"max-width: 760px; margin: auto; font-size: 35px; line-height: 1.5;\">\n                Press SPACE to continue study phase\n              </p>","response":" ","trial_type":"html-keyboard-response","trial_index":55,"plugin_version":"2.1.0","time_elapsed":128223,"subject_id":"90768","group":"Group2","condition":"1_Rep","full_date":"2026-03-04T18:34:00.404Z","date":"2026-03-04","time":"18:34:00"},{"rt":null,"stimulus":"<p style=\"font-size: 50px; margin: 0; text-align: center;\">+</p>","response":null,"trial_type":"html-keyboard-response","trial_index":56,"plugin_version":"2.1.0","time_elapsed":129225,"subject_id":"90768","group":"Group2","condition":"1_Rep","full_date":"2026-03-04T18:34:00.404Z","date":"2026-03-04","time":"18:34:00"},{"task":"memory_phase","broad_category":"M","image_png":"M_Slate_10.png","image_id":314,"category_name":"Slate","category":20,"distinct_rating":1.94,"distinct_type":"Bottom","rt":null,"stimulus":"Stimuli_Rocks480/M_Slate_10.png","response":null,"trial_type":"image-keyboard-response","trial_index":57,"plugin_version":"2.1.0","time_elapsed":131739,"subject_id":"90768","group":"Group2","condition":"1_Rep","full_date":"2026-03-04T18:34:00.404Z","date":"2026-03-04","time":"18:34:00"},{"rt":null,"stimulus":"<p style=\"font-size: 50px; margin: 0; text-align: center;\">+</p>","response":null,"trial_type":"html-keyboard-response","trial_index":58,"plugin_version":"2.1.0","time_elapsed":132756,"subject_id":"90768","group":"Group2","condition":"1_Rep","full_date":"2026-03-04T18:34:00.404Z","date":"2026-03-04","time":"18:34:00"},{"task":"memory_phase","broad_category":"S","image_png":"S_Shale_03.png","image_id":467,"category_name":"Shale","category":30,"distinct_rating":1.95,"distinct_type":"Bottom","rt":null,"stimulus":"Stimuli_Rocks480/S_Shale_03.png","response":null,"trial_type":"image-keyboard-response","trial_index":59,"plugin_version":"2.1.0","time_elapsed":135269,"subject_id":"90768","group":"Group2","condition":"1_Rep","full_date":"2026-03-04T18:34:00.404Z","date":"2026-03-04","time":"18:34:00"},{"rt":null,"stimulus":"<p style=\"font-size: 50px; margin: 0; text-align: center;\">+</p>","response":null,"trial_type":"html-keyboard-response","trial_index":60,"plugin_version":"2.1.0","time_elapsed":136274,"subject_id":"90768","group":"Group2","condition":"1_Rep","full_date":"2026-03-04T18:34:00.404Z","date":"2026-03-04","time":"18:34:00"},{"task":"memory_phase","broad_category":"S","image_png":"S_Rock Salt_15.png","image_id":447,"category_name":"Rock Salt","category":28,"distinct_rating":7.79,"distinct_type":"Top","rt":null,"stimulus":"Stimuli_Rocks480/S_Rock Salt_15.png","response":null,"trial_type":"image-keyboard-response","trial_index":61,"plugin_version":"2.1.0","time_elapsed":138787,"subject_id":"90768","group":"Group2","condition":"1_Rep","full_date":"2026-03-04T18:34:00.404Z","date":"2026-03-04","time":"18:34:00"},{"rt":null,"stimulus":"<p style=\"font-size: 50px; margin: 0; text-align: center;\">+</p>","response":null,"trial_type":"html-keyboard-response","trial_index":62,"plugin_version":"2.1.0","time_elapsed":139804,"subject_id":"90768","group":"Group2","condition":"1_Rep","full_date":"2026-03-04T18:34:00.404Z","date":"2026-03-04","time":"18:34:00"},{"task":"memory_phase","broad_category":"I","image_png":"I_Andesite_04.png","image_id":4,"category_name":"Andesite","category":1,"distinct_rating":3.18,"distinct_type":"Bottom","rt":null,"stimulus":"Stimuli_Rocks480/I_Andesite_04.png","response":null,"trial_type":"image-keyboard-response","trial_index":63,"plugin_version":"2.1.0","time_elapsed":142312,"subject_id":"90768","group":"Group2","condition":"1_Rep","full_date":"2026-03-04T18:34:00.404Z","date":"2026-03-04","time":"18:34:00"},{"rt":null,"stimulus":"<p style=\"font-size: 50px; margin: 0; text-align: center;\">+</p>","response":null,"trial_type":"html-keyboard-response","trial_index":64,"plugin_version":"2.1.0","time_elapsed":143330,"subject_id":"90768","group":"Group2","condition":"1_Rep","full_date":"2026-03-04T18:34:00.404Z","date":"2026-03-04","time":"18:34:00"},{"task":"memory_phase","broad_category":"I","image_png":"I_Basalt_13.png","image_id":29,"category_name":"Basalt","category":2,"distinct_rating":2.68,"distinct_type":"Bottom","rt":null,"stimulus":"Stimuli_Rocks480/I_Basalt_13.png","response":null,"trial_type":"image-keyboard-response","trial_index":65,"plugin_version":"2.1.0","time_elapsed":145834,"subject_id":"90768","group":"Group2","condition":"1_Rep","full_date":"2026-03-04T18:34:00.404Z","date":"2026-03-04","time":"18:34:00"},{"rt":null,"stimulus":"<p style=\"font-size: 50px; margin: 0; text-align: center;\">+</p>","response":null,"trial_type":"html-keyboard-response","trial_index":66,"plugin_version":"2.1.0","time_elapsed":146839,"subject_id":"90768","group":"Group2","condition":"1_Rep","full_date":"2026-03-04T18:34:00.404Z","date":"2026-03-04","time":"18:34:00"},{"task":"memory_phase","broad_category":"M","image_png":"M_Slate_04.png","image_id":308,"category_name":"Slate","category":20,"distinct_rating":2.2,"distinct_type":"Bottom","rt":null,"stimulus":"Stimuli_Rocks480/M_Slate_04.png","response":null,"trial_type":"image-keyboard-response","trial_index":67,"plugin_version":"2.1.0","time_elapsed":149357,"subject_id":"90768","group":"Group2","condition":"1_Rep","full_date":"2026-03-04T18:34:00.404Z","date":"2026-03-04","time":"18:34:00"},{"rt":null,"stimulus":"<p style=\"font-size: 50px; margin: 0; text-align: center;\">+</p>","response":null,"trial_type":"html-keyboard-response","trial_index":68,"plugin_version":"2.1.0","time_elapsed":150363,"subject_id":"90768","group":"Group2","condition":"1_Rep","full_date":"2026-03-04T18:34:00.404Z","date":"2026-03-04","time":"18:34:00"},{"task":"memory_phase","broad_category":"M","image_png":"M_Phyllite_02.png","image_id":258,"category_name":"Phyllite","category":17,"distinct_rating":2.89,"distinct_type":"Bottom","rt":null,"stimulus":"Stimuli_Rocks480/M_Phyllite_02.png","response":null,"trial_type":"image-keyboard-response","trial_index":69,"plugin_version":"2.1.0","time_elapsed":152880,"subject_id":"90768","group":"Group2","condition":"1_Rep","full_date":"2026-03-04T18:34:00.404Z","date":"2026-03-04","time":"18:34:00"},{"rt":null,"stimulus":"<p style=\"font-size: 50px; margin: 0; text-align: center;\">+</p>","response":null,"trial_type":"html-keyboard-response","trial_index":70,"plugin_version":"2.1.0","time_elapsed":153887,"subject_id":"90768","group":"Group2","condition":"1_Rep","full_date":"2026-03-04T18:34:00.404Z","date":"2026-03-04","time":"18:34:00"},{"task":"memory_phase","broad_category":"M","image_png":"M_Quartzite_12.png","image_id":284,"category_name":"Quartzite","category":18,"distinct_rating":1.92,"distinct_type":"Bottom","rt":null,"stimulus":"Stimuli_Rocks480/M_Quartzite_12.png","response":null,"trial_type":"image-keyboard-response","trial_index":71,"plugin_version":"2.1.0","time_elapsed":156398,"subject_id":"90768","group":"Group2","condition":"1_Rep","full_date":"2026-03-04T18:34:00.404Z","date":"2026-03-04","time":"18:34:00"},{"rt":null,"stimulus":"<p style=\"font-size: 50px; margin: 0; text-align: center;\">+</p>","response":null,"trial_type":"html-keyboard-response","trial_index":72,"plugin_version":"2.1.0","time_elapsed":157407,"subject_id":"90768","group":"Group2","condition":"1_Rep","full_date":"2026-03-04T18:34:00.404Z","date":"2026-03-04","time":"18:34:00"},{"task":"memory_phase","broad_category":"I","image_png":"I_Obsidian_06.png","image_id":86,"category_name":"Obsidian","category":6,"distinct_rating":8.01,"distinct_type":"Top","rt":null,"stimulus":"Stimuli_Rocks480/I_Obsidian_06.png","response":null,"trial_type":"image-keyboard-response","trial_index":73,"plugin_version":"2.1.0","time_elapsed":159924,"subject_id":"90768","group":"Group2","condition":"1_Rep","full_date":"2026-03-04T18:34:00.404Z","date":"2026-03-04","time":"18:34:00"},{"rt":null,"stimulus":"<p style=\"font-size: 50px; margin: 0; text-align: center;\">+</p>","response":null,"trial_type":"html-keyboard-response","trial_index":74,"plugin_version":"2.1.0","time_elapsed":160940,"subject_id":"90768","group":"Group2","condition":"1_Rep","full_date":"2026-03-04T18:34:00.404Z","date":"2026-03-04","time":"18:34:00"},{"task":"memory_phase","broad_category":"I","image_png":"I_Peridotite_13.png","image_id":125,"category_name":"Peridotite","category":8,"distinct_rating":7.28,"distinct_type":"Top","rt":null,"stimulus":"Stimuli_Rocks480/I_Peridotite_13.png","response":null,"trial_type":"image-keyboard-response","trial_index":75,"plugin_version":"2.1.0","time_elapsed":163449,"subject_id":"90768","group":"Group2","condition":"1_Rep","full_date":"2026-03-04T18:34:00.404Z","date":"2026-03-04","time":"18:34:00"},{"rt":null,"stimulus":"<p style=\"font-size: 50px; margin: 0; text-align: center;\">+</p>","response":null,"trial_type":"html-keyboard-response","trial_index":76,"plugin_version":"2.1.0","time_elapsed":164458,"subject_id":"90768","group":"Group2","condition":"1_Rep","full_date":"2026-03-04T18:34:00.404Z","date":"2026-03-04","time":"18:34:00"},{"task":"memory_phase","broad_category":"I","image_png":"I_Pegmatite_03.png","image_id":99,"category_name":"Pegmatite","category":7,"distinct_rating":7.24,"distinct_type":"Top","rt":null,"stimulus":"Stimuli_Rocks480/I_Pegmatite_03.png","response":null,"trial_type":"image-keyboard-response","trial_index":77,"plugin_version":"2.1.0","time_elapsed":166969,"subject_id":"90768","group":"Group2","condition":"1_Rep","full_date":"2026-03-04T18:34:00.404Z","date":"2026-03-04","time":"18:34:00"},{"rt":null,"stimulus":"<p style=\"font-size: 50px; margin: 0; text-align: center;\">+</p>","response":null,"trial_type":"html-keyboard-response","trial_index":78,"plugin_version":"2.1.0","time_elapsed":167986,"subject_id":"90768","group":"Group2","condition":"1_Rep","full_date":"2026-03-04T18:34:00.404Z","date":"2026-03-04","time":"18:34:00"},{"task":"memory_phase","broad_category":"I","image_png":"I_Diorite_15.png","image_id":47,"category_name":"Diorite","category":3,"distinct_rating":3.05,"distinct_type":"Bottom","rt":null,"stimulus":"Stimuli_Rocks480/I_Diorite_15.png","response":null,"trial_type":"image-keyboard-response","trial_index":79,"plugin_version":"2.1.0","time_elapsed":170499,"subject_id":"90768","group":"Group2","condition":"1_Rep","full_date":"2026-03-04T18:34:00.404Z","date":"2026-03-04","time":"18:34:00"},{"rt":null,"stimulus":"<p style=\"font-size: 50px; margin: 0; text-align: center;\">+</p>","response":null,"trial_type":"html-keyboard-response","trial_index":80,"plugin_version":"2.1.0","time_elapsed":171503,"subject_id":"90768","group":"Group2","condition":"1_Rep","full_date":"2026-03-04T18:34:00.404Z","date":"2026-03-04","time":"18:34:00"},{"task":"memory_phase","broad_category":"I","image_png":"I_Gabbro_12.png","image_id":60,"category_name":"Gabbro","category":4,"distinct_rating":2.6,"distinct_type":"Bottom","rt":null,"stimulus":"Stimuli_Rocks480/I_Gabbro_12.png","response":null,"trial_type":"image-keyboard-response","trial_index":81,"plugin_version":"2.1.0","time_elapsed":174012,"subject_id":"90768","group":"Group2","condition":"1_Rep","full_date":"2026-03-04T18:34:00.404Z","date":"2026-03-04","time":"18:34:00"},{"rt":null,"stimulus":"<p style=\"font-size: 50px; margin: 0; text-align: center;\">+</p>","response":null,"trial_type":"html-keyboard-response","trial_index":82,"plugin_version":"2.1.0","time_elapsed":175023,"subject_id":"90768","group":"Group2","condition":"1_Rep","full_date":"2026-03-04T18:34:00.404Z","date":"2026-03-04","time":"18:34:00"},{"task":"memory_phase","broad_category":"M","image_png":"M_Marble_03.png","image_id":227,"category_name":"Marble","category":15,"distinct_rating":2.67,"distinct_type":"Bottom","rt":null,"stimulus":"Stimuli_Rocks480/M_Marble_03.png","response":null,"trial_type":"image-keyboard-response","trial_index":83,"plugin_version":"2.1.0","time_elapsed":177529,"subject_id":"90768","group":"Group2","condition":"1_Rep","full_date":"2026-03-04T18:34:00.404Z","date":"2026-03-04","time":"18:34:00"},{"rt":null,"stimulus":"<p style=\"font-size: 50px; margin: 0; text-align: center;\">+</p>","response":null,"trial_type":"html-keyboard-response","trial_index":84,"plugin_version":"2.1.0","time_elapsed":178538,"subject_id":"90768","group":"Group2","condition":"1_Rep","full_date":"2026-03-04T18:34:00.404Z","date":"2026-03-04","time":"18:34:00"},{"task":"memory_phase","broad_category":"M","image_png":"M_Marble_14.png","image_id":238,"category_name":"Marble","category":15,"distinct_rating":3.31,"distinct_type":"Bottom","rt":null,"stimulus":"Stimuli_Rocks480/M_Marble_14.png","response":null,"trial_type":"image-keyboard-response","trial_index":85,"plugin_version":"2.1.0","time_elapsed":181042,"subject_id":"90768","group":"Group2","condition":"1_Rep","full_date":"2026-03-04T18:34:00.404Z","date":"2026-03-04","time":"18:34:00"},{"rt":null,"stimulus":"<p style=\"font-size: 50px; margin: 0; text-align: center;\">+</p>","response":null,"trial_type":"html-keyboard-response","trial_index":86,"plugin_version":"2.1.0","time_elapsed":182052,"subject_id":"90768","group":"Group2","condition":"1_Rep","full_date":"2026-03-04T18:34:00.404Z","date":"2026-03-04","time":"18:34:00"},{"task":"memory_phase","broad_category":"S","image_png":"S_Shale_07.png","image_id":471,"category_name":"Shale","category":30,"distinct_rating":2.73,"distinct_type":"Bottom","rt":null,"stimulus":"Stimuli_Rocks480/S_Shale_07.png","response":null,"trial_type":"image-keyboard-response","trial_index":87,"plugin_version":"2.1.0","time_elapsed":184569,"subject_id":"90768","group":"Group2","condition":"1_Rep","full_date":"2026-03-04T18:34:00.404Z","date":"2026-03-04","time":"18:34:00"},{"rt":null,"stimulus":"<p style=\"font-size: 50px; margin: 0; text-align: center;\">+</p>","response":null,"trial_type":"html-keyboard-response","trial_index":88,"plugin_version":"2.1.0","time_elapsed":185579,"subject_id":"90768","group":"Group2","condition":"1_Rep","full_date":"2026-03-04T18:34:00.404Z","date":"2026-03-04","time":"18:34:00"},{"task":"memory_phase","broad_category":"I","image_png":"I_Basalt_10.png","image_id":26,"category_name":"Basalt","category":2,"distinct_rating":2.76,"distinct_type":"Bottom","rt":null,"stimulus":"Stimuli_Rocks480/I_Basalt_10.png","response":null,"trial_type":"image-keyboard-response","trial_index":89,"plugin_version":"2.1.0","time_elapsed":188084,"subject_id":"90768","group":"Group2","condition":"1_Rep","full_date":"2026-03-04T18:34:00.404Z","date":"2026-03-04","time":"18:34:00"},{"rt":null,"stimulus":"<p style=\"font-size: 50px; margin: 0; text-align: center;\">+</p>","response":null,"trial_type":"html-keyboard-response","trial_index":90,"plugin_version":"2.1.0","time_elapsed":189086,"subject_id":"90768","group":"Group2","condition":"1_Rep","full_date":"2026-03-04T18:34:00.404Z","date":"2026-03-04","time":"18:34:00"},{"task":"memory_phase","broad_category":"I","image_png":"I_Basalt_08.png","image_id":24,"category_name":"Basalt","category":2,"distinct_rating":2.31,"distinct_type":"Bottom","rt":null,"stimulus":"Stimuli_Rocks480/I_Basalt_08.png","response":null,"trial_type":"image-keyboard-response","trial_index":91,"plugin_version":"2.1.0","time_elapsed":191595,"subject_id":"90768","group":"Group2","condition":"1_Rep","full_date":"2026-03-04T18:34:00.404Z","date":"2026-03-04","time":"18:34:00"},{"rt":null,"stimulus":"<p style=\"font-size: 50px; margin: 0; text-align: center;\">+</p>","response":null,"trial_type":"html-keyboard-response","trial_index":92,"plugin_version":"2.1.0","time_elapsed":192632,"subject_id":"90768","group":"Group2","condition":"1_Rep","full_date":"2026-03-04T18:34:00.404Z","date":"2026-03-04","time":"18:34:00"},{"task":"memory_phase","broad_category":"I","image_png":"I_Diorite_10.png","image_id":42,"category_name":"Diorite","category":3,"distinct_rating":2.84,"distinct_type":"Bottom","rt":null,"stimulus":"Stimuli_Rocks480/I_Diorite_10.png","response":null,"trial_type":"image-keyboard-response","trial_index":93,"plugin_version":"2.1.0","time_elapsed":195136,"subject_id":"90768","group":"Group2","condition":"1_Rep","full_date":"2026-03-04T18:34:00.404Z","date":"2026-03-04","time":"18:34:00"},{"rt":null,"stimulus":"<p style=\"font-size: 50px; margin: 0; text-align: center;\">+</p>","response":null,"trial_type":"html-keyboard-response","trial_index":94,"plugin_version":"2.1.0","time_elapsed":196147,"subject_id":"90768","group":"Group2","condition":"1_Rep","full_date":"2026-03-04T18:34:00.404Z","date":"2026-03-04","time":"18:34:00"},{"task":"memory_phase","broad_category":"S","image_png":"S_Rock Salt_13.png","image_id":445,"category_name":"Rock Salt","category":28,"distinct_rating":7.58,"distinct_type":"Top","rt":null,"stimulus":"Stimuli_Rocks480/S_Rock Salt_13.png","response":null,"trial_type":"image-keyboard-response","trial_index":95,"plugin_version":"2.1.0","time_elapsed":198659,"subject_id":"90768","group":"Group2","condition":"1_Rep","full_date":"2026-03-04T18:34:00.404Z","date":"2026-03-04","time":"18:34:00"},{"rt":null,"stimulus":"<p style=\"font-size: 50px; margin: 0; text-align: center;\">+</p>","response":null,"trial_type":"html-keyboard-response","trial_index":96,"plugin_version":"2.1.0","time_elapsed":199676,"subject_id":"90768","group":"Group2","condition":"1_Rep","full_date":"2026-03-04T18:34:00.404Z","date":"2026-03-04","time":"18:34:00"},{"task":"memory_phase","broad_category":"I","image_png":"I_Pegmatite_11.png","image_id":107,"category_name":"Pegmatite","category":7,"distinct_rating":7.11,"distinct_type":"Top","rt":null,"stimulus":"Stimuli_Rocks480/I_Pegmatite_11.png","response":null,"trial_type":"image-keyboard-response","trial_index":97,"plugin_version":"2.1.0","time_elapsed":202191,"subject_id":"90768","group":"Group2","condition":"1_Rep","full_date":"2026-03-04T18:34:00.404Z","date":"2026-03-04","time":"18:34:00"},{"rt":null,"stimulus":"<p style=\"font-size: 50px; margin: 0; text-align: center;\">+</p>","response":null,"trial_type":"html-keyboard-response","trial_index":98,"plugin_version":"2.1.0","time_elapsed":203196,"subject_id":"90768","group":"Group2","condition":"1_Rep","full_date":"2026-03-04T18:34:00.404Z","date":"2026-03-04","time":"18:34:00"},{"task":"memory_phase","broad_category":"I","image_png":"I_Rhyolite_05.png","image_id":149,"category_name":"Rhyolite","category":10,"distinct_rating":3.02,"distinct_type":"Bottom","rt":null,"stimulus":"Stimuli_Rocks480/I_Rhyolite_05.png","response":null,"trial_type":"image-keyboard-response","trial_index":99,"plugin_version":"2.1.0","time_elapsed":205706,"subject_id":"90768","group":"Group2","condition":"1_Rep","full_date":"2026-03-04T18:34:00.404Z","date":"2026-03-04","time":"18:34:00"},{"rt":null,"stimulus":"<p style=\"font-size: 50px; margin: 0; text-align: center;\">+</p>","response":null,"trial_type":"html-keyboard-response","trial_index":100,"plugin_version":"2.1.0","time_elapsed":206717,"subject_id":"90768","group":"Group2","condition":"1_Rep","full_date":"2026-03-04T18:34:00.404Z","date":"2026-03-04","time":"18:34:00"},{"task":"memory_phase","broad_category":"M","image_png":"M_Slate_14.png","image_id":318,"category_name":"Slate","category":20,"distinct_rating":2.58,"distinct_type":"Bottom","rt":null,"stimulus":"Stimuli_Rocks480/M_Slate_14.png","response":null,"trial_type":"image-keyboard-response","trial_index":101,"plugin_version":"2.1.0","time_elapsed":209227,"subject_id":"90768","group":"Group2","condition":"1_Rep","full_date":"2026-03-04T18:34:00.404Z","date":"2026-03-04","time":"18:34:00"},{"rt":null,"stimulus":"<p style=\"font-size: 50px; margin: 0; text-align: center;\">+</p>","response":null,"trial_type":"html-keyboard-response","trial_index":102,"plugin_version":"2.1.0","time_elapsed":210240,"subject_id":"90768","group":"Group2","condition":"1_Rep","full_date":"2026-03-04T18:34:00.404Z","date":"2026-03-04","time":"18:34:00"},{"task":"memory_phase","broad_category":"M","image_png":"M_Gneiss_14.png","image_id":206,"category_name":"Gneiss","category":13,"distinct_rating":3.41,"distinct_type":"Bottom","rt":null,"stimulus":"Stimuli_Rocks480/M_Gneiss_14.png","response":null,"trial_type":"image-keyboard-response","trial_index":103,"plugin_version":"2.1.0","time_elapsed":212756,"subject_id":"90768","group":"Group2","condition":"1_Rep","full_date":"2026-03-04T18:34:00.404Z","date":"2026-03-04","time":"18:34:00"},{"rt":null,"stimulus":"<p style=\"font-size: 50px; margin: 0; text-align: center;\">+</p>","response":null,"trial_type":"html-keyboard-response","trial_index":104,"plugin_version":"2.1.0","time_elapsed":213773,"subject_id":"90768","group":"Group2","condition":"1_Rep","full_date":"2026-03-04T18:34:00.404Z","date":"2026-03-04","time":"18:34:00"},{"task":"memory_phase","broad_category":"M","image_png":"M_Quartzite_07.png","image_id":279,"category_name":"Quartzite","category":18,"distinct_rating":1.97,"distinct_type":"Bottom","rt":null,"stimulus":"Stimuli_Rocks480/M_Quartzite_07.png","response":null,"trial_type":"image-keyboard-response","trial_index":105,"plugin_version":"2.1.0","time_elapsed":216281,"subject_id":"90768","group":"Group2","condition":"1_Rep","full_date":"2026-03-04T18:34:00.404Z","date":"2026-03-04","time":"18:34:00"},{"rt":11825,"stimulus":"<div style=\"max-width: 760px; margin: auto; font-size: 20px; line-height: 1.5;\">\n      <h1 style=\"text-align:center; font-size: 30px;\">Instructions for the Test Phase</h1>\n      <p>\n        The study phase is now complete.\n      </p>\n      <p>\n        In the test phase, you will again see a series of rock images. \n        Some will be ones you saw before - during the study phase, while others will be new.  \n        <b>Your task</b> is to decide whether you have seen each image before by pressing the corresponding key on your keyboard:<br><br>\n          <b>A</b> - NO (you did not see this image before)<br>\n          <b>L</b> - YES (you saw this image before)<br><br>\n        The test will proceed at your own pace. You will receive feedback after each response.  \n        Please try to respond <b>as accurately as possible</b>.\n      </p>\n      <p>\n        <b>Reminder:</b> If your computer has multiple language settings (e.g., English and another language),\n        please ensure it is set to English during the test phase.\n      </p>\n      <p>\n        You can track your progress using the <b>completion bar</b> at the top of the screen.  \n        Note that it has been refreshed to reflect your progress during this final phase.\n      </p>\n      <p>\n        Press the button below when you are ready to continue.\n      </p>\n    </div>","response":0,"trial_type":"html-button-response","trial_index":106,"plugin_version":"2.1.0","time_elapsed":228110,"subject_id":"90768","group":"Group2","condition":"1_Rep","full_date":"2026-03-04T18:34:00.404Z","date":"2026-03-04","time":"18:34:00"},{"correct_response":"a","task":"test_phase","broad_category":"M","image_png":"M_Marble_04.png","image_id":228,"category_name":"Marble","category":15,"distinct_rating":3.15,"distinct_type":"Bottom","item_type":"Foil","rt":1772,"stimulus":"Stimuli_Rocks480/M_Marble_04.png","response":"l","trial_type":"image-keyboard-response","trial_index":107,"plugin_version":"2.1.0","time_elapsed":229888,"subject_id":"90768","group":"Group2","condition":"1_Rep","full_date":"2026-03-04T18:34:00.404Z","date":"2026-03-04","time":"18:34:00","cor_ans":false},{"trial_type":"html-keyboard-response","rt":null,"stimulus":"<p style=\"color: red; font-size: 50px; font-weight: bold;\">Incorrect</p>","response":null,"trial_index":108,"plugin_version":"2.1.0","time_elapsed":230392,"subject_id":"90768","group":"Group2","condition":"1_Rep","full_date":"2026-03-04T18:34:00.404Z","date":"2026-03-04","time":"18:34:00"},{"correct_response":"l","task":"test_phase","broad_category":"I","image_png":"I_Peridotite_13.png","image_id":125,"category_name":"Peridotite","category":8,"distinct_rating":7.28,"distinct_type":"Top","item_type":"Target","rt":1508,"stimulus":"Stimuli_Rocks480/I_Peridotite_13.png","response":"l","trial_type":"image-keyboard-response","trial_index":109,"plugin_version":"2.1.0","time_elapsed":231904,"subject_id":"90768","group":"Group2","condition":"1_Rep","full_date":"2026-03-04T18:34:00.404Z","date":"2026-03-04","time":"18:34:00","cor_ans":true},{"trial_type":"html-keyboard-response","rt":null,"stimulus":"<p style=\"color: green; font-size: 50px; font-weight: bold;\">Correct</p>","response":null,"trial_index":110,"plugin_version":"2.1.0","time_elapsed":232418,"subject_id":"90768","group":"Group2","condition":"1_Rep","full_date":"2026-03-04T18:34:00.404Z","date":"2026-03-04","time":"18:34:00"},{"correct_response":"l","task":"test_phase","broad_category":"M","image_png":"M_Phyllite_02.png","image_id":258,"category_name":"Phyllite","category":17,"distinct_rating":2.89,"distinct_type":"Bottom","item_type":"Target","rt":1030,"stimulus":"Stimuli_Rocks480/M_Phyllite_02.png","response":"l","trial_type":"image-keyboard-response","trial_index":111,"plugin_version":"2.1.0","time_elapsed":233451,"subject_id":"90768","group":"Group2","condition":"1_Rep","full_date":"2026-03-04T18:34:00.404Z","date":"2026-03-04","time":"18:34:00","cor_ans":true},{"trial_type":"html-keyboard-response","rt":null,"stimulus":"<p style=\"color: green; font-size: 50px; font-weight: bold;\">Correct</p>","response":null,"trial_index":112,"plugin_version":"2.1.0","time_elapsed":233957,"subject_id":"90768","group":"Group2","condition":"1_Rep","full_date":"2026-03-04T18:34:00.404Z","date":"2026-03-04","time":"18:34:00"},{"correct_response":"l","task":"test_phase","broad_category":"I","image_png":"I_Pumice_14.png","image_id":142,"category_name":"Pumice","category":9,"distinct_rating":3.22,"distinct_type":"Bottom","item_type":"Target","rt":772,"stimulus":"Stimuli_Rocks480/I_Pumice_14.png","response":"l","trial_type":"image-keyboard-response","trial_index":113,"plugin_version":"2.1.0","time_elapsed":234732,"subject_id":"90768","group":"Group2","condition":"1_Rep","full_date":"2026-03-04T18:34:00.404Z","date":"2026-03-04","time":"18:34:00","cor_ans":true},{"trial_type":"html-keyboard-response","rt":null,"stimulus":"<p style=\"color: green; font-size: 50px; font-weight: bold;\">Correct</p>","response":null,"trial_index":114,"plugin_version":"2.1.0","time_elapsed":235248,"subject_id":"90768","group":"Group2","condition":"1_Rep","full_date":"2026-03-04T18:34:00.404Z","date":"2026-03-04","time":"18:34:00"},{"correct_response":"l","task":"test_phase","broad_category":"M","image_png":"M_Marble_02.png","image_id":226,"category_name":"Marble","category":15,"distinct_rating":3.2,"distinct_type":"Bottom","item_type":"Target","rt":929,"stimulus":"Stimuli_Rocks480/M_Marble_02.png","response":"l","trial_type":"image-keyboard-response","trial_index":115,"plugin_version":"2.1.0","time_elapsed":236180,"subject_id":"90768","group":"Group2","condition":"1_Rep","full_date":"2026-03-04T18:34:00.404Z","date":"2026-03-04","time":"18:34:00","cor_ans":true},{"trial_type":"html-keyboard-response","rt":null,"stimulus":"<p style=\"color: green; font-size: 50px; font-weight: bold;\">Correct</p>","response":null,"trial_index":116,"plugin_version":"2.1.0","time_elapsed":236683,"subject_id":"90768","group":"Group2","condition":"1_Rep","full_date":"2026-03-04T18:34:00.404Z","date":"2026-03-04","time":"18:34:00"},{"correct_response":"l","task":"test_phase","broad_category":"S","image_png":"S_Shale_03.png","image_id":467,"category_name":"Shale","category":30,"distinct_rating":1.95,"distinct_type":"Bottom","item_type":"Target","rt":822,"stimulus":"Stimuli_Rocks480/S_Shale_03.png","response":"l","trial_type":"image-keyboard-response","trial_index":117,"plugin_version":"2.1.0","time_elapsed":237508,"subject_id":"90768","group":"Group2","condition":"1_Rep","full_date":"2026-03-04T18:34:00.404Z","date":"2026-03-04","time":"18:34:00","cor_ans":true},{"trial_type":"html-keyboard-response","rt":null,"stimulus":"<p style=\"color: green; font-size: 50px; font-weight: bold;\">Correct</p>","response":null,"trial_index":118,"plugin_version":"2.1.0","time_elapsed":238013,"subject_id":"90768","group":"Group2","condition":"1_Rep","full_date":"2026-03-04T18:34:00.404Z","date":"2026-03-04","time":"18:34:00"},{"correct_response":"l","task":"test_phase","broad_category":"M","image_png":"M_Slate_10.png","image_id":314,"category_name":"Slate","category":20,"distinct_rating":1.94,"distinct_type":"Bottom","item_type":"Target","rt":899,"stimulus":"Stimuli_Rocks480/M_Slate_10.png","response":"l","trial_type":"image-keyboard-response","trial_index":119,"plugin_version":"2.1.0","time_elapsed":238915,"subject_id":"90768","group":"Group2","condition":"1_Rep","full_date":"2026-03-04T18:34:00.404Z","date":"2026-03-04","time":"18:34:00","cor_ans":true},{"trial_type":"html-keyboard-response","rt":null,"stimulus":"<p style=\"color: green; font-size: 50px; font-weight: bold;\">Correct</p>","response":null,"trial_index":120,"plugin_version":"2.1.0","time_elapsed":239420,"subject_id":"90768","group":"Group2","condition":"1_Rep","full_date":"2026-03-04T18:34:00.404Z","date":"2026-03-04","time":"18:34:00"},{"correct_response":"l","task":"test_phase","broad_category":"S","image_png":"S_Sandstone_04.png","image_id":452,"category_name":"Sandstone","category":29,"distinct_rating":1.8,"distinct_type":"Bottom","item_type":"Target","rt":1059,"stimulus":"Stimuli_Rocks480/S_Sandstone_04.png","response":"a","trial_type":"image-keyboard-response","trial_index":121,"plugin_version":"2.1.0","time_elapsed":240482,"subject_id":"90768","group":"Group2","condition":"1_Rep","full_date":"2026-03-04T18:34:00.404Z","date":"2026-03-04","time":"18:34:00","cor_ans":false},{"trial_type":"html-keyboard-response","rt":null,"stimulus":"<p style=\"color: red; font-size: 50px; font-weight: bold;\">Incorrect</p>","response":null,"trial_index":122,"plugin_version":"2.1.0","time_elapsed":240995,"subject_id":"90768","group":"Group2","condition":"1_Rep","full_date":"2026-03-04T18:34:00.404Z","date":"2026-03-04","time":"18:34:00"},{"correct_response":"l","task":"test_phase","broad_category":"I","image_png":"I_Diorite_01.png","image_id":33,"category_name":"Diorite","category":3,"distinct_rating":2.97,"distinct_type":"Bottom","item_type":"Target","rt":772,"stimulus":"Stimuli_Rocks480/I_Diorite_01.png","response":"l","trial_type":"image-keyboard-response","trial_index":123,"plugin_version":"2.1.0","time_elapsed":241770,"subject_id":"90768","group":"Group2","condition":"1_Rep","full_date":"2026-03-04T18:34:00.404Z","date":"2026-03-04","time":"18:34:00","cor_ans":true},{"trial_type":"html-keyboard-response","rt":null,"stimulus":"<p style=\"color: green; font-size: 50px; font-weight: bold;\">Correct</p>","response":null,"trial_index":124,"plugin_version":"2.1.0","time_elapsed":242276,"subject_id":"90768","group":"Group2","condition":"1_Rep","full_date":"2026-03-04T18:34:00.404Z","date":"2026-03-04","time":"18:34:00"},{"correct_response":"a","task":"test_phase","broad_category":"S","image_png":"S_Conglomerate_05.png","image_id":373,"category_name":"Conglomerate","category":24,"distinct_rating":7.32,"distinct_type":"Top","item_type":"Foil","rt":920,"stimulus":"Stimuli_Rocks480/S_Conglomerate_05.png","response":"a","trial_type":"image-keyboard-response","trial_index":125,"plugin_version":"2.1.0","time_elapsed":243199,"subject_id":"90768","group":"Group2","condition":"1_Rep","full_date":"2026-03-04T18:34:00.404Z","date":"2026-03-04","time":"18:34:00","cor_ans":true},{"trial_type":"html-keyboard-response","rt":null,"stimulus":"<p style=\"color: green; font-size: 50px; font-weight: bold;\">Correct</p>","response":null,"trial_index":126,"plugin_version":"2.1.0","time_elapsed":243710,"subject_id":"90768","group":"Group2","condition":"1_Rep","full_date":"2026-03-04T18:34:00.404Z","date":"2026-03-04","time":"18:34:00"},{"correct_response":"l","task":"test_phase","broad_category":"S","image_png":"S_Rock Salt_15.png","image_id":447,"category_name":"Rock Salt","category":28,"distinct_rating":7.79,"distinct_type":"Top","item_type":"Target","rt":878,"stimulus":"Stimuli_Rocks480/S_Rock Salt_15.png","response":"l","trial_type":"image-keyboard-response","trial_index":127,"plugin_version":"2.1.0","time_elapsed":244592,"subject_id":"90768","group":"Group2","condition":"1_Rep","full_date":"2026-03-04T18:34:00.404Z","date":"2026-03-04","time":"18:34:00","cor_ans":true},{"trial_type":"html-keyboard-response","rt":null,"stimulus":"<p style=\"color: green; font-size: 50px; font-weight: bold;\">Correct</p>","response":null,"trial_index":128,"plugin_version":"2.1.0","time_elapsed":245094,"subject_id":"90768","group":"Group2","condition":"1_Rep","full_date":"2026-03-04T18:34:00.404Z","date":"2026-03-04","time":"18:34:00"},{"correct_response":"a","task":"test_phase","broad_category":"I","image_png":"I_Basalt_01.png","image_id":17,"category_name":"Basalt","category":2,"distinct_rating":1.92,"distinct_type":"Bottom","item_type":"Foil","rt":907,"stimulus":"Stimuli_Rocks480/I_Basalt_01.png","response":"l","trial_type":"image-keyboard-response","trial_index":129,"plugin_version":"2.1.0","time_elapsed":246005,"subject_id":"90768","group":"Group2","condition":"1_Rep","full_date":"2026-03-04T18:34:00.404Z","date":"2026-03-04","time":"18:34:00","cor_ans":false},{"trial_type":"html-keyboard-response","rt":null,"stimulus":"<p style=\"color: red; font-size: 50px; font-weight: bold;\">Incorrect</p>","response":null,"trial_index":130,"plugin_version":"2.1.0","time_elapsed":246507,"subject_id":"90768","group":"Group2","condition":"1_Rep","full_date":"2026-03-04T18:34:00.404Z","date":"2026-03-04","time":"18:34:00"},{"correct_response":"a","task":"test_phase","broad_category":"M","image_png":"M_Marble_16.png","image_id":240,"category_name":"Marble","category":15,"distinct_rating":2.57,"distinct_type":"Bottom","item_type":"Foil","rt":1725,"stimulus":"Stimuli_Rocks480/M_Marble_16.png","response":"l","trial_type":"image-keyboard-response","trial_index":131,"plugin_version":"2.1.0","time_elapsed":248235,"subject_id":"90768","group":"Group2","condition":"1_Rep","full_date":"2026-03-04T18:34:00.404Z","date":"2026-03-04","time":"18:34:00","cor_ans":false},{"trial_type":"html-keyboard-response","rt":null,"stimulus":"<p style=\"color: red; font-size: 50px; font-weight: bold;\">Incorrect</p>","response":null,"trial_index":132,"plugin_version":"2.1.0","time_elapsed":248751,"subject_id":"90768","group":"Group2","condition":"1_Rep","full_date":"2026-03-04T18:34:00.404Z","date":"2026-03-04","time":"18:34:00"},{"correct_response":"a","task":"test_phase","broad_category":"M","image_png":"M_Quartzite_05.png","image_id":277,"category_name":"Quartzite","category":18,"distinct_rating":2.23,"distinct_type":"Bottom","item_type":"Foil","rt":797,"stimulus":"Stimuli_Rocks480/M_Quartzite_05.png","response":"l","trial_type":"image-keyboard-response","trial_index":133,"plugin_version":"2.1.0","time_elapsed":249551,"subject_id":"90768","group":"Group2","condition":"1_Rep","full_date":"2026-03-04T18:34:00.404Z","date":"2026-03-04","time":"18:34:00","cor_ans":false},{"trial_type":"html-keyboard-response","rt":null,"stimulus":"<p style=\"color: red; font-size: 50px; font-weight: bold;\">Incorrect</p>","response":null,"trial_index":134,"plugin_version":"2.1.0","time_elapsed":250053,"subject_id":"90768","group":"Group2","condition":"1_Rep","full_date":"2026-03-04T18:34:00.404Z","date":"2026-03-04","time":"18:34:00"},{"correct_response":"a","task":"test_phase","broad_category":"M","image_png":"M_Gneiss_13.png","image_id":205,"category_name":"Gneiss","category":13,"distinct_rating":3.26,"distinct_type":"Bottom","item_type":"Foil","rt":818,"stimulus":"Stimuli_Rocks480/M_Gneiss_13.png","response":"l","trial_type":"image-keyboard-response","trial_index":135,"plugin_version":"2.1.0","time_elapsed":250874,"subject_id":"90768","group":"Group2","condition":"1_Rep","full_date":"2026-03-04T18:34:00.404Z","date":"2026-03-04","time":"18:34:00","cor_ans":false},{"trial_type":"html-keyboard-response","rt":null,"stimulus":"<p style=\"color: red; font-size: 50px; font-weight: bold;\">Incorrect</p>","response":null,"trial_index":136,"plugin_version":"2.1.0","time_elapsed":251382,"subject_id":"90768","group":"Group2","condition":"1_Rep","full_date":"2026-03-04T18:34:00.404Z","date":"2026-03-04","time":"18:34:00"},{"correct_response":"a","task":"test_phase","broad_category":"S","image_png":"S_Shale_01.png","image_id":465,"category_name":"Shale","category":30,"distinct_rating":2.7,"distinct_type":"Bottom","item_type":"Foil","rt":1318,"stimulus":"Stimuli_Rocks480/S_Shale_01.png","response":"a","trial_type":"image-keyboard-response","trial_index":137,"plugin_version":"2.1.0","time_elapsed":252703,"subject_id":"90768","group":"Group2","condition":"1_Rep","full_date":"2026-03-04T18:34:00.404Z","date":"2026-03-04","time":"18:34:00","cor_ans":true},{"trial_type":"html-keyboard-response","rt":null,"stimulus":"<p style=\"color: green; font-size: 50px; font-weight: bold;\">Correct</p>","response":null,"trial_index":138,"plugin_version":"2.1.0","time_elapsed":253208,"subject_id":"90768","group":"Group2","condition":"1_Rep","full_date":"2026-03-04T18:34:00.404Z","date":"2026-03-04","time":"18:34:00"},{"correct_response":"a","task":"test_phase","broad_category":"I","image_png":"I_Rhyolite_14.png","image_id":158,"category_name":"Rhyolite","category":10,"distinct_rating":2.59,"distinct_type":"Bottom","item_type":"Foil","rt":875,"stimulus":"Stimuli_Rocks480/I_Rhyolite_14.png","response":"a","trial_type":"image-keyboard-response","trial_index":139,"plugin_version":"2.1.0","time_elapsed":254088,"subject_id":"90768","group":"Group2","condition":"1_Rep","full_date":"2026-03-04T18:34:00.404Z","date":"2026-03-04","time":"18:34:00","cor_ans":true},{"trial_type":"html-keyboard-response","rt":null,"stimulus":"<p style=\"color: green; font-size: 50px; font-weight: bold;\">Correct</p>","response":null,"trial_index":140,"plugin_version":"2.1.0","time_elapsed":254592,"subject_id":"90768","group":"Group2","condition":"1_Rep","full_date":"2026-03-04T18:34:00.404Z","date":"2026-03-04","time":"18:34:00"},{"correct_response":"a","task":"test_phase","broad_category":"S","image_png":"S_Sandstone_15.png","image_id":463,"category_name":"Sandstone","category":29,"distinct_rating":2,"distinct_type":"Bottom","item_type":"Foil","rt":1081,"stimulus":"Stimuli_Rocks480/S_Sandstone_15.png","response":"l","trial_type":"image-keyboard-response","trial_index":141,"plugin_version":"2.1.0","time_elapsed":255677,"subject_id":"90768","group":"Group2","condition":"1_Rep","full_date":"2026-03-04T18:34:00.404Z","date":"2026-03-04","time":"18:34:00","cor_ans":false},{"trial_type":"html-keyboard-response","rt":null,"stimulus":"<p style=\"color: red; font-size: 50px; font-weight: bold;\">Incorrect</p>","response":null,"trial_index":142,"plugin_version":"2.1.0","time_elapsed":256182,"subject_id":"90768","group":"Group2","condition":"1_Rep","full_date":"2026-03-04T18:34:00.404Z","date":"2026-03-04","time":"18:34:00"},{"correct_response":"l","task":"test_phase","broad_category":"I","image_png":"I_Diorite_15.png","image_id":47,"category_name":"Diorite","category":3,"distinct_rating":3.05,"distinct_type":"Bottom","item_type":"Target","rt":799,"stimulus":"Stimuli_Rocks480/I_Diorite_15.png","response":"a","trial_type":"image-keyboard-response","trial_index":143,"plugin_version":"2.1.0","time_elapsed":256985,"subject_id":"90768","group":"Group2","condition":"1_Rep","full_date":"2026-03-04T18:34:00.404Z","date":"2026-03-04","time":"18:34:00","cor_ans":false},{"trial_type":"html-keyboard-response","rt":null,"stimulus":"<p style=\"color: red; font-size: 50px; font-weight: bold;\">Incorrect</p>","response":null,"trial_index":144,"plugin_version":"2.1.0","time_elapsed":257500,"subject_id":"90768","group":"Group2","condition":"1_Rep","full_date":"2026-03-04T18:34:00.404Z","date":"2026-03-04","time":"18:34:00"},{"correct_response":"a","task":"test_phase","broad_category":"M","image_png":"M_Quartzite_13.png","image_id":285,"category_name":"Quartzite","category":18,"distinct_rating":2.27,"distinct_type":"Bottom","item_type":"Foil","rt":1491,"stimulus":"Stimuli_Rocks480/M_Quartzite_13.png","response":"l","trial_type":"image-keyboard-response","trial_index":145,"plugin_version":"2.1.0","time_elapsed":258995,"subject_id":"90768","group":"Group2","condition":"1_Rep","full_date":"2026-03-04T18:34:00.404Z","date":"2026-03-04","time":"18:34:00","cor_ans":false},{"trial_type":"html-keyboard-response","rt":null,"stimulus":"<p style=\"color: red; font-size: 50px; font-weight: bold;\">Incorrect</p>","response":null,"trial_index":146,"plugin_version":"2.1.0","time_elapsed":259511,"subject_id":"90768","group":"Group2","condition":"1_Rep","full_date":"2026-03-04T18:34:00.404Z","date":"2026-03-04","time":"18:34:00"},{"correct_response":"l","task":"test_phase","broad_category":"I","image_png":"I_Pumice_01.png","image_id":129,"category_name":"Pumice","category":9,"distinct_rating":3.25,"distinct_type":"Bottom","item_type":"Target","rt":2910,"stimulus":"Stimuli_Rocks480/I_Pumice_01.png","response":"a","trial_type":"image-keyboard-response","trial_index":147,"plugin_version":"2.1.0","time_elapsed":262425,"subject_id":"90768","group":"Group2","condition":"1_Rep","full_date":"2026-03-04T18:34:00.404Z","date":"2026-03-04","time":"18:34:00","cor_ans":false},{"trial_type":"html-keyboard-response","rt":null,"stimulus":"<p style=\"color: red; font-size: 50px; font-weight: bold;\">Incorrect</p>","response":null,"trial_index":148,"plugin_version":"2.1.0","time_elapsed":262942,"subject_id":"90768","group":"Group2","condition":"1_Rep","full_date":"2026-03-04T18:34:00.404Z","date":"2026-03-04","time":"18:34:00"},{"correct_response":"l","task":"test_phase","broad_category":"S","image_png":"S_Conglomerate_14.png","image_id":382,"category_name":"Conglomerate","category":24,"distinct_rating":6.86,"distinct_type":"Top","item_type":"Target","rt":1257,"stimulus":"Stimuli_Rocks480/S_Conglomerate_14.png","response":"l","trial_type":"image-keyboard-response","trial_index":149,"plugin_version":"2.1.0","time_elapsed":264203,"subject_id":"90768","group":"Group2","condition":"1_Rep","full_date":"2026-03-04T18:34:00.404Z","date":"2026-03-04","time":"18:34:00","cor_ans":true},{"trial_type":"html-keyboard-response","rt":null,"stimulus":"<p style=\"color: green; font-size: 50px; font-weight: bold;\">Correct</p>","response":null,"trial_index":150,"plugin_version":"2.1.0","time_elapsed":264716,"subject_id":"90768","group":"Group2","condition":"1_Rep","full_date":"2026-03-04T18:34:00.404Z","date":"2026-03-04","time":"18:34:00"},{"correct_response":"l","task":"test_phase","broad_category":"M","image_png":"M_Quartzite_15.png","image_id":287,"category_name":"Quartzite","category":18,"distinct_rating":2.19,"distinct_type":"Bottom","item_type":"Target","rt":739,"stimulus":"Stimuli_Rocks480/M_Quartzite_15.png","response":"l","trial_type":"image-keyboard-response","trial_index":151,"plugin_version":"2.1.0","time_elapsed":265458,"subject_id":"90768","group":"Group2","condition":"1_Rep","full_date":"2026-03-04T18:34:00.404Z","date":"2026-03-04","time":"18:34:00","cor_ans":true},{"trial_type":"html-keyboard-response","rt":null,"stimulus":"<p style=\"color: green; font-size: 50px; font-weight: bold;\">Correct</p>","response":null,"trial_index":152,"plugin_version":"2.1.0","time_elapsed":265968,"subject_id":"90768","group":"Group2","condition":"1_Rep","full_date":"2026-03-04T18:34:00.404Z","date":"2026-03-04","time":"18:34:00"},{"correct_response":"a","task":"test_phase","broad_category":"S","image_png":"S_Shale_08.png","image_id":472,"category_name":"Shale","category":30,"distinct_rating":2.55,"distinct_type":"Bottom","item_type":"Foil","rt":920,"stimulus":"Stimuli_Rocks480/S_Shale_08.png","response":"a","trial_type":"image-keyboard-response","trial_index":153,"plugin_version":"2.1.0","time_elapsed":266891,"subject_id":"90768","group":"Group2","condition":"1_Rep","full_date":"2026-03-04T18:34:00.404Z","date":"2026-03-04","time":"18:34:00","cor_ans":true},{"trial_type":"html-keyboard-response","rt":null,"stimulus":"<p style=\"color: green; font-size: 50px; font-weight: bold;\">Correct</p>","response":null,"trial_index":154,"plugin_version":"2.1.0","time_elapsed":267392,"subject_id":"90768","group":"Group2","condition":"1_Rep","full_date":"2026-03-04T18:34:00.404Z","date":"2026-03-04","time":"18:34:00"},{"correct_response":"l","task":"test_phase","broad_category":"I","image_png":"I_Basalt_10.png","image_id":26,"category_name":"Basalt","category":2,"distinct_rating":2.76,"distinct_type":"Bottom","item_type":"Target","rt":1338,"stimulus":"Stimuli_Rocks480/I_Basalt_10.png","response":"l","trial_type":"image-keyboard-response","trial_index":155,"plugin_version":"2.1.0","time_elapsed":268734,"subject_id":"90768","group":"Group2","condition":"1_Rep","full_date":"2026-03-04T18:34:00.404Z","date":"2026-03-04","time":"18:34:00","cor_ans":true},{"trial_type":"html-keyboard-response","rt":null,"stimulus":"<p style=\"color: green; font-size: 50px; font-weight: bold;\">Correct</p>","response":null,"trial_index":156,"plugin_version":"2.1.0","time_elapsed":269250,"subject_id":"90768","group":"Group2","condition":"1_Rep","full_date":"2026-03-04T18:34:00.404Z","date":"2026-03-04","time":"18:34:00"},{"correct_response":"a","task":"test_phase","broad_category":"M","image_png":"M_Marble_06.png","image_id":230,"category_name":"Marble","category":15,"distinct_rating":3.4,"distinct_type":"Bottom","item_type":"Foil","rt":988,"stimulus":"Stimuli_Rocks480/M_Marble_06.png","response":"l","trial_type":"image-keyboard-response","trial_index":157,"plugin_version":"2.1.0","time_elapsed":270239,"subject_id":"90768","group":"Group2","condition":"1_Rep","full_date":"2026-03-04T18:34:00.404Z","date":"2026-03-04","time":"18:34:00","cor_ans":false},{"trial_type":"html-keyboard-response","rt":null,"stimulus":"<p style=\"color: red; font-size: 50px; font-weight: bold;\">Incorrect</p>","response":null,"trial_index":158,"plugin_version":"2.1.0","time_elapsed":270753,"subject_id":"90768","group":"Group2","condition":"1_Rep","full_date":"2026-03-04T18:34:00.404Z","date":"2026-03-04","time":"18:34:00"},{"correct_response":"l","task":"test_phase","broad_category":"I","image_png":"I_Gabbro_14.png","image_id":62,"category_name":"Gabbro","category":4,"distinct_rating":2.95,"distinct_type":"Bottom","item_type":"Target","rt":1612,"stimulus":"Stimuli_Rocks480/I_Gabbro_14.png","response":"l","trial_type":"image-keyboard-response","trial_index":159,"plugin_version":"2.1.0","time_elapsed":272368,"subject_id":"90768","group":"Group2","condition":"1_Rep","full_date":"2026-03-04T18:34:00.404Z","date":"2026-03-04","time":"18:34:00","cor_ans":true},{"trial_type":"html-keyboard-response","rt":null,"stimulus":"<p style=\"color: green; font-size: 50px; font-weight: bold;\">Correct</p>","response":null,"trial_index":160,"plugin_version":"2.1.0","time_elapsed":272881,"subject_id":"90768","group":"Group2","condition":"1_Rep","full_date":"2026-03-04T18:34:00.404Z","date":"2026-03-04","time":"18:34:00"},{"correct_response":"a","task":"test_phase","broad_category":"I","image_png":"I_Diorite_05.png","image_id":37,"category_name":"Diorite","category":3,"distinct_rating":3.08,"distinct_type":"Bottom","item_type":"Foil","rt":1384,"stimulus":"Stimuli_Rocks480/I_Diorite_05.png","response":"a","trial_type":"image-keyboard-response","trial_index":161,"plugin_version":"2.1.0","time_elapsed":274268,"subject_id":"90768","group":"Group2","condition":"1_Rep","full_date":"2026-03-04T18:34:00.404Z","date":"2026-03-04","time":"18:34:00","cor_ans":true},{"trial_type":"html-keyboard-response","rt":null,"stimulus":"<p style=\"color: green; font-size: 50px; font-weight: bold;\">Correct</p>","response":null,"trial_index":162,"plugin_version":"2.1.0","time_elapsed":274775,"subject_id":"90768","group":"Group2","condition":"1_Rep","full_date":"2026-03-04T18:34:00.404Z","date":"2026-03-04","time":"18:34:00"},{"correct_response":"l","task":"test_phase","broad_category":"M","image_png":"M_Gneiss_15.png","image_id":207,"category_name":"Gneiss","category":13,"distinct_rating":3.11,"distinct_type":"Bottom","item_type":"Target","rt":877,"stimulus":"Stimuli_Rocks480/M_Gneiss_15.png","response":"l","trial_type":"image-keyboard-response","trial_index":163,"plugin_version":"2.1.0","time_elapsed":275655,"subject_id":"90768","group":"Group2","condition":"1_Rep","full_date":"2026-03-04T18:34:00.404Z","date":"2026-03-04","time":"18:34:00","cor_ans":true},{"trial_type":"html-keyboard-response","rt":null,"stimulus":"<p style=\"color: green; font-size: 50px; font-weight: bold;\">Correct</p>","response":null,"trial_index":164,"plugin_version":"2.1.0","time_elapsed":276164,"subject_id":"90768","group":"Group2","condition":"1_Rep","full_date":"2026-03-04T18:34:00.404Z","date":"2026-03-04","time":"18:34:00"},{"correct_response":"a","task":"test_phase","broad_category":"I","image_png":"I_Gabbro_08.png","image_id":56,"category_name":"Gabbro","category":4,"distinct_rating":3.02,"distinct_type":"Bottom","item_type":"Foil","rt":2039,"stimulus":"Stimuli_Rocks480/I_Gabbro_08.png","response":"a","trial_type":"image-keyboard-response","trial_index":165,"plugin_version":"2.1.0","time_elapsed":278209,"subject_id":"90768","group":"Group2","condition":"1_Rep","full_date":"2026-03-04T18:34:00.404Z","date":"2026-03-04","time":"18:34:00","cor_ans":true},{"trial_type":"html-keyboard-response","rt":null,"stimulus":"<p style=\"color: green; font-size: 50px; font-weight: bold;\">Correct</p>","response":null,"trial_index":166,"plugin_version":"2.1.0","time_elapsed":278717,"subject_id":"90768","group":"Group2","condition":"1_Rep","full_date":"2026-03-04T18:34:00.404Z","date":"2026-03-04","time":"18:34:00"},{"correct_response":"l","task":"test_phase","broad_category":"M","image_png":"M_Phyllite_05.png","image_id":261,"category_name":"Phyllite","category":17,"distinct_rating":2.14,"distinct_type":"Bottom","item_type":"Target","rt":1317,"stimulus":"Stimuli_Rocks480/M_Phyllite_05.png","response":"l","trial_type":"image-keyboard-response","trial_index":167,"plugin_version":"2.1.0","time_elapsed":280038,"subject_id":"90768","group":"Group2","condition":"1_Rep","full_date":"2026-03-04T18:34:00.404Z","date":"2026-03-04","time":"18:34:00","cor_ans":true},{"trial_type":"html-keyboard-response","rt":null,"stimulus":"<p style=\"color: green; font-size: 50px; font-weight: bold;\">Correct</p>","response":null,"trial_index":168,"plugin_version":"2.1.0","time_elapsed":280552,"subject_id":"90768","group":"Group2","condition":"1_Rep","full_date":"2026-03-04T18:34:00.404Z","date":"2026-03-04","time":"18:34:00"},{"correct_response":"a","task":"test_phase","broad_category":"I","image_png":"I_Basalt_09.png","image_id":25,"category_name":"Basalt","category":2,"distinct_rating":1.89,"distinct_type":"Bottom","item_type":"Foil","rt":770,"stimulus":"Stimuli_Rocks480/I_Basalt_09.png","response":"l","trial_type":"image-keyboard-response","trial_index":169,"plugin_version":"2.1.0","time_elapsed":281325,"subject_id":"90768","group":"Group2","condition":"1_Rep","full_date":"2026-03-04T18:34:00.404Z","date":"2026-03-04","time":"18:34:00","cor_ans":false},{"trial_type":"html-keyboard-response","rt":null,"stimulus":"<p style=\"color: red; font-size: 50px; font-weight: bold;\">Incorrect</p>","response":null,"trial_index":170,"plugin_version":"2.1.0","time_elapsed":281829,"subject_id":"90768","group":"Group2","condition":"1_Rep","full_date":"2026-03-04T18:34:00.404Z","date":"2026-03-04","time":"18:34:00"},{"correct_response":"a","task":"test_phase","broad_category":"M","image_png":"M_Quartzite_08.png","image_id":280,"category_name":"Quartzite","category":18,"distinct_rating":2.15,"distinct_type":"Bottom","item_type":"Foil","rt":915,"stimulus":"Stimuli_Rocks480/M_Quartzite_08.png","response":"l","trial_type":"image-keyboard-response","trial_index":171,"plugin_version":"2.1.0","time_elapsed":282747,"subject_id":"90768","group":"Group2","condition":"1_Rep","full_date":"2026-03-04T18:34:00.404Z","date":"2026-03-04","time":"18:34:00","cor_ans":false},{"trial_type":"html-keyboard-response","rt":null,"stimulus":"<p style=\"color: red; font-size: 50px; font-weight: bold;\">Incorrect</p>","response":null,"trial_index":172,"plugin_version":"2.1.0","time_elapsed":283261,"subject_id":"90768","group":"Group2","condition":"1_Rep","full_date":"2026-03-04T18:34:00.404Z","date":"2026-03-04","time":"18:34:00"},{"correct_response":"l","task":"test_phase","broad_category":"M","image_png":"M_Marble_14.png","image_id":238,"category_name":"Marble","category":15,"distinct_rating":3.31,"distinct_type":"Bottom","item_type":"Target","rt":892,"stimulus":"Stimuli_Rocks480/M_Marble_14.png","response":"l","trial_type":"image-keyboard-response","trial_index":173,"plugin_version":"2.1.0","time_elapsed":284156,"subject_id":"90768","group":"Group2","condition":"1_Rep","full_date":"2026-03-04T18:34:00.404Z","date":"2026-03-04","time":"18:34:00","cor_ans":true},{"trial_type":"html-keyboard-response","rt":null,"stimulus":"<p style=\"color: green; font-size: 50px; font-weight: bold;\">Correct</p>","response":null,"trial_index":174,"plugin_version":"2.1.0","time_elapsed":284661,"subject_id":"90768","group":"Group2","condition":"1_Rep","full_date":"2026-03-04T18:34:00.404Z","date":"2026-03-04","time":"18:34:00"},{"correct_response":"a","task":"test_phase","broad_category":"I","image_png":"I_Rhyolite_11.png","image_id":155,"category_name":"Rhyolite","category":10,"distinct_rating":1.73,"distinct_type":"Bottom","item_type":"Foil","rt":1149,"stimulus":"Stimuli_Rocks480/I_Rhyolite_11.png","response":"l","trial_type":"image-keyboard-response","trial_index":175,"plugin_version":"2.1.0","time_elapsed":285815,"subject_id":"90768","group":"Group2","condition":"1_Rep","full_date":"2026-03-04T18:34:00.404Z","date":"2026-03-04","time":"18:34:00","cor_ans":false},{"trial_type":"html-keyboard-response","rt":null,"stimulus":"<p style=\"color: red; font-size: 50px; font-weight: bold;\">Incorrect</p>","response":null,"trial_index":176,"plugin_version":"2.1.0","time_elapsed":286329,"subject_id":"90768","group":"Group2","condition":"1_Rep","full_date":"2026-03-04T18:34:00.404Z","date":"2026-03-04","time":"18:34:00"},{"correct_response":"l","task":"test_phase","broad_category":"S","image_png":"S_Dolomite_16.png","image_id":400,"category_name":"Dolomite","category":25,"distinct_rating":1.71,"distinct_type":"Bottom","item_type":"Target","rt":1081,"stimulus":"Stimuli_Rocks480/S_Dolomite_16.png","response":"a","trial_type":"image-keyboard-response","trial_index":177,"plugin_version":"2.1.0","time_elapsed":287413,"subject_id":"90768","group":"Group2","condition":"1_Rep","full_date":"2026-03-04T18:34:00.404Z","date":"2026-03-04","time":"18:34:00","cor_ans":false},{"trial_type":"html-keyboard-response","rt":null,"stimulus":"<p style=\"color: red; font-size: 50px; font-weight: bold;\">Incorrect</p>","response":null,"trial_index":178,"plugin_version":"2.1.0","time_elapsed":287926,"subject_id":"90768","group":"Group2","condition":"1_Rep","full_date":"2026-03-04T18:34:00.404Z","date":"2026-03-04","time":"18:34:00"},{"correct_response":"l","task":"test_phase","broad_category":"I","image_png":"I_Basalt_08.png","image_id":24,"category_name":"Basalt","category":2,"distinct_rating":2.31,"distinct_type":"Bottom","item_type":"Target","rt":693,"stimulus":"Stimuli_Rocks480/I_Basalt_08.png","response":"l","trial_type":"image-keyboard-response","trial_index":179,"plugin_version":"2.1.0","time_elapsed":288623,"subject_id":"90768","group":"Group2","condition":"1_Rep","full_date":"2026-03-04T18:34:00.404Z","date":"2026-03-04","time":"18:34:00","cor_ans":true},{"trial_type":"html-keyboard-response","rt":null,"stimulus":"<p style=\"color: green; font-size: 50px; font-weight: bold;\">Correct</p>","response":null,"trial_index":180,"plugin_version":"2.1.0","time_elapsed":289142,"subject_id":"90768","group":"Group2","condition":"1_Rep","full_date":"2026-03-04T18:34:00.404Z","date":"2026-03-04","time":"18:34:00"},{"correct_response":"l","task":"test_phase","broad_category":"I","image_png":"I_Pegmatite_03.png","image_id":99,"category_name":"Pegmatite","category":7,"distinct_rating":7.24,"distinct_type":"Top","item_type":"Target","rt":718,"stimulus":"Stimuli_Rocks480/I_Pegmatite_03.png","response":"l","trial_type":"image-keyboard-response","trial_index":181,"plugin_version":"2.1.0","time_elapsed":289865,"subject_id":"90768","group":"Group2","condition":"1_Rep","full_date":"2026-03-04T18:34:00.404Z","date":"2026-03-04","time":"18:34:00","cor_ans":true},{"trial_type":"html-keyboard-response","rt":null,"stimulus":"<p style=\"color: green; font-size: 50px; font-weight: bold;\">Correct</p>","response":null,"trial_index":182,"plugin_version":"2.1.0","time_elapsed":290368,"subject_id":"90768","group":"Group2","condition":"1_Rep","full_date":"2026-03-04T18:34:00.404Z","date":"2026-03-04","time":"18:34:00"},{"correct_response":"a","task":"test_phase","broad_category":"I","image_png":"I_Pumice_08.png","image_id":136,"category_name":"Pumice","category":9,"distinct_rating":3.1,"distinct_type":"Bottom","item_type":"Foil","rt":1010,"stimulus":"Stimuli_Rocks480/I_Pumice_08.png","response":"a","trial_type":"image-keyboard-response","trial_index":183,"plugin_version":"2.1.0","time_elapsed":291382,"subject_id":"90768","group":"Group2","condition":"1_Rep","full_date":"2026-03-04T18:34:00.404Z","date":"2026-03-04","time":"18:34:00","cor_ans":true},{"trial_type":"html-keyboard-response","rt":null,"stimulus":"<p style=\"color: green; font-size: 50px; font-weight: bold;\">Correct</p>","response":null,"trial_index":184,"plugin_version":"2.1.0","time_elapsed":291884,"subject_id":"90768","group":"Group2","condition":"1_Rep","full_date":"2026-03-04T18:34:00.404Z","date":"2026-03-04","time":"18:34:00"},{"correct_response":"l","task":"test_phase","broad_category":"I","image_png":"I_Rhyolite_05.png","image_id":149,"category_name":"Rhyolite","category":10,"distinct_rating":3.02,"distinct_type":"Bottom","item_type":"Target","rt":1714,"stimulus":"Stimuli_Rocks480/I_Rhyolite_05.png","response":"l","trial_type":"image-keyboard-response","trial_index":185,"plugin_version":"2.1.0","time_elapsed":293601,"subject_id":"90768","group":"Group2","condition":"1_Rep","full_date":"2026-03-04T18:34:00.404Z","date":"2026-03-04","time":"18:34:00","cor_ans":true},{"trial_type":"html-keyboard-response","rt":null,"stimulus":"<p style=\"color: green; font-size: 50px; font-weight: bold;\">Correct</p>","response":null,"trial_index":186,"plugin_version":"2.1.0","time_elapsed":294116,"subject_id":"90768","group":"Group2","condition":"1_Rep","full_date":"2026-03-04T18:34:00.404Z","date":"2026-03-04","time":"18:34:00"},{"correct_response":"l","task":"test_phase","broad_category":"I","image_png":"I_Pumice_13.png","image_id":141,"category_name":"Pumice","category":9,"distinct_rating":3.12,"distinct_type":"Bottom","item_type":"Target","rt":709,"stimulus":"Stimuli_Rocks480/I_Pumice_13.png","response":"l","trial_type":"image-keyboard-response","trial_index":187,"plugin_version":"2.1.0","time_elapsed":294828,"subject_id":"90768","group":"Group2","condition":"1_Rep","full_date":"2026-03-04T18:34:00.404Z","date":"2026-03-04","time":"18:34:00","cor_ans":true},{"trial_type":"html-keyboard-response","rt":null,"stimulus":"<p style=\"color: green; font-size: 50px; font-weight: bold;\">Correct</p>","response":null,"trial_index":188,"plugin_version":"2.1.0","time_elapsed":295334,"subject_id":"90768","group":"Group2","condition":"1_Rep","full_date":"2026-03-04T18:34:00.404Z","date":"2026-03-04","time":"18:34:00"},{"correct_response":"a","task":"test_phase","broad_category":"M","image_png":"M_Slate_15.png","image_id":319,"category_name":"Slate","category":20,"distinct_rating":2.13,"distinct_type":"Bottom","item_type":"Foil","rt":1659,"stimulus":"Stimuli_Rocks480/M_Slate_15.png","response":"l","trial_type":"image-keyboard-response","trial_index":189,"plugin_version":"2.1.0","time_elapsed":296997,"subject_id":"90768","group":"Group2","condition":"1_Rep","full_date":"2026-03-04T18:34:00.404Z","date":"2026-03-04","time":"18:34:00","cor_ans":false},{"trial_type":"html-keyboard-response","rt":null,"stimulus":"<p style=\"color: red; font-size: 50px; font-weight: bold;\">Incorrect</p>","response":null,"trial_index":190,"plugin_version":"2.1.0","time_elapsed":297500,"subject_id":"90768","group":"Group2","condition":"1_Rep","full_date":"2026-03-04T18:34:00.404Z","date":"2026-03-04","time":"18:34:00"},{"correct_response":"l","task":"test_phase","broad_category":"M","image_png":"M_Slate_04.png","image_id":308,"category_name":"Slate","category":20,"distinct_rating":2.2,"distinct_type":"Bottom","item_type":"Target","rt":1830,"stimulus":"Stimuli_Rocks480/M_Slate_04.png","response":"a","trial_type":"image-keyboard-response","trial_index":191,"plugin_version":"2.1.0","time_elapsed":299333,"subject_id":"90768","group":"Group2","condition":"1_Rep","full_date":"2026-03-04T18:34:00.404Z","date":"2026-03-04","time":"18:34:00","cor_ans":false},{"trial_type":"html-keyboard-response","rt":null,"stimulus":"<p style=\"color: red; font-size: 50px; font-weight: bold;\">Incorrect</p>","response":null,"trial_index":192,"plugin_version":"2.1.0","time_elapsed":299845,"subject_id":"90768","group":"Group2","condition":"1_Rep","full_date":"2026-03-04T18:34:00.404Z","date":"2026-03-04","time":"18:34:00"},{"correct_response":"l","task":"test_phase","broad_category":"I","image_png":"I_Andesite_03.png","image_id":3,"category_name":"Andesite","category":1,"distinct_rating":3.17,"distinct_type":"Bottom","item_type":"Target","rt":2437,"stimulus":"Stimuli_Rocks480/I_Andesite_03.png","response":"l","trial_type":"image-keyboard-response","trial_index":193,"plugin_version":"2.1.0","time_elapsed":302286,"subject_id":"90768","group":"Group2","condition":"1_Rep","full_date":"2026-03-04T18:34:00.404Z","date":"2026-03-04","time":"18:34:00","cor_ans":true},{"trial_type":"html-keyboard-response","rt":null,"stimulus":"<p style=\"color: green; font-size: 50px; font-weight: bold;\">Correct</p>","response":null,"trial_index":194,"plugin_version":"2.1.0","time_elapsed":302795,"subject_id":"90768","group":"Group2","condition":"1_Rep","full_date":"2026-03-04T18:34:00.404Z","date":"2026-03-04","time":"18:34:00"},{"correct_response":"l","task":"test_phase","broad_category":"M","image_png":"M_Marble_03.png","image_id":227,"category_name":"Marble","category":15,"distinct_rating":2.67,"distinct_type":"Bottom","item_type":"Target","rt":843,"stimulus":"Stimuli_Rocks480/M_Marble_03.png","response":"l","trial_type":"image-keyboard-response","trial_index":195,"plugin_version":"2.1.0","time_elapsed":303641,"subject_id":"90768","group":"Group2","condition":"1_Rep","full_date":"2026-03-04T18:34:00.404Z","date":"2026-03-04","time":"18:34:00","cor_ans":true},{"trial_type":"html-keyboard-response","rt":null,"stimulus":"<p style=\"color: green; font-size: 50px; font-weight: bold;\">Correct</p>","response":null,"trial_index":196,"plugin_version":"2.1.0","time_elapsed":304157,"subject_id":"90768","group":"Group2","condition":"1_Rep","full_date":"2026-03-04T18:34:00.404Z","date":"2026-03-04","time":"18:34:00"},{"correct_response":"a","task":"test_phase","broad_category":"S","image_png":"S_Chert_10.png","image_id":362,"category_name":"Chert","category":23,"distinct_rating":7.17,"distinct_type":"Top","item_type":"Foil","rt":1159,"stimulus":"Stimuli_Rocks480/S_Chert_10.png","response":"a","trial_type":"image-keyboard-response","trial_index":197,"plugin_version":"2.1.0","time_elapsed":305320,"subject_id":"90768","group":"Group2","condition":"1_Rep","full_date":"2026-03-04T18:34:00.404Z","date":"2026-03-04","time":"18:34:00","cor_ans":true},{"trial_type":"html-keyboard-response","rt":null,"stimulus":"<p style=\"color: green; font-size: 50px; font-weight: bold;\">Correct</p>","response":null,"trial_index":198,"plugin_version":"2.1.0","time_elapsed":305823,"subject_id":"90768","group":"Group2","condition":"1_Rep","full_date":"2026-03-04T18:34:00.404Z","date":"2026-03-04","time":"18:34:00"},{"correct_response":"l","task":"test_phase","broad_category":"M","image_png":"M_Gneiss_14.png","image_id":206,"category_name":"Gneiss","category":13,"distinct_rating":3.41,"distinct_type":"Bottom","item_type":"Target","rt":896,"stimulus":"Stimuli_Rocks480/M_Gneiss_14.png","response":"l","trial_type":"image-keyboard-response","trial_index":199,"plugin_version":"2.1.0","time_elapsed":306723,"subject_id":"90768","group":"Group2","condition":"1_Rep","full_date":"2026-03-04T18:34:00.404Z","date":"2026-03-04","time":"18:34:00","cor_ans":true},{"trial_type":"html-keyboard-response","rt":null,"stimulus":"<p style=\"color: green; font-size: 50px; font-weight: bold;\">Correct</p>","response":null,"trial_index":200,"plugin_version":"2.1.0","time_elapsed":307228,"subject_id":"90768","group":"Group2","condition":"1_Rep","full_date":"2026-03-04T18:34:00.404Z","date":"2026-03-04","time":"18:34:00"},{"correct_response":"l","task":"test_phase","broad_category":"I","image_png":"I_Gabbro_02.png","image_id":50,"category_name":"Gabbro","category":4,"distinct_rating":2.73,"distinct_type":"Bottom","item_type":"Target","rt":1242,"stimulus":"Stimuli_Rocks480/I_Gabbro_02.png","response":"a","trial_type":"image-keyboard-response","trial_index":201,"plugin_version":"2.1.0","time_elapsed":308472,"subject_id":"90768","group":"Group2","condition":"1_Rep","full_date":"2026-03-04T18:34:00.404Z","date":"2026-03-04","time":"18:34:00","cor_ans":false},{"trial_type":"html-keyboard-response","rt":null,"stimulus":"<p style=\"color: red; font-size: 50px; font-weight: bold;\">Incorrect</p>","response":null,"trial_index":202,"plugin_version":"2.1.0","time_elapsed":308984,"subject_id":"90768","group":"Group2","condition":"1_Rep","full_date":"2026-03-04T18:34:00.404Z","date":"2026-03-04","time":"18:34:00"},{"correct_response":"a","task":"test_phase","broad_category":"M","image_png":"M_Slate_11.png","image_id":315,"category_name":"Slate","category":20,"distinct_rating":2.75,"distinct_type":"Bottom","item_type":"Foil","rt":1683,"stimulus":"Stimuli_Rocks480/M_Slate_11.png","response":"a","trial_type":"image-keyboard-response","trial_index":203,"plugin_version":"2.1.0","time_elapsed":310670,"subject_id":"90768","group":"Group2","condition":"1_Rep","full_date":"2026-03-04T18:34:00.404Z","date":"2026-03-04","time":"18:34:00","cor_ans":true},{"trial_type":"html-keyboard-response","rt":null,"stimulus":"<p style=\"color: green; font-size: 50px; font-weight: bold;\">Correct</p>","response":null,"trial_index":204,"plugin_version":"2.1.0","time_elapsed":311182,"subject_id":"90768","group":"Group2","condition":"1_Rep","full_date":"2026-03-04T18:34:00.404Z","date":"2026-03-04","time":"18:34:00"},{"correct_response":"l","task":"test_phase","broad_category":"I","image_png":"I_Diorite_10.png","image_id":42,"category_name":"Diorite","category":3,"distinct_rating":2.84,"distinct_type":"Bottom","item_type":"Target","rt":797,"stimulus":"Stimuli_Rocks480/I_Diorite_10.png","response":"l","trial_type":"image-keyboard-response","trial_index":205,"plugin_version":"2.1.0","time_elapsed":311982,"subject_id":"90768","group":"Group2","condition":"1_Rep","full_date":"2026-03-04T18:34:00.404Z","date":"2026-03-04","time":"18:34:00","cor_ans":true},{"trial_type":"html-keyboard-response","rt":null,"stimulus":"<p style=\"color: green; font-size: 50px; font-weight: bold;\">Correct</p>","response":null,"trial_index":206,"plugin_version":"2.1.0","time_elapsed":312494,"subject_id":"90768","group":"Group2","condition":"1_Rep","full_date":"2026-03-04T18:34:00.404Z","date":"2026-03-04","time":"18:34:00"},{"correct_response":"a","task":"test_phase","broad_category":"I","image_png":"I_Andesite_08.png","image_id":8,"category_name":"Andesite","category":1,"distinct_rating":1.95,"distinct_type":"Bottom","item_type":"Foil","rt":731,"stimulus":"Stimuli_Rocks480/I_Andesite_08.png","response":"a","trial_type":"image-keyboard-response","trial_index":207,"plugin_version":"2.1.0","time_elapsed":313228,"subject_id":"90768","group":"Group2","condition":"1_Rep","full_date":"2026-03-04T18:34:00.404Z","date":"2026-03-04","time":"18:34:00","cor_ans":true},{"trial_type":"html-keyboard-response","rt":null,"stimulus":"<p style=\"color: green; font-size: 50px; font-weight: bold;\">Correct</p>","response":null,"trial_index":208,"plugin_version":"2.1.0","time_elapsed":313733,"subject_id":"90768","group":"Group2","condition":"1_Rep","full_date":"2026-03-04T18:34:00.404Z","date":"2026-03-04","time":"18:34:00"},{"correct_response":"l","task":"test_phase","broad_category":"S","image_png":"S_Sandstone_11.png","image_id":459,"category_name":"Sandstone","category":29,"distinct_rating":1.82,"distinct_type":"Bottom","item_type":"Target","rt":1147,"stimulus":"Stimuli_Rocks480/S_Sandstone_11.png","response":"a","trial_type":"image-keyboard-response","trial_index":209,"plugin_version":"2.1.0","time_elapsed":314883,"subject_id":"90768","group":"Group2","condition":"1_Rep","full_date":"2026-03-04T18:34:00.404Z","date":"2026-03-04","time":"18:34:00","cor_ans":false},{"trial_type":"html-keyboard-response","rt":null,"stimulus":"<p style=\"color: red; font-size: 50px; font-weight: bold;\">Incorrect</p>","response":null,"trial_index":210,"plugin_version":"2.1.0","time_elapsed":315391,"subject_id":"90768","group":"Group2","condition":"1_Rep","full_date":"2026-03-04T18:34:00.404Z","date":"2026-03-04","time":"18:34:00"},{"correct_response":"l","task":"test_phase","broad_category":"I","image_png":"I_Andesite_04.png","image_id":4,"category_name":"Andesite","category":1,"distinct_rating":3.18,"distinct_type":"Bottom","item_type":"Target","rt":1820,"stimulus":"Stimuli_Rocks480/I_Andesite_04.png","response":"l","trial_type":"image-keyboard-response","trial_index":211,"plugin_version":"2.1.0","time_elapsed":317217,"subject_id":"90768","group":"Group2","condition":"1_Rep","full_date":"2026-03-04T18:34:00.404Z","date":"2026-03-04","time":"18:34:00","cor_ans":true},{"trial_type":"html-keyboard-response","rt":null,"stimulus":"<p style=\"color: green; font-size: 50px; font-weight: bold;\">Correct</p>","response":null,"trial_index":212,"plugin_version":"2.1.0","time_elapsed":317726,"subject_id":"90768","group":"Group2","condition":"1_Rep","full_date":"2026-03-04T18:34:00.404Z","date":"2026-03-04","time":"18:34:00"},{"correct_response":"l","task":"test_phase","broad_category":"M","image_png":"M_Slate_14.png","image_id":318,"category_name":"Slate","category":20,"distinct_rating":2.58,"distinct_type":"Bottom","item_type":"Target","rt":1407,"stimulus":"Stimuli_Rocks480/M_Slate_14.png","response":"l","trial_type":"image-keyboard-response","trial_index":213,"plugin_version":"2.1.0","time_elapsed":319136,"subject_id":"90768","group":"Group2","condition":"1_Rep","full_date":"2026-03-04T18:34:00.404Z","date":"2026-03-04","time":"18:34:00","cor_ans":true},{"trial_type":"html-keyboard-response","rt":null,"stimulus":"<p style=\"color: green; font-size: 50px; font-weight: bold;\">Correct</p>","response":null,"trial_index":214,"plugin_version":"2.1.0","time_elapsed":319639,"subject_id":"90768","group":"Group2","condition":"1_Rep","full_date":"2026-03-04T18:34:00.404Z","date":"2026-03-04","time":"18:34:00"},{"correct_response":"a","task":"test_phase","broad_category":"S","image_png":"S_Rock Salt_01.png","image_id":433,"category_name":"Rock Salt","category":28,"distinct_rating":7.18,"distinct_type":"Top","item_type":"Foil","rt":1530,"stimulus":"Stimuli_Rocks480/S_Rock Salt_01.png","response":"a","trial_type":"image-keyboard-response","trial_index":215,"plugin_version":"2.1.0","time_elapsed":321171,"subject_id":"90768","group":"Group2","condition":"1_Rep","full_date":"2026-03-04T18:34:00.404Z","date":"2026-03-04","time":"18:34:00","cor_ans":true},{"trial_type":"html-keyboard-response","rt":null,"stimulus":"<p style=\"color: green; font-size: 50px; font-weight: bold;\">Correct</p>","response":null,"trial_index":216,"plugin_version":"2.1.0","time_elapsed":321673,"subject_id":"90768","group":"Group2","condition":"1_Rep","full_date":"2026-03-04T18:34:00.404Z","date":"2026-03-04","time":"18:34:00"},{"correct_response":"a","task":"test_phase","broad_category":"M","image_png":"M_Phyllite_07.png","image_id":263,"category_name":"Phyllite","category":17,"distinct_rating":2.59,"distinct_type":"Bottom","item_type":"Foil","rt":857,"stimulus":"Stimuli_Rocks480/M_Phyllite_07.png","response":"l","trial_type":"image-keyboard-response","trial_index":217,"plugin_version":"2.1.0","time_elapsed":322534,"subject_id":"90768","group":"Group2","condition":"1_Rep","full_date":"2026-03-04T18:34:00.404Z","date":"2026-03-04","time":"18:34:00","cor_ans":false},{"trial_type":"html-keyboard-response","rt":null,"stimulus":"<p style=\"color: red; font-size: 50px; font-weight: bold;\">Incorrect</p>","response":null,"trial_index":218,"plugin_version":"2.1.0","time_elapsed":323037,"subject_id":"90768","group":"Group2","condition":"1_Rep","full_date":"2026-03-04T18:34:00.404Z","date":"2026-03-04","time":"18:34:00"},{"correct_response":"a","task":"test_phase","broad_category":"I","image_png":"I_Pegmatite_16.png","image_id":112,"category_name":"Pegmatite","category":7,"distinct_rating":7.03,"distinct_type":"Top","item_type":"Foil","rt":1467,"stimulus":"Stimuli_Rocks480/I_Pegmatite_16.png","response":"a","trial_type":"image-keyboard-response","trial_index":219,"plugin_version":"2.1.0","time_elapsed":324508,"subject_id":"90768","group":"Group2","condition":"1_Rep","full_date":"2026-03-04T18:34:00.404Z","date":"2026-03-04","time":"18:34:00","cor_ans":true},{"trial_type":"html-keyboard-response","rt":null,"stimulus":"<p style=\"color: green; font-size: 50px; font-weight: bold;\">Correct</p>","response":null,"trial_index":220,"plugin_version":"2.1.0","time_elapsed":325015,"subject_id":"90768","group":"Group2","condition":"1_Rep","full_date":"2026-03-04T18:34:00.404Z","date":"2026-03-04","time":"18:34:00"},{"correct_response":"l","task":"test_phase","broad_category":"M","image_png":"M_Quartzite_07.png","image_id":279,"category_name":"Quartzite","category":18,"distinct_rating":1.97,"distinct_type":"Bottom","item_type":"Target","rt":1030,"stimulus":"Stimuli_Rocks480/M_Quartzite_07.png","response":"l","trial_type":"image-keyboard-response","trial_index":221,"plugin_version":"2.1.0","time_elapsed":326048,"subject_id":"90768","group":"Group2","condition":"1_Rep","full_date":"2026-03-04T18:34:00.404Z","date":"2026-03-04","time":"18:34:00","cor_ans":true},{"trial_type":"html-keyboard-response","rt":null,"stimulus":"<p style=\"color: green; font-size: 50px; font-weight: bold;\">Correct</p>","response":null,"trial_index":222,"plugin_version":"2.1.0","time_elapsed":326552,"subject_id":"90768","group":"Group2","condition":"1_Rep","full_date":"2026-03-04T18:34:00.404Z","date":"2026-03-04","time":"18:34:00"},{"correct_response":"a","task":"test_phase","broad_category":"M","image_png":"M_Slate_03.png","image_id":307,"category_name":"Slate","category":20,"distinct_rating":1.87,"distinct_type":"Bottom","item_type":"Foil","rt":840,"stimulus":"Stimuli_Rocks480/M_Slate_03.png","response":"l","trial_type":"image-keyboard-response","trial_index":223,"plugin_version":"2.1.0","time_elapsed":327395,"subject_id":"90768","group":"Group2","condition":"1_Rep","full_date":"2026-03-04T18:34:00.404Z","date":"2026-03-04","time":"18:34:00","cor_ans":false},{"trial_type":"html-keyboard-response","rt":null,"stimulus":"<p style=\"color: red; font-size: 50px; font-weight: bold;\">Incorrect</p>","response":null,"trial_index":224,"plugin_version":"2.1.0","time_elapsed":327897,"subject_id":"90768","group":"Group2","condition":"1_Rep","full_date":"2026-03-04T18:34:00.404Z","date":"2026-03-04","time":"18:34:00"},{"correct_response":"a","task":"test_phase","broad_category":"S","image_png"