[{"width":1728,"height":1000,"webaudio":true,"browser":"safari","browser_version":"26.0.1","mobile":false,"os":"Mac OS","fullscreen":true,"vsync_rate":60.18,"webcam":true,"microphone":true,"trial_type":"browser-check","trial_index":0,"plugin_version":"2.1.0","time_elapsed":1006,"subject_id":"91916","group":"Group2","condition":"3_Rep","full_date":"2026-03-12T17:08:27.999Z","date":"2026-03-12","time":"17:08:27"},{"success":true,"timeout":false,"failed_images":[],"failed_audio":[],"failed_video":[],"trial_type":"preload","trial_index":1,"plugin_version":"2.1.0","time_elapsed":4981,"subject_id":"91916","group":"Group2","condition":"3_Rep","full_date":"2026-03-12T17:08:27.999Z","date":"2026-03-12","time":"17:08:27"},{"rt":8135,"url":"SONA_consent_memorability.html","trial_type":"external-html","trial_index":2,"plugin_version":"2.1.0","time_elapsed":13230,"subject_id":"91916","group":"Group2","condition":"3_Rep","full_date":"2026-03-12T17:08:27.999Z","date":"2026-03-12","time":"17:08:27"},{"success":true,"rt":1084,"trial_type":"fullscreen","trial_index":3,"plugin_version":"2.1.0","time_elapsed":15321,"subject_id":"91916","group":"Group2","condition":"3_Rep","full_date":"2026-03-12T17:08:27.999Z","date":"2026-03-12","time":"17:08:27"},{"rt":1261,"stimulus":"<div style=\"max-width: 760px; margin: auto; font-size: 20px; line-height: 1.5;\">\n      <h1 style=\"text-align:center; font-size: 30px;\">Instructions</h1>\n      <p>\n        Welcome to the study on <b>visual memory</b>. This experiment consists of <b>two phases</b>: \n        a <b>study phase</b> and a <b>test phase</b>.\n      </p>\n      <p>\n        In the study phase, you will see a series of rock images along with their category labels.\n        The images will appear one at a time.\n        <b>Your task</b> is to learn the categories to which the rock images belong \n        and to remember each image as accurately as possible.\n      </p> \n      <p>\n        Note that we will repeat the study phase <b>3 times</b>, \n             so you will have multiple opportunities to see and remember each image.\n      </p>\n      <p>\n        After the study phase, <b>your memory will be tested</b>. \n        Additional instructions for the test phase will be provided at that time.\n      </p>\n      <p>\n        If your computer has multiple <b>language settings</b> (e.g., English and another language),\n        please make sure it is set to English before starting.\n      </p>\n      <p>\n        You can track your progress using the <b>completion bar</b> at the top of the screen. \n        Please note that the bar will refresh when the test phase begins \n        to give you an accurate sense of your progress in both phases.\n      </p> \n      <p>\n        Press the button below when you are ready to begin.\n      </p>\n    </div>","response":0,"trial_type":"html-button-response","trial_index":4,"plugin_version":"2.1.0","time_elapsed":16584,"subject_id":"91916","group":"Group2","condition":"3_Rep","full_date":"2026-03-12T17:08:27.999Z","date":"2026-03-12","time":"17:08:27"},{"rt":null,"stimulus":"<p style=\"font-size: 50px; margin: 0; text-align: center;\">+</p>","response":null,"trial_type":"html-keyboard-response","trial_index":5,"plugin_version":"2.1.0","time_elapsed":17588,"subject_id":"91916","group":"Group2","condition":"3_Rep","full_date":"2026-03-12T17:08:27.999Z","date":"2026-03-12","time":"17:08:27"},{"task":"memory_phase","broad_category":"I","image_png":"I_Pegmatite_03.png","image_id":99,"category_name":"Pegmatite","category":7,"distinct_rating":7.24,"distinct_type":"Top","rt":null,"stimulus":"Stimuli_Rocks480/I_Pegmatite_03.png","response":null,"trial_type":"image-keyboard-response","trial_index":6,"plugin_version":"2.1.0","time_elapsed":20100,"subject_id":"91916","group":"Group2","condition":"3_Rep","full_date":"2026-03-12T17:08:27.999Z","date":"2026-03-12","time":"17:08:27"},{"rt":null,"stimulus":"<p style=\"font-size: 50px; margin: 0; text-align: center;\">+</p>","response":null,"trial_type":"html-keyboard-response","trial_index":7,"plugin_version":"2.1.0","time_elapsed":21103,"subject_id":"91916","group":"Group2","condition":"3_Rep","full_date":"2026-03-12T17:08:27.999Z","date":"2026-03-12","time":"17:08:27"},{"task":"memory_phase","broad_category":"I","image_png":"I_Diorite_01.png","image_id":33,"category_name":"Diorite","category":3,"distinct_rating":2.97,"distinct_type":"Bottom","rt":null,"stimulus":"Stimuli_Rocks480/I_Diorite_01.png","response":null,"trial_type":"image-keyboard-response","trial_index":8,"plugin_version":"2.1.0","time_elapsed":23624,"subject_id":"91916","group":"Group2","condition":"3_Rep","full_date":"2026-03-12T17:08:27.999Z","date":"2026-03-12","time":"17:08:27"},{"rt":null,"stimulus":"<p style=\"font-size: 50px; margin: 0; text-align: center;\">+</p>","response":null,"trial_type":"html-keyboard-response","trial_index":9,"plugin_version":"2.1.0","time_elapsed":24626,"subject_id":"91916","group":"Group2","condition":"3_Rep","full_date":"2026-03-12T17:08:27.999Z","date":"2026-03-12","time":"17:08:27"},{"task":"memory_phase","broad_category":"M","image_png":"M_Gneiss_15.png","image_id":207,"category_name":"Gneiss","category":13,"distinct_rating":3.11,"distinct_type":"Bottom","rt":null,"stimulus":"Stimuli_Rocks480/M_Gneiss_15.png","response":null,"trial_type":"image-keyboard-response","trial_index":10,"plugin_version":"2.1.0","time_elapsed":27138,"subject_id":"91916","group":"Group2","condition":"3_Rep","full_date":"2026-03-12T17:08:27.999Z","date":"2026-03-12","time":"17:08:27"},{"rt":null,"stimulus":"<p style=\"font-size: 50px; margin: 0; text-align: center;\">+</p>","response":null,"trial_type":"html-keyboard-response","trial_index":11,"plugin_version":"2.1.0","time_elapsed":28141,"subject_id":"91916","group":"Group2","condition":"3_Rep","full_date":"2026-03-12T17:08:27.999Z","date":"2026-03-12","time":"17:08:27"},{"task":"memory_phase","broad_category":"S","image_png":"S_Chert_13.png","image_id":365,"category_name":"Chert","category":23,"distinct_rating":6.57,"distinct_type":"Top","rt":null,"stimulus":"Stimuli_Rocks480/S_Chert_13.png","response":null,"trial_type":"image-keyboard-response","trial_index":12,"plugin_version":"2.1.0","time_elapsed":30655,"subject_id":"91916","group":"Group2","condition":"3_Rep","full_date":"2026-03-12T17:08:27.999Z","date":"2026-03-12","time":"17:08:27"},{"rt":null,"stimulus":"<p style=\"font-size: 50px; margin: 0; text-align: center;\">+</p>","response":null,"trial_type":"html-keyboard-response","trial_index":13,"plugin_version":"2.1.0","time_elapsed":31657,"subject_id":"91916","group":"Group2","condition":"3_Rep","full_date":"2026-03-12T17:08:27.999Z","date":"2026-03-12","time":"17:08:27"},{"task":"memory_phase","broad_category":"M","image_png":"M_Quartzite_07.png","image_id":279,"category_name":"Quartzite","category":18,"distinct_rating":1.97,"distinct_type":"Bottom","rt":null,"stimulus":"Stimuli_Rocks480/M_Quartzite_07.png","response":null,"trial_type":"image-keyboard-response","trial_index":14,"plugin_version":"2.1.0","time_elapsed":34174,"subject_id":"91916","group":"Group2","condition":"3_Rep","full_date":"2026-03-12T17:08:27.999Z","date":"2026-03-12","time":"17:08:27"},{"rt":null,"stimulus":"<p style=\"font-size: 50px; margin: 0; text-align: center;\">+</p>","response":null,"trial_type":"html-keyboard-response","trial_index":15,"plugin_version":"2.1.0","time_elapsed":35177,"subject_id":"91916","group":"Group2","condition":"3_Rep","full_date":"2026-03-12T17:08:27.999Z","date":"2026-03-12","time":"17:08:27"},{"task":"memory_phase","broad_category":"I","image_png":"I_Andesite_03.png","image_id":3,"category_name":"Andesite","category":1,"distinct_rating":3.17,"distinct_type":"Bottom","rt":null,"stimulus":"Stimuli_Rocks480/I_Andesite_03.png","response":null,"trial_type":"image-keyboard-response","trial_index":16,"plugin_version":"2.1.0","time_elapsed":37689,"subject_id":"91916","group":"Group2","condition":"3_Rep","full_date":"2026-03-12T17:08:27.999Z","date":"2026-03-12","time":"17:08:27"},{"rt":null,"stimulus":"<p style=\"font-size: 50px; margin: 0; text-align: center;\">+</p>","response":null,"trial_type":"html-keyboard-response","trial_index":17,"plugin_version":"2.1.0","time_elapsed":38692,"subject_id":"91916","group":"Group2","condition":"3_Rep","full_date":"2026-03-12T17:08:27.999Z","date":"2026-03-12","time":"17:08:27"},{"task":"memory_phase","broad_category":"S","image_png":"S_Shale_02.png","image_id":466,"category_name":"Shale","category":30,"distinct_rating":2.9,"distinct_type":"Bottom","rt":null,"stimulus":"Stimuli_Rocks480/S_Shale_02.png","response":null,"trial_type":"image-keyboard-response","trial_index":18,"plugin_version":"2.1.0","time_elapsed":41205,"subject_id":"91916","group":"Group2","condition":"3_Rep","full_date":"2026-03-12T17:08:27.999Z","date":"2026-03-12","time":"17:08:27"},{"rt":null,"stimulus":"<p style=\"font-size: 50px; margin: 0; text-align: center;\">+</p>","response":null,"trial_type":"html-keyboard-response","trial_index":19,"plugin_version":"2.1.0","time_elapsed":42208,"subject_id":"91916","group":"Group2","condition":"3_Rep","full_date":"2026-03-12T17:08:27.999Z","date":"2026-03-12","time":"17:08:27"},{"task":"memory_phase","broad_category":"I","image_png":"I_Diorite_10.png","image_id":42,"category_name":"Diorite","category":3,"distinct_rating":2.84,"distinct_type":"Bottom","rt":null,"stimulus":"Stimuli_Rocks480/I_Diorite_10.png","response":null,"trial_type":"image-keyboard-response","trial_index":20,"plugin_version":"2.1.0","time_elapsed":44723,"subject_id":"91916","group":"Group2","condition":"3_Rep","full_date":"2026-03-12T17:08:27.999Z","date":"2026-03-12","time":"17:08:27"},{"rt":null,"stimulus":"<p style=\"font-size: 50px; margin: 0; text-align: center;\">+</p>","response":null,"trial_type":"html-keyboard-response","trial_index":21,"plugin_version":"2.1.0","time_elapsed":45726,"subject_id":"91916","group":"Group2","condition":"3_Rep","full_date":"2026-03-12T17:08:27.999Z","date":"2026-03-12","time":"17:08:27"},{"task":"memory_phase","broad_category":"I","image_png":"I_Basalt_08.png","image_id":24,"category_name":"Basalt","category":2,"distinct_rating":2.31,"distinct_type":"Bottom","rt":null,"stimulus":"Stimuli_Rocks480/I_Basalt_08.png","response":null,"trial_type":"image-keyboard-response","trial_index":22,"plugin_version":"2.1.0","time_elapsed":48246,"subject_id":"91916","group":"Group2","condition":"3_Rep","full_date":"2026-03-12T17:08:27.999Z","date":"2026-03-12","time":"17:08:27"},{"rt":null,"stimulus":"<p style=\"font-size: 50px; margin: 0; text-align: center;\">+</p>","response":null,"trial_type":"html-keyboard-response","trial_index":23,"plugin_version":"2.1.0","time_elapsed":49249,"subject_id":"91916","group":"Group2","condition":"3_Rep","full_date":"2026-03-12T17:08:27.999Z","date":"2026-03-12","time":"17:08:27"},{"task":"memory_phase","broad_category":"M","image_png":"M_Phyllite_05.png","image_id":261,"category_name":"Phyllite","category":17,"distinct_rating":2.14,"distinct_type":"Bottom","rt":null,"stimulus":"Stimuli_Rocks480/M_Phyllite_05.png","response":null,"trial_type":"image-keyboard-response","trial_index":24,"plugin_version":"2.1.0","time_elapsed":51764,"subject_id":"91916","group":"Group2","condition":"3_Rep","full_date":"2026-03-12T17:08:27.999Z","date":"2026-03-12","time":"17:08:27"},{"rt":null,"stimulus":"<p style=\"font-size: 50px; margin: 0; text-align: center;\">+</p>","response":null,"trial_type":"html-keyboard-response","trial_index":25,"plugin_version":"2.1.0","time_elapsed":52767,"subject_id":"91916","group":"Group2","condition":"3_Rep","full_date":"2026-03-12T17:08:27.999Z","date":"2026-03-12","time":"17:08:27"},{"task":"memory_phase","broad_category":"S","image_png":"S_Dolomite_16.png","image_id":400,"category_name":"Dolomite","category":25,"distinct_rating":1.71,"distinct_type":"Bottom","rt":null,"stimulus":"Stimuli_Rocks480/S_Dolomite_16.png","response":null,"trial_type":"image-keyboard-response","trial_index":26,"plugin_version":"2.1.0","time_elapsed":55281,"subject_id":"91916","group":"Group2","condition":"3_Rep","full_date":"2026-03-12T17:08:27.999Z","date":"2026-03-12","time":"17:08:27"},{"rt":null,"stimulus":"<p style=\"font-size: 50px; margin: 0; text-align: center;\">+</p>","response":null,"trial_type":"html-keyboard-response","trial_index":27,"plugin_version":"2.1.0","time_elapsed":56283,"subject_id":"91916","group":"Group2","condition":"3_Rep","full_date":"2026-03-12T17:08:27.999Z","date":"2026-03-12","time":"17:08:27"},{"task":"memory_phase","broad_category":"I","image_png":"I_Pumice_01.png","image_id":129,"category_name":"Pumice","category":9,"distinct_rating":3.25,"distinct_type":"Bottom","rt":null,"stimulus":"Stimuli_Rocks480/I_Pumice_01.png","response":null,"trial_type":"image-keyboard-response","trial_index":28,"plugin_version":"2.1.0","time_elapsed":58801,"subject_id":"91916","group":"Group2","condition":"3_Rep","full_date":"2026-03-12T17:08:27.999Z","date":"2026-03-12","time":"17:08:27"},{"rt":null,"stimulus":"<p style=\"font-size: 50px; margin: 0; text-align: center;\">+</p>","response":null,"trial_type":"html-keyboard-response","trial_index":29,"plugin_version":"2.1.0","time_elapsed":59804,"subject_id":"91916","group":"Group2","condition":"3_Rep","full_date":"2026-03-12T17:08:27.999Z","date":"2026-03-12","time":"17:08:27"},{"task":"memory_phase","broad_category":"I","image_png":"I_Diorite_15.png","image_id":47,"category_name":"Diorite","category":3,"distinct_rating":3.05,"distinct_type":"Bottom","rt":null,"stimulus":"Stimuli_Rocks480/I_Diorite_15.png","response":null,"trial_type":"image-keyboard-response","trial_index":30,"plugin_version":"2.1.0","time_elapsed":62318,"subject_id":"91916","group":"Group2","condition":"3_Rep","full_date":"2026-03-12T17:08:27.999Z","date":"2026-03-12","time":"17:08:27"},{"rt":null,"stimulus":"<p style=\"font-size: 50px; margin: 0; text-align: center;\">+</p>","response":null,"trial_type":"html-keyboard-response","trial_index":31,"plugin_version":"2.1.0","time_elapsed":63321,"subject_id":"91916","group":"Group2","condition":"3_Rep","full_date":"2026-03-12T17:08:27.999Z","date":"2026-03-12","time":"17:08:27"},{"task":"memory_phase","broad_category":"M","image_png":"M_Slate_04.png","image_id":308,"category_name":"Slate","category":20,"distinct_rating":2.2,"distinct_type":"Bottom","rt":null,"stimulus":"Stimuli_Rocks480/M_Slate_04.png","response":null,"trial_type":"image-keyboard-response","trial_index":32,"plugin_version":"2.1.0","time_elapsed":65836,"subject_id":"91916","group":"Group2","condition":"3_Rep","full_date":"2026-03-12T17:08:27.999Z","date":"2026-03-12","time":"17:08:27"},{"rt":null,"stimulus":"<p style=\"font-size: 50px; margin: 0; text-align: center;\">+</p>","response":null,"trial_type":"html-keyboard-response","trial_index":33,"plugin_version":"2.1.0","time_elapsed":66839,"subject_id":"91916","group":"Group2","condition":"3_Rep","full_date":"2026-03-12T17:08:27.999Z","date":"2026-03-12","time":"17:08:27"},{"task":"memory_phase","broad_category":"I","image_png":"I_Rhyolite_05.png","image_id":149,"category_name":"Rhyolite","category":10,"distinct_rating":3.02,"distinct_type":"Bottom","rt":null,"stimulus":"Stimuli_Rocks480/I_Rhyolite_05.png","response":null,"trial_type":"image-keyboard-response","trial_index":34,"plugin_version":"2.1.0","time_elapsed":69357,"subject_id":"91916","group":"Group2","condition":"3_Rep","full_date":"2026-03-12T17:08:27.999Z","date":"2026-03-12","time":"17:08:27"},{"rt":null,"stimulus":"<p style=\"font-size: 50px; margin: 0; text-align: center;\">+</p>","response":null,"trial_type":"html-keyboard-response","trial_index":35,"plugin_version":"2.1.0","time_elapsed":70360,"subject_id":"91916","group":"Group2","condition":"3_Rep","full_date":"2026-03-12T17:08:27.999Z","date":"2026-03-12","time":"17:08:27"},{"task":"memory_phase","broad_category":"I","image_png":"I_Andesite_09.png","image_id":9,"category_name":"Andesite","category":1,"distinct_rating":2.49,"distinct_type":"Bottom","rt":null,"stimulus":"Stimuli_Rocks480/I_Andesite_09.png","response":null,"trial_type":"image-keyboard-response","trial_index":36,"plugin_version":"2.1.0","time_elapsed":72874,"subject_id":"91916","group":"Group2","condition":"3_Rep","full_date":"2026-03-12T17:08:27.999Z","date":"2026-03-12","time":"17:08:27"},{"rt":null,"stimulus":"<p style=\"font-size: 50px; margin: 0; text-align: center;\">+</p>","response":null,"trial_type":"html-keyboard-response","trial_index":37,"plugin_version":"2.1.0","time_elapsed":73876,"subject_id":"91916","group":"Group2","condition":"3_Rep","full_date":"2026-03-12T17:08:27.999Z","date":"2026-03-12","time":"17:08:27"},{"task":"memory_phase","broad_category":"S","image_png":"S_Rock Salt_13.png","image_id":445,"category_name":"Rock Salt","category":28,"distinct_rating":7.58,"distinct_type":"Top","rt":null,"stimulus":"Stimuli_Rocks480/S_Rock Salt_13.png","response":null,"trial_type":"image-keyboard-response","trial_index":38,"plugin_version":"2.1.0","time_elapsed":76393,"subject_id":"91916","group":"Group2","condition":"3_Rep","full_date":"2026-03-12T17:08:27.999Z","date":"2026-03-12","time":"17:08:27"},{"rt":null,"stimulus":"<p style=\"font-size: 50px; margin: 0; text-align: center;\">+</p>","response":null,"trial_type":"html-keyboard-response","trial_index":39,"plugin_version":"2.1.0","time_elapsed":77396,"subject_id":"91916","group":"Group2","condition":"3_Rep","full_date":"2026-03-12T17:08:27.999Z","date":"2026-03-12","time":"17:08:27"},{"task":"memory_phase","broad_category":"M","image_png":"M_Quartzite_15.png","image_id":287,"category_name":"Quartzite","category":18,"distinct_rating":2.19,"distinct_type":"Bottom","rt":null,"stimulus":"Stimuli_Rocks480/M_Quartzite_15.png","response":null,"trial_type":"image-keyboard-response","trial_index":40,"plugin_version":"2.1.0","time_elapsed":79912,"subject_id":"91916","group":"Group2","condition":"3_Rep","full_date":"2026-03-12T17:08:27.999Z","date":"2026-03-12","time":"17:08:27"},{"rt":null,"stimulus":"<p style=\"font-size: 50px; margin: 0; text-align: center;\">+</p>","response":null,"trial_type":"html-keyboard-response","trial_index":41,"plugin_version":"2.1.0","time_elapsed":80915,"subject_id":"91916","group":"Group2","condition":"3_Rep","full_date":"2026-03-12T17:08:27.999Z","date":"2026-03-12","time":"17:08:27"},{"task":"memory_phase","broad_category":"S","image_png":"S_Sandstone_04.png","image_id":452,"category_name":"Sandstone","category":29,"distinct_rating":1.8,"distinct_type":"Bottom","rt":null,"stimulus":"Stimuli_Rocks480/S_Sandstone_04.png","response":null,"trial_type":"image-keyboard-response","trial_index":42,"plugin_version":"2.1.0","time_elapsed":83431,"subject_id":"91916","group":"Group2","condition":"3_Rep","full_date":"2026-03-12T17:08:27.999Z","date":"2026-03-12","time":"17:08:27"},{"rt":null,"stimulus":"<p style=\"font-size: 50px; margin: 0; text-align: center;\">+</p>","response":null,"trial_type":"html-keyboard-response","trial_index":43,"plugin_version":"2.1.0","time_elapsed":84434,"subject_id":"91916","group":"Group2","condition":"3_Rep","full_date":"2026-03-12T17:08:27.999Z","date":"2026-03-12","time":"17:08:27"},{"task":"memory_phase","broad_category":"M","image_png":"M_Gneiss_14.png","image_id":206,"category_name":"Gneiss","category":13,"distinct_rating":3.41,"distinct_type":"Bottom","rt":null,"stimulus":"Stimuli_Rocks480/M_Gneiss_14.png","response":null,"trial_type":"image-keyboard-response","trial_index":44,"plugin_version":"2.1.0","time_elapsed":86952,"subject_id":"91916","group":"Group2","condition":"3_Rep","full_date":"2026-03-12T17:08:27.999Z","date":"2026-03-12","time":"17:08:27"},{"rt":null,"stimulus":"<p style=\"font-size: 50px; margin: 0; text-align: center;\">+</p>","response":null,"trial_type":"html-keyboard-response","trial_index":45,"plugin_version":"2.1.0","time_elapsed":87953,"subject_id":"91916","group":"Group2","condition":"3_Rep","full_date":"2026-03-12T17:08:27.999Z","date":"2026-03-12","time":"17:08:27"},{"task":"memory_phase","broad_category":"S","image_png":"S_Sandstone_08.png","image_id":456,"category_name":"Sandstone","category":29,"distinct_rating":1.5,"distinct_type":"Bottom","rt":null,"stimulus":"Stimuli_Rocks480/S_Sandstone_08.png","response":null,"trial_type":"image-keyboard-response","trial_index":46,"plugin_version":"2.1.0","time_elapsed":90467,"subject_id":"91916","group":"Group2","condition":"3_Rep","full_date":"2026-03-12T17:08:27.999Z","date":"2026-03-12","time":"17:08:27"},{"rt":null,"stimulus":"<p style=\"font-size: 50px; margin: 0; text-align: center;\">+</p>","response":null,"trial_type":"html-keyboard-response","trial_index":47,"plugin_version":"2.1.0","time_elapsed":91470,"subject_id":"91916","group":"Group2","condition":"3_Rep","full_date":"2026-03-12T17:08:27.999Z","date":"2026-03-12","time":"17:08:27"},{"task":"memory_phase","broad_category":"S","image_png":"S_Dolomite_01.png","image_id":385,"category_name":"Dolomite","category":25,"distinct_rating":1.43,"distinct_type":"Bottom","rt":null,"stimulus":"Stimuli_Rocks480/S_Dolomite_01.png","response":null,"trial_type":"image-keyboard-response","trial_index":48,"plugin_version":"2.1.0","time_elapsed":93987,"subject_id":"91916","group":"Group2","condition":"3_Rep","full_date":"2026-03-12T17:08:27.999Z","date":"2026-03-12","time":"17:08:27"},{"rt":null,"stimulus":"<p style=\"font-size: 50px; margin: 0; text-align: center;\">+</p>","response":null,"trial_type":"html-keyboard-response","trial_index":49,"plugin_version":"2.1.0","time_elapsed":94990,"subject_id":"91916","group":"Group2","condition":"3_Rep","full_date":"2026-03-12T17:08:27.999Z","date":"2026-03-12","time":"17:08:27"},{"task":"memory_phase","broad_category":"M","image_png":"M_Quartzite_12.png","image_id":284,"category_name":"Quartzite","category":18,"distinct_rating":1.92,"distinct_type":"Bottom","rt":null,"stimulus":"Stimuli_Rocks480/M_Quartzite_12.png","response":null,"trial_type":"image-keyboard-response","trial_index":50,"plugin_version":"2.1.0","time_elapsed":97504,"subject_id":"91916","group":"Group2","condition":"3_Rep","full_date":"2026-03-12T17:08:27.999Z","date":"2026-03-12","time":"17:08:27"},{"rt":null,"stimulus":"<p style=\"font-size: 50px; margin: 0; text-align: center;\">+</p>","response":null,"trial_type":"html-keyboard-response","trial_index":51,"plugin_version":"2.1.0","time_elapsed":98506,"subject_id":"91916","group":"Group2","condition":"3_Rep","full_date":"2026-03-12T17:08:27.999Z","date":"2026-03-12","time":"17:08:27"},{"task":"memory_phase","broad_category":"I","image_png":"I_Rhyolite_10.png","image_id":154,"category_name":"Rhyolite","category":10,"distinct_rating":2.88,"distinct_type":"Bottom","rt":null,"stimulus":"Stimuli_Rocks480/I_Rhyolite_10.png","response":null,"trial_type":"image-keyboard-response","trial_index":52,"plugin_version":"2.1.0","time_elapsed":101028,"subject_id":"91916","group":"Group2","condition":"3_Rep","full_date":"2026-03-12T17:08:27.999Z","date":"2026-03-12","time":"17:08:27"},{"rt":null,"stimulus":"<p style=\"font-size: 50px; margin: 0; text-align: center;\">+</p>","response":null,"trial_type":"html-keyboard-response","trial_index":53,"plugin_version":"2.1.0","time_elapsed":102030,"subject_id":"91916","group":"Group2","condition":"3_Rep","full_date":"2026-03-12T17:08:27.999Z","date":"2026-03-12","time":"17:08:27"},{"task":"memory_phase","broad_category":"I","image_png":"I_Basalt_10.png","image_id":26,"category_name":"Basalt","category":2,"distinct_rating":2.76,"distinct_type":"Bottom","rt":null,"stimulus":"Stimuli_Rocks480/I_Basalt_10.png","response":null,"trial_type":"image-keyboard-response","trial_index":54,"plugin_version":"2.1.0","time_elapsed":104547,"subject_id":"91916","group":"Group2","condition":"3_Rep","full_date":"2026-03-12T17:08:27.999Z","date":"2026-03-12","time":"17:08:27"},{"rt":2032,"stimulus":"<p style=\"max-width: 760px; margin: auto; font-size: 35px; line-height: 1.5;\">\n                Press SPACE to continue study phase\n              </p>","response":" ","trial_type":"html-keyboard-response","trial_index":55,"plugin_version":"2.1.0","time_elapsed":106581,"subject_id":"91916","group":"Group2","condition":"3_Rep","full_date":"2026-03-12T17:08:27.999Z","date":"2026-03-12","time":"17:08:27"},{"rt":null,"stimulus":"<p style=\"font-size: 50px; margin: 0; text-align: center;\">+</p>","response":null,"trial_type":"html-keyboard-response","trial_index":56,"plugin_version":"2.1.0","time_elapsed":107584,"subject_id":"91916","group":"Group2","condition":"3_Rep","full_date":"2026-03-12T17:08:27.999Z","date":"2026-03-12","time":"17:08:27"},{"task":"memory_phase","broad_category":"S","image_png":"S_Dolomite_07.png","image_id":391,"category_name":"Dolomite","category":25,"distinct_rating":1.73,"distinct_type":"Bottom","rt":null,"stimulus":"Stimuli_Rocks480/S_Dolomite_07.png","response":null,"trial_type":"image-keyboard-response","trial_index":57,"plugin_version":"2.1.0","time_elapsed":110101,"subject_id":"91916","group":"Group2","condition":"3_Rep","full_date":"2026-03-12T17:08:27.999Z","date":"2026-03-12","time":"17:08:27"},{"rt":null,"stimulus":"<p style=\"font-size: 50px; margin: 0; text-align: center;\">+</p>","response":null,"trial_type":"html-keyboard-response","trial_index":58,"plugin_version":"2.1.0","time_elapsed":111103,"subject_id":"91916","group":"Group2","condition":"3_Rep","full_date":"2026-03-12T17:08:27.999Z","date":"2026-03-12","time":"17:08:27"},{"task":"memory_phase","broad_category":"I","image_png":"I_Basalt_13.png","image_id":29,"category_name":"Basalt","category":2,"distinct_rating":2.68,"distinct_type":"Bottom","rt":null,"stimulus":"Stimuli_Rocks480/I_Basalt_13.png","response":null,"trial_type":"image-keyboard-response","trial_index":59,"plugin_version":"2.1.0","time_elapsed":113617,"subject_id":"91916","group":"Group2","condition":"3_Rep","full_date":"2026-03-12T17:08:27.999Z","date":"2026-03-12","time":"17:08:27"},{"rt":null,"stimulus":"<p style=\"font-size: 50px; margin: 0; text-align: center;\">+</p>","response":null,"trial_type":"html-keyboard-response","trial_index":60,"plugin_version":"2.1.0","time_elapsed":114620,"subject_id":"91916","group":"Group2","condition":"3_Rep","full_date":"2026-03-12T17:08:27.999Z","date":"2026-03-12","time":"17:08:27"},{"task":"memory_phase","broad_category":"I","image_png":"I_Rhyolite_08.png","image_id":152,"category_name":"Rhyolite","category":10,"distinct_rating":1.38,"distinct_type":"Bottom","rt":null,"stimulus":"Stimuli_Rocks480/I_Rhyolite_08.png","response":null,"trial_type":"image-keyboard-response","trial_index":61,"plugin_version":"2.1.0","time_elapsed":117134,"subject_id":"91916","group":"Group2","condition":"3_Rep","full_date":"2026-03-12T17:08:27.999Z","date":"2026-03-12","time":"17:08:27"},{"rt":null,"stimulus":"<p style=\"font-size: 50px; margin: 0; text-align: center;\">+</p>","response":null,"trial_type":"html-keyboard-response","trial_index":62,"plugin_version":"2.1.0","time_elapsed":118137,"subject_id":"91916","group":"Group2","condition":"3_Rep","full_date":"2026-03-12T17:08:27.999Z","date":"2026-03-12","time":"17:08:27"},{"task":"memory_phase","broad_category":"M","image_png":"M_Phyllite_13.png","image_id":269,"category_name":"Phyllite","category":17,"distinct_rating":2.8,"distinct_type":"Bottom","rt":null,"stimulus":"Stimuli_Rocks480/M_Phyllite_13.png","response":null,"trial_type":"image-keyboard-response","trial_index":63,"plugin_version":"2.1.0","time_elapsed":120652,"subject_id":"91916","group":"Group2","condition":"3_Rep","full_date":"2026-03-12T17:08:27.999Z","date":"2026-03-12","time":"17:08:27"},{"rt":null,"stimulus":"<p style=\"font-size: 50px; margin: 0; text-align: center;\">+</p>","response":null,"trial_type":"html-keyboard-response","trial_index":64,"plugin_version":"2.1.0","time_elapsed":121655,"subject_id":"91916","group":"Group2","condition":"3_Rep","full_date":"2026-03-12T17:08:27.999Z","date":"2026-03-12","time":"17:08:27"},{"task":"memory_phase","broad_category":"S","image_png":"S_Shale_03.png","image_id":467,"category_name":"Shale","category":30,"distinct_rating":1.95,"distinct_type":"Bottom","rt":null,"stimulus":"Stimuli_Rocks480/S_Shale_03.png","response":null,"trial_type":"image-keyboard-response","trial_index":65,"plugin_version":"2.1.0","time_elapsed":124172,"subject_id":"91916","group":"Group2","condition":"3_Rep","full_date":"2026-03-12T17:08:27.999Z","date":"2026-03-12","time":"17:08:27"},{"rt":null,"stimulus":"<p style=\"font-size: 50px; margin: 0; text-align: center;\">+</p>","response":null,"trial_type":"html-keyboard-response","trial_index":66,"plugin_version":"2.1.0","time_elapsed":125175,"subject_id":"91916","group":"Group2","condition":"3_Rep","full_date":"2026-03-12T17:08:27.999Z","date":"2026-03-12","time":"17:08:27"},{"task":"memory_phase","broad_category":"I","image_png":"I_Gabbro_12.png","image_id":60,"category_name":"Gabbro","category":4,"distinct_rating":2.6,"distinct_type":"Bottom","rt":null,"stimulus":"Stimuli_Rocks480/I_Gabbro_12.png","response":null,"trial_type":"image-keyboard-response","trial_index":67,"plugin_version":"2.1.0","time_elapsed":127692,"subject_id":"91916","group":"Group2","condition":"3_Rep","full_date":"2026-03-12T17:08:27.999Z","date":"2026-03-12","time":"17:08:27"},{"rt":null,"stimulus":"<p style=\"font-size: 50px; margin: 0; text-align: center;\">+</p>","response":null,"trial_type":"html-keyboard-response","trial_index":68,"plugin_version":"2.1.0","time_elapsed":128695,"subject_id":"91916","group":"Group2","condition":"3_Rep","full_date":"2026-03-12T17:08:27.999Z","date":"2026-03-12","time":"17:08:27"},{"task":"memory_phase","broad_category":"M","image_png":"M_Slate_10.png","image_id":314,"category_name":"Slate","category":20,"distinct_rating":1.94,"distinct_type":"Bottom","rt":null,"stimulus":"Stimuli_Rocks480/M_Slate_10.png","response":null,"trial_type":"image-keyboard-response","trial_index":69,"plugin_version":"2.1.0","time_elapsed":131208,"subject_id":"91916","group":"Group2","condition":"3_Rep","full_date":"2026-03-12T17:08:27.999Z","date":"2026-03-12","time":"17:08:27"},{"rt":null,"stimulus":"<p style=\"font-size: 50px; margin: 0; text-align: center;\">+</p>","response":null,"trial_type":"html-keyboard-response","trial_index":70,"plugin_version":"2.1.0","time_elapsed":132211,"subject_id":"91916","group":"Group2","condition":"3_Rep","full_date":"2026-03-12T17:08:27.999Z","date":"2026-03-12","time":"17:08:27"},{"task":"memory_phase","broad_category":"I","image_png":"I_Andesite_04.png","image_id":4,"category_name":"Andesite","category":1,"distinct_rating":3.18,"distinct_type":"Bottom","rt":null,"stimulus":"Stimuli_Rocks480/I_Andesite_04.png","response":null,"trial_type":"image-keyboard-response","trial_index":71,"plugin_version":"2.1.0","time_elapsed":134730,"subject_id":"91916","group":"Group2","condition":"3_Rep","full_date":"2026-03-12T17:08:27.999Z","date":"2026-03-12","time":"17:08:27"},{"rt":null,"stimulus":"<p style=\"font-size: 50px; margin: 0; text-align: center;\">+</p>","response":null,"trial_type":"html-keyboard-response","trial_index":72,"plugin_version":"2.1.0","time_elapsed":135733,"subject_id":"91916","group":"Group2","condition":"3_Rep","full_date":"2026-03-12T17:08:27.999Z","date":"2026-03-12","time":"17:08:27"},{"task":"memory_phase","broad_category":"I","image_png":"I_Gabbro_02.png","image_id":50,"category_name":"Gabbro","category":4,"distinct_rating":2.73,"distinct_type":"Bottom","rt":null,"stimulus":"Stimuli_Rocks480/I_Gabbro_02.png","response":null,"trial_type":"image-keyboard-response","trial_index":73,"plugin_version":"2.1.0","time_elapsed":138249,"subject_id":"91916","group":"Group2","condition":"3_Rep","full_date":"2026-03-12T17:08:27.999Z","date":"2026-03-12","time":"17:08:27"},{"rt":null,"stimulus":"<p style=\"font-size: 50px; margin: 0; text-align: center;\">+</p>","response":null,"trial_type":"html-keyboard-response","trial_index":74,"plugin_version":"2.1.0","time_elapsed":139251,"subject_id":"91916","group":"Group2","condition":"3_Rep","full_date":"2026-03-12T17:08:27.999Z","date":"2026-03-12","time":"17:08:27"},{"task":"memory_phase","broad_category":"M","image_png":"M_Marble_02.png","image_id":226,"category_name":"Marble","category":15,"distinct_rating":3.2,"distinct_type":"Bottom","rt":null,"stimulus":"Stimuli_Rocks480/M_Marble_02.png","response":null,"trial_type":"image-keyboard-response","trial_index":75,"plugin_version":"2.1.0","time_elapsed":141767,"subject_id":"91916","group":"Group2","condition":"3_Rep","full_date":"2026-03-12T17:08:27.999Z","date":"2026-03-12","time":"17:08:27"},{"rt":null,"stimulus":"<p style=\"font-size: 50px; margin: 0; text-align: center;\">+</p>","response":null,"trial_type":"html-keyboard-response","trial_index":76,"plugin_version":"2.1.0","time_elapsed":142769,"subject_id":"91916","group":"Group2","condition":"3_Rep","full_date":"2026-03-12T17:08:27.999Z","date":"2026-03-12","time":"17:08:27"},{"task":"memory_phase","broad_category":"S","image_png":"S_Conglomerate_14.png","image_id":382,"category_name":"Conglomerate","category":24,"distinct_rating":6.86,"distinct_type":"Top","rt":null,"stimulus":"Stimuli_Rocks480/S_Conglomerate_14.png","response":null,"trial_type":"image-keyboard-response","trial_index":77,"plugin_version":"2.1.0","time_elapsed":145283,"subject_id":"91916","group":"Group2","condition":"3_Rep","full_date":"2026-03-12T17:08:27.999Z","date":"2026-03-12","time":"17:08:27"},{"rt":null,"stimulus":"<p style=\"font-size: 50px; margin: 0; text-align: center;\">+</p>","response":null,"trial_type":"html-keyboard-response","trial_index":78,"plugin_version":"2.1.0","time_elapsed":146286,"subject_id":"91916","group":"Group2","condition":"3_Rep","full_date":"2026-03-12T17:08:27.999Z","date":"2026-03-12","time":"17:08:27"},{"task":"memory_phase","broad_category":"I","image_png":"I_Pumice_13.png","image_id":141,"category_name":"Pumice","category":9,"distinct_rating":3.12,"distinct_type":"Bottom","rt":null,"stimulus":"Stimuli_Rocks480/I_Pumice_13.png","response":null,"trial_type":"image-keyboard-response","trial_index":79,"plugin_version":"2.1.0","time_elapsed":148801,"subject_id":"91916","group":"Group2","condition":"3_Rep","full_date":"2026-03-12T17:08:27.999Z","date":"2026-03-12","time":"17:08:27"},{"rt":null,"stimulus":"<p style=\"font-size: 50px; margin: 0; text-align: center;\">+</p>","response":null,"trial_type":"html-keyboard-response","trial_index":80,"plugin_version":"2.1.0","time_elapsed":149804,"subject_id":"91916","group":"Group2","condition":"3_Rep","full_date":"2026-03-12T17:08:27.999Z","date":"2026-03-12","time":"17:08:27"},{"task":"memory_phase","broad_category":"I","image_png":"I_Pegmatite_11.png","image_id":107,"category_name":"Pegmatite","category":7,"distinct_rating":7.11,"distinct_type":"Top","rt":null,"stimulus":"Stimuli_Rocks480/I_Pegmatite_11.png","response":null,"trial_type":"image-keyboard-response","trial_index":81,"plugin_version":"2.1.0","time_elapsed":152325,"subject_id":"91916","group":"Group2","condition":"3_Rep","full_date":"2026-03-12T17:08:27.999Z","date":"2026-03-12","time":"17:08:27"},{"rt":null,"stimulus":"<p style=\"font-size: 50px; margin: 0; text-align: center;\">+</p>","response":null,"trial_type":"html-keyboard-response","trial_index":82,"plugin_version":"2.1.0","time_elapsed":153327,"subject_id":"91916","group":"Group2","condition":"3_Rep","full_date":"2026-03-12T17:08:27.999Z","date":"2026-03-12","time":"17:08:27"},{"task":"memory_phase","broad_category":"I","image_png":"I_Pumice_14.png","image_id":142,"category_name":"Pumice","category":9,"distinct_rating":3.22,"distinct_type":"Bottom","rt":null,"stimulus":"Stimuli_Rocks480/I_Pumice_14.png","response":null,"trial_type":"image-keyboard-response","trial_index":83,"plugin_version":"2.1.0","time_elapsed":155843,"subject_id":"91916","group":"Group2","condition":"3_Rep","full_date":"2026-03-12T17:08:27.999Z","date":"2026-03-12","time":"17:08:27"},{"rt":null,"stimulus":"<p style=\"font-size: 50px; margin: 0; text-align: center;\">+</p>","response":null,"trial_type":"html-keyboard-response","trial_index":84,"plugin_version":"2.1.0","time_elapsed":156845,"subject_id":"91916","group":"Group2","condition":"3_Rep","full_date":"2026-03-12T17:08:27.999Z","date":"2026-03-12","time":"17:08:27"},{"task":"memory_phase","broad_category":"S","image_png":"S_Shale_07.png","image_id":471,"category_name":"Shale","category":30,"distinct_rating":2.73,"distinct_type":"Bottom","rt":null,"stimulus":"Stimuli_Rocks480/S_Shale_07.png","response":null,"trial_type":"image-keyboard-response","trial_index":85,"plugin_version":"2.1.0","time_elapsed":159358,"subject_id":"91916","group":"Group2","condition":"3_Rep","full_date":"2026-03-12T17:08:27.999Z","date":"2026-03-12","time":"17:08:27"},{"rt":null,"stimulus":"<p style=\"font-size: 50px; margin: 0; text-align: center;\">+</p>","response":null,"trial_type":"html-keyboard-response","trial_index":86,"plugin_version":"2.1.0","time_elapsed":160360,"subject_id":"91916","group":"Group2","condition":"3_Rep","full_date":"2026-03-12T17:08:27.999Z","date":"2026-03-12","time":"17:08:27"},{"task":"memory_phase","broad_category":"M","image_png":"M_Slate_14.png","image_id":318,"category_name":"Slate","category":20,"distinct_rating":2.58,"distinct_type":"Bottom","rt":null,"stimulus":"Stimuli_Rocks480/M_Slate_14.png","response":null,"trial_type":"image-keyboard-response","trial_index":87,"plugin_version":"2.1.0","time_elapsed":162872,"subject_id":"91916","group":"Group2","condition":"3_Rep","full_date":"2026-03-12T17:08:27.999Z","date":"2026-03-12","time":"17:08:27"},{"rt":null,"stimulus":"<p style=\"font-size: 50px; margin: 0; text-align: center;\">+</p>","response":null,"trial_type":"html-keyboard-response","trial_index":88,"plugin_version":"2.1.0","time_elapsed":163873,"subject_id":"91916","group":"Group2","condition":"3_Rep","full_date":"2026-03-12T17:08:27.999Z","date":"2026-03-12","time":"17:08:27"},{"task":"memory_phase","broad_category":"I","image_png":"I_Peridotite_13.png","image_id":125,"category_name":"Peridotite","category":8,"distinct_rating":7.28,"distinct_type":"Top","rt":null,"stimulus":"Stimuli_Rocks480/I_Peridotite_13.png","response":null,"trial_type":"image-keyboard-response","trial_index":89,"plugin_version":"2.1.0","time_elapsed":166392,"subject_id":"91916","group":"Group2","condition":"3_Rep","full_date":"2026-03-12T17:08:27.999Z","date":"2026-03-12","time":"17:08:27"},{"rt":null,"stimulus":"<p style=\"font-size: 50px; margin: 0; text-align: center;\">+</p>","response":null,"trial_type":"html-keyboard-response","trial_index":90,"plugin_version":"2.1.0","time_elapsed":167394,"subject_id":"91916","group":"Group2","condition":"3_Rep","full_date":"2026-03-12T17:08:27.999Z","date":"2026-03-12","time":"17:08:27"},{"task":"memory_phase","broad_category":"I","image_png":"I_Gabbro_14.png","image_id":62,"category_name":"Gabbro","category":4,"distinct_rating":2.95,"distinct_type":"Bottom","rt":null,"stimulus":"Stimuli_Rocks480/I_Gabbro_14.png","response":null,"trial_type":"image-keyboard-response","trial_index":91,"plugin_version":"2.1.0","time_elapsed":169911,"subject_id":"91916","group":"Group2","condition":"3_Rep","full_date":"2026-03-12T17:08:27.999Z","date":"2026-03-12","time":"17:08:27"},{"rt":null,"stimulus":"<p style=\"font-size: 50px; margin: 0; text-align: center;\">+</p>","response":null,"trial_type":"html-keyboard-response","trial_index":92,"plugin_version":"2.1.0","time_elapsed":170914,"subject_id":"91916","group":"Group2","condition":"3_Rep","full_date":"2026-03-12T17:08:27.999Z","date":"2026-03-12","time":"17:08:27"},{"task":"memory_phase","broad_category":"M","image_png":"M_Marble_03.png","image_id":227,"category_name":"Marble","category":15,"distinct_rating":2.67,"distinct_type":"Bottom","rt":null,"stimulus":"Stimuli_Rocks480/M_Marble_03.png","response":null,"trial_type":"image-keyboard-response","trial_index":93,"plugin_version":"2.1.0","time_elapsed":173429,"subject_id":"91916","group":"Group2","condition":"3_Rep","full_date":"2026-03-12T17:08:27.999Z","date":"2026-03-12","time":"17:08:27"},{"rt":null,"stimulus":"<p style=\"font-size: 50px; margin: 0; text-align: center;\">+</p>","response":null,"trial_type":"html-keyboard-response","trial_index":94,"plugin_version":"2.1.0","time_elapsed":174431,"subject_id":"91916","group":"Group2","condition":"3_Rep","full_date":"2026-03-12T17:08:27.999Z","date":"2026-03-12","time":"17:08:27"},{"task":"memory_phase","broad_category":"I","image_png":"I_Obsidian_06.png","image_id":86,"category_name":"Obsidian","category":6,"distinct_rating":8.01,"distinct_type":"Top","rt":null,"stimulus":"Stimuli_Rocks480/I_Obsidian_06.png","response":null,"trial_type":"image-keyboard-response","trial_index":95,"plugin_version":"2.1.0","time_elapsed":176949,"subject_id":"91916","group":"Group2","condition":"3_Rep","full_date":"2026-03-12T17:08:27.999Z","date":"2026-03-12","time":"17:08:27"},{"rt":null,"stimulus":"<p style=\"font-size: 50px; margin: 0; text-align: center;\">+</p>","response":null,"trial_type":"html-keyboard-response","trial_index":96,"plugin_version":"2.1.0","time_elapsed":177951,"subject_id":"91916","group":"Group2","condition":"3_Rep","full_date":"2026-03-12T17:08:27.999Z","date":"2026-03-12","time":"17:08:27"},{"task":"memory_phase","broad_category":"M","image_png":"M_Phyllite_02.png","image_id":258,"category_name":"Phyllite","category":17,"distinct_rating":2.89,"distinct_type":"Bottom","rt":null,"stimulus":"Stimuli_Rocks480/M_Phyllite_02.png","response":null,"trial_type":"image-keyboard-response","trial_index":97,"plugin_version":"2.1.0","time_elapsed":180467,"subject_id":"91916","group":"Group2","condition":"3_Rep","full_date":"2026-03-12T17:08:27.999Z","date":"2026-03-12","time":"17:08:27"},{"rt":null,"stimulus":"<p style=\"font-size: 50px; margin: 0; text-align: center;\">+</p>","response":null,"trial_type":"html-keyboard-response","trial_index":98,"plugin_version":"2.1.0","time_elapsed":181469,"subject_id":"91916","group":"Group2","condition":"3_Rep","full_date":"2026-03-12T17:08:27.999Z","date":"2026-03-12","time":"17:08:27"},{"task":"memory_phase","broad_category":"S","image_png":"S_Sandstone_11.png","image_id":459,"category_name":"Sandstone","category":29,"distinct_rating":1.82,"distinct_type":"Bottom","rt":null,"stimulus":"Stimuli_Rocks480/S_Sandstone_11.png","response":null,"trial_type":"image-keyboard-response","trial_index":99,"plugin_version":"2.1.0","time_elapsed":183986,"subject_id":"91916","group":"Group2","condition":"3_Rep","full_date":"2026-03-12T17:08:27.999Z","date":"2026-03-12","time":"17:08:27"},{"rt":null,"stimulus":"<p style=\"font-size: 50px; margin: 0; text-align: center;\">+</p>","response":null,"trial_type":"html-keyboard-response","trial_index":100,"plugin_version":"2.1.0","time_elapsed":184988,"subject_id":"91916","group":"Group2","condition":"3_Rep","full_date":"2026-03-12T17:08:27.999Z","date":"2026-03-12","time":"17:08:27"},{"task":"memory_phase","broad_category":"M","image_png":"M_Marble_14.png","image_id":238,"category_name":"Marble","category":15,"distinct_rating":3.31,"distinct_type":"Bottom","rt":null,"stimulus":"Stimuli_Rocks480/M_Marble_14.png","response":null,"trial_type":"image-keyboard-response","trial_index":101,"plugin_version":"2.1.0","time_elapsed":187503,"subject_id":"91916","group":"Group2","condition":"3_Rep","full_date":"2026-03-12T17:08:27.999Z","date":"2026-03-12","time":"17:08:27"},{"rt":null,"stimulus":"<p style=\"font-size: 50px; margin: 0; text-align: center;\">+</p>","response":null,"trial_type":"html-keyboard-response","trial_index":102,"plugin_version":"2.1.0","time_elapsed":188504,"subject_id":"91916","group":"Group2","condition":"3_Rep","full_date":"2026-03-12T17:08:27.999Z","date":"2026-03-12","time":"17:08:27"},{"task":"memory_phase","broad_category":"M","image_png":"M_Gneiss_10.png","image_id":202,"category_name":"Gneiss","category":13,"distinct_rating":3.09,"distinct_type":"Bottom","rt":null,"stimulus":"Stimuli_Rocks480/M_Gneiss_10.png","response":null,"trial_type":"image-keyboard-response","trial_index":103,"plugin_version":"2.1.0","time_elapsed":191021,"subject_id":"91916","group":"Group2","condition":"3_Rep","full_date":"2026-03-12T17:08:27.999Z","date":"2026-03-12","time":"17:08:27"},{"rt":null,"stimulus":"<p style=\"font-size: 50px; margin: 0; text-align: center;\">+</p>","response":null,"trial_type":"html-keyboard-response","trial_index":104,"plugin_version":"2.1.0","time_elapsed":192024,"subject_id":"91916","group":"Group2","condition":"3_Rep","full_date":"2026-03-12T17:08:27.999Z","date":"2026-03-12","time":"17:08:27"},{"task":"memory_phase","broad_category":"S","image_png":"S_Rock Salt_15.png","image_id":447,"category_name":"Rock Salt","category":28,"distinct_rating":7.79,"distinct_type":"Top","rt":null,"stimulus":"Stimuli_Rocks480/S_Rock Salt_15.png","response":null,"trial_type":"image-keyboard-response","trial_index":105,"plugin_version":"2.1.0","time_elapsed":194539,"subject_id":"91916","group":"Group2","condition":"3_Rep","full_date":"2026-03-12T17:08:27.999Z","date":"2026-03-12","time":"17:08:27"},{"rt":4101,"stimulus":"<p style=\"max-width: 760px; margin: auto; font-size: 35px; line-height: 1.5;\">\n                You have completed 1 study phase. \n                Now, we'll show you all the images again 2 more times.\n                <br><br>Press SPACE to continue\n              </p>","response":" ","trial_type":"html-keyboard-response","trial_index":106,"plugin_version":"2.1.0","time_elapsed":198642,"subject_id":"91916","group":"Group2","condition":"3_Rep","full_date":"2026-03-12T17:08:27.999Z","date":"2026-03-12","time":"17:08:27"},{"rt":null,"stimulus":"<p style=\"font-size: 50px; margin: 0; text-align: center;\">+</p>","response":null,"trial_type":"html-keyboard-response","trial_index":107,"plugin_version":"2.1.0","time_elapsed":199645,"subject_id":"91916","group":"Group2","condition":"3_Rep","full_date":"2026-03-12T17:08:27.999Z","date":"2026-03-12","time":"17:08:27"},{"task":"memory_phase","broad_category":"S","image_png":"S_Rock Salt_15.png","image_id":447,"category_name":"Rock Salt","category":28,"distinct_rating":7.79,"distinct_type":"Top","rt":null,"stimulus":"Stimuli_Rocks480/S_Rock Salt_15.png","response":null,"trial_type":"image-keyboard-response","trial_index":108,"plugin_version":"2.1.0","time_elapsed":202148,"subject_id":"91916","group":"Group2","condition":"3_Rep","full_date":"2026-03-12T17:08:27.999Z","date":"2026-03-12","time":"17:08:27"},{"rt":null,"stimulus":"<p style=\"font-size: 50px; margin: 0; text-align: center;\">+</p>","response":null,"trial_type":"html-keyboard-response","trial_index":109,"plugin_version":"2.1.0","time_elapsed":203151,"subject_id":"91916","group":"Group2","condition":"3_Rep","full_date":"2026-03-12T17:08:27.999Z","date":"2026-03-12","time":"17:08:27"},{"task":"memory_phase","broad_category":"I","image_png":"I_Diorite_01.png","image_id":33,"category_name":"Diorite","category":3,"distinct_rating":2.97,"distinct_type":"Bottom","rt":null,"stimulus":"Stimuli_Rocks480/I_Diorite_01.png","response":null,"trial_type":"image-keyboard-response","trial_index":110,"plugin_version":"2.1.0","time_elapsed":205668,"subject_id":"91916","group":"Group2","condition":"3_Rep","full_date":"2026-03-12T17:08:27.999Z","date":"2026-03-12","time":"17:08:27"},{"rt":null,"stimulus":"<p style=\"font-size: 50px; margin: 0; text-align: center;\">+</p>","response":null,"trial_type":"html-keyboard-response","trial_index":111,"plugin_version":"2.1.0","time_elapsed":206670,"subject_id":"91916","group":"Group2","condition":"3_Rep","full_date":"2026-03-12T17:08:27.999Z","date":"2026-03-12","time":"17:08:27"},{"task":"memory_phase","broad_category":"I","image_png":"I_Pumice_01.png","image_id":129,"category_name":"Pumice","category":9,"distinct_rating":3.25,"distinct_type":"Bottom","rt":null,"stimulus":"Stimuli_Rocks480/I_Pumice_01.png","response":null,"trial_type":"image-keyboard-response","trial_index":112,"plugin_version":"2.1.0","time_elapsed":209185,"subject_id":"91916","group":"Group2","condition":"3_Rep","full_date":"2026-03-12T17:08:27.999Z","date":"2026-03-12","time":"17:08:27"},{"rt":null,"stimulus":"<p style=\"font-size: 50px; margin: 0; text-align: center;\">+</p>","response":null,"trial_type":"html-keyboard-response","trial_index":113,"plugin_version":"2.1.0","time_elapsed":210187,"subject_id":"91916","group":"Group2","condition":"3_Rep","full_date":"2026-03-12T17:08:27.999Z","date":"2026-03-12","time":"17:08:27"},{"task":"memory_phase","broad_category":"S","image_png":"S_Rock Salt_13.png","image_id":445,"category_name":"Rock Salt","category":28,"distinct_rating":7.58,"distinct_type":"Top","rt":null,"stimulus":"Stimuli_Rocks480/S_Rock Salt_13.png","response":null,"trial_type":"image-keyboard-response","trial_index":114,"plugin_version":"2.1.0","time_elapsed":212704,"subject_id":"91916","group":"Group2","condition":"3_Rep","full_date":"2026-03-12T17:08:27.999Z","date":"2026-03-12","time":"17:08:27"},{"rt":null,"stimulus":"<p style=\"font-size: 50px; margin: 0; text-align: center;\">+</p>","response":null,"trial_type":"html-keyboard-response","trial_index":115,"plugin_version":"2.1.0","time_elapsed":213706,"subject_id":"91916","group":"Group2","condition":"3_Rep","full_date":"2026-03-12T17:08:27.999Z","date":"2026-03-12","time":"17:08:27"},{"task":"memory_phase","broad_category":"I","image_png":"I_Gabbro_02.png","image_id":50,"category_name":"Gabbro","category":4,"distinct_rating":2.73,"distinct_type":"Bottom","rt":null,"stimulus":"Stimuli_Rocks480/I_Gabbro_02.png","response":null,"trial_type":"image-keyboard-response","trial_index":116,"plugin_version":"2.1.0","time_elapsed":216221,"subject_id":"91916","group":"Group2","condition":"3_Rep","full_date":"2026-03-12T17:08:27.999Z","date":"2026-03-12","time":"17:08:27"},{"rt":null,"stimulus":"<p style=\"font-size: 50px; margin: 0; text-align: center;\">+</p>","response":null,"trial_type":"html-keyboard-response","trial_index":117,"plugin_version":"2.1.0","time_elapsed":217224,"subject_id":"91916","group":"Group2","condition":"3_Rep","full_date":"2026-03-12T17:08:27.999Z","date":"2026-03-12","time":"17:08:27"},{"task":"memory_phase","broad_category":"I","image_png":"I_Obsidian_06.png","image_id":86,"category_name":"Obsidian","category":6,"distinct_rating":8.01,"distinct_type":"Top","rt":null,"stimulus":"Stimuli_Rocks480/I_Obsidian_06.png","response":null,"trial_type":"image-keyboard-response","trial_index":118,"plugin_version":"2.1.0","time_elapsed":219727,"subject_id":"91916","group":"Group2","condition":"3_Rep","full_date":"2026-03-12T17:08:27.999Z","date":"2026-03-12","time":"17:08:27"},{"rt":null,"stimulus":"<p style=\"font-size: 50px; margin: 0; text-align: center;\">+</p>","response":null,"trial_type":"html-keyboard-response","trial_index":119,"plugin_version":"2.1.0","time_elapsed":220729,"subject_id":"91916","group":"Group2","condition":"3_Rep","full_date":"2026-03-12T17:08:27.999Z","date":"2026-03-12","time":"17:08:27"},{"task":"memory_phase","broad_category":"S","image_png":"S_Shale_07.png","image_id":471,"category_name":"Shale","category":30,"distinct_rating":2.73,"distinct_type":"Bottom","rt":null,"stimulus":"Stimuli_Rocks480/S_Shale_07.png","response":null,"trial_type":"image-keyboard-response","trial_index":120,"plugin_version":"2.1.0","time_elapsed":223236,"subject_id":"91916","group":"Group2","condition":"3_Rep","full_date":"2026-03-12T17:08:27.999Z","date":"2026-03-12","time":"17:08:27"},{"rt":null,"stimulus":"<p style=\"font-size: 50px; margin: 0; text-align: center;\">+</p>","response":null,"trial_type":"html-keyboard-response","trial_index":121,"plugin_version":"2.1.0","time_elapsed":224239,"subject_id":"91916","group":"Group2","condition":"3_Rep","full_date":"2026-03-12T17:08:27.999Z","date":"2026-03-12","time":"17:08:27"},{"task":"memory_phase","broad_category":"M","image_png":"M_Marble_14.png","image_id":238,"category_name":"Marble","category":15,"distinct_rating":3.31,"distinct_type":"Bottom","rt":null,"stimulus":"Stimuli_Rocks480/M_Marble_14.png","response":null,"trial_type":"image-keyboard-response","trial_index":122,"plugin_version":"2.1.0","time_elapsed":226743,"subject_id":"91916","group":"Group2","condition":"3_Rep","full_date":"2026-03-12T17:08:27.999Z","date":"2026-03-12","time":"17:08:27"},{"rt":null,"stimulus":"<p style=\"font-size: 50px; margin: 0; text-align: center;\">+</p>","response":null,"trial_type":"html-keyboard-response","trial_index":123,"plugin_version":"2.1.0","time_elapsed":227746,"subject_id":"91916","group":"Group2","condition":"3_Rep","full_date":"2026-03-12T17:08:27.999Z","date":"2026-03-12","time":"17:08:27"},{"task":"memory_phase","broad_category":"M","image_png":"M_Slate_10.png","image_id":314,"category_name":"Slate","category":20,"distinct_rating":1.94,"distinct_type":"Bottom","rt":null,"stimulus":"Stimuli_Rocks480/M_Slate_10.png","response":null,"trial_type":"image-keyboard-response","trial_index":124,"plugin_version":"2.1.0","time_elapsed":230258,"subject_id":"91916","group":"Group2","condition":"3_Rep","full_date":"2026-03-12T17:08:27.999Z","date":"2026-03-12","time":"17:08:27"},{"rt":null,"stimulus":"<p style=\"font-size: 50px; margin: 0; text-align: center;\">+</p>","response":null,"trial_type":"html-keyboard-response","trial_index":125,"plugin_version":"2.1.0","time_elapsed":231260,"subject_id":"91916","group":"Group2","condition":"3_Rep","full_date":"2026-03-12T17:08:27.999Z","date":"2026-03-12","time":"17:08:27"},{"task":"memory_phase","broad_category":"I","image_png":"I_Pegmatite_11.png","image_id":107,"category_name":"Pegmatite","category":7,"distinct_rating":7.11,"distinct_type":"Top","rt":null,"stimulus":"Stimuli_Rocks480/I_Pegmatite_11.png","response":null,"trial_type":"image-keyboard-response","trial_index":126,"plugin_version":"2.1.0","time_elapsed":233780,"subject_id":"91916","group":"Group2","condition":"3_Rep","full_date":"2026-03-12T17:08:27.999Z","date":"2026-03-12","time":"17:08:27"},{"rt":null,"stimulus":"<p style=\"font-size: 50px; margin: 0; text-align: center;\">+</p>","response":null,"trial_type":"html-keyboard-response","trial_index":127,"plugin_version":"2.1.0","time_elapsed":234782,"subject_id":"91916","group":"Group2","condition":"3_Rep","full_date":"2026-03-12T17:08:27.999Z","date":"2026-03-12","time":"17:08:27"},{"task":"memory_phase","broad_category":"S","image_png":"S_Dolomite_07.png","image_id":391,"category_name":"Dolomite","category":25,"distinct_rating":1.73,"distinct_type":"Bottom","rt":null,"stimulus":"Stimuli_Rocks480/S_Dolomite_07.png","response":null,"trial_type":"image-keyboard-response","trial_index":128,"plugin_version":"2.1.0","time_elapsed":237297,"subject_id":"91916","group":"Group2","condition":"3_Rep","full_date":"2026-03-12T17:08:27.999Z","date":"2026-03-12","time":"17:08:27"},{"rt":null,"stimulus":"<p style=\"font-size: 50px; margin: 0; text-align: center;\">+</p>","response":null,"trial_type":"html-keyboard-response","trial_index":129,"plugin_version":"2.1.0","time_elapsed":238300,"subject_id":"91916","group":"Group2","condition":"3_Rep","full_date":"2026-03-12T17:08:27.999Z","date":"2026-03-12","time":"17:08:27"},{"task":"memory_phase","broad_category":"M","image_png":"M_Quartzite_12.png","image_id":284,"category_name":"Quartzite","category":18,"distinct_rating":1.92,"distinct_type":"Bottom","rt":null,"stimulus":"Stimuli_Rocks480/M_Quartzite_12.png","response":null,"trial_type":"image-keyboard-response","trial_index":130,"plugin_version":"2.1.0","time_elapsed":240814,"subject_id":"91916","group":"Group2","condition":"3_Rep","full_date":"2026-03-12T17:08:27.999Z","date":"2026-03-12","time":"17:08:27"},{"rt":null,"stimulus":"<p style=\"font-size: 50px; margin: 0; text-align: center;\">+</p>","response":null,"trial_type":"html-keyboard-response","trial_index":131,"plugin_version":"2.1.0","time_elapsed":241816,"subject_id":"91916","group":"Group2","condition":"3_Rep","full_date":"2026-03-12T17:08:27.999Z","date":"2026-03-12","time":"17:08:27"},{"task":"memory_phase","broad_category":"I","image_png":"I_Diorite_10.png","image_id":42,"category_name":"Diorite","category":3,"distinct_rating":2.84,"distinct_type":"Bottom","rt":null,"stimulus":"Stimuli_Rocks480/I_Diorite_10.png","response":null,"trial_type":"image-keyboard-response","trial_index":132,"plugin_version":"2.1.0","time_elapsed":244332,"subject_id":"91916","group":"Group2","condition":"3_Rep","full_date":"2026-03-12T17:08:27.999Z","date":"2026-03-12","time":"17:08:27"},{"rt":null,"stimulus":"<p style=\"font-size: 50px; margin: 0; text-align: center;\">+</p>","response":null,"trial_type":"html-keyboard-response","trial_index":133,"plugin_version":"2.1.0","time_elapsed":245335,"subject_id":"91916","group":"Group2","condition":"3_Rep","full_date":"2026-03-12T17:08:27.999Z","date":"2026-03-12","time":"17:08:27"},{"task":"memory_phase","broad_category":"I","image_png":"I_Andesite_09.png","image_id":9,"category_name":"Andesite","category":1,"distinct_rating":2.49,"distinct_type":"Bottom","rt":null,"stimulus":"Stimuli_Rocks480/I_Andesite_09.png","response":null,"trial_type":"image-keyboard-response","trial_index":134,"plugin_version":"2.1.0","time_elapsed":247850,"subject_id":"91916","group":"Group2","condition":"3_Rep","full_date":"2026-03-12T17:08:27.999Z","date":"2026-03-12","time":"17:08:27"},{"rt":null,"stimulus":"<p style=\"font-size: 50px; margin: 0; text-align: center;\">+</p>","response":null,"trial_type":"html-keyboard-response","trial_index":135,"plugin_version":"2.1.0","time_elapsed":248852,"subject_id":"91916","group":"Group2","condition":"3_Rep","full_date":"2026-03-12T17:08:27.999Z","date":"2026-03-12","time":"17:08:27"},{"task":"memory_phase","broad_category":"M","image_png":"M_Phyllite_13.png","image_id":269,"category_name":"Phyllite","category":17,"distinct_rating":2.8,"distinct_type":"Bottom","rt":null,"stimulus":"Stimuli_Rocks480/M_Phyllite_13.png","response":null,"trial_type":"image-keyboard-response","trial_index":136,"plugin_version":"2.1.0","time_elapsed":251367,"subject_id":"91916","group":"Group2","condition":"3_Rep","full_date":"2026-03-12T17:08:27.999Z","date":"2026-03-12","time":"17:08:27"},{"rt":null,"stimulus":"<p style=\"font-size: 50px; margin: 0; text-align: center;\">+</p>","response":null,"trial_type":"html-keyboard-response","trial_index":137,"plugin_version":"2.1.0","time_elapsed":252368,"subject_id":"91916","group":"Group2","condition":"3_Rep","full_date":"2026-03-12T17:08:27.999Z","date":"2026-03-12","time":"17:08:27"},{"task":"memory_phase","broad_category":"M","image_png":"M_Gneiss_10.png","image_id":202,"category_name":"Gneiss","category":13,"distinct_rating":3.09,"distinct_type":"Bottom","rt":null,"stimulus":"Stimuli_Rocks480/M_Gneiss_10.png","response":null,"trial_type":"image-keyboard-response","trial_index":138,"plugin_version":"2.1.0","time_elapsed":254871,"subject_id":"91916","group":"Group2","condition":"3_Rep","full_date":"2026-03-12T17:08:27.999Z","date":"2026-03-12","time":"17:08:27"},{"rt":null,"stimulus":"<p style=\"font-size: 50px; margin: 0; text-align: center;\">+</p>","response":null,"trial_type":"html-keyboard-response","trial_index":139,"plugin_version":"2.1.0","time_elapsed":255874,"subject_id":"91916","group":"Group2","condition":"3_Rep","full_date":"2026-03-12T17:08:27.999Z","date":"2026-03-12","time":"17:08:27"},{"task":"memory_phase","broad_category":"I","image_png":"I_Basalt_08.png","image_id":24,"category_name":"Basalt","category":2,"distinct_rating":2.31,"distinct_type":"Bottom","rt":null,"stimulus":"Stimuli_Rocks480/I_Basalt_08.png","response":null,"trial_type":"image-keyboard-response","trial_index":140,"plugin_version":"2.1.0","time_elapsed":258393,"subject_id":"91916","group":"Group2","condition":"3_Rep","full_date":"2026-03-12T17:08:27.999Z","date":"2026-03-12","time":"17:08:27"},{"rt":null,"stimulus":"<p style=\"font-size: 50px; margin: 0; text-align: center;\">+</p>","response":null,"trial_type":"html-keyboard-response","trial_index":141,"plugin_version":"2.1.0","time_elapsed":259395,"subject_id":"91916","group":"Group2","condition":"3_Rep","full_date":"2026-03-12T17:08:27.999Z","date":"2026-03-12","time":"17:08:27"},{"task":"memory_phase","broad_category":"I","image_png":"I_Rhyolite_10.png","image_id":154,"category_name":"Rhyolite","category":10,"distinct_rating":2.88,"distinct_type":"Bottom","rt":null,"stimulus":"Stimuli_Rocks480/I_Rhyolite_10.png","response":null,"trial_type":"image-keyboard-response","trial_index":142,"plugin_version":"2.1.0","time_elapsed":261915,"subject_id":"91916","group":"Group2","condition":"3_Rep","full_date":"2026-03-12T17:08:27.999Z","date":"2026-03-12","time":"17:08:27"},{"rt":null,"stimulus":"<p style=\"font-size: 50px; margin: 0; text-align: center;\">+</p>","response":null,"trial_type":"html-keyboard-response","trial_index":143,"plugin_version":"2.1.0","time_elapsed":262917,"subject_id":"91916","group":"Group2","condition":"3_Rep","full_date":"2026-03-12T17:08:27.999Z","date":"2026-03-12","time":"17:08:27"},{"task":"memory_phase","broad_category":"M","image_png":"M_Phyllite_02.png","image_id":258,"category_name":"Phyllite","category":17,"distinct_rating":2.89,"distinct_type":"Bottom","rt":null,"stimulus":"Stimuli_Rocks480/M_Phyllite_02.png","response":null,"trial_type":"image-keyboard-response","trial_index":144,"plugin_version":"2.1.0","time_elapsed":265420,"subject_id":"91916","group":"Group2","condition":"3_Rep","full_date":"2026-03-12T17:08:27.999Z","date":"2026-03-12","time":"17:08:27"},{"rt":null,"stimulus":"<p style=\"font-size: 50px; margin: 0; text-align: center;\">+</p>","response":null,"trial_type":"html-keyboard-response","trial_index":145,"plugin_version":"2.1.0","time_elapsed":266422,"subject_id":"91916","group":"Group2","condition":"3_Rep","full_date":"2026-03-12T17:08:27.999Z","date":"2026-03-12","time":"17:08:27"},{"task":"memory_phase","broad_category":"S","image_png":"S_Shale_02.png","image_id":466,"category_name":"Shale","category":30,"distinct_rating":2.9,"distinct_type":"Bottom","rt":null,"stimulus":"Stimuli_Rocks480/S_Shale_02.png","response":null,"trial_type":"image-keyboard-response","trial_index":146,"plugin_version":"2.1.0","time_elapsed":268938,"subject_id":"91916","group":"Group2","condition":"3_Rep","full_date":"2026-03-12T17:08:27.999Z","date":"2026-03-12","time":"17:08:27"},{"rt":null,"stimulus":"<p style=\"font-size: 50px; margin: 0; text-align: center;\">+</p>","response":null,"trial_type":"html-keyboard-response","trial_index":147,"plugin_version":"2.1.0","time_elapsed":269940,"subject_id":"91916","group":"Group2","condition":"3_Rep","full_date":"2026-03-12T17:08:27.999Z","date":"2026-03-12","time":"17:08:27"},{"task":"memory_phase","broad_category":"S","image_png":"S_Sandstone_08.png","image_id":456,"category_name":"Sandstone","category":29,"distinct_rating":1.5,"distinct_type":"Bottom","rt":null,"stimulus":"Stimuli_Rocks480/S_Sandstone_08.png","response":null,"trial_type":"image-keyboard-response","trial_index":148,"plugin_version":"2.1.0","time_elapsed":272454,"subject_id":"91916","group":"Group2","condition":"3_Rep","full_date":"2026-03-12T17:08:27.999Z","date":"2026-03-12","time":"17:08:27"},{"rt":null,"stimulus":"<p style=\"font-size: 50px; margin: 0; text-align: center;\">+</p>","response":null,"trial_type":"html-keyboard-response","trial_index":149,"plugin_version":"2.1.0","time_elapsed":273456,"subject_id":"91916","group":"Group2","condition":"3_Rep","full_date":"2026-03-12T17:08:27.999Z","date":"2026-03-12","time":"17:08:27"},{"task":"memory_phase","broad_category":"S","image_png":"S_Shale_03.png","image_id":467,"category_name":"Shale","category":30,"distinct_rating":1.95,"distinct_type":"Bottom","rt":null,"stimulus":"Stimuli_Rocks480/S_Shale_03.png","response":null,"trial_type":"image-keyboard-response","trial_index":150,"plugin_version":"2.1.0","time_elapsed":275974,"subject_id":"91916","group":"Group2","condition":"3_Rep","full_date":"2026-03-12T17:08:27.999Z","date":"2026-03-12","time":"17:08:27"},{"rt":null,"stimulus":"<p style=\"font-size: 50px; margin: 0; text-align: center;\">+</p>","response":null,"trial_type":"html-keyboard-response","trial_index":151,"plugin_version":"2.1.0","time_elapsed":276977,"subject_id":"91916","group":"Group2","condition":"3_Rep","full_date":"2026-03-12T17:08:27.999Z","date":"2026-03-12","time":"17:08:27"},{"task":"memory_phase","broad_category":"I","image_png":"I_Pumice_14.png","image_id":142,"category_name":"Pumice","category":9,"distinct_rating":3.22,"distinct_type":"Bottom","rt":null,"stimulus":"Stimuli_Rocks480/I_Pumice_14.png","response":null,"trial_type":"image-keyboard-response","trial_index":152,"plugin_version":"2.1.0","time_elapsed":279492,"subject_id":"91916","group":"Group2","condition":"3_Rep","full_date":"2026-03-12T17:08:27.999Z","date":"2026-03-12","time":"17:08:27"},{"rt":null,"stimulus":"<p style=\"font-size: 50px; margin: 0; text-align: center;\">+</p>","response":null,"trial_type":"html-keyboard-response","trial_index":153,"plugin_version":"2.1.0","time_elapsed":280494,"subject_id":"91916","group":"Group2","condition":"3_Rep","full_date":"2026-03-12T17:08:27.999Z","date":"2026-03-12","time":"17:08:27"},{"task":"memory_phase","broad_category":"M","image_png":"M_Gneiss_15.png","image_id":207,"category_name":"Gneiss","category":13,"distinct_rating":3.11,"distinct_type":"Bottom","rt":null,"stimulus":"Stimuli_Rocks480/M_Gneiss_15.png","response":null,"trial_type":"image-keyboard-response","trial_index":154,"plugin_version":"2.1.0","time_elapsed":283006,"subject_id":"91916","group":"Group2","condition":"3_Rep","full_date":"2026-03-12T17:08:27.999Z","date":"2026-03-12","time":"17:08:27"},{"rt":null,"stimulus":"<p style=\"font-size: 50px; margin: 0; text-align: center;\">+</p>","response":null,"trial_type":"html-keyboard-response","trial_index":155,"plugin_version":"2.1.0","time_elapsed":284008,"subject_id":"91916","group":"Group2","condition":"3_Rep","full_date":"2026-03-12T17:08:27.999Z","date":"2026-03-12","time":"17:08:27"},{"task":"memory_phase","broad_category":"M","image_png":"M_Marble_02.png","image_id":226,"category_name":"Marble","category":15,"distinct_rating":3.2,"distinct_type":"Bottom","rt":null,"stimulus":"Stimuli_Rocks480/M_Marble_02.png","response":null,"trial_type":"image-keyboard-response","trial_index":156,"plugin_version":"2.1.0","time_elapsed":286521,"subject_id":"91916","group":"Group2","condition":"3_Rep","full_date":"2026-03-12T17:08:27.999Z","date":"2026-03-12","time":"17:08:27"},{"rt":1554,"stimulus":"<p style=\"max-width: 760px; margin: auto; font-size: 35px; line-height: 1.5;\">\n                Press SPACE to continue study phase\n              </p>","response":" ","trial_type":"html-keyboard-response","trial_index":157,"plugin_version":"2.1.0","time_elapsed":288077,"subject_id":"91916","group":"Group2","condition":"3_Rep","full_date":"2026-03-12T17:08:27.999Z","date":"2026-03-12","time":"17:08:27"},{"rt":null,"stimulus":"<p style=\"font-size: 50px; margin: 0; text-align: center;\">+</p>","response":null,"trial_type":"html-keyboard-response","trial_index":158,"plugin_version":"2.1.0","time_elapsed":289080,"subject_id":"91916","group":"Group2","condition":"3_Rep","full_date":"2026-03-12T17:08:27.999Z","date":"2026-03-12","time":"17:08:27"},{"task":"memory_phase","broad_category":"M","image_png":"M_Phyllite_05.png","image_id":261,"category_name":"Phyllite","category":17,"distinct_rating":2.14,"distinct_type":"Bottom","rt":null,"stimulus":"Stimuli_Rocks480/M_Phyllite_05.png","response":null,"trial_type":"image-keyboard-response","trial_index":159,"plugin_version":"2.1.0","time_elapsed":291593,"subject_id":"91916","group":"Group2","condition":"3_Rep","full_date":"2026-03-12T17:08:27.999Z","date":"2026-03-12","time":"17:08:27"},{"rt":null,"stimulus":"<p style=\"font-size: 50px; margin: 0; text-align: center;\">+</p>","response":null,"trial_type":"html-keyboard-response","trial_index":160,"plugin_version":"2.1.0","time_elapsed":292595,"subject_id":"91916","group":"Group2","condition":"3_Rep","full_date":"2026-03-12T17:08:27.999Z","date":"2026-03-12","time":"17:08:27"},{"task":"memory_phase","broad_category":"I","image_png":"I_Gabbro_14.png","image_id":62,"category_name":"Gabbro","category":4,"distinct_rating":2.95,"distinct_type":"Bottom","rt":null,"stimulus":"Stimuli_Rocks480/I_Gabbro_14.png","response":null,"trial_type":"image-keyboard-response","trial_index":161,"plugin_version":"2.1.0","time_elapsed":295113,"subject_id":"91916","group":"Group2","condition":"3_Rep","full_date":"2026-03-12T17:08:27.999Z","date":"2026-03-12","time":"17:08:27"},{"rt":null,"stimulus":"<p style=\"font-size: 50px; margin: 0; text-align: center;\">+</p>","response":null,"trial_type":"html-keyboard-response","trial_index":162,"plugin_version":"2.1.0","time_elapsed":296115,"subject_id":"91916","group":"Group2","condition":"3_Rep","full_date":"2026-03-12T17:08:27.999Z","date":"2026-03-12","time":"17:08:27"},{"task":"memory_phase","broad_category":"I","image_png":"I_Andesite_03.png","image_id":3,"category_name":"Andesite","category":1,"distinct_rating":3.17,"distinct_type":"Bottom","rt":null,"stimulus":"Stimuli_Rocks480/I_Andesite_03.png","response":null,"trial_type":"image-keyboard-response","trial_index":163,"plugin_version":"2.1.0","time_elapsed":298626,"subject_id":"91916","group":"Group2","condition":"3_Rep","full_date":"2026-03-12T17:08:27.999Z","date":"2026-03-12","time":"17:08:27"},{"rt":null,"stimulus":"<p style=\"font-size: 50px; margin: 0; text-align: center;\">+</p>","response":null,"trial_type":"html-keyboard-response","trial_index":164,"plugin_version":"2.1.0","time_elapsed":299628,"subject_id":"91916","group":"Group2","condition":"3_Rep","full_date":"2026-03-12T17:08:27.999Z","date":"2026-03-12","time":"17:08:27"},{"task":"memory_phase","broad_category":"M","image_png":"M_Slate_04.png","image_id":308,"category_name":"Slate","category":20,"distinct_rating":2.2,"distinct_type":"Bottom","rt":null,"stimulus":"Stimuli_Rocks480/M_Slate_04.png","response":null,"trial_type":"image-keyboard-response","trial_index":165,"plugin_version":"2.1.0","time_elapsed":302142,"subject_id":"91916","group":"Group2","condition":"3_Rep","full_date":"2026-03-12T17:08:27.999Z","date":"2026-03-12","time":"17:08:27"},{"rt":null,"stimulus":"<p style=\"font-size: 50px; margin: 0; text-align: center;\">+</p>","response":null,"trial_type":"html-keyboard-response","trial_index":166,"plugin_version":"2.1.0","time_elapsed":303144,"subject_id":"91916","group":"Group2","condition":"3_Rep","full_date":"2026-03-12T17:08:27.999Z","date":"2026-03-12","time":"17:08:27"},{"task":"memory_phase","broad_category":"I","image_png":"I_Andesite_04.png","image_id":4,"category_name":"Andesite","category":1,"distinct_rating":3.18,"distinct_type":"Bottom","rt":null,"stimulus":"Stimuli_Rocks480/I_Andesite_04.png","response":null,"trial_type":"image-keyboard-response","trial_index":167,"plugin_version":"2.1.0","time_elapsed":305660,"subject_id":"91916","group":"Group2","condition":"3_Rep","full_date":"2026-03-12T17:08:27.999Z","date":"2026-03-12","time":"17:08:27"},{"rt":null,"stimulus":"<p style=\"font-size: 50px; margin: 0; text-align: center;\">+</p>","response":null,"trial_type":"html-keyboard-response","trial_index":168,"plugin_version":"2.1.0","time_elapsed":306662,"subject_id":"91916","group":"Group2","condition":"3_Rep","full_date":"2026-03-12T17:08:27.999Z","date":"2026-03-12","time":"17:08:27"},{"task":"memory_phase","broad_category":"S","image_png":"S_Sandstone_11.png","image_id":459,"category_name":"Sandstone","category":29,"distinct_rating":1.82,"distinct_type":"Bottom","rt":null,"stimulus":"Stimuli_Rocks480/S_Sandstone_11.png","response":null,"trial_type":"image-keyboard-response","trial_index":169,"plugin_version":"2.1.0","time_elapsed":309180,"subject_id":"91916","group":"Group2","condition":"3_Rep","full_date":"2026-03-12T17:08:27.999Z","date":"2026-03-12","time":"17:08:27"},{"rt":null,"stimulus":"<p style=\"font-size: 50px; margin: 0; text-align: center;\">+</p>","response":null,"trial_type":"html-keyboard-response","trial_index":170,"plugin_version":"2.1.0","time_elapsed":310182,"subject_id":"91916","group":"Group2","condition":"3_Rep","full_date":"2026-03-12T17:08:27.999Z","date":"2026-03-12","time":"17:08:27"},{"task":"memory_phase","broad_category":"M","image_png":"M_Marble_03.png","image_id":227,"category_name":"Marble","category":15,"distinct_rating":2.67,"distinct_type":"Bottom","rt":null,"stimulus":"Stimuli_Rocks480/M_Marble_03.png","response":null,"trial_type":"image-keyboard-response","trial_index":171,"plugin_version":"2.1.0","time_elapsed":312697,"subject_id":"91916","group":"Group2","condition":"3_Rep","full_date":"2026-03-12T17:08:27.999Z","date":"2026-03-12","time":"17:08:27"},{"rt":null,"stimulus":"<p style=\"font-size: 50px; margin: 0; text-align: center;\">+</p>","response":null,"trial_type":"html-keyboard-response","trial_index":172,"plugin_version":"2.1.0","time_elapsed":313700,"subject_id":"91916","group":"Group2","condition":"3_Rep","full_date":"2026-03-12T17:08:27.999Z","date":"2026-03-12","time":"17:08:27"},{"task":"memory_phase","broad_category":"I","image_png":"I_Diorite_15.png","image_id":47,"category_name":"Diorite","category":3,"distinct_rating":3.05,"distinct_type":"Bottom","rt":null,"stimulus":"Stimuli_Rocks480/I_Diorite_15.png","response":null,"trial_type":"image-keyboard-response","trial_index":173,"plugin_version":"2.1.0","time_elapsed":316216,"subject_id":"91916","group":"Group2","condition":"3_Rep","full_date":"2026-03-12T17:08:27.999Z","date":"2026-03-12","time":"17:08:27"},{"rt":null,"stimulus":"<p style=\"font-size: 50px; margin: 0; text-align: center;\">+</p>","response":null,"trial_type":"html-keyboard-response","trial_index":174,"plugin_version":"2.1.0","time_elapsed":317219,"subject_id":"91916","group":"Group2","condition":"3_Rep","full_date":"2026-03-12T17:08:27.999Z","date":"2026-03-12","time":"17:08:27"},{"task":"memory_phase","broad_category":"S","image_png":"S_Conglomerate_14.png","image_id":382,"category_name":"Conglomerate","category":24,"distinct_rating":6.86,"distinct_type":"Top","rt":null,"stimulus":"Stimuli_Rocks480/S_Conglomerate_14.png","response":null,"trial_type":"image-keyboard-response","trial_index":175,"plugin_version":"2.1.0","time_elapsed":319734,"subject_id":"91916","group":"Group2","condition":"3_Rep","full_date":"2026-03-12T17:08:27.999Z","date":"2026-03-12","time":"17:08:27"},{"rt":null,"stimulus":"<p style=\"font-size: 50px; margin: 0; text-align: center;\">+</p>","response":null,"trial_type":"html-keyboard-response","trial_index":176,"plugin_version":"2.1.0","time_elapsed":320736,"subject_id":"91916","group":"Group2","condition":"3_Rep","full_date":"2026-03-12T17:08:27.999Z","date":"2026-03-12","time":"17:08:27"},{"task":"memory_phase","broad_category":"I","image_png":"I_Pumice_13.png","image_id":141,"category_name":"Pumice","category":9,"distinct_rating":3.12,"distinct_type":"Bottom","rt":null,"stimulus":"Stimuli_Rocks480/I_Pumice_13.png","response":null,"trial_type":"image-keyboard-response","trial_index":177,"plugin_version":"2.1.0","time_elapsed":323257,"subject_id":"91916","group":"Group2","condition":"3_Rep","full_date":"2026-03-12T17:08:27.999Z","date":"2026-03-12","time":"17:08:27"},{"rt":null,"stimulus":"<p style=\"font-size: 50px; margin: 0; text-align: center;\">+</p>","response":null,"trial_type":"html-keyboard-response","trial_index":178,"plugin_version":"2.1.0","time_elapsed":324259,"subject_id":"91916","group":"Group2","condition":"3_Rep","full_date":"2026-03-12T17:08:27.999Z","date":"2026-03-12","time":"17:08:27"},{"task":"memory_phase","broad_category":"I","image_png":"I_Rhyolite_08.png","image_id":152,"category_name":"Rhyolite","category":10,"distinct_rating":1.38,"distinct_type":"Bottom","rt":null,"stimulus":"Stimuli_Rocks480/I_Rhyolite_08.png","response":null,"trial_type":"image-keyboard-response","trial_index":179,"plugin_version":"2.1.0","time_elapsed":326773,"subject_id":"91916","group":"Group2","condition":"3_Rep","full_date":"2026-03-12T17:08:27.999Z","date":"2026-03-12","time":"17:08:27"},{"rt":null,"stimulus":"<p style=\"font-size: 50px; margin: 0; text-align: center;\">+</p>","response":null,"trial_type":"html-keyboard-response","trial_index":180,"plugin_version":"2.1.0","time_elapsed":327776,"subject_id":"91916","group":"Group2","condition":"3_Rep","full_date":"2026-03-12T17:08:27.999Z","date":"2026-03-12","time":"17:08:27"},{"task":"memory_phase","broad_category":"S","image_png":"S_Chert_13.png","image_id":365,"category_name":"Chert","category":23,"distinct_rating":6.57,"distinct_type":"Top","rt":null,"stimulus":"Stimuli_Rocks480/S_Chert_13.png","response":null,"trial_type":"image-keyboard-response","trial_index":181,"plugin_version":"2.1.0","time_elapsed":330285,"subject_id":"91916","group":"Group2","condition":"3_Rep","full_date":"2026-03-12T17:08:27.999Z","date":"2026-03-12","time":"17:08:27"},{"rt":null,"stimulus":"<p style=\"font-size: 50px; margin: 0; text-align: center;\">+</p>","response":null,"trial_type":"html-keyboard-response","trial_index":182,"plugin_version":"2.1.0","time_elapsed":331288,"subject_id":"91916","group":"Group2","condition":"3_Rep","full_date":"2026-03-12T17:08:27.999Z","date":"2026-03-12","time":"17:08:27"},{"task":"memory_phase","broad_category":"M","image_png":"M_Slate_14.png","image_id":318,"category_name":"Slate","category":20,"distinct_rating":2.58,"distinct_type":"Bottom","rt":null,"stimulus":"Stimuli_Rocks480/M_Slate_14.png","response":null,"trial_type":"image-keyboard-response","trial_index":183,"plugin_version":"2.1.0","time_elapsed":333802,"subject_id":"91916","group":"Group2","condition":"3_Rep","full_date":"2026-03-12T17:08:27.999Z","date":"2026-03-12","time":"17:08:27"},{"rt":null,"stimulus":"<p style=\"font-size: 50px; margin: 0; text-align: center;\">+</p>","response":null,"trial_type":"html-keyboard-response","trial_index":184,"plugin_version":"2.1.0","time_elapsed":334804,"subject_id":"91916","group":"Group2","condition":"3_Rep","full_date":"2026-03-12T17:08:27.999Z","date":"2026-03-12","time":"17:08:27"},{"task":"memory_phase","broad_category":"S","image_png":"S_Sandstone_04.png","image_id":452,"category_name":"Sandstone","category":29,"distinct_rating":1.8,"distinct_type":"Bottom","rt":null,"stimulus":"Stimuli_Rocks480/S_Sandstone_04.png","response":null,"trial_type":"image-keyboard-response","trial_index":185,"plugin_version":"2.1.0","time_elapsed":337320,"subject_id":"91916","group":"Group2","condition":"3_Rep","full_date":"2026-03-12T17:08:27.999Z","date":"2026-03-12","time":"17:08:27"},{"rt":null,"stimulus":"<p style=\"font-size: 50px; margin: 0; text-align: center;\">+</p>","response":null,"trial_type":"html-keyboard-response","trial_index":186,"plugin_version":"2.1.0","time_elapsed":338323,"subject_id":"91916","group":"Group2","condition":"3_Rep","full_date":"2026-03-12T17:08:27.999Z","date":"2026-03-12","time":"17:08:27"},{"task":"memory_phase","broad_category":"I","image_png":"I_Basalt_13.png","image_id":29,"category_name":"Basalt","category":2,"distinct_rating":2.68,"distinct_type":"Bottom","rt":null,"stimulus":"Stimuli_Rocks480/I_Basalt_13.png","response":null,"trial_type":"image-keyboard-response","trial_index":187,"plugin_version":"2.1.0","time_elapsed":340842,"subject_id":"91916","group":"Group2","condition":"3_Rep","full_date":"2026-03-12T17:08:27.999Z","date":"2026-03-12","time":"17:08:27"},{"rt":null,"stimulus":"<p style=\"font-size: 50px; margin: 0; text-align: center;\">+</p>","response":null,"trial_type":"html-keyboard-response","trial_index":188,"plugin_version":"2.1.0","time_elapsed":341844,"subject_id":"91916","group":"Group2","condition":"3_Rep","full_date":"2026-03-12T17:08:27.999Z","date":"2026-03-12","time":"17:08:27"},{"task":"memory_phase","broad_category":"M","image_png":"M_Gneiss_14.png","image_id":206,"category_name":"Gneiss","category":13,"distinct_rating":3.41,"distinct_type":"Bottom","rt":null,"stimulus":"Stimuli_Rocks480/M_Gneiss_14.png","response":null,"trial_type":"image-keyboard-response","trial_index":189,"plugin_version":"2.1.0","time_elapsed":344360,"subject_id":"91916","group":"Group2","condition":"3_Rep","full_date":"2026-03-12T17:08:27.999Z","date":"2026-03-12","time":"17:08:27"},{"rt":null,"stimulus":"<p style=\"font-size: 50px; margin: 0; text-align: center;\">+</p>","response":null,"trial_type":"html-keyboard-response","trial_index":190,"plugin_version":"2.1.0","time_elapsed":345362,"subject_id":"91916","group":"Group2","condition":"3_Rep","full_date":"2026-03-12T17:08:27.999Z","date":"2026-03-12","time":"17:08:27"},{"task":"memory_phase","broad_category":"I","image_png":"I_Peridotite_13.png","image_id":125,"category_name":"Peridotite","category":8,"distinct_rating":7.28,"distinct_type":"Top","rt":null,"stimulus":"Stimuli_Rocks480/I_Peridotite_13.png","response":null,"trial_type":"image-keyboard-response","trial_index":191,"plugin_version":"2.1.0","time_elapsed":347880,"subject_id":"91916","group":"Group2","condition":"3_Rep","full_date":"2026-03-12T17:08:27.999Z","date":"2026-03-12","time":"17:08:27"},{"rt":null,"stimulus":"<p style=\"font-size: 50px; margin: 0; text-align: center;\">+</p>","response":null,"trial_type":"html-keyboard-response","trial_index":192,"plugin_version":"2.1.0","time_elapsed":348883,"subject_id":"91916","group":"Group2","condition":"3_Rep","full_date":"2026-03-12T17:08:27.999Z","date":"2026-03-12","time":"17:08:27"},{"task":"memory_phase","broad_category":"I","image_png":"I_Gabbro_12.png","image_id":60,"category_name":"Gabbro","category":4,"distinct_rating":2.6,"distinct_type":"Bottom","rt":null,"stimulus":"Stimuli_Rocks480/I_Gabbro_12.png","response":null,"trial_type":"image-keyboard-response","trial_index":193,"plugin_version":"2.1.0","time_elapsed":351401,"subject_id":"91916","group":"Group2","condition":"3_Rep","full_date":"2026-03-12T17:08:27.999Z","date":"2026-03-12","time":"17:08:27"},{"rt":null,"stimulus":"<p style=\"font-size: 50px; margin: 0; text-align: center;\">+</p>","response":null,"trial_type":"html-keyboard-response","trial_index":194,"plugin_version":"2.1.0","time_elapsed":352403,"subject_id":"91916","group":"Group2","condition":"3_Rep","full_date":"2026-03-12T17:08:27.999Z","date":"2026-03-12","time":"17:08:27"},{"task":"memory_phase","broad_category":"M","image_png":"M_Quartzite_15.png","image_id":287,"category_name":"Quartzite","category":18,"distinct_rating":2.19,"distinct_type":"Bottom","rt":null,"stimulus":"Stimuli_Rocks480/M_Quartzite_15.png","response":null,"trial_type":"image-keyboard-response","trial_index":195,"plugin_version":"2.1.0","time_elapsed":354920,"subject_id":"91916","group":"Group2","condition":"3_Rep","full_date":"2026-03-12T17:08:27.999Z","date":"2026-03-12","time":"17:08:27"},{"rt":null,"stimulus":"<p style=\"font-size: 50px; margin: 0; text-align: center;\">+</p>","response":null,"trial_type":"html-keyboard-response","trial_index":196,"plugin_version":"2.1.0","time_elapsed":355922,"subject_id":"91916","group":"Group2","condition":"3_Rep","full_date":"2026-03-12T17:08:27.999Z","date":"2026-03-12","time":"17:08:27"},{"task":"memory_phase","broad_category":"M","image_png":"M_Quartzite_07.png","image_id":279,"category_name":"Quartzite","category":18,"distinct_rating":1.97,"distinct_type":"Bottom","rt":null,"stimulus":"Stimuli_Rocks480/M_Quartzite_07.png","response":null,"trial_type":"image-keyboard-response","trial_index":197,"plugin_version":"2.1.0","time_elapsed":358439,"subject_id":"91916","group":"Group2","condition":"3_Rep","full_date":"2026-03-12T17:08:27.999Z","date":"2026-03-12","time":"17:08:27"},{"rt":null,"stimulus":"<p style=\"font-size: 50px; margin: 0; text-align: center;\">+</p>","response":null,"trial_type":"html-keyboard-response","trial_index":198,"plugin_version":"2.1.0","time_elapsed":359442,"subject_id":"91916","group":"Group2","condition":"3_Rep","full_date":"2026-03-12T17:08:27.999Z","date":"2026-03-12","time":"17:08:27"},{"task":"memory_phase","broad_category":"I","image_png":"I_Rhyolite_05.png","image_id":149,"category_name":"Rhyolite","category":10,"distinct_rating":3.02,"distinct_type":"Bottom","rt":null,"stimulus":"Stimuli_Rocks480/I_Rhyolite_05.png","response":null,"trial_type":"image-keyboard-response","trial_index":199,"plugin_version":"2.1.0","time_elapsed":361959,"subject_id":"91916","group":"Group2","condition":"3_Rep","full_date":"2026-03-12T17:08:27.999Z","date":"2026-03-12","time":"17:08:27"},{"rt":null,"stimulus":"<p style=\"font-size: 50px; margin: 0; text-align: center;\">+</p>","response":null,"trial_type":"html-keyboard-response","trial_index":200,"plugin_version":"2.1.0","time_elapsed":362961,"subject_id":"91916","group":"Group2","condition":"3_Rep","full_date":"2026-03-12T17:08:27.999Z","date":"2026-03-12","time":"17:08:27"},{"task":"memory_phase","broad_category":"I","image_png":"I_Pegmatite_03.png","image_id":99,"category_name":"Pegmatite","category":7,"distinct_rating":7.24,"distinct_type":"Top","rt":null,"stimulus":"Stimuli_Rocks480/I_Pegmatite_03.png","response":null,"trial_type":"image-keyboard-response","trial_index":201,"plugin_version":"2.1.0","time_elapsed":365477,"subject_id":"91916","group":"Group2","condition":"3_Rep","full_date":"2026-03-12T17:08:27.999Z","date":"2026-03-12","time":"17:08:27"},{"rt":null,"stimulus":"<p style=\"font-size: 50px; margin: 0; text-align: center;\">+</p>","response":null,"trial_type":"html-keyboard-response","trial_index":202,"plugin_version":"2.1.0","time_elapsed":366479,"subject_id":"91916","group":"Group2","condition":"3_Rep","full_date":"2026-03-12T17:08:27.999Z","date":"2026-03-12","time":"17:08:27"},{"task":"memory_phase","broad_category":"S","image_png":"S_Dolomite_16.png","image_id":400,"category_name":"Dolomite","category":25,"distinct_rating":1.71,"distinct_type":"Bottom","rt":null,"stimulus":"Stimuli_Rocks480/S_Dolomite_16.png","response":null,"trial_type":"image-keyboard-response","trial_index":203,"plugin_version":"2.1.0","time_elapsed":368993,"subject_id":"91916","group":"Group2","condition":"3_Rep","full_date":"2026-03-12T17:08:27.999Z","date":"2026-03-12","time":"17:08:27"},{"rt":null,"stimulus":"<p style=\"font-size: 50px; margin: 0; text-align: center;\">+</p>","response":null,"trial_type":"html-keyboard-response","trial_index":204,"plugin_version":"2.1.0","time_elapsed":369995,"subject_id":"91916","group":"Group2","condition":"3_Rep","full_date":"2026-03-12T17:08:27.999Z","date":"2026-03-12","time":"17:08:27"},{"task":"memory_phase","broad_category":"S","image_png":"S_Dolomite_01.png","image_id":385,"category_name":"Dolomite","category":25,"distinct_rating":1.43,"distinct_type":"Bottom","rt":null,"stimulus":"Stimuli_Rocks480/S_Dolomite_01.png","response":null,"trial_type":"image-keyboard-response","trial_index":205,"plugin_version":"2.1.0","time_elapsed":372512,"subject_id":"91916","group":"Group2","condition":"3_Rep","full_date":"2026-03-12T17:08:27.999Z","date":"2026-03-12","time":"17:08:27"},{"rt":null,"stimulus":"<p style=\"font-size: 50px; margin: 0; text-align: center;\">+</p>","response":null,"trial_type":"html-keyboard-response","trial_index":206,"plugin_version":"2.1.0","time_elapsed":373515,"subject_id":"91916","group":"Group2","condition":"3_Rep","full_date":"2026-03-12T17:08:27.999Z","date":"2026-03-12","time":"17:08:27"},{"task":"memory_phase","broad_category":"I","image_png":"I_Basalt_10.png","image_id":26,"category_name":"Basalt","category":2,"distinct_rating":2.76,"distinct_type":"Bottom","rt":null,"stimulus":"Stimuli_Rocks480/I_Basalt_10.png","response":null,"trial_type":"image-keyboard-response","trial_index":207,"plugin_version":"2.1.0","time_elapsed":376030,"subject_id":"91916","group":"Group2","condition":"3_Rep","full_date":"2026-03-12T17:08:27.999Z","date":"2026-03-12","time":"17:08:27"},{"rt":2736,"stimulus":"<p style=\"max-width: 760px; margin: auto; font-size: 35px; line-height: 1.5;\">\n                You have completed 2 study phases. \n                Now, we'll show you all the images again 1 more time.\n                <br><br>Press SPACE to continue\n              </p>","response":" ","trial_type":"html-keyboard-response","trial_index":208,"plugin_version":"2.1.0","time_elapsed":378768,"subject_id":"91916","group":"Group2","condition":"3_Rep","full_date":"2026-03-12T17:08:27.999Z","date":"2026-03-12","time":"17:08:27"},{"rt":null,"stimulus":"<p style=\"font-size: 50px; margin: 0; text-align: center;\">+</p>","response":null,"trial_type":"html-keyboard-response","trial_index":209,"plugin_version":"2.1.0","time_elapsed":379771,"subject_id":"91916","group":"Group2","condition":"3_Rep","full_date":"2026-03-12T17:08:27.999Z","date":"2026-03-12","time":"17:08:27"},{"task":"memory_phase","broad_category":"M","image_png":"M_Slate_04.png","image_id":308,"category_name":"Slate","category":20,"distinct_rating":2.2,"distinct_type":"Bottom","rt":null,"stimulus":"Stimuli_Rocks480/M_Slate_04.png","response":null,"trial_type":"image-keyboard-response","trial_index":210,"plugin_version":"2.1.0","time_elapsed":382284,"subject_id":"91916","group":"Group2","condition":"3_Rep","full_date":"2026-03-12T17:08:27.999Z","date":"2026-03-12","time":"17:08:27"},{"rt":null,"stimulus":"<p style=\"font-size: 50px; margin: 0; text-align: center;\">+</p>","response":null,"trial_type":"html-keyboard-response","trial_index":211,"plugin_version":"2.1.0","time_elapsed":383287,"subject_id":"91916","group":"Group2","condition":"3_Rep","full_date":"2026-03-12T17:08:27.999Z","date":"2026-03-12","time":"17:08:27"},{"task":"memory_phase","broad_category":"I","image_png":"I_Diorite_01.png","image_id":33,"category_name":"Diorite","category":3,"distinct_rating":2.97,"distinct_type":"Bottom","rt":null,"stimulus":"Stimuli_Rocks480/I_Diorite_01.png","response":null,"trial_type":"image-keyboard-response","trial_index":212,"plugin_version":"2.1.0","time_elapsed":385805,"subject_id":"91916","group":"Group2","condition":"3_Rep","full_date":"2026-03-12T17:08:27.999Z","date":"2026-03-12","time":"17:08:27"},{"rt":null,"stimulus":"<p style=\"font-size: 50px; margin: 0; text-align: center;\">+</p>","response":null,"trial_type":"html-keyboard-response","trial_index":213,"plugin_version":"2.1.0","time_elapsed":386807,"subject_id":"91916","group":"Group2","condition":"3_Rep","full_date":"2026-03-12T17:08:27.999Z","date":"2026-03-12","time":"17:08:27"},{"task":"memory_phase","broad_category":"I","image_png":"I_Gabbro_12.png","image_id":60,"category_name":"Gabbro","category":4,"distinct_rating":2.6,"distinct_type":"Bottom","rt":null,"stimulus":"Stimuli_Rocks480/I_Gabbro_12.png","response":null,"trial_type":"image-keyboard-response","trial_index":214,"plugin_version":"2.1.0","time_elapsed":389311,"subject_id":"91916","group":"Group2","condition":"3_Rep","full_date":"2026-03-12T17:08:27.999Z","date":"2026-03-12","time":"17:08:27"},{"rt":null,"stimulus":"<p style=\"font-size: 50px; margin: 0; text-align: center;\">+</p>","response":null,"trial_type":"html-keyboard-response","trial_index":215,"plugin_version":"2.1.0","time_elapsed":390313,"subject_id":"91916","group":"Group2","condition":"3_Rep","full_date":"2026-03-12T17:08:27.999Z","date":"2026-03-12","time":"17:08:27"},{"task":"memory_phase","broad_category":"I","image_png":"I_Pumice_13.png","image_id":141,"category_name":"Pumice","category":9,"distinct_rating":3.12,"distinct_type":"Bottom","rt":null,"stimulus":"Stimuli_Rocks480/I_Pumice_13.png","response":null,"trial_type":"image-keyboard-response","trial_index":216,"plugin_version":"2.1.0","time_elapsed":392832,"subject_id":"91916","group":"Group2","condition":"3_Rep","full_date":"2026-03-12T17:08:27.999Z","date":"2026-03-12","time":"17:08:27"},{"rt":null,"stimulus":"<p style=\"font-size: 50px; margin: 0; text-align: center;\">+</p>","response":null,"trial_type":"html-keyboard-response","trial_index":217,"plugin_version":"2.1.0","time_elapsed":393835,"subject_id":"91916","group":"Group2","condition":"3_Rep","full_date":"2026-03-12T17:08:27.999Z","date":"2026-03-12","time":"17:08:27"},{"task":"memory_phase","broad_category":"S","image_png":"S_Sandstone_04.png","image_id":452,"category_name":"Sandstone","category":29,"distinct_rating":1.8,"distinct_type":"Bottom","rt":null,"stimulus":"Stimuli_Rocks480/S_Sandstone_04.png","response":null,"trial_type":"image-keyboard-response","trial_index":218,"plugin_version":"2.1.0","time_elapsed":396338,"subject_id":"91916","group":"Group2","condition":"3_Rep","full_date":"2026-03-12T17:08:27.999Z","date":"2026-03-12","time":"17:08:27"},{"rt":null,"stimulus":"<p style=\"font-size: 50px; margin: 0; text-align: center;\">+</p>","response":null,"trial_type":"html-keyboard-response","trial_index":219,"plugin_version":"2.1.0","time_elapsed":397340,"subject_id":"91916","group":"Group2","condition":"3_Rep","full_date":"2026-03-12T17:08:27.999Z","date":"2026-03-12","time":"17:08:27"},{"task":"memory_phase","broad_category":"I","image_png":"I_Basalt_08.png","image_id":24,"category_name":"Basalt","category":2,"distinct_rating":2.31,"distinct_type":"Bottom","rt":null,"stimulus":"Stimuli_Rocks480/I_Basalt_08.png","response":null,"trial_type":"image-keyboard-response","trial_index":220,"plugin_version":"2.1.0","time_elapsed":399860,"subject_id":"91916","group":"Group2","condition":"3_Rep","full_date":"2026-03-12T17:08:27.999Z","date":"2026-03-12","time":"17:08:27"},{"rt":null,"stimulus":"<p style=\"font-size: 50px; margin: 0; text-align: center;\">+</p>","response":null,"trial_type":"html-keyboard-response","trial_index":221,"plugin_version":"2.1.0","time_elapsed":400862,"subject_id":"91916","group":"Group2","condition":"3_Rep","full_date":"2026-03-12T17:08:27.999Z","date":"2026-03-12","time":"17:08:27"},{"task":"memory_phase","broad_category":"S","image_png":"S_Dolomite_07.png","image_id":391,"category_name":"Dolomite","category":25,"distinct_rating":1.73,"distinct_type":"Bottom","rt":null,"stimulus":"Stimuli_Rocks480/S_Dolomite_07.png","response":null,"trial_type":"image-keyboard-response","trial_index":222,"plugin_version":"2.1.0","time_elapsed":403379,"subject_id":"91916","group":"Group2","condition":"3_Rep","full_date":"2026-03-12T17:08:27.999Z","date":"2026-03-12","time":"17:08:27"},{"rt":null,"stimulus":"<p style=\"font-size: 50px; margin: 0; text-align: center;\">+</p>","response":null,"trial_type":"html-keyboard-response","trial_index":223,"plugin_version":"2.1.0","time_elapsed":404382,"subject_id":"91916","group":"Group2","condition":"3_Rep","full_date":"2026-03-12T17:08:27.999Z","date":"2026-03-12","time":"17:08:27"},{"task":"memory_phase","broad_category":"I","image_png":"I_Rhyolite_08.png","image_id":152,"category_name":"Rhyolite","category":10,"distinct_rating":1.38,"distinct_type":"Bottom","rt":null,"stimulus":"Stimuli_Rocks480/I_Rhyolite_08.png","response":null,"trial_type":"image-keyboard-response","trial_index":224,"plugin_version":"2.1.0","time_elapsed":406886,"subject_id":"91916","group":"Group2","condition":"3_Rep","full_date":"2026-03-12T17:08:27.999Z","date":"2026-03-12","time":"17:08:27"},{"rt":null,"stimulus":"<p style=\"font-size: 50px; margin: 0; text-align: center;\">+</p>","response":null,"trial_type":"html-keyboard-response","trial_index":225,"plugin_version":"2.1.0","time_elapsed":407889,"subject_id":"91916","group":"Group2","condition":"3_Rep","full_date":"2026-03-12T17:08:27.999Z","date":"2026-03-12","time":"17:08:27"},{"task":"memory_phase","broad_category":"S","image_png":"S_Shale_02.png","image_id":466,"category_name":"Shale","category":30,"distinct_rating":2.9,"distinct_type":"Bottom","rt":null,"stimulus":"Stimuli_Rocks480/S_Shale_02.png","response":null,"trial_type":"image-keyboard-response","trial_index":226,"plugin_version":"2.1.0","time_elapsed":410404,"subject_id":"91916","group":"Group2","condition":"3_Rep","full_date":"2026-03-12T17:08:27.999Z","date":"2026-03-12","time":"17:08:27"},{"rt":null,"stimulus":"<p style=\"font-size: 50px; margin: 0; text-align: center;\">+</p>","response":null,"trial_type":"html-keyboard-response","trial_index":227,"plugin_version":"2.1.0","time_elapsed":411407,"subject_id":"91916","group":"Group2","condition":"3_Rep","full_date":"2026-03-12T17:08:27.999Z","date":"2026-03-12","time":"17:08:27"},{"task":"memory_phase","broad_category":"S","image_png":"S_Shale_07.png","image_id":471,"category_name":"Shale","category":30,"distinct_rating":2.73,"distinct_type":"Bottom","rt":null,"stimulus":"Stimuli_Rocks480/S_Shale_07.png","response":null,"trial_type":"image-keyboard-response","trial_index":228,"plugin_version":"2.1.0","time_elapsed":413921,"subject_id":"91916","group":"Group2","condition":"3_Rep","full_date":"2026-03-12T17:08:27.999Z","date":"2026-03-12","time":"17:08:27"},{"rt":null,"stimulus":"<p style=\"font-size: 50px; margin: 0; text-align: center;\">+</p>","response":null,"trial_type":"html-keyboard-response","trial_index":229,"plugin_version":"2.1.0","time_elapsed":414923,"subject_id":"91916","group":"Group2","condition":"3_Rep","full_date":"2026-03-12T17:08:27.999Z","date":"2026-03-12","time":"17:08:27"},{"task":"memory_phase","broad_category":"M","image_png":"M_Quartzite_12.png","image_id":284,"category_name":"Quartzite","category":18,"distinct_rating":1.92,"distinct_type":"Bottom","rt":null,"stimulus":"Stimuli_Rocks480/M_Quartzite_12.png","response":null,"trial_type":"image-keyboard-response","trial_index":230,"plugin_version":"2.1.0","time_elapsed":417437,"subject_id":"91916","group":"Group2","condition":"3_Rep","full_date":"2026-03-12T17:08:27.999Z","date":"2026-03-12","time":"17:08:27"},{"rt":null,"stimulus":"<p style=\"font-size: 50px; margin: 0; text-align: center;\">+</p>","response":null,"trial_type":"html-keyboard-response","trial_index":231,"plugin_version":"2.1.0","time_elapsed":418439,"subject_id":"91916","group":"Group2","condition":"3_Rep","full_date":"2026-03-12T17:08:27.999Z","date":"2026-03-12","time":"17:08:27"},{"task":"memory_phase","broad_category":"I","image_png":"I_Rhyolite_10.png","image_id":154,"category_name":"Rhyolite","category":10,"distinct_rating":2.88,"distinct_type":"Bottom","rt":null,"stimulus":"Stimuli_Rocks480/I_Rhyolite_10.png","response":null,"trial_type":"image-keyboard-response","trial_index":232,"plugin_version":"2.1.0","time_elapsed":420961,"subject_id":"91916","group":"Group2","condition":"3_Rep","full_date":"2026-03-12T17:08:27.999Z","date":"2026-03-12","time":"17:08:27"},{"rt":null,"stimulus":"<p style=\"font-size: 50px; margin: 0; text-align: center;\">+</p>","response":null,"trial_type":"html-keyboard-response","trial_index":233,"plugin_version":"2.1.0","time_elapsed":421962,"subject_id":"91916","group":"Group2","condition":"3_Rep","full_date":"2026-03-12T17:08:27.999Z","date":"2026-03-12","time":"17:08:27"},{"task":"memory_phase","broad_category":"I","image_png":"I_Gabbro_14.png","image_id":62,"category_name":"Gabbro","category":4,"distinct_rating":2.95,"distinct_type":"Bottom","rt":null,"stimulus":"Stimuli_Rocks480/I_Gabbro_14.png","response":null,"trial_type":"image-keyboard-response","trial_index":234,"plugin_version":"2.1.0","time_elapsed":424482,"subject_id":"91916","group":"Group2","condition":"3_Rep","full_date":"2026-03-12T17:08:27.999Z","date":"2026-03-12","time":"17:08:27"},{"rt":null,"stimulus":"<p style=\"font-size: 50px; margin: 0; text-align: center;\">+</p>","response":null,"trial_type":"html-keyboard-response","trial_index":235,"plugin_version":"2.1.0","time_elapsed":425484,"subject_id":"91916","group":"Group2","condition":"3_Rep","full_date":"2026-03-12T17:08:27.999Z","date":"2026-03-12","time":"17:08:27"},{"task":"memory_phase","broad_category":"I","image_png":"I_Andesite_09.png","image_id":9,"category_name":"Andesite","category":1,"distinct_rating":2.49,"distinct_type":"Bottom","rt":null,"stimulus":"Stimuli_Rocks480/I_Andesite_09.png","response":null,"tri