[{"width":1272,"height":668,"webaudio":true,"browser":"edge-chromium","browser_version":"144.0.0","mobile":false,"os":"Windows 10","fullscreen":true,"vsync_rate":122.45,"webcam":true,"microphone":true,"trial_type":"browser-check","trial_index":0,"plugin_version":"2.1.0","time_elapsed":500,"subject_id":"91893","group":"Group2","condition":"1_Rep","full_date":"2026-01-27T16:26:31.640Z","date":"2026-01-27","time":"16:26:31"},{"success":true,"timeout":false,"failed_images":[],"failed_audio":[],"failed_video":[],"trial_type":"preload","trial_index":1,"plugin_version":"2.1.0","time_elapsed":6530,"subject_id":"91893","group":"Group2","condition":"1_Rep","full_date":"2026-01-27T16:26:31.640Z","date":"2026-01-27","time":"16:26:31"},{"rt":6613,"url":"SONA_consent_memorability.html","trial_type":"external-html","trial_index":2,"plugin_version":"2.1.0","time_elapsed":13225,"subject_id":"91893","group":"Group2","condition":"1_Rep","full_date":"2026-01-27T16:26:31.640Z","date":"2026-01-27","time":"16:26:31"},{"success":true,"rt":1323,"trial_type":"fullscreen","trial_index":3,"plugin_version":"2.1.0","time_elapsed":15565,"subject_id":"91893","group":"Group2","condition":"1_Rep","full_date":"2026-01-27T16:26:31.640Z","date":"2026-01-27","time":"16:26:31"},{"rt":1495,"stimulus":"<div style=\"max-width: 760px; margin: auto; font-size: 20px; line-height: 1.5;\">\n      <h1 style=\"text-align:center; font-size: 30px;\">Instructions</h1>\n      <p>\n        Welcome to the study on <b>visual memory</b>. This experiment consists of <b>two phases</b>: \n        a <b>study phase</b> and a <b>test phase</b>.\n      </p>\n      <p>\n        In the study phase, you will see a series of rock images along with their category labels.\n        The images will appear one at a time.\n        <b>Your task</b> is to learn the categories to which the rock images belong \n        and to remember each image as accurately as possible.\n      </p> \n      <p>\n        Note that you will see each image only <b>once</b> during the study phase. \n          So, please pay close attention and try to remember each image carefully.\n      </p>\n      <p>\n        After the study phase, <b>your memory will be tested</b>. \n        Additional instructions for the test phase will be provided at that time.\n      </p>\n      <p>\n        If your computer has multiple <b>language settings</b> (e.g., English and another language),\n        please make sure it is set to English before starting.\n      </p>\n      <p>\n        You can track your progress using the <b>completion bar</b> at the top of the screen. \n        Please note that the bar will refresh when the test phase begins \n        to give you an accurate sense of your progress in both phases.\n      </p> \n      <p>\n        Press the button below when you are ready to begin.\n      </p>\n    </div>","response":0,"trial_type":"html-button-response","trial_index":4,"plugin_version":"2.1.0","time_elapsed":17062,"subject_id":"91893","group":"Group2","condition":"1_Rep","full_date":"2026-01-27T16:26:31.640Z","date":"2026-01-27","time":"16:26:31"},{"rt":null,"stimulus":"<p style=\"font-size: 50px; margin: 0; text-align: center;\">+</p>","response":null,"trial_type":"html-keyboard-response","trial_index":5,"plugin_version":"2.1.0","time_elapsed":18069,"subject_id":"91893","group":"Group2","condition":"1_Rep","full_date":"2026-01-27T16:26:31.640Z","date":"2026-01-27","time":"16:26:31"},{"task":"memory_phase","broad_category":"I","image_png":"I_Pumice_13.png","image_id":141,"category_name":"Pumice","category":9,"distinct_rating":3.12,"distinct_type":"Bottom","rt":null,"stimulus":"Stimuli_Rocks480/I_Pumice_13.png","response":null,"trial_type":"image-keyboard-response","trial_index":6,"plugin_version":"2.1.0","time_elapsed":20582,"subject_id":"91893","group":"Group2","condition":"1_Rep","full_date":"2026-01-27T16:26:31.640Z","date":"2026-01-27","time":"16:26:31"},{"rt":null,"stimulus":"<p style=\"font-size: 50px; margin: 0; text-align: center;\">+</p>","response":null,"trial_type":"html-keyboard-response","trial_index":7,"plugin_version":"2.1.0","time_elapsed":21589,"subject_id":"91893","group":"Group2","condition":"1_Rep","full_date":"2026-01-27T16:26:31.640Z","date":"2026-01-27","time":"16:26:31"},{"task":"memory_phase","broad_category":"S","image_png":"S_Sandstone_04.png","image_id":452,"category_name":"Sandstone","category":29,"distinct_rating":1.8,"distinct_type":"Bottom","rt":null,"stimulus":"Stimuli_Rocks480/S_Sandstone_04.png","response":null,"trial_type":"image-keyboard-response","trial_index":8,"plugin_version":"2.1.0","time_elapsed":24093,"subject_id":"91893","group":"Group2","condition":"1_Rep","full_date":"2026-01-27T16:26:31.640Z","date":"2026-01-27","time":"16:26:31"},{"rt":null,"stimulus":"<p style=\"font-size: 50px; margin: 0; text-align: center;\">+</p>","response":null,"trial_type":"html-keyboard-response","trial_index":9,"plugin_version":"2.1.0","time_elapsed":25103,"subject_id":"91893","group":"Group2","condition":"1_Rep","full_date":"2026-01-27T16:26:31.640Z","date":"2026-01-27","time":"16:26:31"},{"task":"memory_phase","broad_category":"M","image_png":"M_Phyllite_02.png","image_id":258,"category_name":"Phyllite","category":17,"distinct_rating":2.89,"distinct_type":"Bottom","rt":null,"stimulus":"Stimuli_Rocks480/M_Phyllite_02.png","response":null,"trial_type":"image-keyboard-response","trial_index":10,"plugin_version":"2.1.0","time_elapsed":27619,"subject_id":"91893","group":"Group2","condition":"1_Rep","full_date":"2026-01-27T16:26:31.640Z","date":"2026-01-27","time":"16:26:31"},{"rt":null,"stimulus":"<p style=\"font-size: 50px; margin: 0; text-align: center;\">+</p>","response":null,"trial_type":"html-keyboard-response","trial_index":11,"plugin_version":"2.1.0","time_elapsed":28621,"subject_id":"91893","group":"Group2","condition":"1_Rep","full_date":"2026-01-27T16:26:31.640Z","date":"2026-01-27","time":"16:26:31"},{"task":"memory_phase","broad_category":"I","image_png":"I_Pumice_01.png","image_id":129,"category_name":"Pumice","category":9,"distinct_rating":3.25,"distinct_type":"Bottom","rt":null,"stimulus":"Stimuli_Rocks480/I_Pumice_01.png","response":null,"trial_type":"image-keyboard-response","trial_index":12,"plugin_version":"2.1.0","time_elapsed":31137,"subject_id":"91893","group":"Group2","condition":"1_Rep","full_date":"2026-01-27T16:26:31.640Z","date":"2026-01-27","time":"16:26:31"},{"rt":null,"stimulus":"<p style=\"font-size: 50px; margin: 0; text-align: center;\">+</p>","response":null,"trial_type":"html-keyboard-response","trial_index":13,"plugin_version":"2.1.0","time_elapsed":32150,"subject_id":"91893","group":"Group2","condition":"1_Rep","full_date":"2026-01-27T16:26:31.640Z","date":"2026-01-27","time":"16:26:31"},{"task":"memory_phase","broad_category":"S","image_png":"S_Shale_07.png","image_id":471,"category_name":"Shale","category":30,"distinct_rating":2.73,"distinct_type":"Bottom","rt":null,"stimulus":"Stimuli_Rocks480/S_Shale_07.png","response":null,"trial_type":"image-keyboard-response","trial_index":14,"plugin_version":"2.1.0","time_elapsed":34656,"subject_id":"91893","group":"Group2","condition":"1_Rep","full_date":"2026-01-27T16:26:31.640Z","date":"2026-01-27","time":"16:26:31"},{"rt":null,"stimulus":"<p style=\"font-size: 50px; margin: 0; text-align: center;\">+</p>","response":null,"trial_type":"html-keyboard-response","trial_index":15,"plugin_version":"2.1.0","time_elapsed":35665,"subject_id":"91893","group":"Group2","condition":"1_Rep","full_date":"2026-01-27T16:26:31.640Z","date":"2026-01-27","time":"16:26:31"},{"task":"memory_phase","broad_category":"I","image_png":"I_Gabbro_14.png","image_id":62,"category_name":"Gabbro","category":4,"distinct_rating":2.95,"distinct_type":"Bottom","rt":null,"stimulus":"Stimuli_Rocks480/I_Gabbro_14.png","response":null,"trial_type":"image-keyboard-response","trial_index":16,"plugin_version":"2.1.0","time_elapsed":38169,"subject_id":"91893","group":"Group2","condition":"1_Rep","full_date":"2026-01-27T16:26:31.640Z","date":"2026-01-27","time":"16:26:31"},{"rt":null,"stimulus":"<p style=\"font-size: 50px; margin: 0; text-align: center;\">+</p>","response":null,"trial_type":"html-keyboard-response","trial_index":17,"plugin_version":"2.1.0","time_elapsed":39173,"subject_id":"91893","group":"Group2","condition":"1_Rep","full_date":"2026-01-27T16:26:31.640Z","date":"2026-01-27","time":"16:26:31"},{"task":"memory_phase","broad_category":"I","image_png":"I_Diorite_10.png","image_id":42,"category_name":"Diorite","category":3,"distinct_rating":2.84,"distinct_type":"Bottom","rt":null,"stimulus":"Stimuli_Rocks480/I_Diorite_10.png","response":null,"trial_type":"image-keyboard-response","trial_index":18,"plugin_version":"2.1.0","time_elapsed":41690,"subject_id":"91893","group":"Group2","condition":"1_Rep","full_date":"2026-01-27T16:26:31.640Z","date":"2026-01-27","time":"16:26:31"},{"rt":null,"stimulus":"<p style=\"font-size: 50px; margin: 0; text-align: center;\">+</p>","response":null,"trial_type":"html-keyboard-response","trial_index":19,"plugin_version":"2.1.0","time_elapsed":42704,"subject_id":"91893","group":"Group2","condition":"1_Rep","full_date":"2026-01-27T16:26:31.640Z","date":"2026-01-27","time":"16:26:31"},{"task":"memory_phase","broad_category":"M","image_png":"M_Slate_14.png","image_id":318,"category_name":"Slate","category":20,"distinct_rating":2.58,"distinct_type":"Bottom","rt":null,"stimulus":"Stimuli_Rocks480/M_Slate_14.png","response":null,"trial_type":"image-keyboard-response","trial_index":20,"plugin_version":"2.1.0","time_elapsed":45222,"subject_id":"91893","group":"Group2","condition":"1_Rep","full_date":"2026-01-27T16:26:31.640Z","date":"2026-01-27","time":"16:26:31"},{"rt":null,"stimulus":"<p style=\"font-size: 50px; margin: 0; text-align: center;\">+</p>","response":null,"trial_type":"html-keyboard-response","trial_index":21,"plugin_version":"2.1.0","time_elapsed":46240,"subject_id":"91893","group":"Group2","condition":"1_Rep","full_date":"2026-01-27T16:26:31.640Z","date":"2026-01-27","time":"16:26:31"},{"task":"memory_phase","broad_category":"S","image_png":"S_Rock Salt_13.png","image_id":445,"category_name":"Rock Salt","category":28,"distinct_rating":7.58,"distinct_type":"Top","rt":null,"stimulus":"Stimuli_Rocks480/S_Rock Salt_13.png","response":null,"trial_type":"image-keyboard-response","trial_index":22,"plugin_version":"2.1.0","time_elapsed":48751,"subject_id":"91893","group":"Group2","condition":"1_Rep","full_date":"2026-01-27T16:26:31.640Z","date":"2026-01-27","time":"16:26:31"},{"rt":null,"stimulus":"<p style=\"font-size: 50px; margin: 0; text-align: center;\">+</p>","response":null,"trial_type":"html-keyboard-response","trial_index":23,"plugin_version":"2.1.0","time_elapsed":49765,"subject_id":"91893","group":"Group2","condition":"1_Rep","full_date":"2026-01-27T16:26:31.640Z","date":"2026-01-27","time":"16:26:31"},{"task":"memory_phase","broad_category":"I","image_png":"I_Gabbro_12.png","image_id":60,"category_name":"Gabbro","category":4,"distinct_rating":2.6,"distinct_type":"Bottom","rt":null,"stimulus":"Stimuli_Rocks480/I_Gabbro_12.png","response":null,"trial_type":"image-keyboard-response","trial_index":24,"plugin_version":"2.1.0","time_elapsed":52278,"subject_id":"91893","group":"Group2","condition":"1_Rep","full_date":"2026-01-27T16:26:31.640Z","date":"2026-01-27","time":"16:26:31"},{"rt":null,"stimulus":"<p style=\"font-size: 50px; margin: 0; text-align: center;\">+</p>","response":null,"trial_type":"html-keyboard-response","trial_index":25,"plugin_version":"2.1.0","time_elapsed":53281,"subject_id":"91893","group":"Group2","condition":"1_Rep","full_date":"2026-01-27T16:26:31.640Z","date":"2026-01-27","time":"16:26:31"},{"task":"memory_phase","broad_category":"I","image_png":"I_Basalt_13.png","image_id":29,"category_name":"Basalt","category":2,"distinct_rating":2.68,"distinct_type":"Bottom","rt":null,"stimulus":"Stimuli_Rocks480/I_Basalt_13.png","response":null,"trial_type":"image-keyboard-response","trial_index":26,"plugin_version":"2.1.0","time_elapsed":55796,"subject_id":"91893","group":"Group2","condition":"1_Rep","full_date":"2026-01-27T16:26:31.640Z","date":"2026-01-27","time":"16:26:31"},{"rt":null,"stimulus":"<p style=\"font-size: 50px; margin: 0; text-align: center;\">+</p>","response":null,"trial_type":"html-keyboard-response","trial_index":27,"plugin_version":"2.1.0","time_elapsed":56803,"subject_id":"91893","group":"Group2","condition":"1_Rep","full_date":"2026-01-27T16:26:31.640Z","date":"2026-01-27","time":"16:26:31"},{"task":"memory_phase","broad_category":"S","image_png":"S_Shale_03.png","image_id":467,"category_name":"Shale","category":30,"distinct_rating":1.95,"distinct_type":"Bottom","rt":null,"stimulus":"Stimuli_Rocks480/S_Shale_03.png","response":null,"trial_type":"image-keyboard-response","trial_index":28,"plugin_version":"2.1.0","time_elapsed":59322,"subject_id":"91893","group":"Group2","condition":"1_Rep","full_date":"2026-01-27T16:26:31.640Z","date":"2026-01-27","time":"16:26:31"},{"rt":null,"stimulus":"<p style=\"font-size: 50px; margin: 0; text-align: center;\">+</p>","response":null,"trial_type":"html-keyboard-response","trial_index":29,"plugin_version":"2.1.0","time_elapsed":60336,"subject_id":"91893","group":"Group2","condition":"1_Rep","full_date":"2026-01-27T16:26:31.640Z","date":"2026-01-27","time":"16:26:31"},{"task":"memory_phase","broad_category":"I","image_png":"I_Rhyolite_08.png","image_id":152,"category_name":"Rhyolite","category":10,"distinct_rating":1.38,"distinct_type":"Bottom","rt":null,"stimulus":"Stimuli_Rocks480/I_Rhyolite_08.png","response":null,"trial_type":"image-keyboard-response","trial_index":30,"plugin_version":"2.1.0","time_elapsed":62847,"subject_id":"91893","group":"Group2","condition":"1_Rep","full_date":"2026-01-27T16:26:31.640Z","date":"2026-01-27","time":"16:26:31"},{"rt":null,"stimulus":"<p style=\"font-size: 50px; margin: 0; text-align: center;\">+</p>","response":null,"trial_type":"html-keyboard-response","trial_index":31,"plugin_version":"2.1.0","time_elapsed":63854,"subject_id":"91893","group":"Group2","condition":"1_Rep","full_date":"2026-01-27T16:26:31.640Z","date":"2026-01-27","time":"16:26:31"},{"task":"memory_phase","broad_category":"S","image_png":"S_Dolomite_01.png","image_id":385,"category_name":"Dolomite","category":25,"distinct_rating":1.43,"distinct_type":"Bottom","rt":null,"stimulus":"Stimuli_Rocks480/S_Dolomite_01.png","response":null,"trial_type":"image-keyboard-response","trial_index":32,"plugin_version":"2.1.0","time_elapsed":66369,"subject_id":"91893","group":"Group2","condition":"1_Rep","full_date":"2026-01-27T16:26:31.640Z","date":"2026-01-27","time":"16:26:31"},{"rt":null,"stimulus":"<p style=\"font-size: 50px; margin: 0; text-align: center;\">+</p>","response":null,"trial_type":"html-keyboard-response","trial_index":33,"plugin_version":"2.1.0","time_elapsed":67374,"subject_id":"91893","group":"Group2","condition":"1_Rep","full_date":"2026-01-27T16:26:31.640Z","date":"2026-01-27","time":"16:26:31"},{"task":"memory_phase","broad_category":"M","image_png":"M_Slate_10.png","image_id":314,"category_name":"Slate","category":20,"distinct_rating":1.94,"distinct_type":"Bottom","rt":null,"stimulus":"Stimuli_Rocks480/M_Slate_10.png","response":null,"trial_type":"image-keyboard-response","trial_index":34,"plugin_version":"2.1.0","time_elapsed":69883,"subject_id":"91893","group":"Group2","condition":"1_Rep","full_date":"2026-01-27T16:26:31.640Z","date":"2026-01-27","time":"16:26:31"},{"rt":null,"stimulus":"<p style=\"font-size: 50px; margin: 0; text-align: center;\">+</p>","response":null,"trial_type":"html-keyboard-response","trial_index":35,"plugin_version":"2.1.0","time_elapsed":70893,"subject_id":"91893","group":"Group2","condition":"1_Rep","full_date":"2026-01-27T16:26:31.640Z","date":"2026-01-27","time":"16:26:31"},{"task":"memory_phase","broad_category":"M","image_png":"M_Phyllite_05.png","image_id":261,"category_name":"Phyllite","category":17,"distinct_rating":2.14,"distinct_type":"Bottom","rt":null,"stimulus":"Stimuli_Rocks480/M_Phyllite_05.png","response":null,"trial_type":"image-keyboard-response","trial_index":36,"plugin_version":"2.1.0","time_elapsed":73407,"subject_id":"91893","group":"Group2","condition":"1_Rep","full_date":"2026-01-27T16:26:31.640Z","date":"2026-01-27","time":"16:26:31"},{"rt":null,"stimulus":"<p style=\"font-size: 50px; margin: 0; text-align: center;\">+</p>","response":null,"trial_type":"html-keyboard-response","trial_index":37,"plugin_version":"2.1.0","time_elapsed":74418,"subject_id":"91893","group":"Group2","condition":"1_Rep","full_date":"2026-01-27T16:26:31.640Z","date":"2026-01-27","time":"16:26:31"},{"task":"memory_phase","broad_category":"I","image_png":"I_Diorite_01.png","image_id":33,"category_name":"Diorite","category":3,"distinct_rating":2.97,"distinct_type":"Bottom","rt":null,"stimulus":"Stimuli_Rocks480/I_Diorite_01.png","response":null,"trial_type":"image-keyboard-response","trial_index":38,"plugin_version":"2.1.0","time_elapsed":76937,"subject_id":"91893","group":"Group2","condition":"1_Rep","full_date":"2026-01-27T16:26:31.640Z","date":"2026-01-27","time":"16:26:31"},{"rt":null,"stimulus":"<p style=\"font-size: 50px; margin: 0; text-align: center;\">+</p>","response":null,"trial_type":"html-keyboard-response","trial_index":39,"plugin_version":"2.1.0","time_elapsed":77941,"subject_id":"91893","group":"Group2","condition":"1_Rep","full_date":"2026-01-27T16:26:31.640Z","date":"2026-01-27","time":"16:26:31"},{"task":"memory_phase","broad_category":"I","image_png":"I_Pumice_14.png","image_id":142,"category_name":"Pumice","category":9,"distinct_rating":3.22,"distinct_type":"Bottom","rt":null,"stimulus":"Stimuli_Rocks480/I_Pumice_14.png","response":null,"trial_type":"image-keyboard-response","trial_index":40,"plugin_version":"2.1.0","time_elapsed":80451,"subject_id":"91893","group":"Group2","condition":"1_Rep","full_date":"2026-01-27T16:26:31.640Z","date":"2026-01-27","time":"16:26:31"},{"rt":null,"stimulus":"<p style=\"font-size: 50px; margin: 0; text-align: center;\">+</p>","response":null,"trial_type":"html-keyboard-response","trial_index":41,"plugin_version":"2.1.0","time_elapsed":81463,"subject_id":"91893","group":"Group2","condition":"1_Rep","full_date":"2026-01-27T16:26:31.640Z","date":"2026-01-27","time":"16:26:31"},{"task":"memory_phase","broad_category":"M","image_png":"M_Gneiss_15.png","image_id":207,"category_name":"Gneiss","category":13,"distinct_rating":3.11,"distinct_type":"Bottom","rt":null,"stimulus":"Stimuli_Rocks480/M_Gneiss_15.png","response":null,"trial_type":"image-keyboard-response","trial_index":42,"plugin_version":"2.1.0","time_elapsed":83978,"subject_id":"91893","group":"Group2","condition":"1_Rep","full_date":"2026-01-27T16:26:31.640Z","date":"2026-01-27","time":"16:26:31"},{"rt":null,"stimulus":"<p style=\"font-size: 50px; margin: 0; text-align: center;\">+</p>","response":null,"trial_type":"html-keyboard-response","trial_index":43,"plugin_version":"2.1.0","time_elapsed":84986,"subject_id":"91893","group":"Group2","condition":"1_Rep","full_date":"2026-01-27T16:26:31.640Z","date":"2026-01-27","time":"16:26:31"},{"task":"memory_phase","broad_category":"M","image_png":"M_Slate_04.png","image_id":308,"category_name":"Slate","category":20,"distinct_rating":2.2,"distinct_type":"Bottom","rt":null,"stimulus":"Stimuli_Rocks480/M_Slate_04.png","response":null,"trial_type":"image-keyboard-response","trial_index":44,"plugin_version":"2.1.0","time_elapsed":87493,"subject_id":"91893","group":"Group2","condition":"1_Rep","full_date":"2026-01-27T16:26:31.640Z","date":"2026-01-27","time":"16:26:31"},{"rt":null,"stimulus":"<p style=\"font-size: 50px; margin: 0; text-align: center;\">+</p>","response":null,"trial_type":"html-keyboard-response","trial_index":45,"plugin_version":"2.1.0","time_elapsed":88506,"subject_id":"91893","group":"Group2","condition":"1_Rep","full_date":"2026-01-27T16:26:31.640Z","date":"2026-01-27","time":"16:26:31"},{"task":"memory_phase","broad_category":"M","image_png":"M_Marble_02.png","image_id":226,"category_name":"Marble","category":15,"distinct_rating":3.2,"distinct_type":"Bottom","rt":null,"stimulus":"Stimuli_Rocks480/M_Marble_02.png","response":null,"trial_type":"image-keyboard-response","trial_index":46,"plugin_version":"2.1.0","time_elapsed":91019,"subject_id":"91893","group":"Group2","condition":"1_Rep","full_date":"2026-01-27T16:26:31.640Z","date":"2026-01-27","time":"16:26:31"},{"rt":null,"stimulus":"<p style=\"font-size: 50px; margin: 0; text-align: center;\">+</p>","response":null,"trial_type":"html-keyboard-response","trial_index":47,"plugin_version":"2.1.0","time_elapsed":92021,"subject_id":"91893","group":"Group2","condition":"1_Rep","full_date":"2026-01-27T16:26:31.640Z","date":"2026-01-27","time":"16:26:31"},{"task":"memory_phase","broad_category":"S","image_png":"S_Sandstone_08.png","image_id":456,"category_name":"Sandstone","category":29,"distinct_rating":1.5,"distinct_type":"Bottom","rt":null,"stimulus":"Stimuli_Rocks480/S_Sandstone_08.png","response":null,"trial_type":"image-keyboard-response","trial_index":48,"plugin_version":"2.1.0","time_elapsed":94535,"subject_id":"91893","group":"Group2","condition":"1_Rep","full_date":"2026-01-27T16:26:31.640Z","date":"2026-01-27","time":"16:26:31"},{"rt":null,"stimulus":"<p style=\"font-size: 50px; margin: 0; text-align: center;\">+</p>","response":null,"trial_type":"html-keyboard-response","trial_index":49,"plugin_version":"2.1.0","time_elapsed":95537,"subject_id":"91893","group":"Group2","condition":"1_Rep","full_date":"2026-01-27T16:26:31.640Z","date":"2026-01-27","time":"16:26:31"},{"task":"memory_phase","broad_category":"M","image_png":"M_Quartzite_15.png","image_id":287,"category_name":"Quartzite","category":18,"distinct_rating":2.19,"distinct_type":"Bottom","rt":null,"stimulus":"Stimuli_Rocks480/M_Quartzite_15.png","response":null,"trial_type":"image-keyboard-response","trial_index":50,"plugin_version":"2.1.0","time_elapsed":98055,"subject_id":"91893","group":"Group2","condition":"1_Rep","full_date":"2026-01-27T16:26:31.640Z","date":"2026-01-27","time":"16:26:31"},{"rt":null,"stimulus":"<p style=\"font-size: 50px; margin: 0; text-align: center;\">+</p>","response":null,"trial_type":"html-keyboard-response","trial_index":51,"plugin_version":"2.1.0","time_elapsed":99067,"subject_id":"91893","group":"Group2","condition":"1_Rep","full_date":"2026-01-27T16:26:31.640Z","date":"2026-01-27","time":"16:26:31"},{"task":"memory_phase","broad_category":"S","image_png":"S_Conglomerate_14.png","image_id":382,"category_name":"Conglomerate","category":24,"distinct_rating":6.86,"distinct_type":"Top","rt":null,"stimulus":"Stimuli_Rocks480/S_Conglomerate_14.png","response":null,"trial_type":"image-keyboard-response","trial_index":52,"plugin_version":"2.1.0","time_elapsed":101586,"subject_id":"91893","group":"Group2","condition":"1_Rep","full_date":"2026-01-27T16:26:31.640Z","date":"2026-01-27","time":"16:26:31"},{"rt":null,"stimulus":"<p style=\"font-size: 50px; margin: 0; text-align: center;\">+</p>","response":null,"trial_type":"html-keyboard-response","trial_index":53,"plugin_version":"2.1.0","time_elapsed":102588,"subject_id":"91893","group":"Group2","condition":"1_Rep","full_date":"2026-01-27T16:26:31.640Z","date":"2026-01-27","time":"16:26:31"},{"task":"memory_phase","broad_category":"M","image_png":"M_Phyllite_13.png","image_id":269,"category_name":"Phyllite","category":17,"distinct_rating":2.8,"distinct_type":"Bottom","rt":null,"stimulus":"Stimuli_Rocks480/M_Phyllite_13.png","response":null,"trial_type":"image-keyboard-response","trial_index":54,"plugin_version":"2.1.0","time_elapsed":105094,"subject_id":"91893","group":"Group2","condition":"1_Rep","full_date":"2026-01-27T16:26:31.640Z","date":"2026-01-27","time":"16:26:31"},{"rt":1920,"stimulus":"<p style=\"max-width: 760px; margin: auto; font-size: 35px; line-height: 1.5;\">\n                Press SPACE to continue study phase\n              </p>","response":" ","trial_type":"html-keyboard-response","trial_index":55,"plugin_version":"2.1.0","time_elapsed":107016,"subject_id":"91893","group":"Group2","condition":"1_Rep","full_date":"2026-01-27T16:26:31.640Z","date":"2026-01-27","time":"16:26:31"},{"rt":null,"stimulus":"<p style=\"font-size: 50px; margin: 0; text-align: center;\">+</p>","response":null,"trial_type":"html-keyboard-response","trial_index":56,"plugin_version":"2.1.0","time_elapsed":108033,"subject_id":"91893","group":"Group2","condition":"1_Rep","full_date":"2026-01-27T16:26:31.640Z","date":"2026-01-27","time":"16:26:31"},{"task":"memory_phase","broad_category":"S","image_png":"S_Shale_02.png","image_id":466,"category_name":"Shale","category":30,"distinct_rating":2.9,"distinct_type":"Bottom","rt":null,"stimulus":"Stimuli_Rocks480/S_Shale_02.png","response":null,"trial_type":"image-keyboard-response","trial_index":57,"plugin_version":"2.1.0","time_elapsed":110544,"subject_id":"91893","group":"Group2","condition":"1_Rep","full_date":"2026-01-27T16:26:31.640Z","date":"2026-01-27","time":"16:26:31"},{"rt":null,"stimulus":"<p style=\"font-size: 50px; margin: 0; text-align: center;\">+</p>","response":null,"trial_type":"html-keyboard-response","trial_index":58,"plugin_version":"2.1.0","time_elapsed":111553,"subject_id":"91893","group":"Group2","condition":"1_Rep","full_date":"2026-01-27T16:26:31.640Z","date":"2026-01-27","time":"16:26:31"},{"task":"memory_phase","broad_category":"I","image_png":"I_Andesite_09.png","image_id":9,"category_name":"Andesite","category":1,"distinct_rating":2.49,"distinct_type":"Bottom","rt":null,"stimulus":"Stimuli_Rocks480/I_Andesite_09.png","response":null,"trial_type":"image-keyboard-response","trial_index":59,"plugin_version":"2.1.0","time_elapsed":114076,"subject_id":"91893","group":"Group2","condition":"1_Rep","full_date":"2026-01-27T16:26:31.640Z","date":"2026-01-27","time":"16:26:31"},{"rt":null,"stimulus":"<p style=\"font-size: 50px; margin: 0; text-align: center;\">+</p>","response":null,"trial_type":"html-keyboard-response","trial_index":60,"plugin_version":"2.1.0","time_elapsed":115088,"subject_id":"91893","group":"Group2","condition":"1_Rep","full_date":"2026-01-27T16:26:31.640Z","date":"2026-01-27","time":"16:26:31"},{"task":"memory_phase","broad_category":"M","image_png":"M_Quartzite_07.png","image_id":279,"category_name":"Quartzite","category":18,"distinct_rating":1.97,"distinct_type":"Bottom","rt":null,"stimulus":"Stimuli_Rocks480/M_Quartzite_07.png","response":null,"trial_type":"image-keyboard-response","trial_index":61,"plugin_version":"2.1.0","time_elapsed":117593,"subject_id":"91893","group":"Group2","condition":"1_Rep","full_date":"2026-01-27T16:26:31.640Z","date":"2026-01-27","time":"16:26:31"},{"rt":null,"stimulus":"<p style=\"font-size: 50px; margin: 0; text-align: center;\">+</p>","response":null,"trial_type":"html-keyboard-response","trial_index":62,"plugin_version":"2.1.0","time_elapsed":118611,"subject_id":"91893","group":"Group2","condition":"1_Rep","full_date":"2026-01-27T16:26:31.640Z","date":"2026-01-27","time":"16:26:31"},{"task":"memory_phase","broad_category":"I","image_png":"I_Basalt_10.png","image_id":26,"category_name":"Basalt","category":2,"distinct_rating":2.76,"distinct_type":"Bottom","rt":null,"stimulus":"Stimuli_Rocks480/I_Basalt_10.png","response":null,"trial_type":"image-keyboard-response","trial_index":63,"plugin_version":"2.1.0","time_elapsed":121124,"subject_id":"91893","group":"Group2","condition":"1_Rep","full_date":"2026-01-27T16:26:31.640Z","date":"2026-01-27","time":"16:26:31"},{"rt":null,"stimulus":"<p style=\"font-size: 50px; margin: 0; text-align: center;\">+</p>","response":null,"trial_type":"html-keyboard-response","trial_index":64,"plugin_version":"2.1.0","time_elapsed":122129,"subject_id":"91893","group":"Group2","condition":"1_Rep","full_date":"2026-01-27T16:26:31.640Z","date":"2026-01-27","time":"16:26:31"},{"task":"memory_phase","broad_category":"M","image_png":"M_Gneiss_14.png","image_id":206,"category_name":"Gneiss","category":13,"distinct_rating":3.41,"distinct_type":"Bottom","rt":null,"stimulus":"Stimuli_Rocks480/M_Gneiss_14.png","response":null,"trial_type":"image-keyboard-response","trial_index":65,"plugin_version":"2.1.0","time_elapsed":124647,"subject_id":"91893","group":"Group2","condition":"1_Rep","full_date":"2026-01-27T16:26:31.640Z","date":"2026-01-27","time":"16:26:31"},{"rt":null,"stimulus":"<p style=\"font-size: 50px; margin: 0; text-align: center;\">+</p>","response":null,"trial_type":"html-keyboard-response","trial_index":66,"plugin_version":"2.1.0","time_elapsed":125659,"subject_id":"91893","group":"Group2","condition":"1_Rep","full_date":"2026-01-27T16:26:31.640Z","date":"2026-01-27","time":"16:26:31"},{"task":"memory_phase","broad_category":"I","image_png":"I_Obsidian_06.png","image_id":86,"category_name":"Obsidian","category":6,"distinct_rating":8.01,"distinct_type":"Top","rt":null,"stimulus":"Stimuli_Rocks480/I_Obsidian_06.png","response":null,"trial_type":"image-keyboard-response","trial_index":67,"plugin_version":"2.1.0","time_elapsed":128162,"subject_id":"91893","group":"Group2","condition":"1_Rep","full_date":"2026-01-27T16:26:31.640Z","date":"2026-01-27","time":"16:26:31"},{"rt":null,"stimulus":"<p style=\"font-size: 50px; margin: 0; text-align: center;\">+</p>","response":null,"trial_type":"html-keyboard-response","trial_index":68,"plugin_version":"2.1.0","time_elapsed":129174,"subject_id":"91893","group":"Group2","condition":"1_Rep","full_date":"2026-01-27T16:26:31.640Z","date":"2026-01-27","time":"16:26:31"},{"task":"memory_phase","broad_category":"I","image_png":"I_Andesite_04.png","image_id":4,"category_name":"Andesite","category":1,"distinct_rating":3.18,"distinct_type":"Bottom","rt":null,"stimulus":"Stimuli_Rocks480/I_Andesite_04.png","response":null,"trial_type":"image-keyboard-response","trial_index":69,"plugin_version":"2.1.0","time_elapsed":131684,"subject_id":"91893","group":"Group2","condition":"1_Rep","full_date":"2026-01-27T16:26:31.640Z","date":"2026-01-27","time":"16:26:31"},{"rt":null,"stimulus":"<p style=\"font-size: 50px; margin: 0; text-align: center;\">+</p>","response":null,"trial_type":"html-keyboard-response","trial_index":70,"plugin_version":"2.1.0","time_elapsed":132693,"subject_id":"91893","group":"Group2","condition":"1_Rep","full_date":"2026-01-27T16:26:31.640Z","date":"2026-01-27","time":"16:26:31"},{"task":"memory_phase","broad_category":"S","image_png":"S_Sandstone_11.png","image_id":459,"category_name":"Sandstone","category":29,"distinct_rating":1.82,"distinct_type":"Bottom","rt":null,"stimulus":"Stimuli_Rocks480/S_Sandstone_11.png","response":null,"trial_type":"image-keyboard-response","trial_index":71,"plugin_version":"2.1.0","time_elapsed":135196,"subject_id":"91893","group":"Group2","condition":"1_Rep","full_date":"2026-01-27T16:26:31.640Z","date":"2026-01-27","time":"16:26:31"},{"rt":null,"stimulus":"<p style=\"font-size: 50px; margin: 0; text-align: center;\">+</p>","response":null,"trial_type":"html-keyboard-response","trial_index":72,"plugin_version":"2.1.0","time_elapsed":136213,"subject_id":"91893","group":"Group2","condition":"1_Rep","full_date":"2026-01-27T16:26:31.640Z","date":"2026-01-27","time":"16:26:31"},{"task":"memory_phase","broad_category":"S","image_png":"S_Rock Salt_15.png","image_id":447,"category_name":"Rock Salt","category":28,"distinct_rating":7.79,"distinct_type":"Top","rt":null,"stimulus":"Stimuli_Rocks480/S_Rock Salt_15.png","response":null,"trial_type":"image-keyboard-response","trial_index":73,"plugin_version":"2.1.0","time_elapsed":138722,"subject_id":"91893","group":"Group2","condition":"1_Rep","full_date":"2026-01-27T16:26:31.640Z","date":"2026-01-27","time":"16:26:31"},{"rt":null,"stimulus":"<p style=\"font-size: 50px; margin: 0; text-align: center;\">+</p>","response":null,"trial_type":"html-keyboard-response","trial_index":74,"plugin_version":"2.1.0","time_elapsed":139738,"subject_id":"91893","group":"Group2","condition":"1_Rep","full_date":"2026-01-27T16:26:31.640Z","date":"2026-01-27","time":"16:26:31"},{"task":"memory_phase","broad_category":"S","image_png":"S_Dolomite_07.png","image_id":391,"category_name":"Dolomite","category":25,"distinct_rating":1.73,"distinct_type":"Bottom","rt":null,"stimulus":"Stimuli_Rocks480/S_Dolomite_07.png","response":null,"trial_type":"image-keyboard-response","trial_index":75,"plugin_version":"2.1.0","time_elapsed":142252,"subject_id":"91893","group":"Group2","condition":"1_Rep","full_date":"2026-01-27T16:26:31.640Z","date":"2026-01-27","time":"16:26:31"},{"rt":null,"stimulus":"<p style=\"font-size: 50px; margin: 0; text-align: center;\">+</p>","response":null,"trial_type":"html-keyboard-response","trial_index":76,"plugin_version":"2.1.0","time_elapsed":143256,"subject_id":"91893","group":"Group2","condition":"1_Rep","full_date":"2026-01-27T16:26:31.640Z","date":"2026-01-27","time":"16:26:31"},{"task":"memory_phase","broad_category":"I","image_png":"I_Basalt_08.png","image_id":24,"category_name":"Basalt","category":2,"distinct_rating":2.31,"distinct_type":"Bottom","rt":null,"stimulus":"Stimuli_Rocks480/I_Basalt_08.png","response":null,"trial_type":"image-keyboard-response","trial_index":77,"plugin_version":"2.1.0","time_elapsed":145765,"subject_id":"91893","group":"Group2","condition":"1_Rep","full_date":"2026-01-27T16:26:31.640Z","date":"2026-01-27","time":"16:26:31"},{"rt":null,"stimulus":"<p style=\"font-size: 50px; margin: 0; text-align: center;\">+</p>","response":null,"trial_type":"html-keyboard-response","trial_index":78,"plugin_version":"2.1.0","time_elapsed":146779,"subject_id":"91893","group":"Group2","condition":"1_Rep","full_date":"2026-01-27T16:26:31.640Z","date":"2026-01-27","time":"16:26:31"},{"task":"memory_phase","broad_category":"M","image_png":"M_Gneiss_10.png","image_id":202,"category_name":"Gneiss","category":13,"distinct_rating":3.09,"distinct_type":"Bottom","rt":null,"stimulus":"Stimuli_Rocks480/M_Gneiss_10.png","response":null,"trial_type":"image-keyboard-response","trial_index":79,"plugin_version":"2.1.0","time_elapsed":149291,"subject_id":"91893","group":"Group2","condition":"1_Rep","full_date":"2026-01-27T16:26:31.640Z","date":"2026-01-27","time":"16:26:31"},{"rt":null,"stimulus":"<p style=\"font-size: 50px; margin: 0; text-align: center;\">+</p>","response":null,"trial_type":"html-keyboard-response","trial_index":80,"plugin_version":"2.1.0","time_elapsed":150305,"subject_id":"91893","group":"Group2","condition":"1_Rep","full_date":"2026-01-27T16:26:31.640Z","date":"2026-01-27","time":"16:26:31"},{"task":"memory_phase","broad_category":"I","image_png":"I_Rhyolite_05.png","image_id":149,"category_name":"Rhyolite","category":10,"distinct_rating":3.02,"distinct_type":"Bottom","rt":null,"stimulus":"Stimuli_Rocks480/I_Rhyolite_05.png","response":null,"trial_type":"image-keyboard-response","trial_index":81,"plugin_version":"2.1.0","time_elapsed":152822,"subject_id":"91893","group":"Group2","condition":"1_Rep","full_date":"2026-01-27T16:26:31.640Z","date":"2026-01-27","time":"16:26:31"},{"rt":null,"stimulus":"<p style=\"font-size: 50px; margin: 0; text-align: center;\">+</p>","response":null,"trial_type":"html-keyboard-response","trial_index":82,"plugin_version":"2.1.0","time_elapsed":153836,"subject_id":"91893","group":"Group2","condition":"1_Rep","full_date":"2026-01-27T16:26:31.640Z","date":"2026-01-27","time":"16:26:31"},{"task":"memory_phase","broad_category":"M","image_png":"M_Quartzite_12.png","image_id":284,"category_name":"Quartzite","category":18,"distinct_rating":1.92,"distinct_type":"Bottom","rt":null,"stimulus":"Stimuli_Rocks480/M_Quartzite_12.png","response":null,"trial_type":"image-keyboard-response","trial_index":83,"plugin_version":"2.1.0","time_elapsed":156338,"subject_id":"91893","group":"Group2","condition":"1_Rep","full_date":"2026-01-27T16:26:31.640Z","date":"2026-01-27","time":"16:26:31"},{"rt":null,"stimulus":"<p style=\"font-size: 50px; margin: 0; text-align: center;\">+</p>","response":null,"trial_type":"html-keyboard-response","trial_index":84,"plugin_version":"2.1.0","time_elapsed":157355,"subject_id":"91893","group":"Group2","condition":"1_Rep","full_date":"2026-01-27T16:26:31.640Z","date":"2026-01-27","time":"16:26:31"},{"task":"memory_phase","broad_category":"S","image_png":"S_Dolomite_16.png","image_id":400,"category_name":"Dolomite","category":25,"distinct_rating":1.71,"distinct_type":"Bottom","rt":null,"stimulus":"Stimuli_Rocks480/S_Dolomite_16.png","response":null,"trial_type":"image-keyboard-response","trial_index":85,"plugin_version":"2.1.0","time_elapsed":159872,"subject_id":"91893","group":"Group2","condition":"1_Rep","full_date":"2026-01-27T16:26:31.640Z","date":"2026-01-27","time":"16:26:31"},{"rt":null,"stimulus":"<p style=\"font-size: 50px; margin: 0; text-align: center;\">+</p>","response":null,"trial_type":"html-keyboard-response","trial_index":86,"plugin_version":"2.1.0","time_elapsed":160879,"subject_id":"91893","group":"Group2","condition":"1_Rep","full_date":"2026-01-27T16:26:31.640Z","date":"2026-01-27","time":"16:26:31"},{"task":"memory_phase","broad_category":"S","image_png":"S_Chert_13.png","image_id":365,"category_name":"Chert","category":23,"distinct_rating":6.57,"distinct_type":"Top","rt":null,"stimulus":"Stimuli_Rocks480/S_Chert_13.png","response":null,"trial_type":"image-keyboard-response","trial_index":87,"plugin_version":"2.1.0","time_elapsed":163384,"subject_id":"91893","group":"Group2","condition":"1_Rep","full_date":"2026-01-27T16:26:31.640Z","date":"2026-01-27","time":"16:26:31"},{"rt":null,"stimulus":"<p style=\"font-size: 50px; margin: 0; text-align: center;\">+</p>","response":null,"trial_type":"html-keyboard-response","trial_index":88,"plugin_version":"2.1.0","time_elapsed":164387,"subject_id":"91893","group":"Group2","condition":"1_Rep","full_date":"2026-01-27T16:26:31.640Z","date":"2026-01-27","time":"16:26:31"},{"task":"memory_phase","broad_category":"I","image_png":"I_Gabbro_02.png","image_id":50,"category_name":"Gabbro","category":4,"distinct_rating":2.73,"distinct_type":"Bottom","rt":null,"stimulus":"Stimuli_Rocks480/I_Gabbro_02.png","response":null,"trial_type":"image-keyboard-response","trial_index":89,"plugin_version":"2.1.0","time_elapsed":166898,"subject_id":"91893","group":"Group2","condition":"1_Rep","full_date":"2026-01-27T16:26:31.640Z","date":"2026-01-27","time":"16:26:31"},{"rt":null,"stimulus":"<p style=\"font-size: 50px; margin: 0; text-align: center;\">+</p>","response":null,"trial_type":"html-keyboard-response","trial_index":90,"plugin_version":"2.1.0","time_elapsed":167913,"subject_id":"91893","group":"Group2","condition":"1_Rep","full_date":"2026-01-27T16:26:31.640Z","date":"2026-01-27","time":"16:26:31"},{"task":"memory_phase","broad_category":"I","image_png":"I_Rhyolite_10.png","image_id":154,"category_name":"Rhyolite","category":10,"distinct_rating":2.88,"distinct_type":"Bottom","rt":null,"stimulus":"Stimuli_Rocks480/I_Rhyolite_10.png","response":null,"trial_type":"image-keyboard-response","trial_index":91,"plugin_version":"2.1.0","time_elapsed":170426,"subject_id":"91893","group":"Group2","condition":"1_Rep","full_date":"2026-01-27T16:26:31.640Z","date":"2026-01-27","time":"16:26:31"},{"rt":null,"stimulus":"<p style=\"font-size: 50px; margin: 0; text-align: center;\">+</p>","response":null,"trial_type":"html-keyboard-response","trial_index":92,"plugin_version":"2.1.0","time_elapsed":171434,"subject_id":"91893","group":"Group2","condition":"1_Rep","full_date":"2026-01-27T16:26:31.640Z","date":"2026-01-27","time":"16:26:31"},{"task":"memory_phase","broad_category":"I","image_png":"I_Diorite_15.png","image_id":47,"category_name":"Diorite","category":3,"distinct_rating":3.05,"distinct_type":"Bottom","rt":null,"stimulus":"Stimuli_Rocks480/I_Diorite_15.png","response":null,"trial_type":"image-keyboard-response","trial_index":93,"plugin_version":"2.1.0","time_elapsed":173951,"subject_id":"91893","group":"Group2","condition":"1_Rep","full_date":"2026-01-27T16:26:31.640Z","date":"2026-01-27","time":"16:26:31"},{"rt":null,"stimulus":"<p style=\"font-size: 50px; margin: 0; text-align: center;\">+</p>","response":null,"trial_type":"html-keyboard-response","trial_index":94,"plugin_version":"2.1.0","time_elapsed":174957,"subject_id":"91893","group":"Group2","condition":"1_Rep","full_date":"2026-01-27T16:26:31.640Z","date":"2026-01-27","time":"16:26:31"},{"task":"memory_phase","broad_category":"I","image_png":"I_Peridotite_13.png","image_id":125,"category_name":"Peridotite","category":8,"distinct_rating":7.28,"distinct_type":"Top","rt":null,"stimulus":"Stimuli_Rocks480/I_Peridotite_13.png","response":null,"trial_type":"image-keyboard-response","trial_index":95,"plugin_version":"2.1.0","time_elapsed":177461,"subject_id":"91893","group":"Group2","condition":"1_Rep","full_date":"2026-01-27T16:26:31.640Z","date":"2026-01-27","time":"16:26:31"},{"rt":null,"stimulus":"<p style=\"font-size: 50px; margin: 0; text-align: center;\">+</p>","response":null,"trial_type":"html-keyboard-response","trial_index":96,"plugin_version":"2.1.0","time_elapsed":178474,"subject_id":"91893","group":"Group2","condition":"1_Rep","full_date":"2026-01-27T16:26:31.640Z","date":"2026-01-27","time":"16:26:31"},{"task":"memory_phase","broad_category":"M","image_png":"M_Marble_14.png","image_id":238,"category_name":"Marble","category":15,"distinct_rating":3.31,"distinct_type":"Bottom","rt":null,"stimulus":"Stimuli_Rocks480/M_Marble_14.png","response":null,"trial_type":"image-keyboard-response","trial_index":97,"plugin_version":"2.1.0","time_elapsed":180987,"subject_id":"91893","group":"Group2","condition":"1_Rep","full_date":"2026-01-27T16:26:31.640Z","date":"2026-01-27","time":"16:26:31"},{"rt":null,"stimulus":"<p style=\"font-size: 50px; margin: 0; text-align: center;\">+</p>","response":null,"trial_type":"html-keyboard-response","trial_index":98,"plugin_version":"2.1.0","time_elapsed":181996,"subject_id":"91893","group":"Group2","condition":"1_Rep","full_date":"2026-01-27T16:26:31.640Z","date":"2026-01-27","time":"16:26:31"},{"task":"memory_phase","broad_category":"I","image_png":"I_Pegmatite_03.png","image_id":99,"category_name":"Pegmatite","category":7,"distinct_rating":7.24,"distinct_type":"Top","rt":null,"stimulus":"Stimuli_Rocks480/I_Pegmatite_03.png","response":null,"trial_type":"image-keyboard-response","trial_index":99,"plugin_version":"2.1.0","time_elapsed":184505,"subject_id":"91893","group":"Group2","condition":"1_Rep","full_date":"2026-01-27T16:26:31.640Z","date":"2026-01-27","time":"16:26:31"},{"rt":null,"stimulus":"<p style=\"font-size: 50px; margin: 0; text-align: center;\">+</p>","response":null,"trial_type":"html-keyboard-response","trial_index":100,"plugin_version":"2.1.0","time_elapsed":185513,"subject_id":"91893","group":"Group2","condition":"1_Rep","full_date":"2026-01-27T16:26:31.640Z","date":"2026-01-27","time":"16:26:31"},{"task":"memory_phase","broad_category":"I","image_png":"I_Andesite_03.png","image_id":3,"category_name":"Andesite","category":1,"distinct_rating":3.17,"distinct_type":"Bottom","rt":null,"stimulus":"Stimuli_Rocks480/I_Andesite_03.png","response":null,"trial_type":"image-keyboard-response","trial_index":101,"plugin_version":"2.1.0","time_elapsed":188027,"subject_id":"91893","group":"Group2","condition":"1_Rep","full_date":"2026-01-27T16:26:31.640Z","date":"2026-01-27","time":"16:26:31"},{"rt":null,"stimulus":"<p style=\"font-size: 50px; margin: 0; text-align: center;\">+</p>","response":null,"trial_type":"html-keyboard-response","trial_index":102,"plugin_version":"2.1.0","time_elapsed":189040,"subject_id":"91893","group":"Group2","condition":"1_Rep","full_date":"2026-01-27T16:26:31.640Z","date":"2026-01-27","time":"16:26:31"},{"task":"memory_phase","broad_category":"I","image_png":"I_Pegmatite_11.png","image_id":107,"category_name":"Pegmatite","category":7,"distinct_rating":7.11,"distinct_type":"Top","rt":null,"stimulus":"Stimuli_Rocks480/I_Pegmatite_11.png","response":null,"trial_type":"image-keyboard-response","trial_index":103,"plugin_version":"2.1.0","time_elapsed":191550,"subject_id":"91893","group":"Group2","condition":"1_Rep","full_date":"2026-01-27T16:26:31.640Z","date":"2026-01-27","time":"16:26:31"},{"rt":null,"stimulus":"<p style=\"font-size: 50px; margin: 0; text-align: center;\">+</p>","response":null,"trial_type":"html-keyboard-response","trial_index":104,"plugin_version":"2.1.0","time_elapsed":192558,"subject_id":"91893","group":"Group2","condition":"1_Rep","full_date":"2026-01-27T16:26:31.640Z","date":"2026-01-27","time":"16:26:31"},{"task":"memory_phase","broad_category":"M","image_png":"M_Marble_03.png","image_id":227,"category_name":"Marble","category":15,"distinct_rating":2.67,"distinct_type":"Bottom","rt":null,"stimulus":"Stimuli_Rocks480/M_Marble_03.png","response":null,"trial_type":"image-keyboard-response","trial_index":105,"plugin_version":"2.1.0","time_elapsed":195071,"subject_id":"91893","group":"Group2","condition":"1_Rep","full_date":"2026-01-27T16:26:31.640Z","date":"2026-01-27","time":"16:26:31"},{"rt":2721,"stimulus":"<div style=\"max-width: 760px; margin: auto; font-size: 20px; line-height: 1.5;\">\n      <h1 style=\"text-align:center; font-size: 30px;\">Instructions for the Test Phase</h1>\n      <p>\n        The study phase is now complete.\n      </p>\n      <p>\n        In the test phase, you will again see a series of rock images. \n        Some will be ones you saw before - during the study phase, while others will be new.  \n        <b>Your task</b> is to decide whether you have seen each image before by pressing the corresponding key on your keyboard:<br><br>\n          <b>A</b> - NO (you did not see this image before)<br>\n          <b>L</b> - YES (you saw this image before)<br><br>\n        The test will proceed at your own pace. You will receive feedback after each response.  \n        Please try to respond <b>as accurately as possible</b>.\n      </p>\n      <p>\n        <b>Reminder:</b> If your computer has multiple language settings (e.g., English and another language),\n        please ensure it is set to English during the test phase.\n      </p>\n      <p>\n        You can track your progress using the <b>completion bar</b> at the top of the screen.  \n        Note that it has been refreshed to reflect your progress during this final phase.\n      </p>\n      <p>\n        Press the button below when you are ready to continue.\n      </p>\n    </div>","response":0,"trial_type":"html-button-response","trial_index":106,"plugin_version":"2.1.0","time_elapsed":197795,"subject_id":"91893","group":"Group2","condition":"1_Rep","full_date":"2026-01-27T16:26:31.640Z","date":"2026-01-27","time":"16:26:31"},{"correct_response":"l","task":"test_phase","broad_category":"S","image_png":"S_Rock Salt_15.png","image_id":447,"category_name":"Rock Salt","category":28,"distinct_rating":7.79,"distinct_type":"Top","item_type":"Target","rt":3210,"stimulus":"Stimuli_Rocks480/S_Rock Salt_15.png","response":"a","trial_type":"image-keyboard-response","trial_index":107,"plugin_version":"2.1.0","time_elapsed":201007,"subject_id":"91893","group":"Group2","condition":"1_Rep","full_date":"2026-01-27T16:26:31.640Z","date":"2026-01-27","time":"16:26:31","cor_ans":false},{"trial_type":"html-keyboard-response","rt":null,"stimulus":"<p style=\"color: red; font-size: 50px; font-weight: bold;\">Incorrect</p>","response":null,"trial_index":108,"plugin_version":"2.1.0","time_elapsed":201514,"subject_id":"91893","group":"Group2","condition":"1_Rep","full_date":"2026-01-27T16:26:31.640Z","date":"2026-01-27","time":"16:26:31"},{"correct_response":"l","task":"test_phase","broad_category":"I","image_png":"I_Pegmatite_11.png","image_id":107,"category_name":"Pegmatite","category":7,"distinct_rating":7.11,"distinct_type":"Top","item_type":"Target","rt":4430,"stimulus":"Stimuli_Rocks480/I_Pegmatite_11.png","response":"l","trial_type":"image-keyboard-response","trial_index":109,"plugin_version":"2.1.0","time_elapsed":205946,"subject_id":"91893","group":"Group2","condition":"1_Rep","full_date":"2026-01-27T16:26:31.640Z","date":"2026-01-27","time":"16:26:31","cor_ans":true},{"trial_type":"html-keyboard-response","rt":null,"stimulus":"<p style=\"color: green; font-size: 50px; font-weight: bold;\">Correct</p>","response":null,"trial_index":110,"plugin_version":"2.1.0","time_elapsed":206454,"subject_id":"91893","group":"Group2","condition":"1_Rep","full_date":"2026-01-27T16:26:31.640Z","date":"2026-01-27","time":"16:26:31"},{"correct_response":"l","task":"test_phase","broad_category":"I","image_png":"I_Basalt_13.png","image_id":29,"category_name":"Basalt","category":2,"distinct_rating":2.68,"distinct_type":"Bottom","item_type":"Target","rt":1511,"stimulus":"Stimuli_Rocks480/I_Basalt_13.png","response":"l","trial_type":"image-keyboard-response","trial_index":111,"plugin_version":"2.1.0","time_elapsed":207969,"subject_id":"91893","group":"Group2","condition":"1_Rep","full_date":"2026-01-27T16:26:31.640Z","date":"2026-01-27","time":"16:26:31","cor_ans":true},{"trial_type":"html-keyboard-response","rt":null,"stimulus":"<p style=\"color: green; font-size: 50px; font-weight: bold;\">Correct</p>","response":null,"trial_index":112,"plugin_version":"2.1.0","time_elapsed":208476,"subject_id":"91893","group":"Group2","condition":"1_Rep","full_date":"2026-01-27T16:26:31.640Z","date":"2026-01-27","time":"16:26:31"},{"correct_response":"l","task":"test_phase","broad_category":"I","image_png":"I_Obsidian_06.png","image_id":86,"category_name":"Obsidian","category":6,"distinct_rating":8.01,"distinct_type":"Top","item_type":"Target","rt":916,"stimulus":"Stimuli_Rocks480/I_Obsidian_06.png","response":"a","trial_type":"image-keyboard-response","trial_index":113,"plugin_version":"2.1.0","time_elapsed":209394,"subject_id":"91893","group":"Group2","condition":"1_Rep","full_date":"2026-01-27T16:26:31.640Z","date":"2026-01-27","time":"16:26:31","cor_ans":false},{"trial_type":"html-keyboard-response","rt":null,"stimulus":"<p style=\"color: red; font-size: 50px; font-weight: bold;\">Incorrect</p>","response":null,"trial_index":114,"plugin_version":"2.1.0","time_elapsed":209900,"subject_id":"91893","group":"Group2","condition":"1_Rep","full_date":"2026-01-27T16:26:31.640Z","date":"2026-01-27","time":"16:26:31"},{"correct_response":"a","task":"test_phase","broad_category":"I","image_png":"I_Pumice_12.png","image_id":140,"category_name":"Pumice","category":9,"distinct_rating":2.97,"distinct_type":"Bottom","item_type":"Foil","rt":1227,"stimulus":"Stimuli_Rocks480/I_Pumice_12.png","response":"l","trial_type":"image-keyboard-response","trial_index":115,"plugin_version":"2.1.0","time_elapsed":211130,"subject_id":"91893","group":"Group2","condition":"1_Rep","full_date":"2026-01-27T16:26:31.640Z","date":"2026-01-27","time":"16:26:31","cor_ans":false},{"trial_type":"html-keyboard-response","rt":null,"stimulus":"<p style=\"color: red; font-size: 50px; font-weight: bold;\">Incorrect</p>","response":null,"trial_index":116,"plugin_version":"2.1.0","time_elapsed":211640,"subject_id":"91893","group":"Group2","condition":"1_Rep","full_date":"2026-01-27T16:26:31.640Z","date":"2026-01-27","time":"16:26:31"},{"correct_response":"a","task":"test_phase","broad_category":"M","image_png":"M_Gneiss_06.png","image_id":198,"category_name":"Gneiss","category":13,"distinct_rating":2.65,"distinct_type":"Bottom","item_type":"Foil","rt":1213,"stimulus":"Stimuli_Rocks480/M_Gneiss_06.png","response":"l","trial_type":"image-keyboard-response","trial_index":117,"plugin_version":"2.1.0","time_elapsed":212856,"subject_id":"91893","group":"Group2","condition":"1_Rep","full_date":"2026-01-27T16:26:31.640Z","date":"2026-01-27","time":"16:26:31","cor_ans":false},{"trial_type":"html-keyboard-response","rt":null,"stimulus":"<p style=\"color: red; font-size: 50px; font-weight: bold;\">Incorrect</p>","response":null,"trial_index":118,"plugin_version":"2.1.0","time_elapsed":213364,"subject_id":"91893","group":"Group2","condition":"1_Rep","full_date":"2026-01-27T16:26:31.640Z","date":"2026-01-27","time":"16:26:31"},{"correct_response":"a","task":"test_phase","broad_category":"I","image_png":"I_Andesite_10.png","image_id":10,"category_name":"Andesite","category":1,"distinct_rating":3.15,"distinct_type":"Bottom","item_type":"Foil","rt":964,"stimulus":"Stimuli_Rocks480/I_Andesite_10.png","response":"l","trial_type":"image-keyboard-response","trial_index":119,"plugin_version":"2.1.0","time_elapsed":214330,"subject_id":"91893","group":"Group2","condition":"1_Rep","full_date":"2026-01-27T16:26:31.640Z","date":"2026-01-27","time":"16:26:31","cor_ans":false},{"trial_type":"html-keyboard-response","rt":null,"stimulus":"<p style=\"color: red; font-size: 50px; font-weight: bold;\">Incorrect</p>","response":null,"trial_index":120,"plugin_version":"2.1.0","time_elapsed":214846,"subject_id":"91893","group":"Group2","condition":"1_Rep","full_date":"2026-01-27T16:26:31.640Z","date":"2026-01-27","time":"16:26:31"},{"correct_response":"a","task":"test_phase","broad_category":"S","image_png":"S_Dolomite_13.png","image_id":397,"category_name":"Dolomite","category":25,"distinct_rating":1.77,"distinct_type":"Bottom","item_type":"Foil","rt":1019,"stimulus":"Stimuli_Rocks480/S_Dolomite_13.png","response":"l","trial_type":"image-keyboard-response","trial_index":121,"plugin_version":"2.1.0","time_elapsed":215869,"subject_id":"91893","group":"Group2","condition":"1_Rep","full_date":"2026-01-27T16:26:31.640Z","date":"2026-01-27","time":"16:26:31","cor_ans":false},{"trial_type":"html-keyboard-response","rt":null,"stimulus":"<p style=\"color: red; font-size: 50px; font-weight: bold;\">Incorrect</p>","response":null,"trial_index":122,"plugin_version":"2.1.0","time_elapsed":216379,"subject_id":"91893","group":"Group2","condition":"1_Rep","full_date":"2026-01-27T16:26:31.640Z","date":"2026-01-27","time":"16:26:31"},{"correct_response":"a","task":"test_phase","broad_category":"M","image_png":"M_Marble_16.png","image_id":240,"category_name":"Marble","category":15,"distinct_rating":2.57,"distinct_type":"Bottom","item_type":"Foil","rt":722,"stimulus":"Stimuli_Rocks480/M_Marble_16.png","response":"l","trial_type":"image-keyboard-response","trial_index":123,"plugin_version":"2.1.0","time_elapsed":217104,"subject_id":"91893","group":"Group2","condition":"1_Rep","full_date":"2026-01-27T16:26:31.640Z","date":"2026-01-27","time":"16:26:31","cor_ans":false},{"trial_type":"html-keyboard-response","rt":null,"stimulus":"<p style=\"color: red; font-size: 50px; font-weight: bold;\">Incorrect</p>","response":null,"trial_index":124,"plugin_version":"2.1.0","time_elapsed":217613,"subject_id":"91893","group":"Group2","condition":"1_Rep","full_date":"2026-01-27T16:26:31.640Z","date":"2026-01-27","time":"16:26:31"},{"correct_response":"l","task":"test_phase","broad_category":"M","image_png":"M_Phyllite_05.png","image_id":261,"category_name":"Phyllite","category":17,"distinct_rating":2.14,"distinct_type":"Bottom","item_type":"Target","rt":882,"stimulus":"Stimuli_Rocks480/M_Phyllite_05.png","response":"l","trial_type":"image-keyboard-response","trial_index":125,"plugin_version":"2.1.0","time_elapsed":218497,"subject_id":"91893","group":"Group2","condition":"1_Rep","full_date":"2026-01-27T16:26:31.640Z","date":"2026-01-27","time":"16:26:31","cor_ans":true},{"trial_type":"html-keyboard-response","rt":null,"stimulus":"<p style=\"color: green; font-size: 50px; font-weight: bold;\">Correct</p>","response":null,"trial_index":126,"plugin_version":"2.1.0","time_elapsed":219010,"subject_id":"91893","group":"Group2","condition":"1_Rep","full_date":"2026-01-27T16:26:31.640Z","date":"2026-01-27","time":"16:26:31"},{"correct_response":"a","task":"test_phase","broad_category":"I","image_png":"I_Andesite_06.png","image_id":6,"category_name":"Andesite","category":1,"distinct_rating":3.17,"distinct_type":"Bottom","item_type":"Foil","rt":1505,"stimulus":"Stimuli_Rocks480/I_Andesite_06.png","response":"l","trial_type":"image-keyboard-response","trial_index":127,"plugin_version":"2.1.0","time_elapsed":220517,"subject_id":"91893","group":"Group2","condition":"1_Rep","full_date":"2026-01-27T16:26:31.640Z","date":"2026-01-27","time":"16:26:31","cor_ans":false},{"trial_type":"html-keyboard-response","rt":null,"stimulus":"<p style=\"color: red; font-size: 50px; font-weight: bold;\">Incorrect</p>","response":null,"trial_index":128,"plugin_version":"2.1.0","time_elapsed":221019,"subject_id":"91893","group":"Group2","condition":"1_Rep","full_date":"2026-01-27T16:26:31.640Z","date":"2026-01-27","time":"16:26:31"},{"correct_response":"a","task":"test_phase","broad_category":"M","image_png":"M_Quartzite_08.png","image_id":280,"category_name":"Quartzite","category":18,"distinct_rating":2.15,"distinct_type":"Bottom","item_type":"Foil","rt":690,"stimulus":"Stimuli_Rocks480/M_Quartzite_08.png","response":"a","trial_type":"image-keyboard-response","trial_index":129,"plugin_version":"2.1.0","time_elapsed":221710,"subject_id":"91893","group":"Group2","condition":"1_Rep","full_date":"2026-01-27T16:26:31.640Z","date":"2026-01-27","time":"16:26:31","cor_ans":true},{"trial_type":"html-keyboard-response","rt":null,"stimulus":"<p style=\"color: green; font-size: 50px; font-weight: bold;\">Correct</p>","response":null,"trial_index":130,"plugin_version":"2.1.0","time_elapsed":222226,"subject_id":"91893","group":"Group2","condition":"1_Rep","full_date":"2026-01-27T16:26:31.640Z","date":"2026-01-27","time":"16:26:31"},{"correct_response":"a","task":"test_phase","broad_category":"I","image_png":"I_Basalt_09.png","image_id":25,"category_name":"Basalt","category":2,"distinct_rating":1.89,"distinct_type":"Bottom","item_type":"Foil","rt":1037,"stimulus":"Stimuli_Rocks480/I_Basalt_09.png","response":"a","trial_type":"image-keyboard-response","trial_index":131,"plugin_version":"2.1.0","time_elapsed":223265,"subject_id":"91893","group":"Group2","condition":"1_Rep","full_date":"2026-01-27T16:26:31.640Z","date":"2026-01-27","time":"16:26:31","cor_ans":true},{"trial_type":"html-keyboard-response","rt":null,"stimulus":"<p style=\"color: green; font-size: 50px; font-weight: bold;\">Correct</p>","response":null,"trial_index":132,"plugin_version":"2.1.0","time_elapsed":223771,"subject_id":"91893","group":"Group2","condition":"1_Rep","full_date":"2026-01-27T16:26:31.640Z","date":"2026-01-27","time":"16:26:31"},{"correct_response":"l","task":"test_phase","broad_category":"S","image_png":"S_Sandstone_04.png","image_id":452,"category_name":"Sandstone","category":29,"distinct_rating":1.8,"distinct_type":"Bottom","item_type":"Target","rt":1450,"stimulus":"Stimuli_Rocks480/S_Sandstone_04.png","response":"l","trial_type":"image-keyboard-response","trial_index":133,"plugin_version":"2.1.0","time_elapsed":225223,"subject_id":"91893","group":"Group2","condition":"1_Rep","full_date":"2026-01-27T16:26:31.640Z","date":"2026-01-27","time":"16:26:31","cor_ans":true},{"trial_type":"html-keyboard-response","rt":null,"stimulus":"<p style=\"color: green; font-size: 50px; font-weight: bold;\">Correct</p>","response":null,"trial_index":134,"plugin_version":"2.1.0","time_elapsed":225729,"subject_id":"91893","group":"Group2","condition":"1_Rep","full_date":"2026-01-27T16:26:31.640Z","date":"2026-01-27","time":"16:26:31"},{"correct_response":"l","task":"test_phase","broad_category":"I","image_png":"I_Rhyolite_08.png","image_id":152,"category_name":"Rhyolite","category":10,"distinct_rating":1.38,"distinct_type":"Bottom","item_type":"Target","rt":1065,"stimulus":"Stimuli_Rocks480/I_Rhyolite_08.png","response":"a","trial_type":"image-keyboard-response","trial_index":135,"plugin_version":"2.1.0","time_elapsed":226796,"subject_id":"91893","group":"Group2","condition":"1_Rep","full_date":"2026-01-27T16:26:31.640Z","date":"2026-01-27","time":"16:26:31","cor_ans":false},{"trial_type":"html-keyboard-response","rt":null,"stimulus":"<p style=\"color: red; font-size: 50px; font-weight: bold;\">Incorrect</p>","response":null,"trial_index":136,"plugin_version":"2.1.0","time_elapsed":227313,"subject_id":"91893","group":"Group2","condition":"1_Rep","full_date":"2026-01-27T16:26:31.640Z","date":"2026-01-27","time":"16:26:31"},{"correct_response":"l","task":"test_phase","broad_category":"M","image_png":"M_Gneiss_14.png","image_id":206,"category_name":"Gneiss","category":13,"distinct_rating":3.41,"distinct_type":"Bottom","item_type":"Target","rt":1203,"stimulus":"Stimuli_Rocks480/M_Gneiss_14.png","response":"l","trial_type":"image-keyboard-response","trial_index":137,"plugin_version":"2.1.0","time_elapsed":228519,"subject_id":"91893","group":"Group2","condition":"1_Rep","full_date":"2026-01-27T16:26:31.640Z","date":"2026-01-27","time":"16:26:31","cor_ans":true},{"trial_type":"html-keyboard-response","rt":null,"stimulus":"<p style=\"color: green; font-size: 50px; font-weight: bold;\">Correct</p>","response":null,"trial_index":138,"plugin_version":"2.1.0","time_elapsed":229031,"subject_id":"91893","group":"Group2","condition":"1_Rep","full_date":"2026-01-27T16:26:31.640Z","date":"2026-01-27","time":"16:26:31"},{"correct_response":"a","task":"test_phase","broad_category":"S","image_png":"S_Sandstone_15.png","image_id":463,"category_name":"Sandstone","category":29,"distinct_rating":2,"distinct_type":"Bottom","item_type":"Foil","rt":888,"stimulus":"Stimuli_Rocks480/S_Sandstone_15.png","response":"a","trial_type":"image-keyboard-response","trial_index":139,"plugin_version":"2.1.0","time_elapsed":229921,"subject_id":"91893","group":"Group2","condition":"1_Rep","full_date":"2026-01-27T16:26:31.640Z","date":"2026-01-27","time":"16:26:31","cor_ans":true},{"trial_type":"html-keyboard-response","rt":null,"stimulus":"<p style=\"color: green; font-size: 50px; font-weight: bold;\">Correct</p>","response":null,"trial_index":140,"plugin_version":"2.1.0","time_elapsed":230433,"subject_id":"91893","group":"Group2","condition":"1_Rep","full_date":"2026-01-27T16:26:31.640Z","date":"2026-01-27","time":"16:26:31"},{"correct_response":"l","task":"test_phase","broad_category":"S","image_png":"S_Dolomite_07.png","image_id":391,"category_name":"Dolomite","category":25,"distinct_rating":1.73,"distinct_type":"Bottom","item_type":"Target","rt":909,"stimulus":"Stimuli_Rocks480/S_Dolomite_07.png","response":"l","trial_type":"image-keyboard-response","trial_index":141,"plugin_version":"2.1.0","time_elapsed":231345,"subject_id":"91893","group":"Group2","condition":"1_Rep","full_date":"2026-01-27T16:26:31.640Z","date":"2026-01-27","time":"16:26:31","cor_ans":true},{"trial_type":"html-keyboard-response","rt":null,"stimulus":"<p style=\"color: green; font-size: 50px; font-weight: bold;\">Correct</p>","response":null,"trial_index":142,"plugin_version":"2.1.0","time_elapsed":231853,"subject_id":"91893","group":"Group2","condition":"1_Rep","full_date":"2026-01-27T16:26:31.640Z","date":"2026-01-27","time":"16:26:31"},{"correct_response":"a","task":"test_phase","broad_category":"M","image_png":"M_Slate_15.png","image_id":319,"category_name":"Slate","category":20,"distinct_rating":2.13,"distinct_type":"Bottom","item_type":"Foil","rt":985,"stimulus":"Stimuli_Rocks480/M_Slate_15.png","response":"l","trial_type":"image-keyboard-response","trial_index":143,"plugin_version":"2.1.0","time_elapsed":232841,"subject_id":"91893","group":"Group2","condition":"1_Rep","full_date":"2026-01-27T16:26:31.640Z","date":"2026-01-27","time":"16:26:31","cor_ans":false},{"trial_type":"html-keyboard-response","rt":null,"stimulus":"<p style=\"color: red; font-size: 50px; font-weight: bold;\">Incorrect</p>","response":null,"trial_index":144,"plugin_version":"2.1.0","time_elapsed":233345,"subject_id":"91893","group":"Group2","condition":"1_Rep","full_date":"2026-01-27T16:26:31.640Z","date":"2026-01-27","time":"16:26:31"},{"correct_response":"l","task":"test_phase","broad_category":"M","image_png":"M_Quartzite_07.png","image_id":279,"category_name":"Quartzite","category":18,"distinct_rating":1.97,"distinct_type":"Bottom","item_type":"Target","rt":840,"stimulus":"Stimuli_Rocks480/M_Quartzite_07.png","response":"a","trial_type":"image-keyboard-response","trial_index":145,"plugin_version":"2.1.0","time_elapsed":234187,"subject_id":"91893","group":"Group2","condition":"1_Rep","full_date":"2026-01-27T16:26:31.640Z","date":"2026-01-27","time":"16:26:31","cor_ans":false},{"trial_type":"html-keyboard-response","rt":null,"stimulus":"<p style=\"color: red; font-size: 50px; font-weight: bold;\">Incorrect</p>","response":null,"trial_index":146,"plugin_version":"2.1.0","time_elapsed":234699,"subject_id":"91893","group":"Group2","condition":"1_Rep","full_date":"2026-01-27T16:26:31.640Z","date":"2026-01-27","time":"16:26:31"},{"correct_response":"a","task":"test_phase","broad_category":"I","image_png":"I_Basalt_01.png","image_id":17,"category_name":"Basalt","category":2,"distinct_rating":1.92,"distinct_type":"Bottom","item_type":"Foil","rt":908,"stimulus":"Stimuli_Rocks480/I_Basalt_01.png","response":"l","trial_type":"image-keyboard-response","trial_index":147,"plugin_version":"2.1.0","time_elapsed":235609,"subject_id":"91893","group":"Group2","condition":"1_Rep","full_date":"2026-01-27T16:26:31.640Z","date":"2026-01-27","time":"16:26:31","cor_ans":false},{"trial_type":"html-keyboard-response","rt":null,"stimulus":"<p style=\"color: red; font-size: 50px; font-weight: bold;\">Incorrect</p>","response":null,"trial_index":148,"plugin_version":"2.1.0","time_elapsed":236119,"subject_id":"91893","group":"Group2","condition":"1_Rep","full_date":"2026-01-27T16:26:31.640Z","date":"2026-01-27","time":"16:26:31"},{"correct_response":"a","task":"test_phase","broad_category":"M","image_png":"M_Phyllite_03.png","image_id":259,"category_name":"Phyllite","category":17,"distinct_rating":2.5,"distinct_type":"Bottom","item_type":"Foil","rt":1208,"stimulus":"Stimuli_Rocks480/M_Phyllite_03.png","response":"a","trial_type":"image-keyboard-response","trial_index":149,"plugin_version":"2.1.0","time_elapsed":237329,"subject_id":"91893","group":"Group2","condition":"1_Rep","full_date":"2026-01-27T16:26:31.640Z","date":"2026-01-27","time":"16:26:31","cor_ans":true},{"trial_type":"html-keyboard-response","rt":null,"stimulus":"<p style=\"color: green; font-size: 50px; font-weight: bold;\">Correct</p>","response":null,"trial_index":150,"plugin_version":"2.1.0","time_elapsed":237837,"subject_id":"91893","group":"Group2","condition":"1_Rep","full_date":"2026-01-27T16:26:31.640Z","date":"2026-01-27","time":"16:26:31"},{"correct_response":"l","task":"test_phase","broad_category":"S","image_png":"S_Sandstone_11.png","image_id":459,"category_name":"Sandstone","category":29,"distinct_rating":1.82,"distinct_type":"Bottom","item_type":"Target","rt":1068,"stimulus":"Stimuli_Rocks480/S_Sandstone_11.png","response":"l","trial_type":"image-keyboard-response","trial_index":151,"plugin_version":"2.1.0","time_elapsed":238907,"subject_id":"91893","group":"Group2","condition":"1_Rep","full_date":"2026-01-27T16:26:31.640Z","date":"2026-01-27","time":"16:26:31","cor_ans":true},{"trial_type":"html-keyboard-response","rt":null,"stimulus":"<p style=\"color: green; font-size: 50px; font-weight: bold;\">Correct</p>","response":null,"trial_index":152,"plugin_version":"2.1.0","time_elapsed":239419,"subject_id":"91893","group":"Group2","condition":"1_Rep","full_date":"2026-01-27T16:26:31.640Z","date":"2026-01-27","time":"16:26:31"},{"correct_response":"a","task":"test_phase","broad_category":"I","image_png":"I_Basalt_02.png","image_id":18,"category_name":"Basalt","category":2,"distinct_rating":1.84,"distinct_type":"Bottom","item_type":"Foil","rt":1016,"stimulus":"Stimuli_Rocks480/I_Basalt_02.png","response":"a","trial_type":"image-keyboard-response","trial_index":153,"plugin_version":"2.1.0","time_elapsed":240437,"subject_id":"91893","group":"Group2","condition":"1_Rep","full_date":"2026-01-27T16:26:31.640Z","date":"2026-01-27","time":"16:26:31","cor_ans":true},{"trial_type":"html-keyboard-response","rt":null,"stimulus":"<p style=\"color: green; font-size: 50px; font-weight: bold;\">Correct</p>","response":null,"trial_index":154,"plugin_version":"2.1.0","time_elapsed":240949,"subject_id":"91893","group":"Group2","condition":"1_Rep","full_date":"2026-01-27T16:26:31.640Z","date":"2026-01-27","time":"16:26:31"},{"correct_response":"l","task":"test_phase","broad_category":"I","image_png":"I_Gabbro_02.png","image_id":50,"category_name":"Gabbro","category":4,"distinct_rating":2.73,"distinct_type":"Bottom","item_type":"Target","rt":1610,"stimulus":"Stimuli_Rocks480/I_Gabbro_02.png","response":"a","trial_type":"image-keyboard-response","trial_index":155,"plugin_version":"2.1.0","time_elapsed":242561,"subject_id":"91893","group":"Group2","condition":"1_Rep","full_date":"2026-01-27T16:26:31.640Z","date":"2026-01-27","time":"16:26:31","cor_ans":false},{"trial_type":"html-keyboard-response","rt":null,"stimulus":"<p style=\"color: red; font-size: 50px; font-weight: bold;\">Incorrect</p>","response":null,"trial_index":156,"plugin_version":"2.1.0","time_elapsed":243073,"subject_id":"91893","group":"Group2","condition":"1_Rep","full_date":"2026-01-27T16:26:31.640Z","date":"2026-01-27","time":"16:26:31"},{"correct_response":"a","task":"test_phase","broad_category":"S","image_png":"S_Sandstone_16.png","image_id":464,"category_name":"Sandstone","category":29,"distinct_rating":1.93,"distinct_type":"Bottom","item_type":"Foil","rt":636,"stimulus":"Stimuli_Rocks480/S_Sandstone_16.png","response":"l","trial_type":"image-keyboard-response","trial_index":157,"plugin_version":"2.1.0","time_elapsed":243712,"subject_id":"91893","group":"Group2","condition":"1_Rep","full_date":"2026-01-27T16:26:31.640Z","date":"2026-01-27","time":"16:26:31","cor_ans":false},{"trial_type":"html-keyboard-response","rt":null,"stimulus":"<p style=\"color: red; font-size: 50px; font-weight: bold;\">Incorrect</p>","response":null,"trial_index":158,"plugin_version":"2.1.0","time_elapsed":244217,"subject_id":"91893","group":"Group2","condition":"1_Rep","full_date":"2026-01-27T16:26:31.640Z","date":"2026-01-27","time":"16:26:31"},{"correct_response":"l","task":"test_phase","broad_category":"I","image_png":"I_Pumice_14.png","image_id":142,"category_name":"Pumice","category":9,"distinct_rating":3.22,"distinct_type":"Bottom","item_type":"Target","rt":484,"stimulus":"Stimuli_Rocks480/I_Pumice_14.png","response":"a","trial_type":"image-keyboard-response","trial_index":159,"plugin_version":"2.1.0","time_elapsed":244703,"subject_id":"91893","group":"Group2","condition":"1_Rep","full_date":"2026-01-27T16:26:31.640Z","date":"2026-01-27","time":"16:26:31","cor_ans":false},{"trial_type":"html-keyboard-response","rt":null,"stimulus":"<p style=\"color: red; font-size: 50px; font-weight: bold;\">Incorrect</p>","response":null,"trial_index":160,"plugin_version":"2.1.0","time_elapsed":245212,"subject_id":"91893","group":"Group2","condition":"1_Rep","full_date":"2026-01-27T16:26:31.640Z","date":"2026-01-27","time":"16:26:31"},{"correct_response":"a","task":"test_phase","broad_category":"I","image_png":"I_Pegmatite_10.png","image_id":106,"category_name":"Pegmatite","category":7,"distinct_rating":7.66,"distinct_type":"Top","item_type":"Foil","rt":1049,"stimulus":"Stimuli_Rocks480/I_Pegmatite_10.png","response":"a","trial_type":"image-keyboard-response","trial_index":161,"plugin_version":"2.1.0","time_elapsed":246263,"subject_id":"91893","group":"Group2","condition":"1_Rep","full_date":"2026-01-27T16:26:31.640Z","date":"2026-01-27","time":"16:26:31","cor_ans":true},{"trial_type":"html-keyboard-response","rt":null,"stimulus":"<p style=\"color: green; font-size: 50px; font-weight: bold;\">Correct</p>","response":null,"trial_index":162,"plugin_version":"2.1.0","time_elapsed":246772,"subject_id":"91893","group":"Group2","condition":"1_Rep","full_date":"2026-01-27T16:26:31.640Z","date":"2026-01-27","time":"16:26:31"},{"correct_response":"l","task":"test_phase","broad_category":"M","image_png":"M_Marble_14.png","image_id":238,"category_name":"Marble","category":15,"distinct_rating":3.31,"distinct_type":"Bottom","item_type":"Target","rt":801,"stimulus":"Stimuli_Rocks480/M_Marble_14.png","response":"a","trial_type":"image-keyboard-response","trial_index":163,"plugin_version":"2.1.0","time_elapsed":247574,"subject_id":"91893","group":"Group2","condition":"1_Rep","full_date":"2026-01-27T16:26:31.640Z","date":"2026-01-27","time":"16:26:31","cor_ans":false},{"trial_type":"html-keyboard-response","rt":null,"stimulus":"<p style=\"color: red; font-size: 50px; font-weight: bold;\">Incorrect</p>","response":null,"trial_index":164,"plugin_version":"2.1.0","time_elapsed":248090,"subject_id":"91893","group":"Group2","condition":"1_Rep","full_date":"2026-01-27T16:26:31.640Z","date":"2026-01-27","time":"16:26:31"},{"correct_response":"a","task":"test_phase","broad_category":"S","image_png":"S_Rock Salt_01.png","image_id":433,"category_name":"Rock Salt","category":28,"distinct_rating":7.18,"distinct_type":"Top","item_type":"Foil","rt":580,"stimulus":"Stimuli_Rocks480/S_Rock Salt_01.png","response":"l","trial_type":"image-keyboard-response","trial_index":165,"plugin_version":"2.1.0","time_elapsed":248671,"subject_id":"91893","group":"Group2","condition":"1_Rep","full_date":"2026-01-27T16:26:31.640Z","date":"2026-01-27","time":"16:26:31","cor_ans":false},{"trial_type":"html-keyboard-response","rt":null,"stimulus":"<p style=\"color: red; font-size: 50px; font-weight: bold;\">Incorrect</p>","response":null,"trial_index":166,"plugin_version":"2.1.0","time_elapsed":249187,"subject_id":"91893","group":"Group2","condition":"1_Rep","full_date":"2026-01-27T16:26:31.640Z","date":"2026-01-27","time":"16:26:31"},{"correct_response":"a","task":"test_phase","broad_category":"I","image_png":"I_Pumice_08.png","image_id":136,"category_name":"Pumice","category":9,"distinct_rating":3.1,"distinct_type":"Bottom","item_type":"Foil","rt":1012,"stimulus":"Stimuli_Rocks480/I_Pumice_08.png","response":"l","trial_type":"image-keyboard-response","trial_index":167,"plugin_version":"2.1.0","time_elapsed":250202,"subject_id":"91893","group":"Group2","condition":"1_Rep","full_date":"2026-01-27T16:26:31.640Z","date":"2026-01-27","time":"16:26:31","cor_ans":false},{"trial_type":"html-keyboard-response","rt":null,"stimulus":"<p style=\"color: red; font-size: 50px; font-weight: bold;\">Incorrect</p>","response":null,"trial_index":168,"plugin_version":"2.1.0","time_elapsed":250711,"subject_id":"91893","group":"Group2","condition":"1_Rep","full_date":"2026-01-27T16:26:31.640Z","date":"2026-01-27","time":"16:26:31"},{"correct_response":"l","task":"test_phase","broad_category":"M","image_png":"M_Slate_04.png","image_id":308,"category_name":"Slate","category":20,"distinct_rating":2.2,"distinct_type":"Bottom","item_type":"Target","rt":938,"stimulus":"Stimuli_Rocks480/M_Slate_04.png","response":"l","trial_type":"image-keyboard-response","trial_index":169,"plugin_version":"2.1.0","time_elapsed":251651,"subject_id":"91893","group":"Group2","condition":"1_Rep","full_date":"2026-01-27T16:26:31.640Z","date":"2026-01-27","time":"16:26:31","cor_ans":true},{"trial_type":"html-keyboard-response","rt":null,"stimulus":"<p style=\"color: green; font-size: 50px; font-weight: bold;\">Correct</p>","response":null,"trial_index":170,"plugin_version":"2.1.0","time_elapsed":252153,"subject_id":"91893","group":"Group2","condition":"1_Rep","full_date":"2026-01-27T16:26:31.640Z","date":"2026-01-27","time":"16:26:31"},{"correct_response":"l","task":"test_phase","broad_category":"I","image_png":"I_Basalt_08.png","image_id":24,"category_name":"Basalt","category":2,"distinct_rating":2.31,"distinct_type":"Bottom","item_type":"Target","rt":1035,"stimulus":"Stimuli_Rocks480/I_Basalt_08.png","response":"l","trial_type":"image-keyboard-response","trial_index":171,"plugin_version":"2.1.0","time_elapsed":253190,"subject_id":"91893","group":"Group2","condition":"1_Rep","full_date":"2026-01-27T16:26:31.640Z","date":"2026-01-27","time":"16:26:31","cor_ans":true},{"trial_type":"html-keyboard-response","rt":null,"stimulus":"<p style=\"color: green; font-size: 50px; font-weight: bold;\">Correct</p>","response":null,"trial_index":172,"plugin_version":"2.1.0","time_elapsed":253695,"subject_id":"91893","group":"Group2","condition":"1_Rep","full_date":"2026-01-27T16:26:31.640Z","date":"2026-01-27","time":"16:26:31"},{"correct_response":"a","task":"test_phase","broad_category":"S","image_png":"S_Dolomite_14.png","image_id":398,"category_name":"Dolomite","category":25,"distinct_rating":1.43,"distinct_type":"Bottom","item_type":"Foil","rt":991,"stimulus":"Stimuli_Rocks480/S_Dolomite_14.png","response":"a","trial_type":"image-keyboard-response","trial_index":173,"plugin_version":"2.1.0","time_elapsed":254688,"subject_id":"91893","group":"Group2","condition":"1_Rep","full_date":"2026-01-27T16:26:31.640Z","date":"2026-01-27","time":"16:26:31","cor_ans":true},{"trial_type":"html-keyboard-response","rt":null,"stimulus":"<p style=\"color: green; font-size: 50px; font-weight: bold;\">Correct</p>","response":null,"trial_index":174,"plugin_version":"2.1.0","time_elapsed":255195,"subject_id":"91893","group":"Group2","condition":"1_Rep","full_date":"2026-01-27T16:26:31.640Z","date":"2026-01-27","time":"16:26:31"},{"correct_response":"a","task":"test_phase","broad_category":"I","image_png":"I_Rhyolite_16.png","image_id":160,"category_name":"Rhyolite","category":10,"distinct_rating":2.19,"distinct_type":"Bottom","item_type":"Foil","rt":1394,"stimulus":"Stimuli_Rocks480/I_Rhyolite_16.png","response":"l","trial_type":"image-keyboard-response","trial_index":175,"plugin_version":"2.1.0","time_elapsed":256592,"subject_id":"91893","group":"Group2","condition":"1_Rep","full_date":"2026-01-27T16:26:31.640Z","date":"2026-01-27","time":"16:26:31","cor_ans":false},{"trial_type":"html-keyboard-response","rt":null,"stimulus":"<p style=\"color: red; font-size: 50px; font-weight: bold;\">Incorrect</p>","response":null,"trial_index":176,"plugin_version":"2.1.0","time_elapsed":257103,"subject_id":"91893","group":"Group2","condition":"1_Rep","full_date":"2026-01-27T16:26:31.640Z","date":"2026-01-27","time":"16:26:31"},{"correct_response":"l","task":"test_phase","broad_category":"I","image_png":"I_Diorite_01.png","image_id":33,"category_name":"Diorite","category":3,"distinct_rating":2.97,"distinct_type":"Bottom","item_type":"Target","rt":705,"stimulus":"Stimuli_Rocks480/I_Diorite_01.png","response":"a","trial_type":"image-keyboard-response","trial_index":177,"plugin_version":"2.1.0","time_elapsed":257810,"subject_id":"91893","group":"Group2","condition":"1_Rep","full_date":"2026-01-27T16:26:31.640Z","date":"2026-01-27","time":"16:26:31","cor_ans":false},{"trial_type":"html-keyboard-response","rt":null,"stimulus":"<p style=\"color: red; font-size: 50px; font-weight: bold;\">Incorrect</p>","response":null,"trial_index":178,"plugin_version":"2.1.0","time_elapsed":258320,"subject_id":"91893","group":"Group2","condition":"1_Rep","full_date":"2026-01-27T16:26:31.640Z","date":"2026-01-27","time":"16:26:31"},{"correct_response":"a","task":"test_phase","broad_category":"I","image_png":"I_Diorite_05.png","image_id":37,"category_name":"Diorite","category":3,"distinct_rating":3.08,"distinct_type":"Bottom","item_type":"Foil","rt":667,"stimulus":"Stimuli_Rocks480/I_Diorite_05.png","response":"l","trial_type":"image-keyboard-response","trial_index":179,"plugin_version":"2.1.0","time_elapsed":258990,"subject_id":"91893","group":"Group2","condition":"1_Rep","full_date":"2026-01-27T16:26:31.640Z","date":"2026-01-27","time":"16:26:31","cor_ans":false},{"trial_type":"html-keyboard-response","rt":null,"stimulus":"<p style=\"color: red; font-size: 50px; font-weight: bold;\">Incorrect</p>","response":null,"trial_index":180,"plugin_version":"2.1.0","time_elapsed":259506,"subject_id":"91893","group":"Group2","condition":"1_Rep","full_date":"2026-01-27T16:26:31.640Z","date":"2026-01-27","time":"16:26:31"},{"correct_response":"l","task":"test_phase","broad_category":"M","image_png":"M_Slate_14.png","image_id":318,"category_name":"Slate","category":20,"distinct_rating":2.58,"distinct_type":"Bottom","item_type":"Target","rt":541,"stimulus":"Stimuli_Rocks480/M_Slate_14.png","response":"a","trial_type":"image-keyboard-response","trial_index":181,"plugin_version":"2.1.0","time_elapsed":260049,"subject_id":"91893","group":"Group2","condition":"1_Rep","full_date":"2026-01-27T16:26:31.640Z","date":"2026-01-27","time":"16:26:31","cor_ans":false},{"trial_type":"html-keyboard-response","rt":null,"stimulus":"<p style=\"color: red; font-size: 50px; font-weight: bold;\">Incorrect</p>","response":null,"trial_index":182,"plugin_version":"2.1.0","time_elapsed":260561,"subject_id":"91893","group":"Group2","condition":"1_Rep","full_date":"2026-01-27T16:26:31.640Z","date":"2026-01-27","time":"16:26:31"},{"correct_response":"l","task":"test_phase","broad_category":"I","image_png":"I_Basalt_10.png","image_id":26,"category_name":"Basalt","category":2,"distinct_rating":2.76,"distinct_type":"Bottom","item_type":"Target","rt":894,"stimulus":"Stimuli_Rocks480/I_Basalt_10.png","response":"a","trial_type":"image-keyboard-response","trial_index":183,"plugin_version":"2.1.0","time_elapsed":261457,"subject_id":"91893","group":"Group2","condition":"1_Rep","full_date":"2026-01-27T16:26:31.640Z","date":"2026-01-27","time":"16:26:31","cor_ans":false},{"trial_type":"html-keyboard-response","rt":null,"stimulus":"<p style=\"color: red; font-size: 50px; font-weight: bold;\">Incorrect</p>","response":null,"trial_index":184,"plugin_version":"2.1.0","time_elapsed":261963,"subject_id":"91893","group":"Group2","condition":"1_Rep","full_date":"2026-01-27T16:26:31.640Z","date":"2026-01-27","time":"16:26:31"},{"correct_response":"a","task":"test_phase","broad_category":"I","image_png":"I_Pumice_11.png","image_id":139,"category_name":"Pumice","category":9,"distinct_rating":1.74,"distinct_type":"Bottom","item_type":"Foil","rt":1109,"stimulus":"Stimuli_Rocks480/I_Pumice_11.png","response":"a","trial_type":"image-keyboard-response","trial_index":185,"plugin_version":"2.1.0","time_elapsed":263073,"subject_id":"91893","group":"Group2","condition":"1_Rep","full_date":"2026-01-27T16:26:31.640Z","date":"2026-01-27","time":"16:26:31","cor_ans":true},{"trial_type":"html-keyboard-response","rt":null,"stimulus":"<p style=\"color: green; font-size: 50px; font-weight: bold;\">Correct</p>","response":null,"trial_index":186,"plugin_version":"2.1.0","time_elapsed":263586,"subject_id":"91893","group":"Group2","condition":"1_Rep","full_date":"2026-01-27T16:26:31.640Z","date":"2026-01-27","time":"16:26:31"},{"correct_response":"l","task":"test_phase","broad_category":"S","image_png":"S_Dolomite_01.png","image_id":385,"category_name":"Dolomite","category":25,"distinct_rating":1.43,"distinct_type":"Bottom","item_type":"Target","rt":788,"stimulus":"Stimuli_Rocks480/S_Dolomite_01.png","response":"l","trial_type":"image-keyboard-response","trial_index":187,"plugin_version":"2.1.0","time_elapsed":264377,"subject_id":"91893","group":"Group2","condition":"1_Rep","full_date":"2026-01-27T16:26:31.640Z","date":"2026-01-27","time":"16:26:31","cor_ans":true},{"trial_type":"html-keyboard-response","rt":null,"stimulus":"<p style=\"color: green; font-size: 50px; font-weight: bold;\">Correct</p>","response":null,"trial_index":188,"plugin_version":"2.1.0","time_elapsed":264886,"subject_id":"91893","group":"Group2","condition":"1_Rep","full_date":"2026-01-27T16:26:31.640Z","date":"2026-01-27","time":"16:26:31"},{"correct_response":"a","task":"test_phase","broad_category":"M","image_png":"M_Gneiss_13.png","image_id":205,"category_name":"Gneiss","category":13,"distinct_rating":3.26,"distinct_type":"Bottom","item_type":"Foil","rt":788,"stimulus":"Stimuli_Rocks480/M_Gneiss_13.png","response":"a","trial_type":"image-keyboard-response","trial_index":189,"plugin_version":"2.1.0","time_elapsed":265676,"subject_id":"91893","group":"Group2","condition":"1_Rep","full_date":"2026-01-27T16:26:31.640Z","date":"2026-01-27","time":"16:26:31","cor_ans":true},{"trial_type":"html-keyboard-response","rt":null,"stimulus":"<p style=\"color: green; font-size: 50px; font-weight: bold;\">Correct</p>","response":null,"trial_index":190,"plugin_version":"2.1.0","time_elapsed":266180,"subject_id":"91893","group":"Group2","condition":"1_Rep","full_date":"2026-01-27T16:26:31.640Z","date":"2026-01-27","time":"16:26:31"},{"correct_response":"a","task":"test_phase","broad_category":"I","image_png":"I_Gabbro_08.png","image_id":56,"category_name":"Gabbro","category":4,"distinct_rating":3.02,"distinct_type":"Bottom","item_type":"Foil","rt":2142,"stimulus":"Stimuli_Rocks480/I_Gabbro_08.png","response":"l","trial_type":"image-keyboard-response","trial_index":191,"plugin_version":"2.1.0","time_elapsed":268324,"subject_id":"91893","group":"Group2","condition":"1_Rep","full_date":"2026-01-27T16:26:31.640Z","date":"2026-01-27","time":"16:26:31","cor_ans":false},{"trial_type":"html-keyboard-response","rt":null,"stimulus":"<p style=\"color: red; font-size: 50px; font-weight: bold;\">Incorrect</p>","response":null,"trial_index":192,"plugin_version":"2.1.0","time_elapsed":268836,"subject_id":"91893","group":"Group2","condition":"1_Rep","full_date":"2026-01-27T16:26:31.640Z","date":"2026-01-27","time":"16:26:31"},{"correct_response":"l","task":"test_phase","broad_category":"S","image_png":"S_Sandstone_08.png","image_id":456,"category_name":"Sandstone","category":29,"distinct_rating":1.5,"distinct_type":"Bottom","item_type":"Target","rt":1045,"stimulus":"Stimuli_Rocks480/S_Sandstone_08.png","response":"l","trial_type":"image-keyboard-response","trial_index":193,"plugin_version":"2.1.0","time_elapsed":269884,"subject_id":"91893","group":"Group2","condition":"1_Rep","full_date":"2026-01-27T16:26:31.640Z","date":"2026-01-27","time":"16:26:31","cor_ans":true},{"trial_type":"html-keyboard-response","rt":null,"stimulus":"<p style=\"color: green; font-size: 50px; font-weight: bold;\">Correct</p>","response":null,"trial_index":194,"plugin_version":"2.1.0","time_elapsed":270393,"subject_id":"91893","group":"Group2","condition":"1_Rep","full_date":"2026-01-27T16:26:31.640Z","date":"2026-01-27","time":"16:26:31"},{"correct_response":"a","task":"test_phase","broad_category":"I","image_png":"I_Diorite_04.png","image_id":36,"category_name":"Diorite","category":3,"distinct_rating":2.98,"distinct_type":"Bottom","item_type":"Foil","rt":1588,"stimulus":"Stimuli_Rocks480/I_Diorite_04.png","response":"l","trial_type":"image-keyboard-response","trial_index":195,"plugin_version":"2.1.0","time_elapsed":271983,"subject_id":"91893","group":"Group2","condition":"1_Rep","full_date":"2026-01-27T16:26:31.640Z","date":"2026-01-27","time":"16:26:31","cor_ans":false},{"trial_type":"html-keyboard-response","rt":null,"stimulus":"<p style=\"color: red; font-size: 50px; font-weight: bold;\">Incorrect</p>","response":null,"trial_index":196,"plugin_version":"2.1.0","time_elapsed":272495,"subject_id":"91893","group":"Group2","condition":"1_Rep","full_date":"2026-01-27T16:26:31.640Z","date":"2026-01-27","time":"16:26:31"},{"correct_response":"l","task":"test_phase","broad_category":"I","image_png":"I_Diorite_15.png","image_id":47,"category_name":"Diorite","category":3,"distinct_rating":3.05,"distinct_type":"Bottom","item_type":"Target","rt":798,"stimulus":"Stimuli_Rocks480/I_Diorite_15.png","response":"l","trial_type":"image-keyboard-response","trial_index":197,"plugin_version":"2.1.0","time_elapsed":273297,"subject_id":"91893","group":"Group2","condition":"1_Rep","full_date":"2026-01-27T16:26:31.640Z","date":"2026-01-27","time":"16:26:31","cor_ans":true},{"trial_type":"html-keyboard-response","rt":null,"stimulus":"<p style=\"color: green; font-size: 50px; font-weight: bold;\">Correct</p>","response":null,"trial_index":198,"plugin_version":"2.1.0","time_elapsed":273799,"subject_id":"91893","group":"Group2","condition":"1_Rep","full_date":"2026-01-27T16:26:31.640Z","date":"2026-01-27","time":"16:26:31"},{"correct_response":"l","task":"test_phase","broad_category":"S","image_png":"S_Chert_13.png","image_id":365,"category_name":"Chert","category":23,"distinct_rating":6.57,"distinct_type":"Top","item_type":"Target","rt":1192,"stimulus":"Stimuli_Rocks480/S_Chert_13.png","response":"l","trial_type":"image-keyboard-response","trial_index":199,"plugin_version":"2.1.0","time_elapsed":274994,"subject_id":"91893","group":"Group2","condition":"1_Rep","full_date":"2026-01-27T16:26:31.640Z","date":"2026-01-27","time":"16:26:31","cor_ans":true},{"trial_type":"html-keyboard-response","rt":null,"stimulus":"<p style=\"color: green; font-size: 50px; font-weight: bold;\">Correct</p>","response":null,"trial_index":200,"plugin_version":"2.1.0","time_elapsed":275510,"subject_id":"91893","group":"Group2","condition":"1_Rep","full_date":"2026-01-27T16:26:31.640Z","date":"2026-01-27","time":"16:26:31"},{"correct_response":"a","task":"test_phase","broad_category":"I","image_png":"I_Rhyolite_14.png","image_id":158,"category_name":"Rhyolite","category":10,"distinct_rating":2.59,"distinct_type":"Bottom","item_type":"Foil","rt":1210,"stimulus":"Stimuli_Rocks480/I_Rhyolite_14.png","response":"a","trial_type":"image-keyboard-response","trial_index":201,"plugin_version":"2.1.0","time_elapsed":276722,"subject_id":"91893","group":"Group2","condition":"1_Rep","full_date":"2026-01-27T16:26:31.640Z","date":"2026-01-27","time":"16:26:31","cor_ans":true},{"trial_type":"html-keyboard-response","rt":null,"stimulus":"<p style=\"color: green; font-size: 50px; font-weight: bold;\">Correct</p>","response":null,"trial_index":202,"plugin_version":"2.1.0","time_elapsed":277228,"subject_id":"91893","group":"Group2","condition":"1_Rep","full_date":"2026-01-27T16:26:31.640Z","date":"2026-01-27","time":"16:26:31"},{"correct_response":"l","task":"test_phase","broad_category":"M","image_png":"M_Quartzite_15.png","image_id":287,"category_name":"Quartzite","category":18,"distinct_rating":2.19,"distinct_type":"Bottom","item_type":"Target","rt":1074,"stimulus":"Stimuli_Rocks480/M_Quartzite_15.png","response":"a","trial_type":"image-keyboard-response","trial_index":203,"plugin_version":"2.1.0","time_elapsed":278305,"subject_id":"91893","group":"Group2","condition":"1_Rep","full_date":"2026-01-27T16:26:31.640Z","date":"2026-01-27","time":"16:26:31","cor_ans":false},{"trial_type":"html-keyboard-response","rt":null,"stimulus":"<p style=\"color: red; font-size: 50px; font-weight: bold;\">Incorrect</p>","response":null,"trial_index":204,"plugin_version":"2.1.0","time_elapsed":278809,"subject_id":"91893","group":"Group2","condition":"1_Rep","full_date":"2026-01-27T16:26:31.640Z","date":"2026-01-27","time":"16:26:31"},{"correct_response":"a","task":"test_phase","broad_category":"M","image_png":"M_Slate_11.png","image_id":315,"category_name":"Slate","category":20,"distinct_rating":2.75,"distinct_type":"Bottom","item_type":"Foil","rt":552,"stimulus":"Stimuli_Rocks480/M_Slate_11.png","response":"l","trial_type":"image-keyboard-response","trial_index":205,"plugin_version":"2.1.0","time_elapsed":279363,"subject_id":"91893","group":"Group2","condition":"1_Rep","full_date":"2026-01-27T16:26:31.640Z","date":"2026-01-27","time":"16:26:31","cor_ans":false},{"trial_type":"html-keyboard-response","rt":null,"stimulus":"<p style=\"color: red; font-size: 50px; font-weight: bold;\">Incorrect</p>","response":null,"trial_index":206,"plugin_version":"2.1.0","time_elapsed":279880,"subject_id":"91893","group":"Group2","condition":"1_Rep","full_date":"2026-01-27T16:26:31.640Z","date":"2026-01-27","time":"16:26:31"},{"correct_response":"a","task":"test_phase","broad_category":"I","image_png":"I_Obsidian_05.png","image_id":85,"category_name":"Obsidian","category":6,"distinct_rating":7.32,"distinct_type":"Top","item_type":"Foil","rt":912,"stimulus":"Stimuli_Rocks480/I_Obsidian_05.png","response":"a","trial_type":"image-keyboard-response","trial_index":207,"plugin_version":"2.1.0","time_elapsed":280793,"subject_id":"91893","group":"Group2","condition":"1_Rep","full_date":"2026-01-27T16:26:31.640Z","date":"2026-01-27","time":"16:26:31","cor_ans":true},{"trial_type":"html-keyboard-response","rt":null,"stimulus":"<p style=\"color: green; font-size: 50px; font-weight: bold;\">Correct</p>","response":null,"trial_index":208,"plugin_version":"2.1.0","time_elapsed":281295,"subject_id":"91893","group":"Group2","condition":"1_Rep","full_date":"2026-01-27T16:26:31.640Z","date":"2026-01-27","time":"16:26:31"},{"correct_response":"l","task":"test_phase","broad_category":"M","image_png":"M_Slate_10.png","image_id":314,"category_name":"Slate","category":20,"distinct_rating":1.94,"distinct_type":"Bottom","item_type":"Target","rt":959,"stimulus":"Stimuli_Rocks480/M_Slate_10.png","response":"l","trial_type":"image-keyboard-response","trial_index":209,"plugin_version":"2.1.0","time_elapsed":282256,"subject_id":"91893","group":"Group2","condition":"1_Rep","full_date":"2026-01-27T16:26:31.640Z","date":"2026-01-27","time":"16:26:31","cor_ans":true},{"trial_type":"html-keyboard-response","rt":null,"stimulus":"<p style=\"color: green; font-size: 50px; font-weight: bold;\">Correct</p>","response":null,"trial_index":210,"plugin_version":"2.1.0","time_elapsed":282759,"subject_id":"91893","group":"Group2","condition":"1_Rep","full_date":"2026-01-27T16:26:31.640Z","date":"2026-01-27","time":"16:26:31"},{"correct_response":"l","task":"test_phase","broad_category":"S","image_png":"S_Dolomite_16.png","image_id":400,"category_name":"Dolomite","category":25,"distinct_rating":1.71,"distinct_type":"Bottom","item_type":"Target","rt":1144,"stimulus":"Stimuli_Rocks480/S_Dolomite_16.png","response":"a","trial_type":"image-keyboard-response","trial_index":211,"plugin_version":"2.1.0","time_elapsed":283905,"subject_id":"91893","group":"Group2","condition":"1_Rep","full_date":"2026-01-27T16:26:31.640Z","date":"2026-01-27","time":"16:26:31","cor_ans":false},{"trial_type":"html-keyboard-response","rt":null,"stimulus":"<p style=\"color: red; font-size: 50px; font-weight: bold;\">Incorrect</p>","response":null,"trial_index":212,"plugin_version":"2.1.0","time_elapsed":284421,"subject_id":"91893","group":"Group2","condition":"1_Rep","full_date":"2026-01-27T16:26:31.640Z","date":"2026-01-27","time":"16:26:31"},{"correct_response":"a","task":"test_phase","broad_category":"S","image_png":"S_Sandstone_03.png","image_id":451,"category_name":"Sandstone","category":29,"distinct_rating":1.86,"distinct_type":"Bottom","item_type":"Foil","rt":656,"stimulus":"Stimuli_Rocks480/S_Sandstone_03.png","response":"l","trial_type":"image-keyboard-response","trial_index":213,"plugin_version":"2.1.0","time_elapsed":285079,"subject_id":"91893","group":"Group2","condition":"1_Rep","full_date":"2026-01-27T16:26:31.640Z","date":"2026-01-27","time":"16:26:31","cor_ans":false},{"trial_type":"html-keyboard-response","rt":null,"stimulus":"<p style=\"color: red; font-size: 50px; font-weight: bold;\">Incorrect</p>","response":null,"trial_index":214,"plugin_version":"2.1.0","time_elapsed":285588,"subject_id":"91893","group":"Group2","condition":"1_Rep","full_date":"2026-01-27T16:26:31.640Z","date":"2026-01-27","time":"16:26:31"},{"correct_response":"a","task":"test_phase","broad_category":"M","image_png":"M_Marble_04.png","image_id":228,"category_name":"Marble","category":15,"distinct_rating":3.15,"distinct_type":"Bottom","item_type":"Foil","rt":860,"stimulus":"Stimuli_Rocks480/M_Marble_04.png","response":"l","trial_type":"image-keyboard-response","trial_index":215,"plugin_version":"2.1.0","time_elapsed":286450,"subject_id":"91893","group":"Group2","condition":"1_Rep","full_date":"2026-01-27T16:26:31.640Z","date":"2026-01-27","time":"16:26:31","cor_ans":false},{"trial_type":"html-keyboard-response","rt":null,"stimulus":"<p style=\"color: red; font-size: 50px; font-weight: bold;\">Incorrect</p>","response":null,"trial_index":216,"plugin_version":"2.1.0","time_elapsed":286953,"subject_id":"91893","group":"Group2","condition":"1_Rep","full_date":"2026-01-27T16:26:31.640Z","date":"2026-01-27","time":"16:26:31"},{"correct_response":"a","task":"test_phase","broad_category":"M","image_png":"M_Quartzite_13.png","image_id":285,"category_name":"Quartzite","category":18,"distinct_rating":2.27,"distinct_type":"Bottom","item_type":"Foil","rt":908,"stimulus":"Stimuli_Rocks480/M_Quartzite_13.png","response":"l","trial_type":"image-keyboard-response","trial_index":217,"plugin_version":"2.1.0","time_elapsed":287863,"subject_id":"91893","group":"Group2","condition":"1_Rep","full_date":"2026-01-27T16:26:31.640Z","date":"2026-01-27","time":"16:26:31","cor_ans":false},{"trial_type":"html-keyboard-response","rt":null,"stimulus":"<p style=\"color: red; font-size: 50px; font-weight: bold;\">Incorrect</p>","response":null,"trial_index":218,"plugin_version":"2.1.0","time_elapsed":288371,"subject_id":"91893","group":"Group2","condition":"1_Rep","full_date":"2026-01-27T16:26:31.640Z","date":"2026-01-27","time":"16:26:31"},{"correct_response":"a","task":"test_phase","broad_category":"M","image_png":"M_Quartzite_05.png","image_id":277,"category_name":"Quartzite","category":18,"distinct_rating":2.23,"distinct_type":"Bottom","item_type":"Foil","rt":698,"stimulus":"Stimuli_Rocks480/M_Quartzite_05.png","response":"l","trial_type":"image-keyboard-response","trial_index":219,"plugin_version":"2.1.0","time_elapsed":289070,"subject_id":"91893","group":"Group2","condition":"1_Rep","full_date":"2026-01-27T16:26:31.640Z","date":"2026-01-27","time":"16:26:31","cor_ans":false},{"trial_type":"html-keyboard-response","rt":null,"stimulus":"<p style=\"color: red; font-size: 50px; font-weight: bold;\">Incorrect</p>","response":null,"trial_index":220,"plugin_version":"2.1.0","time_elapsed":289586,"subject_id":"91893","group":"Group2","condition":"1_Rep","full_date":"2026-01-27T16:26:31.640Z","date":"2026-01-27","time":"16:26:31"},{"correct_response":"a","task":"test_phase","broad_category":"S","image_png":"S_Breccia_11.png","image_id":347,"category_name":"Breccia","category":22,"distinct_rating":6.7,"distinct_type":"Top","item_type":"Foil","rt":594,"stimulus":"Stimuli_Rocks480/S_Breccia_11.png","response":"l","trial_type":"image-keyboard-response","trial_index":221,"plugin_version":"2.1.0","time_elapsed":290182,"subject_id":"91893","group":"Group2","condition":"1_Rep","full_date":"2026-01-27T16:26:31.640Z","date":"2026-01-27","time":"16:26:31","cor_ans":false},{"trial_type":"html-keyboard-response","rt":null,"stimulus":"<p style=\"color: red; font-size: 50px; font-weight: bold;\">Incorrect</p>","response":null,"trial_index":222,"plugin_version":"2.1.0","time_elapsed":290693,"subject_id":"91893","group":"Group2","condition":"1_Rep","full_date":"2026-01-27T16:26:31.640Z","date":"2026-01-27","time":"16:26:31"},{"correct_response":"l","task":"test_phase","broad_category":"S","image_png":"S_Conglomerate_14.png","image_id":382,"category_name":"Conglomerate","category":24,"distinct_rating":6.86,"distinct_type":"Top","item_type":"Target","rt":548,"stimulus":"Stimuli_Rocks480/S_Conglomerate_14.png","response":"l","trial_type":"image-keyboard-response","trial_index":223,"plugin_version":"2.1.0","time_elapsed":291243,"subject_id":"91893","group":"Group2","condition":"1_Rep","full_date":"2026-01-27T16:26:31.640Z","date":"2026-01-27","time":"16:26:31","cor_ans":true},{"trial_type":"html-keyboard-response","rt":null,"stimulus":"<p style=\"color: green; font-size: 50px; font-weight: bold;\">Correct</p>","response":null,"trial_index":224,"plugin_version":"2.1.0","time_elapsed":291753,"subject_id":"91893","group":"Group2","condition":"1_Rep","full_date":"2026-01-27T16:26:31.640Z","date":"2026-01-27","time":"16:26:31"},{"correct_response":"a","task":"test_phase","broad_category":