[{"width":730,"height":765,"webaudio":true,"browser":"safari","browser_version":"18.6.0","mobile":false,"os":"Mac OS","fullscreen":true,"vsync_rate":60.3,"webcam":true,"microphone":true,"trial_type":"browser-check","trial_index":0,"plugin_version":"2.1.0","time_elapsed":1002,"subject_id":"88970","group":"Group1","full_date":"2025-11-11T20:52:56.082Z","date":"2025-11-11","time":"20:52:56"},{"success":true,"timeout":false,"failed_images":[],"failed_audio":[],"failed_video":[],"trial_type":"preload","trial_index":1,"plugin_version":"2.1.0","time_elapsed":3123,"subject_id":"88970","group":"Group1","full_date":"2025-11-11T20:52:56.082Z","date":"2025-11-11","time":"20:52:56"},{"rt":7369,"url":"SONA_consent_memorability.html","trial_type":"external-html","trial_index":2,"plugin_version":"2.1.0","time_elapsed":10538,"subject_id":"88970","group":"Group1","full_date":"2025-11-11T20:52:56.082Z","date":"2025-11-11","time":"20:52:56"},{"success":true,"rt":1330,"trial_type":"fullscreen","trial_index":3,"plugin_version":"2.1.0","time_elapsed":12875,"subject_id":"88970","group":"Group1","full_date":"2025-11-11T20:52:56.082Z","date":"2025-11-11","time":"20:52:56"},{"rt":95392,"stimulus":"<div style=\"max-width: 760px; margin: auto; font-size: 20px; line-height: 1.5;\">\n      <h1 style=\"text-align:center; font-size: 30px;\">Instructions</h1>\n      <p>\n        Welcome to the study on <b>visual memory</b>. This experiment consists of <b>two phases</b>: \n        a <b>study phase</b> and a <b>test phase</b>.\n      </p>\n      <p>\n        In the study phase, you will see a series of rock images along with their category labels.\n        The images will appear one at a time.\n        <b>Your task</b> is to learn the categories to which the rock images belong \n        and to remember each image as accurately as possible.\n      </p> \n      <p>\n        After the study phase, <b>your memory will be tested</b>. \n        Additional instructions for the test phase will be provided at that time.\n      </p>\n      <p>\n        If your computer has multiple <b>language settings</b> (e.g., English and another language),\n        please make sure it is set to English before starting.\n      </p>\n      <p>\n        You can track your progress using the <b>completion bar</b> at the top of the screen. \n        Please note that the bar will refresh when the test phase begins \n        to give you an accurate sense of your progress in both phases.\n      </p> \n      <p>\n        Press the button below when you are ready to begin.\n      </p>\n    </div>","response":0,"trial_type":"html-button-response","trial_index":4,"plugin_version":"2.1.0","time_elapsed":108267,"subject_id":"88970","group":"Group1","full_date":"2025-11-11T20:52:56.082Z","date":"2025-11-11","time":"20:52:56"},{"rt":null,"stimulus":"<p style=\"font-size: 50px; margin: 0; text-align: center;\">+</p>","response":null,"trial_type":"html-keyboard-response","trial_index":5,"plugin_version":"2.1.0","time_elapsed":109269,"subject_id":"88970","group":"Group1","full_date":"2025-11-11T20:52:56.082Z","date":"2025-11-11","time":"20:52:56"},{"task":"memory_phase","broad_category":"I","image_png":"I_Basalt_01.png","image_id":17,"category_name":"Basalt","category":2,"distinct_rating":1.92,"distinct_type":"Bottom","rt":null,"stimulus":"Stimuli_Rocks480/I_Basalt_01.png","response":null,"trial_type":"image-keyboard-response","trial_index":6,"plugin_version":"2.1.0","time_elapsed":111791,"subject_id":"88970","group":"Group1","full_date":"2025-11-11T20:52:56.082Z","date":"2025-11-11","time":"20:52:56"},{"rt":null,"stimulus":"<p style=\"font-size: 50px; margin: 0; text-align: center;\">+</p>","response":null,"trial_type":"html-keyboard-response","trial_index":7,"plugin_version":"2.1.0","time_elapsed":112793,"subject_id":"88970","group":"Group1","full_date":"2025-11-11T20:52:56.082Z","date":"2025-11-11","time":"20:52:56"},{"task":"memory_phase","broad_category":"S","image_png":"S_Rock Salt_01.png","image_id":433,"category_name":"Rock Salt","category":28,"distinct_rating":7.18,"distinct_type":"Top","rt":null,"stimulus":"Stimuli_Rocks480/S_Rock Salt_01.png","response":null,"trial_type":"image-keyboard-response","trial_index":8,"plugin_version":"2.1.0","time_elapsed":115312,"subject_id":"88970","group":"Group1","full_date":"2025-11-11T20:52:56.082Z","date":"2025-11-11","time":"20:52:56"},{"rt":null,"stimulus":"<p style=\"font-size: 50px; margin: 0; text-align: center;\">+</p>","response":null,"trial_type":"html-keyboard-response","trial_index":9,"plugin_version":"2.1.0","time_elapsed":116314,"subject_id":"88970","group":"Group1","full_date":"2025-11-11T20:52:56.082Z","date":"2025-11-11","time":"20:52:56"},{"task":"memory_phase","broad_category":"M","image_png":"M_Slate_15.png","image_id":319,"category_name":"Slate","category":20,"distinct_rating":2.13,"distinct_type":"Bottom","rt":null,"stimulus":"Stimuli_Rocks480/M_Slate_15.png","response":null,"trial_type":"image-keyboard-response","trial_index":10,"plugin_version":"2.1.0","time_elapsed":118825,"subject_id":"88970","group":"Group1","full_date":"2025-11-11T20:52:56.082Z","date":"2025-11-11","time":"20:52:56"},{"rt":null,"stimulus":"<p style=\"font-size: 50px; margin: 0; text-align: center;\">+</p>","response":null,"trial_type":"html-keyboard-response","trial_index":11,"plugin_version":"2.1.0","time_elapsed":119827,"subject_id":"88970","group":"Group1","full_date":"2025-11-11T20:52:56.082Z","date":"2025-11-11","time":"20:52:56"},{"task":"memory_phase","broad_category":"I","image_png":"I_Rhyolite_11.png","image_id":155,"category_name":"Rhyolite","category":10,"distinct_rating":1.73,"distinct_type":"Bottom","rt":null,"stimulus":"Stimuli_Rocks480/I_Rhyolite_11.png","response":null,"trial_type":"image-keyboard-response","trial_index":12,"plugin_version":"2.1.0","time_elapsed":122340,"subject_id":"88970","group":"Group1","full_date":"2025-11-11T20:52:56.082Z","date":"2025-11-11","time":"20:52:56"},{"rt":null,"stimulus":"<p style=\"font-size: 50px; margin: 0; text-align: center;\">+</p>","response":null,"trial_type":"html-keyboard-response","trial_index":13,"plugin_version":"2.1.0","time_elapsed":123342,"subject_id":"88970","group":"Group1","full_date":"2025-11-11T20:52:56.082Z","date":"2025-11-11","time":"20:52:56"},{"task":"memory_phase","broad_category":"I","image_png":"I_Obsidian_05.png","image_id":85,"category_name":"Obsidian","category":6,"distinct_rating":7.32,"distinct_type":"Top","rt":null,"stimulus":"Stimuli_Rocks480/I_Obsidian_05.png","response":null,"trial_type":"image-keyboard-response","trial_index":14,"plugin_version":"2.1.0","time_elapsed":125857,"subject_id":"88970","group":"Group1","full_date":"2025-11-11T20:52:56.082Z","date":"2025-11-11","time":"20:52:56"},{"rt":null,"stimulus":"<p style=\"font-size: 50px; margin: 0; text-align: center;\">+</p>","response":null,"trial_type":"html-keyboard-response","trial_index":15,"plugin_version":"2.1.0","time_elapsed":126859,"subject_id":"88970","group":"Group1","full_date":"2025-11-11T20:52:56.082Z","date":"2025-11-11","time":"20:52:56"},{"task":"memory_phase","broad_category":"S","image_png":"S_Breccia_11.png","image_id":347,"category_name":"Breccia","category":22,"distinct_rating":6.7,"distinct_type":"Top","rt":null,"stimulus":"Stimuli_Rocks480/S_Breccia_11.png","response":null,"trial_type":"image-keyboard-response","trial_index":16,"plugin_version":"2.1.0","time_elapsed":129383,"subject_id":"88970","group":"Group1","full_date":"2025-11-11T20:52:56.082Z","date":"2025-11-11","time":"20:52:56"},{"rt":null,"stimulus":"<p style=\"font-size: 50px; margin: 0; text-align: center;\">+</p>","response":null,"trial_type":"html-keyboard-response","trial_index":17,"plugin_version":"2.1.0","time_elapsed":130385,"subject_id":"88970","group":"Group1","full_date":"2025-11-11T20:52:56.082Z","date":"2025-11-11","time":"20:52:56"},{"task":"memory_phase","broad_category":"M","image_png":"M_Slate_03.png","image_id":307,"category_name":"Slate","category":20,"distinct_rating":1.87,"distinct_type":"Bottom","rt":null,"stimulus":"Stimuli_Rocks480/M_Slate_03.png","response":null,"trial_type":"image-keyboard-response","trial_index":18,"plugin_version":"2.1.0","time_elapsed":132900,"subject_id":"88970","group":"Group1","full_date":"2025-11-11T20:52:56.082Z","date":"2025-11-11","time":"20:52:56"},{"rt":null,"stimulus":"<p style=\"font-size: 50px; margin: 0; text-align: center;\">+</p>","response":null,"trial_type":"html-keyboard-response","trial_index":19,"plugin_version":"2.1.0","time_elapsed":133902,"subject_id":"88970","group":"Group1","full_date":"2025-11-11T20:52:56.082Z","date":"2025-11-11","time":"20:52:56"},{"task":"memory_phase","broad_category":"M","image_png":"M_Phyllite_03.png","image_id":259,"category_name":"Phyllite","category":17,"distinct_rating":2.5,"distinct_type":"Bottom","rt":null,"stimulus":"Stimuli_Rocks480/M_Phyllite_03.png","response":null,"trial_type":"image-keyboard-response","trial_index":20,"plugin_version":"2.1.0","time_elapsed":136417,"subject_id":"88970","group":"Group1","full_date":"2025-11-11T20:52:56.082Z","date":"2025-11-11","time":"20:52:56"},{"rt":null,"stimulus":"<p style=\"font-size: 50px; margin: 0; text-align: center;\">+</p>","response":null,"trial_type":"html-keyboard-response","trial_index":21,"plugin_version":"2.1.0","time_elapsed":137419,"subject_id":"88970","group":"Group1","full_date":"2025-11-11T20:52:56.082Z","date":"2025-11-11","time":"20:52:56"},{"task":"memory_phase","broad_category":"M","image_png":"M_Gneiss_06.png","image_id":198,"category_name":"Gneiss","category":13,"distinct_rating":2.65,"distinct_type":"Bottom","rt":null,"stimulus":"Stimuli_Rocks480/M_Gneiss_06.png","response":null,"trial_type":"image-keyboard-response","trial_index":22,"plugin_version":"2.1.0","time_elapsed":139939,"subject_id":"88970","group":"Group1","full_date":"2025-11-11T20:52:56.082Z","date":"2025-11-11","time":"20:52:56"},{"rt":null,"stimulus":"<p style=\"font-size: 50px; margin: 0; text-align: center;\">+</p>","response":null,"trial_type":"html-keyboard-response","trial_index":23,"plugin_version":"2.1.0","time_elapsed":140941,"subject_id":"88970","group":"Group1","full_date":"2025-11-11T20:52:56.082Z","date":"2025-11-11","time":"20:52:56"},{"task":"memory_phase","broad_category":"M","image_png":"M_Gneiss_05.png","image_id":197,"category_name":"Gneiss","category":13,"distinct_rating":2.97,"distinct_type":"Bottom","rt":null,"stimulus":"Stimuli_Rocks480/M_Gneiss_05.png","response":null,"trial_type":"image-keyboard-response","trial_index":24,"plugin_version":"2.1.0","time_elapsed":143461,"subject_id":"88970","group":"Group1","full_date":"2025-11-11T20:52:56.082Z","date":"2025-11-11","time":"20:52:56"},{"rt":null,"stimulus":"<p style=\"font-size: 50px; margin: 0; text-align: center;\">+</p>","response":null,"trial_type":"html-keyboard-response","trial_index":25,"plugin_version":"2.1.0","time_elapsed":144463,"subject_id":"88970","group":"Group1","full_date":"2025-11-11T20:52:56.082Z","date":"2025-11-11","time":"20:52:56"},{"task":"memory_phase","broad_category":"S","image_png":"S_Conglomerate_05.png","image_id":373,"category_name":"Conglomerate","category":24,"distinct_rating":7.32,"distinct_type":"Top","rt":null,"stimulus":"Stimuli_Rocks480/S_Conglomerate_05.png","response":null,"trial_type":"image-keyboard-response","trial_index":26,"plugin_version":"2.1.0","time_elapsed":146979,"subject_id":"88970","group":"Group1","full_date":"2025-11-11T20:52:56.082Z","date":"2025-11-11","time":"20:52:56"},{"rt":null,"stimulus":"<p style=\"font-size: 50px; margin: 0; text-align: center;\">+</p>","response":null,"trial_type":"html-keyboard-response","trial_index":27,"plugin_version":"2.1.0","time_elapsed":147982,"subject_id":"88970","group":"Group1","full_date":"2025-11-11T20:52:56.082Z","date":"2025-11-11","time":"20:52:56"},{"task":"memory_phase","broad_category":"M","image_png":"M_Marble_16.png","image_id":240,"category_name":"Marble","category":15,"distinct_rating":2.57,"distinct_type":"Bottom","rt":null,"stimulus":"Stimuli_Rocks480/M_Marble_16.png","response":null,"trial_type":"image-keyboard-response","trial_index":28,"plugin_version":"2.1.0","time_elapsed":150497,"subject_id":"88970","group":"Group1","full_date":"2025-11-11T20:52:56.082Z","date":"2025-11-11","time":"20:52:56"},{"rt":null,"stimulus":"<p style=\"font-size: 50px; margin: 0; text-align: center;\">+</p>","response":null,"trial_type":"html-keyboard-response","trial_index":29,"plugin_version":"2.1.0","time_elapsed":151500,"subject_id":"88970","group":"Group1","full_date":"2025-11-11T20:52:56.082Z","date":"2025-11-11","time":"20:52:56"},{"task":"memory_phase","broad_category":"M","image_png":"M_Phyllite_07.png","image_id":263,"category_name":"Phyllite","category":17,"distinct_rating":2.59,"distinct_type":"Bottom","rt":null,"stimulus":"Stimuli_Rocks480/M_Phyllite_07.png","response":null,"trial_type":"image-keyboard-response","trial_index":30,"plugin_version":"2.1.0","time_elapsed":154011,"subject_id":"88970","group":"Group1","full_date":"2025-11-11T20:52:56.082Z","date":"2025-11-11","time":"20:52:56"},{"rt":null,"stimulus":"<p style=\"font-size: 50px; margin: 0; text-align: center;\">+</p>","response":null,"trial_type":"html-keyboard-response","trial_index":31,"plugin_version":"2.1.0","time_elapsed":155014,"subject_id":"88970","group":"Group1","full_date":"2025-11-11T20:52:56.082Z","date":"2025-11-11","time":"20:52:56"},{"task":"memory_phase","broad_category":"I","image_png":"I_Diorite_04.png","image_id":36,"category_name":"Diorite","category":3,"distinct_rating":2.98,"distinct_type":"Bottom","rt":null,"stimulus":"Stimuli_Rocks480/I_Diorite_04.png","response":null,"trial_type":"image-keyboard-response","trial_index":32,"plugin_version":"2.1.0","time_elapsed":157529,"subject_id":"88970","group":"Group1","full_date":"2025-11-11T20:52:56.082Z","date":"2025-11-11","time":"20:52:56"},{"rt":null,"stimulus":"<p style=\"font-size: 50px; margin: 0; text-align: center;\">+</p>","response":null,"trial_type":"html-keyboard-response","trial_index":33,"plugin_version":"2.1.0","time_elapsed":158532,"subject_id":"88970","group":"Group1","full_date":"2025-11-11T20:52:56.082Z","date":"2025-11-11","time":"20:52:56"},{"task":"memory_phase","broad_category":"S","image_png":"S_Shale_01.png","image_id":465,"category_name":"Shale","category":30,"distinct_rating":2.7,"distinct_type":"Bottom","rt":null,"stimulus":"Stimuli_Rocks480/S_Shale_01.png","response":null,"trial_type":"image-keyboard-response","trial_index":34,"plugin_version":"2.1.0","time_elapsed":161046,"subject_id":"88970","group":"Group1","full_date":"2025-11-11T20:52:56.082Z","date":"2025-11-11","time":"20:52:56"},{"rt":null,"stimulus":"<p style=\"font-size: 50px; margin: 0; text-align: center;\">+</p>","response":null,"trial_type":"html-keyboard-response","trial_index":35,"plugin_version":"2.1.0","time_elapsed":162048,"subject_id":"88970","group":"Group1","full_date":"2025-11-11T20:52:56.082Z","date":"2025-11-11","time":"20:52:56"},{"task":"memory_phase","broad_category":"I","image_png":"I_Gabbro_11.png","image_id":59,"category_name":"Gabbro","category":4,"distinct_rating":1.99,"distinct_type":"Bottom","rt":null,"stimulus":"Stimuli_Rocks480/I_Gabbro_11.png","response":null,"trial_type":"image-keyboard-response","trial_index":36,"plugin_version":"2.1.0","time_elapsed":164560,"subject_id":"88970","group":"Group1","full_date":"2025-11-11T20:52:56.082Z","date":"2025-11-11","time":"20:52:56"},{"rt":null,"stimulus":"<p style=\"font-size: 50px; margin: 0; text-align: center;\">+</p>","response":null,"trial_type":"html-keyboard-response","trial_index":37,"plugin_version":"2.1.0","time_elapsed":165563,"subject_id":"88970","group":"Group1","full_date":"2025-11-11T20:52:56.082Z","date":"2025-11-11","time":"20:52:56"},{"task":"memory_phase","broad_category":"I","image_png":"I_Rhyolite_16.png","image_id":160,"category_name":"Rhyolite","category":10,"distinct_rating":2.19,"distinct_type":"Bottom","rt":null,"stimulus":"Stimuli_Rocks480/I_Rhyolite_16.png","response":null,"trial_type":"image-keyboard-response","trial_index":38,"plugin_version":"2.1.0","time_elapsed":168075,"subject_id":"88970","group":"Group1","full_date":"2025-11-11T20:52:56.082Z","date":"2025-11-11","time":"20:52:56"},{"rt":null,"stimulus":"<p style=\"font-size: 50px; margin: 0; text-align: center;\">+</p>","response":null,"trial_type":"html-keyboard-response","trial_index":39,"plugin_version":"2.1.0","time_elapsed":169078,"subject_id":"88970","group":"Group1","full_date":"2025-11-11T20:52:56.082Z","date":"2025-11-11","time":"20:52:56"},{"task":"memory_phase","broad_category":"I","image_png":"I_Gabbro_08.png","image_id":56,"category_name":"Gabbro","category":4,"distinct_rating":3.02,"distinct_type":"Bottom","rt":null,"stimulus":"Stimuli_Rocks480/I_Gabbro_08.png","response":null,"trial_type":"image-keyboard-response","trial_index":40,"plugin_version":"2.1.0","time_elapsed":171592,"subject_id":"88970","group":"Group1","full_date":"2025-11-11T20:52:56.082Z","date":"2025-11-11","time":"20:52:56"},{"rt":null,"stimulus":"<p style=\"font-size: 50px; margin: 0; text-align: center;\">+</p>","response":null,"trial_type":"html-keyboard-response","trial_index":41,"plugin_version":"2.1.0","time_elapsed":172594,"subject_id":"88970","group":"Group1","full_date":"2025-11-11T20:52:56.082Z","date":"2025-11-11","time":"20:52:56"},{"task":"memory_phase","broad_category":"M","image_png":"M_Marble_06.png","image_id":230,"category_name":"Marble","category":15,"distinct_rating":3.4,"distinct_type":"Bottom","rt":null,"stimulus":"Stimuli_Rocks480/M_Marble_06.png","response":null,"trial_type":"image-keyboard-response","trial_index":42,"plugin_version":"2.1.0","time_elapsed":175109,"subject_id":"88970","group":"Group1","full_date":"2025-11-11T20:52:56.082Z","date":"2025-11-11","time":"20:52:56"},{"rt":null,"stimulus":"<p style=\"font-size: 50px; margin: 0; text-align: center;\">+</p>","response":null,"trial_type":"html-keyboard-response","trial_index":43,"plugin_version":"2.1.0","time_elapsed":176111,"subject_id":"88970","group":"Group1","full_date":"2025-11-11T20:52:56.082Z","date":"2025-11-11","time":"20:52:56"},{"task":"memory_phase","broad_category":"I","image_png":"I_Pumice_12.png","image_id":140,"category_name":"Pumice","category":9,"distinct_rating":2.97,"distinct_type":"Bottom","rt":null,"stimulus":"Stimuli_Rocks480/I_Pumice_12.png","response":null,"trial_type":"image-keyboard-response","trial_index":44,"plugin_version":"2.1.0","time_elapsed":178622,"subject_id":"88970","group":"Group1","full_date":"2025-11-11T20:52:56.082Z","date":"2025-11-11","time":"20:52:56"},{"rt":null,"stimulus":"<p style=\"font-size: 50px; margin: 0; text-align: center;\">+</p>","response":null,"trial_type":"html-keyboard-response","trial_index":45,"plugin_version":"2.1.0","time_elapsed":179625,"subject_id":"88970","group":"Group1","full_date":"2025-11-11T20:52:56.082Z","date":"2025-11-11","time":"20:52:56"},{"task":"memory_phase","broad_category":"M","image_png":"M_Quartzite_13.png","image_id":285,"category_name":"Quartzite","category":18,"distinct_rating":2.27,"distinct_type":"Bottom","rt":null,"stimulus":"Stimuli_Rocks480/M_Quartzite_13.png","response":null,"trial_type":"image-keyboard-response","trial_index":46,"plugin_version":"2.1.0","time_elapsed":182139,"subject_id":"88970","group":"Group1","full_date":"2025-11-11T20:52:56.082Z","date":"2025-11-11","time":"20:52:56"},{"rt":null,"stimulus":"<p style=\"font-size: 50px; margin: 0; text-align: center;\">+</p>","response":null,"trial_type":"html-keyboard-response","trial_index":47,"plugin_version":"2.1.0","time_elapsed":183141,"subject_id":"88970","group":"Group1","full_date":"2025-11-11T20:52:56.082Z","date":"2025-11-11","time":"20:52:56"},{"task":"memory_phase","broad_category":"I","image_png":"I_Rhyolite_14.png","image_id":158,"category_name":"Rhyolite","category":10,"distinct_rating":2.59,"distinct_type":"Bottom","rt":null,"stimulus":"Stimuli_Rocks480/I_Rhyolite_14.png","response":null,"trial_type":"image-keyboard-response","trial_index":48,"plugin_version":"2.1.0","time_elapsed":185655,"subject_id":"88970","group":"Group1","full_date":"2025-11-11T20:52:56.082Z","date":"2025-11-11","time":"20:52:56"},{"rt":null,"stimulus":"<p style=\"font-size: 50px; margin: 0; text-align: center;\">+</p>","response":null,"trial_type":"html-keyboard-response","trial_index":49,"plugin_version":"2.1.0","time_elapsed":186657,"subject_id":"88970","group":"Group1","full_date":"2025-11-11T20:52:56.082Z","date":"2025-11-11","time":"20:52:56"},{"task":"memory_phase","broad_category":"S","image_png":"S_Sandstone_03.png","image_id":451,"category_name":"Sandstone","category":29,"distinct_rating":1.86,"distinct_type":"Bottom","rt":null,"stimulus":"Stimuli_Rocks480/S_Sandstone_03.png","response":null,"trial_type":"image-keyboard-response","trial_index":50,"plugin_version":"2.1.0","time_elapsed":189174,"subject_id":"88970","group":"Group1","full_date":"2025-11-11T20:52:56.082Z","date":"2025-11-11","time":"20:52:56"},{"rt":null,"stimulus":"<p style=\"font-size: 50px; margin: 0; text-align: center;\">+</p>","response":null,"trial_type":"html-keyboard-response","trial_index":51,"plugin_version":"2.1.0","time_elapsed":190176,"subject_id":"88970","group":"Group1","full_date":"2025-11-11T20:52:56.082Z","date":"2025-11-11","time":"20:52:56"},{"task":"memory_phase","broad_category":"I","image_png":"I_Basalt_09.png","image_id":25,"category_name":"Basalt","category":2,"distinct_rating":1.89,"distinct_type":"Bottom","rt":null,"stimulus":"Stimuli_Rocks480/I_Basalt_09.png","response":null,"trial_type":"image-keyboard-response","trial_index":52,"plugin_version":"2.1.0","time_elapsed":192689,"subject_id":"88970","group":"Group1","full_date":"2025-11-11T20:52:56.082Z","date":"2025-11-11","time":"20:52:56"},{"rt":null,"stimulus":"<p style=\"font-size: 50px; margin: 0; text-align: center;\">+</p>","response":null,"trial_type":"html-keyboard-response","trial_index":53,"plugin_version":"2.1.0","time_elapsed":193691,"subject_id":"88970","group":"Group1","full_date":"2025-11-11T20:52:56.082Z","date":"2025-11-11","time":"20:52:56"},{"task":"memory_phase","broad_category":"S","image_png":"S_Shale_12.png","image_id":476,"category_name":"Shale","category":30,"distinct_rating":2.48,"distinct_type":"Bottom","rt":null,"stimulus":"Stimuli_Rocks480/S_Shale_12.png","response":null,"trial_type":"image-keyboard-response","trial_index":54,"plugin_version":"2.1.0","time_elapsed":196207,"subject_id":"88970","group":"Group1","full_date":"2025-11-11T20:52:56.082Z","date":"2025-11-11","time":"20:52:56"},{"rt":1751,"stimulus":"<p style=\"font-size: 35px;\">Press SPACE to continue study phase</p>","response":" ","trial_type":"html-keyboard-response","trial_index":55,"plugin_version":"2.1.0","time_elapsed":197960,"subject_id":"88970","group":"Group1","full_date":"2025-11-11T20:52:56.082Z","date":"2025-11-11","time":"20:52:56"},{"rt":null,"stimulus":"<p style=\"font-size: 50px; margin: 0; text-align: center;\">+</p>","response":null,"trial_type":"html-keyboard-response","trial_index":56,"plugin_version":"2.1.0","time_elapsed":198963,"subject_id":"88970","group":"Group1","full_date":"2025-11-11T20:52:56.082Z","date":"2025-11-11","time":"20:52:56"},{"task":"memory_phase","broad_category":"M","image_png":"M_Slate_11.png","image_id":315,"category_name":"Slate","category":20,"distinct_rating":2.75,"distinct_type":"Bottom","rt":null,"stimulus":"Stimuli_Rocks480/M_Slate_11.png","response":null,"trial_type":"image-keyboard-response","trial_index":57,"plugin_version":"2.1.0","time_elapsed":201475,"subject_id":"88970","group":"Group1","full_date":"2025-11-11T20:52:56.082Z","date":"2025-11-11","time":"20:52:56"},{"rt":null,"stimulus":"<p style=\"font-size: 50px; margin: 0; text-align: center;\">+</p>","response":null,"trial_type":"html-keyboard-response","trial_index":58,"plugin_version":"2.1.0","time_elapsed":202477,"subject_id":"88970","group":"Group1","full_date":"2025-11-11T20:52:56.082Z","date":"2025-11-11","time":"20:52:56"},{"task":"memory_phase","broad_category":"I","image_png":"I_Pumice_11.png","image_id":139,"category_name":"Pumice","category":9,"distinct_rating":1.74,"distinct_type":"Bottom","rt":null,"stimulus":"Stimuli_Rocks480/I_Pumice_11.png","response":null,"trial_type":"image-keyboard-response","trial_index":59,"plugin_version":"2.1.0","time_elapsed":204988,"subject_id":"88970","group":"Group1","full_date":"2025-11-11T20:52:56.082Z","date":"2025-11-11","time":"20:52:56"},{"rt":null,"stimulus":"<p style=\"font-size: 50px; margin: 0; text-align: center;\">+</p>","response":null,"trial_type":"html-keyboard-response","trial_index":60,"plugin_version":"2.1.0","time_elapsed":205990,"subject_id":"88970","group":"Group1","full_date":"2025-11-11T20:52:56.082Z","date":"2025-11-11","time":"20:52:56"},{"task":"memory_phase","broad_category":"I","image_png":"I_Diorite_03.png","image_id":35,"category_name":"Diorite","category":3,"distinct_rating":3.14,"distinct_type":"Bottom","rt":null,"stimulus":"Stimuli_Rocks480/I_Diorite_03.png","response":null,"trial_type":"image-keyboard-response","trial_index":61,"plugin_version":"2.1.0","time_elapsed":208508,"subject_id":"88970","group":"Group1","full_date":"2025-11-11T20:52:56.082Z","date":"2025-11-11","time":"20:52:56"},{"rt":null,"stimulus":"<p style=\"font-size: 50px; margin: 0; text-align: center;\">+</p>","response":null,"trial_type":"html-keyboard-response","trial_index":62,"plugin_version":"2.1.0","time_elapsed":209510,"subject_id":"88970","group":"Group1","full_date":"2025-11-11T20:52:56.082Z","date":"2025-11-11","time":"20:52:56"},{"task":"memory_phase","broad_category":"M","image_png":"M_Phyllite_10.png","image_id":266,"category_name":"Phyllite","category":17,"distinct_rating":2.6,"distinct_type":"Bottom","rt":null,"stimulus":"Stimuli_Rocks480/M_Phyllite_10.png","response":null,"trial_type":"image-keyboard-response","trial_index":63,"plugin_version":"2.1.0","time_elapsed":212023,"subject_id":"88970","group":"Group1","full_date":"2025-11-11T20:52:56.082Z","date":"2025-11-11","time":"20:52:56"},{"rt":null,"stimulus":"<p style=\"font-size: 50px; margin: 0; text-align: center;\">+</p>","response":null,"trial_type":"html-keyboard-response","trial_index":64,"plugin_version":"2.1.0","time_elapsed":213026,"subject_id":"88970","group":"Group1","full_date":"2025-11-11T20:52:56.082Z","date":"2025-11-11","time":"20:52:56"},{"task":"memory_phase","broad_category":"I","image_png":"I_Andesite_06.png","image_id":6,"category_name":"Andesite","category":1,"distinct_rating":3.17,"distinct_type":"Bottom","rt":null,"stimulus":"Stimuli_Rocks480/I_Andesite_06.png","response":null,"trial_type":"image-keyboard-response","trial_index":65,"plugin_version":"2.1.0","time_elapsed":215543,"subject_id":"88970","group":"Group1","full_date":"2025-11-11T20:52:56.082Z","date":"2025-11-11","time":"20:52:56"},{"rt":null,"stimulus":"<p style=\"font-size: 50px; margin: 0; text-align: center;\">+</p>","response":null,"trial_type":"html-keyboard-response","trial_index":66,"plugin_version":"2.1.0","time_elapsed":216545,"subject_id":"88970","group":"Group1","full_date":"2025-11-11T20:52:56.082Z","date":"2025-11-11","time":"20:52:56"},{"task":"memory_phase","broad_category":"I","image_png":"I_Andesite_08.png","image_id":8,"category_name":"Andesite","category":1,"distinct_rating":1.95,"distinct_type":"Bottom","rt":null,"stimulus":"Stimuli_Rocks480/I_Andesite_08.png","response":null,"trial_type":"image-keyboard-response","trial_index":67,"plugin_version":"2.1.0","time_elapsed":219060,"subject_id":"88970","group":"Group1","full_date":"2025-11-11T20:52:56.082Z","date":"2025-11-11","time":"20:52:56"},{"rt":null,"stimulus":"<p style=\"font-size: 50px; margin: 0; text-align: center;\">+</p>","response":null,"trial_type":"html-keyboard-response","trial_index":68,"plugin_version":"2.1.0","time_elapsed":220063,"subject_id":"88970","group":"Group1","full_date":"2025-11-11T20:52:56.082Z","date":"2025-11-11","time":"20:52:56"},{"task":"memory_phase","broad_category":"M","image_png":"M_Gneiss_13.png","image_id":205,"category_name":"Gneiss","category":13,"distinct_rating":3.26,"distinct_type":"Bottom","rt":null,"stimulus":"Stimuli_Rocks480/M_Gneiss_13.png","response":null,"trial_type":"image-keyboard-response","trial_index":69,"plugin_version":"2.1.0","time_elapsed":222575,"subject_id":"88970","group":"Group1","full_date":"2025-11-11T20:52:56.082Z","date":"2025-11-11","time":"20:52:56"},{"rt":null,"stimulus":"<p style=\"font-size: 50px; margin: 0; text-align: center;\">+</p>","response":null,"trial_type":"html-keyboard-response","trial_index":70,"plugin_version":"2.1.0","time_elapsed":223577,"subject_id":"88970","group":"Group1","full_date":"2025-11-11T20:52:56.082Z","date":"2025-11-11","time":"20:52:56"},{"task":"memory_phase","broad_category":"I","image_png":"I_Diorite_05.png","image_id":37,"category_name":"Diorite","category":3,"distinct_rating":3.08,"distinct_type":"Bottom","rt":null,"stimulus":"Stimuli_Rocks480/I_Diorite_05.png","response":null,"trial_type":"image-keyboard-response","trial_index":71,"plugin_version":"2.1.0","time_elapsed":226092,"subject_id":"88970","group":"Group1","full_date":"2025-11-11T20:52:56.082Z","date":"2025-11-11","time":"20:52:56"},{"rt":null,"stimulus":"<p style=\"font-size: 50px; margin: 0; text-align: center;\">+</p>","response":null,"trial_type":"html-keyboard-response","trial_index":72,"plugin_version":"2.1.0","time_elapsed":227095,"subject_id":"88970","group":"Group1","full_date":"2025-11-11T20:52:56.082Z","date":"2025-11-11","time":"20:52:56"},{"task":"memory_phase","broad_category":"I","image_png":"I_Gabbro_16.png","image_id":64,"category_name":"Gabbro","category":4,"distinct_rating":2.52,"distinct_type":"Bottom","rt":null,"stimulus":"Stimuli_Rocks480/I_Gabbro_16.png","response":null,"trial_type":"image-keyboard-response","trial_index":73,"plugin_version":"2.1.0","time_elapsed":229609,"subject_id":"88970","group":"Group1","full_date":"2025-11-11T20:52:56.082Z","date":"2025-11-11","time":"20:52:56"},{"rt":null,"stimulus":"<p style=\"font-size: 50px; margin: 0; text-align: center;\">+</p>","response":null,"trial_type":"html-keyboard-response","trial_index":74,"plugin_version":"2.1.0","time_elapsed":230611,"subject_id":"88970","group":"Group1","full_date":"2025-11-11T20:52:56.082Z","date":"2025-11-11","time":"20:52:56"},{"task":"memory_phase","broad_category":"S","image_png":"S_Sandstone_15.png","image_id":463,"category_name":"Sandstone","category":29,"distinct_rating":2,"distinct_type":"Bottom","rt":null,"stimulus":"Stimuli_Rocks480/S_Sandstone_15.png","response":null,"trial_type":"image-keyboard-response","trial_index":75,"plugin_version":"2.1.0","time_elapsed":233127,"subject_id":"88970","group":"Group1","full_date":"2025-11-11T20:52:56.082Z","date":"2025-11-11","time":"20:52:56"},{"rt":null,"stimulus":"<p style=\"font-size: 50px; margin: 0; text-align: center;\">+</p>","response":null,"trial_type":"html-keyboard-response","trial_index":76,"plugin_version":"2.1.0","time_elapsed":234129,"subject_id":"88970","group":"Group1","full_date":"2025-11-11T20:52:56.082Z","date":"2025-11-11","time":"20:52:56"},{"task":"memory_phase","broad_category":"S","image_png":"S_Dolomite_14.png","image_id":398,"category_name":"Dolomite","category":25,"distinct_rating":1.43,"distinct_type":"Bottom","rt":null,"stimulus":"Stimuli_Rocks480/S_Dolomite_14.png","response":null,"trial_type":"image-keyboard-response","trial_index":77,"plugin_version":"2.1.0","time_elapsed":236643,"subject_id":"88970","group":"Group1","full_date":"2025-11-11T20:52:56.082Z","date":"2025-11-11","time":"20:52:56"},{"rt":null,"stimulus":"<p style=\"font-size: 50px; margin: 0; text-align: center;\">+</p>","response":null,"trial_type":"html-keyboard-response","trial_index":78,"plugin_version":"2.1.0","time_elapsed":237645,"subject_id":"88970","group":"Group1","full_date":"2025-11-11T20:52:56.082Z","date":"2025-11-11","time":"20:52:56"},{"task":"memory_phase","broad_category":"I","image_png":"I_Basalt_02.png","image_id":18,"category_name":"Basalt","category":2,"distinct_rating":1.84,"distinct_type":"Bottom","rt":null,"stimulus":"Stimuli_Rocks480/I_Basalt_02.png","response":null,"trial_type":"image-keyboard-response","trial_index":79,"plugin_version":"2.1.0","time_elapsed":240161,"subject_id":"88970","group":"Group1","full_date":"2025-11-11T20:52:56.082Z","date":"2025-11-11","time":"20:52:56"},{"rt":null,"stimulus":"<p style=\"font-size: 50px; margin: 0; text-align: center;\">+</p>","response":null,"trial_type":"html-keyboard-response","trial_index":80,"plugin_version":"2.1.0","time_elapsed":241164,"subject_id":"88970","group":"Group1","full_date":"2025-11-11T20:52:56.082Z","date":"2025-11-11","time":"20:52:56"},{"task":"memory_phase","broad_category":"I","image_png":"I_Pumice_08.png","image_id":136,"category_name":"Pumice","category":9,"distinct_rating":3.1,"distinct_type":"Bottom","rt":null,"stimulus":"Stimuli_Rocks480/I_Pumice_08.png","response":null,"trial_type":"image-keyboard-response","trial_index":81,"plugin_version":"2.1.0","time_elapsed":243679,"subject_id":"88970","group":"Group1","full_date":"2025-11-11T20:52:56.082Z","date":"2025-11-11","time":"20:52:56"},{"rt":null,"stimulus":"<p style=\"font-size: 50px; margin: 0; text-align: center;\">+</p>","response":null,"trial_type":"html-keyboard-response","trial_index":82,"plugin_version":"2.1.0","time_elapsed":244682,"subject_id":"88970","group":"Group1","full_date":"2025-11-11T20:52:56.082Z","date":"2025-11-11","time":"20:52:56"},{"task":"memory_phase","broad_category":"I","image_png":"I_Pegmatite_10.png","image_id":106,"category_name":"Pegmatite","category":7,"distinct_rating":7.66,"distinct_type":"Top","rt":null,"stimulus":"Stimuli_Rocks480/I_Pegmatite_10.png","response":null,"trial_type":"image-keyboard-response","trial_index":83,"plugin_version":"2.1.0","time_elapsed":247195,"subject_id":"88970","group":"Group1","full_date":"2025-11-11T20:52:56.082Z","date":"2025-11-11","time":"20:52:56"},{"rt":null,"stimulus":"<p style=\"font-size: 50px; margin: 0; text-align: center;\">+</p>","response":null,"trial_type":"html-keyboard-response","trial_index":84,"plugin_version":"2.1.0","time_elapsed":248197,"subject_id":"88970","group":"Group1","full_date":"2025-11-11T20:52:56.082Z","date":"2025-11-11","time":"20:52:56"},{"task":"memory_phase","broad_category":"S","image_png":"S_Chert_10.png","image_id":362,"category_name":"Chert","category":23,"distinct_rating":7.17,"distinct_type":"Top","rt":null,"stimulus":"Stimuli_Rocks480/S_Chert_10.png","response":null,"trial_type":"image-keyboard-response","trial_index":85,"plugin_version":"2.1.0","time_elapsed":250713,"subject_id":"88970","group":"Group1","full_date":"2025-11-11T20:52:56.082Z","date":"2025-11-11","time":"20:52:56"},{"rt":null,"stimulus":"<p style=\"font-size: 50px; margin: 0; text-align: center;\">+</p>","response":null,"trial_type":"html-keyboard-response","trial_index":86,"plugin_version":"2.1.0","time_elapsed":251715,"subject_id":"88970","group":"Group1","full_date":"2025-11-11T20:52:56.082Z","date":"2025-11-11","time":"20:52:56"},{"task":"memory_phase","broad_category":"S","image_png":"S_Rock Gypsum_04.png","image_id":420,"category_name":"Rock Gypsum","category":27,"distinct_rating":7.61,"distinct_type":"Top","rt":null,"stimulus":"Stimuli_Rocks480/S_Rock Gypsum_04.png","response":null,"trial_type":"image-keyboard-response","trial_index":87,"plugin_version":"2.1.0","time_elapsed":254230,"subject_id":"88970","group":"Group1","full_date":"2025-11-11T20:52:56.082Z","date":"2025-11-11","time":"20:52:56"},{"rt":null,"stimulus":"<p style=\"font-size: 50px; margin: 0; text-align: center;\">+</p>","response":null,"trial_type":"html-keyboard-response","trial_index":88,"plugin_version":"2.1.0","time_elapsed":255231,"subject_id":"88970","group":"Group1","full_date":"2025-11-11T20:52:56.082Z","date":"2025-11-11","time":"20:52:56"},{"task":"memory_phase","broad_category":"M","image_png":"M_Quartzite_08.png","image_id":280,"category_name":"Quartzite","category":18,"distinct_rating":2.15,"distinct_type":"Bottom","rt":null,"stimulus":"Stimuli_Rocks480/M_Quartzite_08.png","response":null,"trial_type":"image-keyboard-response","trial_index":89,"plugin_version":"2.1.0","time_elapsed":257748,"subject_id":"88970","group":"Group1","full_date":"2025-11-11T20:52:56.082Z","date":"2025-11-11","time":"20:52:56"},{"rt":null,"stimulus":"<p style=\"font-size: 50px; margin: 0; text-align: center;\">+</p>","response":null,"trial_type":"html-keyboard-response","trial_index":90,"plugin_version":"2.1.0","time_elapsed":258750,"subject_id":"88970","group":"Group1","full_date":"2025-11-11T20:52:56.082Z","date":"2025-11-11","time":"20:52:56"},{"task":"memory_phase","broad_category":"S","image_png":"S_Sandstone_16.png","image_id":464,"category_name":"Sandstone","category":29,"distinct_rating":1.93,"distinct_type":"Bottom","rt":null,"stimulus":"Stimuli_Rocks480/S_Sandstone_16.png","response":null,"trial_type":"image-keyboard-response","trial_index":91,"plugin_version":"2.1.0","time_elapsed":261261,"subject_id":"88970","group":"Group1","full_date":"2025-11-11T20:52:56.082Z","date":"2025-11-11","time":"20:52:56"},{"rt":null,"stimulus":"<p style=\"font-size: 50px; margin: 0; text-align: center;\">+</p>","response":null,"trial_type":"html-keyboard-response","trial_index":92,"plugin_version":"2.1.0","time_elapsed":262263,"subject_id":"88970","group":"Group1","full_date":"2025-11-11T20:52:56.082Z","date":"2025-11-11","time":"20:52:56"},{"task":"memory_phase","broad_category":"I","image_png":"I_Andesite_10.png","image_id":10,"category_name":"Andesite","category":1,"distinct_rating":3.15,"distinct_type":"Bottom","rt":null,"stimulus":"Stimuli_Rocks480/I_Andesite_10.png","response":null,"trial_type":"image-keyboard-response","trial_index":93,"plugin_version":"2.1.0","time_elapsed":264774,"subject_id":"88970","group":"Group1","full_date":"2025-11-11T20:52:56.082Z","date":"2025-11-11","time":"20:52:56"},{"rt":null,"stimulus":"<p style=\"font-size: 50px; margin: 0; text-align: center;\">+</p>","response":null,"trial_type":"html-keyboard-response","trial_index":94,"plugin_version":"2.1.0","time_elapsed":265776,"subject_id":"88970","group":"Group1","full_date":"2025-11-11T20:52:56.082Z","date":"2025-11-11","time":"20:52:56"},{"task":"memory_phase","broad_category":"I","image_png":"I_Pegmatite_16.png","image_id":112,"category_name":"Pegmatite","category":7,"distinct_rating":7.03,"distinct_type":"Top","rt":null,"stimulus":"Stimuli_Rocks480/I_Pegmatite_16.png","response":null,"trial_type":"image-keyboard-response","trial_index":95,"plugin_version":"2.1.0","time_elapsed":268291,"subject_id":"88970","group":"Group1","full_date":"2025-11-11T20:52:56.082Z","date":"2025-11-11","time":"20:52:56"},{"rt":null,"stimulus":"<p style=\"font-size: 50px; margin: 0; text-align: center;\">+</p>","response":null,"trial_type":"html-keyboard-response","trial_index":96,"plugin_version":"2.1.0","time_elapsed":269292,"subject_id":"88970","group":"Group1","full_date":"2025-11-11T20:52:56.082Z","date":"2025-11-11","time":"20:52:56"},{"task":"memory_phase","broad_category":"M","image_png":"M_Quartzite_05.png","image_id":277,"category_name":"Quartzite","category":18,"distinct_rating":2.23,"distinct_type":"Bottom","rt":null,"stimulus":"Stimuli_Rocks480/M_Quartzite_05.png","response":null,"trial_type":"image-keyboard-response","trial_index":97,"plugin_version":"2.1.0","time_elapsed":271809,"subject_id":"88970","group":"Group1","full_date":"2025-11-11T20:52:56.082Z","date":"2025-11-11","time":"20:52:56"},{"rt":null,"stimulus":"<p style=\"font-size: 50px; margin: 0; text-align: center;\">+</p>","response":null,"trial_type":"html-keyboard-response","trial_index":98,"plugin_version":"2.1.0","time_elapsed":272811,"subject_id":"88970","group":"Group1","full_date":"2025-11-11T20:52:56.082Z","date":"2025-11-11","time":"20:52:56"},{"task":"memory_phase","broad_category":"S","image_png":"S_Shale_08.png","image_id":472,"category_name":"Shale","category":30,"distinct_rating":2.55,"distinct_type":"Bottom","rt":null,"stimulus":"Stimuli_Rocks480/S_Shale_08.png","response":null,"trial_type":"image-keyboard-response","trial_index":99,"plugin_version":"2.1.0","time_elapsed":275328,"subject_id":"88970","group":"Group1","full_date":"2025-11-11T20:52:56.082Z","date":"2025-11-11","time":"20:52:56"},{"rt":null,"stimulus":"<p style=\"font-size: 50px; margin: 0; text-align: center;\">+</p>","response":null,"trial_type":"html-keyboard-response","trial_index":100,"plugin_version":"2.1.0","time_elapsed":276329,"subject_id":"88970","group":"Group1","full_date":"2025-11-11T20:52:56.082Z","date":"2025-11-11","time":"20:52:56"},{"task":"memory_phase","broad_category":"M","image_png":"M_Marble_04.png","image_id":228,"category_name":"Marble","category":15,"distinct_rating":3.15,"distinct_type":"Bottom","rt":null,"stimulus":"Stimuli_Rocks480/M_Marble_04.png","response":null,"trial_type":"image-keyboard-response","trial_index":101,"plugin_version":"2.1.0","time_elapsed":278844,"subject_id":"88970","group":"Group1","full_date":"2025-11-11T20:52:56.082Z","date":"2025-11-11","time":"20:52:56"},{"rt":null,"stimulus":"<p style=\"font-size: 50px; margin: 0; text-align: center;\">+</p>","response":null,"trial_type":"html-keyboard-response","trial_index":102,"plugin_version":"2.1.0","time_elapsed":279846,"subject_id":"88970","group":"Group1","full_date":"2025-11-11T20:52:56.082Z","date":"2025-11-11","time":"20:52:56"},{"task":"memory_phase","broad_category":"S","image_png":"S_Dolomite_12.png","image_id":396,"category_name":"Dolomite","category":25,"distinct_rating":1.85,"distinct_type":"Bottom","rt":null,"stimulus":"Stimuli_Rocks480/S_Dolomite_12.png","response":null,"trial_type":"image-keyboard-response","trial_index":103,"plugin_version":"2.1.0","time_elapsed":282360,"subject_id":"88970","group":"Group1","full_date":"2025-11-11T20:52:56.082Z","date":"2025-11-11","time":"20:52:56"},{"rt":null,"stimulus":"<p style=\"font-size: 50px; margin: 0; text-align: center;\">+</p>","response":null,"trial_type":"html-keyboard-response","trial_index":104,"plugin_version":"2.1.0","time_elapsed":283362,"subject_id":"88970","group":"Group1","full_date":"2025-11-11T20:52:56.082Z","date":"2025-11-11","time":"20:52:56"},{"task":"memory_phase","broad_category":"S","image_png":"S_Dolomite_13.png","image_id":397,"category_name":"Dolomite","category":25,"distinct_rating":1.77,"distinct_type":"Bottom","rt":null,"stimulus":"Stimuli_Rocks480/S_Dolomite_13.png","response":null,"trial_type":"image-keyboard-response","trial_index":105,"plugin_version":"2.1.0","time_elapsed":285877,"subject_id":"88970","group":"Group1","full_date":"2025-11-11T20:52:56.082Z","date":"2025-11-11","time":"20:52:56"},{"rt":17485,"stimulus":"<div style=\"max-width: 760px; margin: auto; font-size: 20px; line-height: 1.5;\">\n      <h1 style=\"text-align:center; font-size: 30px;\">Instructions for the Test Phase</h1>\n      <p>\n        The study phase is now complete.\n      </p>\n      <p>\n        In the test phase, you will again see a series of rock images. \n        Some will be ones you saw before - during the study phase, while others will be new.  \n        <b>Your task</b> is to decide whether you have seen each image before by pressing the corresponding key on your keyboard:<br><br>\n          <b>A</b> - NO (you did not see this image before)<br>\n          <b>L</b> - YES (you saw this image before)<br><br>\n        The test will proceed at your own pace. You will receive feedback after each response.  \n        Please try to respond <b>as accurately as possible</b>.\n      </p>\n      <p>\n        <b>Reminder:</b> If your computer has multiple language settings (e.g., English and another language),\n        please ensure it is set to English during the test phase.\n      </p>\n      <p>\n        You can track your progress using the <b>completion bar</b> at the top of the screen.  \n        Note that it has been refreshed to reflect your progress during this final phase.\n      </p>\n      <p>\n        Press the button below when you are ready to continue.\n      </p>\n    </div>","response":0,"trial_type":"html-button-response","trial_index":106,"plugin_version":"2.1.0","time_elapsed":303365,"subject_id":"88970","group":"Group1","full_date":"2025-11-11T20:52:56.082Z","date":"2025-11-11","time":"20:52:56"},{"correct_response":"a","task":"test_phase","broad_category":"M","image_png":"M_Quartzite_12.png","image_id":284,"category_name":"Quartzite","category":18,"distinct_rating":1.92,"distinct_type":"Bottom","item_type":"Foil","rt":2423,"stimulus":"Stimuli_Rocks480/M_Quartzite_12.png","response":"a","trial_type":"image-keyboard-response","trial_index":107,"plugin_version":"2.1.0","time_elapsed":305801,"subject_id":"88970","group":"Group1","full_date":"2025-11-11T20:52:56.082Z","date":"2025-11-11","time":"20:52:56","cor_ans":true},{"trial_type":"html-keyboard-response","rt":null,"stimulus":"<p style=\"color: green; font-size: 50px; font-weight: bold;\">Correct</p>","response":null,"trial_index":108,"plugin_version":"2.1.0","time_elapsed":306304,"subject_id":"88970","group":"Group1","full_date":"2025-11-11T20:52:56.082Z","date":"2025-11-11","time":"20:52:56"},{"correct_response":"a","task":"test_phase","broad_category":"I","image_png":"I_Andesite_09.png","image_id":9,"category_name":"Andesite","category":1,"distinct_rating":2.49,"distinct_type":"Bottom","item_type":"Foil","rt":1832,"stimulus":"Stimuli_Rocks480/I_Andesite_09.png","response":"a","trial_type":"image-keyboard-response","trial_index":109,"plugin_version":"2.1.0","time_elapsed":308150,"subject_id":"88970","group":"Group1","full_date":"2025-11-11T20:52:56.082Z","date":"2025-11-11","time":"20:52:56","cor_ans":true},{"trial_type":"html-keyboard-response","rt":null,"stimulus":"<p style=\"color: green; font-size: 50px; font-weight: bold;\">Correct</p>","response":null,"trial_index":110,"plugin_version":"2.1.0","time_elapsed":308652,"subject_id":"88970","group":"Group1","full_date":"2025-11-11T20:52:56.082Z","date":"2025-11-11","time":"20:52:56"},{"correct_response":"a","task":"test_phase","broad_category":"M","image_png":"M_Slate_14.png","image_id":318,"category_name":"Slate","category":20,"distinct_rating":2.58,"distinct_type":"Bottom","item_type":"Foil","rt":1088,"stimulus":"Stimuli_Rocks480/M_Slate_14.png","response":"a","trial_type":"image-keyboard-response","trial_index":111,"plugin_version":"2.1.0","time_elapsed":309750,"subject_id":"88970","group":"Group1","full_date":"2025-11-11T20:52:56.082Z","date":"2025-11-11","time":"20:52:56","cor_ans":true},{"trial_type":"html-keyboard-response","rt":null,"stimulus":"<p style=\"color: green; font-size: 50px; font-weight: bold;\">Correct</p>","response":null,"trial_index":112,"plugin_version":"2.1.0","time_elapsed":310252,"subject_id":"88970","group":"Group1","full_date":"2025-11-11T20:52:56.082Z","date":"2025-11-11","time":"20:52:56"},{"correct_response":"a","task":"test_phase","broad_category":"M","image_png":"M_Gneiss_15.png","image_id":207,"category_name":"Gneiss","category":13,"distinct_rating":3.11,"distinct_type":"Bottom","item_type":"Foil","rt":6700,"stimulus":"Stimuli_Rocks480/M_Gneiss_15.png","response":"l","trial_type":"image-keyboard-response","trial_index":113,"plugin_version":"2.1.0","time_elapsed":316964,"subject_id":"88970","group":"Group1","full_date":"2025-11-11T20:52:56.082Z","date":"2025-11-11","time":"20:52:56","cor_ans":false},{"trial_type":"html-keyboard-response","rt":null,"stimulus":"<p style=\"color: red; font-size: 50px; font-weight: bold;\">Incorrect</p>","response":null,"trial_index":114,"plugin_version":"2.1.0","time_elapsed":317467,"subject_id":"88970","group":"Group1","full_date":"2025-11-11T20:52:56.082Z","date":"2025-11-11","time":"20:52:56"},{"correct_response":"l","task":"test_phase","broad_category":"I","image_png":"I_Diorite_03.png","image_id":35,"category_name":"Diorite","category":3,"distinct_rating":3.14,"distinct_type":"Bottom","item_type":"Target","rt":2411,"stimulus":"Stimuli_Rocks480/I_Diorite_03.png","response":"a","trial_type":"image-keyboard-response","trial_index":115,"plugin_version":"2.1.0","time_elapsed":319895,"subject_id":"88970","group":"Group1","full_date":"2025-11-11T20:52:56.082Z","date":"2025-11-11","time":"20:52:56","cor_ans":false},{"trial_type":"html-keyboard-response","rt":null,"stimulus":"<p style=\"color: red; font-size: 50px; font-weight: bold;\">Incorrect</p>","response":null,"trial_index":116,"plugin_version":"2.1.0","time_elapsed":320398,"subject_id":"88970","group":"Group1","full_date":"2025-11-11T20:52:56.082Z","date":"2025-11-11","time":"20:52:56"},{"correct_response":"l","task":"test_phase","broad_category":"S","image_png":"S_Shale_08.png","image_id":472,"category_name":"Shale","category":30,"distinct_rating":2.55,"distinct_type":"Bottom","item_type":"Target","rt":1276,"stimulus":"Stimuli_Rocks480/S_Shale_08.png","response":"l","trial_type":"image-keyboard-response","trial_index":117,"plugin_version":"2.1.0","time_elapsed":321676,"subject_id":"88970","group":"Group1","full_date":"2025-11-11T20:52:56.082Z","date":"2025-11-11","time":"20:52:56","cor_ans":true},{"trial_type":"html-keyboard-response","rt":null,"stimulus":"<p style=\"color: green; font-size: 50px; font-weight: bold;\">Correct</p>","response":null,"trial_index":118,"plugin_version":"2.1.0","time_elapsed":322178,"subject_id":"88970","group":"Group1","full_date":"2025-11-11T20:52:56.082Z","date":"2025-11-11","time":"20:52:56"},{"correct_response":"l","task":"test_phase","broad_category":"S","image_png":"S_Rock Salt_01.png","image_id":433,"category_name":"Rock Salt","category":28,"distinct_rating":7.18,"distinct_type":"Top","item_type":"Target","rt":1017,"stimulus":"Stimuli_Rocks480/S_Rock Salt_01.png","response":"l","trial_type":"image-keyboard-response","trial_index":119,"plugin_version":"2.1.0","time_elapsed":323210,"subject_id":"88970","group":"Group1","full_date":"2025-11-11T20:52:56.082Z","date":"2025-11-11","time":"20:52:56","cor_ans":true},{"trial_type":"html-keyboard-response","rt":null,"stimulus":"<p style=\"color: green; font-size: 50px; font-weight: bold;\">Correct</p>","response":null,"trial_index":120,"plugin_version":"2.1.0","time_elapsed":323712,"subject_id":"88970","group":"Group1","full_date":"2025-11-11T20:52:56.082Z","date":"2025-11-11","time":"20:52:56"},{"correct_response":"a","task":"test_phase","broad_category":"I","image_png":"I_Basalt_13.png","image_id":29,"category_name":"Basalt","category":2,"distinct_rating":2.68,"distinct_type":"Bottom","item_type":"Foil","rt":1764,"stimulus":"Stimuli_Rocks480/I_Basalt_13.png","response":"a","trial_type":"image-keyboard-response","trial_index":121,"plugin_version":"2.1.0","time_elapsed":325489,"subject_id":"88970","group":"Group1","full_date":"2025-11-11T20:52:56.082Z","date":"2025-11-11","time":"20:52:56","cor_ans":true},{"trial_type":"html-keyboard-response","rt":null,"stimulus":"<p style=\"color: green; font-size: 50px; font-weight: bold;\">Correct</p>","response":null,"trial_index":122,"plugin_version":"2.1.0","time_elapsed":325991,"subject_id":"88970","group":"Group1","full_date":"2025-11-11T20:52:56.082Z","date":"2025-11-11","time":"20:52:56"},{"correct_response":"a","task":"test_phase","broad_category":"S","image_png":"S_Shale_03.png","image_id":467,"category_name":"Shale","category":30,"distinct_rating":1.95,"distinct_type":"Bottom","item_type":"Foil","rt":956,"stimulus":"Stimuli_Rocks480/S_Shale_03.png","response":"l","trial_type":"image-keyboard-response","trial_index":123,"plugin_version":"2.1.0","time_elapsed":326963,"subject_id":"88970","group":"Group1","full_date":"2025-11-11T20:52:56.082Z","date":"2025-11-11","time":"20:52:56","cor_ans":false},{"trial_type":"html-keyboard-response","rt":null,"stimulus":"<p style=\"color: red; font-size: 50px; font-weight: bold;\">Incorrect</p>","response":null,"trial_index":124,"plugin_version":"2.1.0","time_elapsed":327466,"subject_id":"88970","group":"Group1","full_date":"2025-11-11T20:52:56.082Z","date":"2025-11-11","time":"20:52:56"},{"correct_response":"l","task":"test_phase","broad_category":"M","image_png":"M_Gneiss_06.png","image_id":198,"category_name":"Gneiss","category":13,"distinct_rating":2.65,"distinct_type":"Bottom","item_type":"Target","rt":1000,"stimulus":"Stimuli_Rocks480/M_Gneiss_06.png","response":"l","trial_type":"image-keyboard-response","trial_index":125,"plugin_version":"2.1.0","time_elapsed":328481,"subject_id":"88970","group":"Group1","full_date":"2025-11-11T20:52:56.082Z","date":"2025-11-11","time":"20:52:56","cor_ans":true},{"trial_type":"html-keyboard-response","rt":null,"stimulus":"<p style=\"color: green; font-size: 50px; font-weight: bold;\">Correct</p>","response":null,"trial_index":126,"plugin_version":"2.1.0","time_elapsed":328983,"subject_id":"88970","group":"Group1","full_date":"2025-11-11T20:52:56.082Z","date":"2025-11-11","time":"20:52:56"},{"correct_response":"a","task":"test_phase","broad_category":"I","image_png":"I_Diorite_10.png","image_id":42,"category_name":"Diorite","category":3,"distinct_rating":2.84,"distinct_type":"Bottom","item_type":"Foil","rt":854,"stimulus":"Stimuli_Rocks480/I_Diorite_10.png","response":"l","trial_type":"image-keyboard-response","trial_index":127,"plugin_version":"2.1.0","time_elapsed":329853,"subject_id":"88970","group":"Group1","full_date":"2025-11-11T20:52:56.082Z","date":"2025-11-11","time":"20:52:56","cor_ans":false},{"trial_type":"html-keyboard-response","rt":null,"stimulus":"<p style=\"color: red; font-size: 50px; font-weight: bold;\">Incorrect</p>","response":null,"trial_index":128,"plugin_version":"2.1.0","time_elapsed":330356,"subject_id":"88970","group":"Group1","full_date":"2025-11-11T20:52:56.082Z","date":"2025-11-11","time":"20:52:56"},{"correct_response":"a","task":"test_phase","broad_category":"M","image_png":"M_Phyllite_02.png","image_id":258,"category_name":"Phyllite","category":17,"distinct_rating":2.89,"distinct_type":"Bottom","item_type":"Foil","rt":2025,"stimulus":"Stimuli_Rocks480/M_Phyllite_02.png","response":"l","trial_type":"image-keyboard-response","trial_index":129,"plugin_version":"2.1.0","time_elapsed":332396,"subject_id":"88970","group":"Group1","full_date":"2025-11-11T20:52:56.082Z","date":"2025-11-11","time":"20:52:56","cor_ans":false},{"trial_type":"html-keyboard-response","rt":null,"stimulus":"<p style=\"color: red; font-size: 50px; font-weight: bold;\">Incorrect</p>","response":null,"trial_index":130,"plugin_version":"2.1.0","time_elapsed":332898,"subject_id":"88970","group":"Group1","full_date":"2025-11-11T20:52:56.082Z","date":"2025-11-11","time":"20:52:56"},{"correct_response":"l","task":"test_phase","broad_category":"M","image_png":"M_Slate_15.png","image_id":319,"category_name":"Slate","category":20,"distinct_rating":2.13,"distinct_type":"Bottom","item_type":"Target","rt":1101,"stimulus":"Stimuli_Rocks480/M_Slate_15.png","response":"l","trial_type":"image-keyboard-response","trial_index":131,"plugin_version":"2.1.0","time_elapsed":334009,"subject_id":"88970","group":"Group1","full_date":"2025-11-11T20:52:56.082Z","date":"2025-11-11","time":"20:52:56","cor_ans":true},{"trial_type":"html-keyboard-response","rt":null,"stimulus":"<p style=\"color: green; font-size: 50px; font-weight: bold;\">Correct</p>","response":null,"trial_index":132,"plugin_version":"2.1.0","time_elapsed":334512,"subject_id":"88970","group":"Group1","full_date":"2025-11-11T20:52:56.082Z","date":"2025-11-11","time":"20:52:56"},{"correct_response":"l","task":"test_phase","broad_category":"M","image_png":"M_Gneiss_05.png","image_id":197,"category_name":"Gneiss","category":13,"distinct_rating":2.97,"distinct_type":"Bottom","item_type":"Target","rt":950,"stimulus":"Stimuli_Rocks480/M_Gneiss_05.png","response":"l","trial_type":"image-keyboard-response","trial_index":133,"plugin_version":"2.1.0","time_elapsed":335482,"subject_id":"88970","group":"Group1","full_date":"2025-11-11T20:52:56.082Z","date":"2025-11-11","time":"20:52:56","cor_ans":true},{"trial_type":"html-keyboard-response","rt":null,"stimulus":"<p style=\"color: green; font-size: 50px; font-weight: bold;\">Correct</p>","response":null,"trial_index":134,"plugin_version":"2.1.0","time_elapsed":335984,"subject_id":"88970","group":"Group1","full_date":"2025-11-11T20:52:56.082Z","date":"2025-11-11","time":"20:52:56"},{"correct_response":"l","task":"test_phase","broad_category":"I","image_png":"I_Gabbro_16.png","image_id":64,"category_name":"Gabbro","category":4,"distinct_rating":2.52,"distinct_type":"Bottom","item_type":"Target","rt":819,"stimulus":"Stimuli_Rocks480/I_Gabbro_16.png","response":"l","trial_type":"image-keyboard-response","trial_index":135,"plugin_version":"2.1.0","time_elapsed":336816,"subject_id":"88970","group":"Group1","full_date":"2025-11-11T20:52:56.082Z","date":"2025-11-11","time":"20:52:56","cor_ans":true},{"trial_type":"html-keyboard-response","rt":null,"stimulus":"<p style=\"color: green; font-size: 50px; font-weight: bold;\">Correct</p>","response":null,"trial_index":136,"plugin_version":"2.1.0","time_elapsed":337319,"subject_id":"88970","group":"Group1","full_date":"2025-11-11T20:52:56.082Z","date":"2025-11-11","time":"20:52:56"},{"correct_response":"a","task":"test_phase","broad_category":"M","image_png":"M_Phyllite_05.png","image_id":261,"category_name":"Phyllite","category":17,"distinct_rating":2.14,"distinct_type":"Bottom","item_type":"Foil","rt":1308,"stimulus":"Stimuli_Rocks480/M_Phyllite_05.png","response":"l","trial_type":"image-keyboard-response","trial_index":137,"plugin_version":"2.1.0","time_elapsed":338637,"subject_id":"88970","group":"Group1","full_date":"2025-11-11T20:52:56.082Z","date":"2025-11-11","time":"20:52:56","cor_ans":false},{"trial_type":"html-keyboard-response","rt":null,"stimulus":"<p style=\"color: red; font-size: 50px; font-weight: bold;\">Incorrect</p>","response":null,"trial_index":138,"plugin_version":"2.1.0","time_elapsed":339139,"subject_id":"88970","group":"Group1","full_date":"2025-11-11T20:52:56.082Z","date":"2025-11-11","time":"20:52:56"},{"correct_response":"l","task":"test_phase","broad_category":"S","image_png":"S_Chert_10.png","image_id":362,"category_name":"Chert","category":23,"distinct_rating":7.17,"distinct_type":"Top","item_type":"Target","rt":1091,"stimulus":"Stimuli_Rocks480/S_Chert_10.png","response":"l","trial_type":"image-keyboard-response","trial_index":139,"plugin_version":"2.1.0","time_elapsed":340244,"subject_id":"88970","group":"Group1","full_date":"2025-11-11T20:52:56.082Z","date":"2025-11-11","time":"20:52:56","cor_ans":true},{"trial_type":"html-keyboard-response","rt":null,"stimulus":"<p style=\"color: green; font-size: 50px; font-weight: bold;\">Correct</p>","response":null,"trial_index":140,"plugin_version":"2.1.0","time_elapsed":340746,"subject_id":"88970","group":"Group1","full_date":"2025-11-11T20:52:56.082Z","date":"2025-11-11","time":"20:52:56"},{"correct_response":"a","task":"test_phase","broad_category":"S","image_png":"S_Shale_07.png","image_id":471,"category_name":"Shale","category":30,"distinct_rating":2.73,"distinct_type":"Bottom","item_type":"Foil","rt":1745,"stimulus":"Stimuli_Rocks480/S_Shale_07.png","response":"a","trial_type":"image-keyboard-response","trial_index":141,"plugin_version":"2.1.0","time_elapsed":342503,"subject_id":"88970","group":"Group1","full_date":"2025-11-11T20:52:56.082Z","date":"2025-11-11","time":"20:52:56","cor_ans":true},{"trial_type":"html-keyboard-response","rt":null,"stimulus":"<p style=\"color: green; font-size: 50px; font-weight: bold;\">Correct</p>","response":null,"trial_index":142,"plugin_version":"2.1.0","time_elapsed":343006,"subject_id":"88970","group":"Group1","full_date":"2025-11-11T20:52:56.082Z","date":"2025-11-11","time":"20:52:56"},{"correct_response":"l","task":"test_phase","broad_category":"I","image_png":"I_Gabbro_08.png","image_id":56,"category_name":"Gabbro","category":4,"distinct_rating":3.02,"distinct_type":"Bottom","item_type":"Target","rt":1442,"stimulus":"Stimuli_Rocks480/I_Gabbro_08.png","response":"l","trial_type":"image-keyboard-response","trial_index":143,"plugin_version":"2.1.0","time_elapsed":344458,"subject_id":"88970","group":"Group1","full_date":"2025-11-11T20:52:56.082Z","date":"2025-11-11","time":"20:52:56","cor_ans":true},{"trial_type":"html-keyboard-response","rt":null,"stimulus":"<p style=\"color: green; font-size: 50px; font-weight: bold;\">Correct</p>","response":null,"trial_index":144,"plugin_version":"2.1.0","time_elapsed":344960,"subject_id":"88970","group":"Group1","full_date":"2025-11-11T20:52:56.082Z","date":"2025-11-11","time":"20:52:56"},{"correct_response":"l","task":"test_phase","broad_category":"S","image_png":"S_Dolomite_12.png","image_id":396,"category_name":"Dolomite","category":25,"distinct_rating":1.85,"distinct_type":"Bottom","item_type":"Target","rt":970,"stimulus":"Stimuli_Rocks480/S_Dolomite_12.png","response":"l","trial_type":"image-keyboard-response","trial_index":145,"plugin_version":"2.1.0","time_elapsed":345932,"subject_id":"88970","group":"Group1","full_date":"2025-11-11T20:52:56.082Z","date":"2025-11-11","time":"20:52:56","cor_ans":true},{"trial_type":"html-keyboard-response","rt":null,"stimulus":"<p style=\"color: green; font-size: 50px; font-weight: bold;\">Correct</p>","response":null,"trial_index":146,"plugin_version":"2.1.0","time_elapsed":346434,"subject_id":"88970","group":"Group1","full_date":"2025-11-11T20:52:56.082Z","date":"2025-11-11","time":"20:52:56"},{"correct_response":"a","task":"test_phase","broad_category":"M","image_png":"M_Marble_03.png","image_id":227,"category_name":"Marble","category":15,"distinct_rating":2.67,"distinct_type":"Bottom","item_type":"Foil","rt":1662,"stimulus":"Stimuli_Rocks480/M_Marble_03.png","response":"a","trial_type":"image-keyboard-response","trial_index":147,"plugin_version":"2.1.0","time_elapsed":348110,"subject_id":"88970","group":"Group1","full_date":"2025-11-11T20:52:56.082Z","date":"2025-11-11","time":"20:52:56","cor_ans":true},{"trial_type":"html-keyboard-response","rt":null,"stimulus":"<p style=\"color: green; font-size: 50px; font-weight: bold;\">Correct</p>","response":null,"trial_index":148,"plugin_version":"2.1.0","time_elapsed":348612,"subject_id":"88970","group":"Group1","full_date":"2025-11-11T20:52:56.082Z","date":"2025-11-11","time":"20:52:56"},{"correct_response":"l","task":"test_phase","broad_category":"S","image_png":"S_Conglomerate_05.png","image_id":373,"category_name":"Conglomerate","category":24,"distinct_rating":7.32,"distinct_type":"Top","item_type":"Target","rt":2204,"stimulus":"Stimuli_Rocks480/S_Conglomerate_05.png","response":"a","trial_type":"image-keyboard-response","trial_index":149,"plugin_version":"2.1.0","time_elapsed":350829,"subject_id":"88970","group":"Group1","full_date":"2025-11-11T20:52:56.082Z","date":"2025-11-11","time":"20:52:56","cor_ans":false},{"trial_type":"html-keyboard-response","rt":null,"stimulus":"<p style=\"color: red; font-size: 50px; font-weight: bold;\">Incorrect</p>","response":null,"trial_index":150,"plugin_version":"2.1.0","time_elapsed":351332,"subject_id":"88970","group":"Group1","full_date":"2025-11-11T20:52:56.082Z","date":"2025-11-11","time":"20:52:56"},{"correct_response":"l","task":"test_phase","broad_category":"I","image_png":"I_Diorite_04.png","image_id":36,"category_name":"Diorite","category":3,"distinct_rating":2.98,"distinct_type":"Bottom","item_type":"Target","rt":959,"stimulus":"Stimuli_Rocks480/I_Diorite_04.png","response":"l","trial_type":"image-keyboard-response","trial_index":151,"plugin_version":"2.1.0","time_elapsed":352305,"subject_id":"88970","group":"Group1","full_date":"2025-11-11T20:52:56.082Z","date":"2025-11-11","time":"20:52:56","cor_ans":true},{"trial_type":"html-keyboard-response","rt":null,"stimulus":"<p style=\"color: green; font-size: 50px; font-weight: bold;\">Correct</p>","response":null,"trial_index":152,"plugin_version":"2.1.0","time_elapsed":352807,"subject_id":"88970","group":"Group1","full_date":"2025-11-11T20:52:56.082Z","date":"2025-11-11","time":"20:52:56"},{"correct_response":"a","task":"test_phase","broad_category":"S","image_png":"S_Shale_02.png","image_id":466,"category_name":"Shale","category":30,"distinct_rating":2.9,"distinct_type":"Bottom","item_type":"Foil","rt":1576,"stimulus":"Stimuli_Rocks480/S_Shale_02.png","response":"l","trial_type":"image-keyboard-response","trial_index":153,"plugin_version":"2.1.0","time_elapsed":354396,"subject_id":"88970","group":"Group1","full_date":"2025-11-11T20:52:56.082Z","date":"2025-11-11","time":"20:52:56","cor_ans":false},{"trial_type":"html-keyboard-response","rt":null,"stimulus":"<p style=\"color: red; font-size: 50px; font-weight: bold;\">Incorrect</p>","response":null,"trial_index":154,"plugin_version":"2.1.0","time_elapsed":354899,"subject_id":"88970","group":"Group1","full_date":"2025-11-11T20:52:56.082Z","date":"2025-11-11","time":"20:52:56"},{"correct_response":"a","task":"test_phase","broad_category":"I","image_png":"I_Basalt_08.png","image_id":24,"category_name":"Basalt","category":2,"distinct_rating":2.31,"distinct_type":"Bottom","item_type":"Foil","rt":895,"stimulus":"Stimuli_Rocks480/I_Basalt_08.png","response":"l","trial_type":"image-keyboard-response","trial_index":155,"plugin_version":"2.1.0","time_elapsed":355813,"subject_id":"88970","group":"Group1","full_date":"2025-11-11T20:52:56.082Z","date":"2025-11-11","time":"20:52:56","cor_ans":false},{"trial_type":"html-keyboard-response","rt":null,"stimulus":"<p style=\"color: red; font-size: 50px; font-weight: bold;\">Incorrect</p>","response":null,"trial_index":156,"plugin_version":"2.1.0","time_elapsed":356315,"subject_id":"88970","group":"Group1","full_date":"2025-11-11T20:52:56.082Z","date":"2025-11-11","time":"20:52:56"},{"correct_response":"a","task":"test_phase","broad_category":"I","image_png":"I_Diorite_01.png","image_id":33,"category_name":"Diorite","category":3,"distinct_rating":2.97,"distinct_type":"Bottom","item_type":"Foil","rt":1279,"stimulus":"Stimuli_Rocks480/I_Diorite_01.png","response":"a","trial_type":"image-keyboard-response","trial_index":157,"plugin_version":"2.1.0","time_elapsed":357612,"subject_id":"88970","group":"Group1","full_date":"2025-11-11T20:52:56.082Z","date":"2025-11-11","time":"20:52:56","cor_ans":true},{"trial_type":"html-keyboard-response","rt":null,"stimulus":"<p style=\"color: green; font-size: 50px; font-weight: bold;\">Correct</p>","response":null,"trial_index":158,"plugin_version":"2.1.0","time_elapsed":358115,"subject_id":"88970","group":"Group1","full_date":"2025-11-11T20:52:56.082Z","date":"2025-11-11","time":"20:52:56"},{"correct_response":"l","task":"test_phase","broad_category":"M","image_png":"M_Phyllite_07.png","image_id":263,"category_name":"Phyllite","category":17,"distinct_rating":2.59,"distinct_type":"Bottom","item_type":"Target","rt":818,"stimulus":"Stimuli_Rocks480/M_Phyllite_07.png","response":"l","trial_type":"image-keyboard-response","trial_index":159,"plugin_version":"2.1.0","time_elapsed":358943,"subject_id":"88970","group":"Group1","full_date":"2025-11-11T20:52:56.082Z","date":"2025-11-11","time":"20:52:56","cor_ans":true},{"trial_type":"html-keyboard-response","rt":null,"stimulus":"<p style=\"color: green; font-size: 50px; font-weight: bold;\">Correct</p>","response":null,"trial_index":160,"plugin_version":"2.1.0","time_elapsed":359445,"subject_id":"88970","group":"Group1","full_date":"2025-11-11T20:52:56.082Z","date":"2025-11-11","time":"20:52:56"},{"correct_response":"l","task":"test_phase","broad_category":"I","image_png":"I_Gabbro_11.png","image_id":59,"category_name":"Gabbro","category":4,"distinct_rating":1.99,"distinct_type":"Bottom","item_type":"Target","rt":1207,"stimulus":"Stimuli_Rocks480/I_Gabbro_11.png","response":"a","trial_type":"image-keyboard-response","trial_index":161,"plugin_version":"2.1.0","time_elapsed":360662,"subject_id":"88970","group":"Group1","full_date":"2025-11-11T20:52:56.082Z","date":"2025-11-11","time":"20:52:56","cor_ans":false},{"trial_type":"html-keyboard-response","rt":null,"stimulus":"<p style=\"color: red; font-size: 50px; font-weight: bold;\">Incorrect</p>","response":null,"trial_index":162,"plugin_version":"2.1.0","time_elapsed":361165,"subject_id":"88970","group":"Group1","full_date":"2025-11-11T20:52:56.082Z","date":"2025-11-11","time":"20:52:56"},{"correct_response":"l","task":"test_phase","broad_category":"M","image_png":"M_Quartzite_13.png","image_id":285,"category_name":"Quartzite","category":18,"distinct_rating":2.27,"distinct_type":"Bottom","item_type":"Target","rt":755,"stimulus":"Stimuli_Rocks480/M_Quartzite_13.png","response":"l","trial_type":"image-keyboard-response","trial_index":163,"plugin_version":"2.1.0","time_elapsed":361935,"subject_id":"88970","group":"Group1","full_date":"2025-11-11T20:52:56.082Z","date":"2025-11-11","time":"20:52:56","cor_ans":true},{"trial_type":"html-keyboard-response","rt":null,"stimulus":"<p style=\"color: green; font-size: 50px; font-weight: bold;\">Correct</p>","response":null,"trial_index":164,"plugin_version":"2.1.0","time_elapsed":362438,"subject_id":"88970","group":"Group1","full_date":"2025-11-11T20:52:56.082Z","date":"2025-11-11","time":"20:52:56"},{"correct_response":"l","task":"test_phase","broad_category":"M","image_png":"M_Phyllite_10.png","image_id":266,"category_name":"Phyllite","category":17,"distinct_rating":2.6,"distinct_type":"Bottom","item_type":"Target","rt":1020,"stimulus":"Stimuli_Rocks480/M_Phyllite_10.png","response":"l","trial_type":"image-keyboard-response","trial_index":165,"plugin_version":"2.1.0","time_elapsed":363470,"subject_id":"88970","group":"Group1","full_date":"2025-11-11T20:52:56.082Z","date":"2025-11-11","time":"20:52:56","cor_ans":true},{"trial_type":"html-keyboard-response","rt":null,"stimulus":"<p style=\"color: green; font-size: 50px; font-weight: bold;\">Correct</p>","response":null,"trial_index":166,"plugin_version":"2.1.0","time_elapsed":363972,"subject_id":"88970","group":"Group1","full_date":"2025-11-11T20:52:56.082Z","date":"2025-11-11","time":"20:52:56"},{"correct_response":"l","task":"test_phase","broad_category":"I","image_png":"I_Pegmatite_16.png","image_id":112,"category_name":"Pegmatite","category":7,"distinct_rating":7.03,"distinct_type":"Top","item_type":"Target","rt":2237,"stimulus":"Stimuli_Rocks480/I_Pegmatite_16.png","response":"l","trial_type":"image-keyboard-response","trial_index":167,"plugin_version":"2.1.0","time_elapsed":366224,"subject_id":"88970","group":"Group1","full_date":"2025-11-11T20:52:56.082Z","date":"2025-11-11","time":"20:52:56","cor_ans":true},{"trial_type":"html-keyboard-response","rt":null,"stimulus":"<p style=\"color: green; font-size: 50px; font-weight: bold;\">Correct</p>","response":null,"trial_index":168,"plugin_version":"2.1.0","time_elapsed":366726,"subject_id":"88970","group":"Group1","full_date":"2025-11-11T20:52:56.082Z","date":"2025-11-11","time":"20:52:56"},{"correct_response":"a","task":"test_phase","broad_category":"M","image_png":"M_Gneiss_10.png","image_id":202,"category_name":"Gneiss","category":13,"distinct_rating":3.09,"distinct_type":"Bottom","item_type":"Foil","rt":936,"stimulus":"Stimuli_Rocks480/M_Gneiss_10.png","response":"l","trial_type":"image-keyboard-response","trial_index":169,"plugin_version":"2.1.0","time_elapsed":367676,"subject_id":"88970","group":"Group1","full_date":"2025-11-11T20:52:56.082Z","date":"2025-11-11","time":"20:52:56","cor_ans":false},{"trial_type":"html-keyboard-response","rt":null,"stimulus":"<p style=\"color: red; font-size: 50px; font-weight: bold;\">Incorrect</p>","response":null,"trial_index":170,"plugin_version":"2.1.0","time_elapsed":368179,"subject_id":"88970","group":"Group1","full_date":"2025-11-11T20:52:56.082Z","date":"2025-11-11","time":"20:52:56"},{"correct_response":"a","task":"test_phase","broad_category":"M","image_png":"M_Quartzite_07.png","image_id":279,"category_name":"Quartzite","category":18,"distinct_rating":1.97,"distinct_type":"Bottom","item_type":"Foil","rt":816,"stimulus":"Stimuli_Rocks480/M_Quartzite_07.png","response":"l","trial_type":"image-keyboard-response","trial_index":171,"plugin_version":"2.1.0","time_elapsed":369010,"subject_id":"88970","group":"Group1","full_date":"2025-11-11T20:52:56.082Z","date":"2025-11-11","time":"20:52:56","cor_ans":false},{"trial_type":"html-keyboard-response","rt":null,"stimulus":"<p style=\"color: red; font-size: 50px; font-weight: bold;\">Incorrect</p>","response":null,"trial_index":172,"plugin_version":"2.1.0","time_elapsed":369513,"subject_id":"88970","group":"Group1","full_date":"2025-11-11T20:52:56.082Z","date":"2025-11-11","time":"20:52:56"},{"correct_response":"a","task":"test_phase","broad_category":"S","image_png":"S_Dolomite_16.png","image_id":400,"category_name":"Dolomite","category":25,"distinct_rating":1.71,"distinct_type":"Bottom","item_type":"Foil","rt":1349,"stimulus":"Stimuli_Rocks480/S_Dolomite_16.png","response":"l","trial_type":"image-keyboard-response","trial_index":173,"plugin_version":"2.1.0","time_elapsed":370874,"subject_id":"88970","group":"Group1","full_date":"2025-11-11T20:52:56.082Z","date":"2025-11-11","time":"20:52:56","cor_ans":false},{"trial_type":"html-keyboard-response","rt":null,"stimulus":"<p style=\"color: red; font-size: 50px; font-weight: bold;\">Incorrect</p>","response":null,"trial_index":174,"plugin_version":"2.1.0","time_elapsed":371377,"subject_id":"88970","group":"Group1","full_date":"2025-11-11T20:52:56.082Z","date":"2025-11-11","time":"20:52:56"},{"correct_response":"l","task":"test_phase","broad_category":"I","image_png":"I_Basalt_09.png","image_id":25,"category_name":"Basalt","category":2,"distinct_rating":1.89,"distinct_type":"Bottom","item_type":"Target","rt":1722,"stimulus":"Stimuli_Rocks480/I_Basalt_09.png","response":"l","trial_type":"image-keyboard-response","trial_index":175,"plugin_version":"2.1.0","time_elapsed":373111,"subject_id":"88970","group":"Group1","full_date":"2025-11-11T20:52:56.082Z","date":"2025-11-11","time":"20:52:56","cor_ans":true},{"trial_type":"html-keyboard-response","rt":null,"stimulus":"<p style=\"color: green; font-size: 50px; font-weight: bold;\">Correct</p>","response":null,"trial_index":176,"plugin_version":"2.1.0","time_elapsed":373613,"subject_id":"88970","group":"Group1","full_date":"2025-11-11T20:52:56.082Z","date":"2025-11-11","time":"20:52:56"},{"correct_response":"l","task":"test_phase","broad_category":"S","image_png":"S_Sandstone_03.png","image_id":451,"category_name":"Sandstone","category":29,"distinct_rating":1.86,"distinct_type":"Bottom","item_type":"Target","rt":1593,"stimulus":"Stimuli_Rocks480/S_Sandstone_03.png","response":"l","trial_type":"image-keyboard-response","trial_index":177,"plugin_version":"2.1.0","time_elapsed":375224,"subject_id":"88970","group":"Group1","full_date":"2025-11-11T20:52:56.082Z","date":"2025-11-11","time":"20:52:56","cor_ans":true},{"trial_type":"html-keyboard-response","rt":null,"stimulus":"<p style=\"color: green; font-size: 50px; font-weight: bold;\">Correct</p>","response":null,"trial_index":178,"plugin_version":"2.1.0","time_elapsed":375727,"subject_id":"88970","group":"Group1","full_date":"2025-11-11T20:52:56.082Z","date":"2025-11-11","time":"20:52:56"},{"correct_response":"a","task":"test_phase","broad_category":"I","image_png":"I_Basalt_10.png","image_id":26,"category_name":"Basalt","category":2,"distinct_rating":2.76,"distinct_type":"Bottom","item_type":"Foil","rt":1101,"stimulus":"Stimuli_Rocks480/I_Basalt_10.png","response":"a","trial_type":"image-keyboard-response","trial_index":179,"plugin_version":"2.1.0","time_elapsed":376843,"subject_id":"88970","group":"Group1","full_date":"2025-11-11T20:52:56.082Z","date":"2025-11-11","time":"20:52:56","cor_ans":true},{"trial_type":"html-keyboard-response","rt":null,"stimulus":"<p style=\"color: green; font-size: 50px; font-weight: bold;\">Correct</p>","response":null,"trial_index":180,"plugin_version":"2.1.0","time_elapsed":377345,"subject_id":"88970","group":"Group1","full_date":"2025-11-11T20:52:56.082Z","date":"2025-11-11","time":"20:52:56"},{"correct_response":"a","task":"test_phase","broad_category":"S","image_png":"S_Sandstone_08.png","image_id":456,"category_name":"Sandstone","category":29,"distinct_rating":1.5,"distinct_type":"Bottom","item_type":"Foil","rt":872,"stimulus":"Stimuli_Rocks480/S_Sandstone_08.png","response":"a","trial_type":"image-keyboard-response","trial_index":181,"plugin_version":"2.1.0","time_elapsed":378231,"subject_id":"88970","group":"Group1","full_date":"2025-11-11T20:52:56.082Z","date":"2025-11-11","time":"20:52:56","cor_ans":true},{"trial_type":"html-keyboard-response","rt":null,"stimulus":"<p style=\"color: green; font-size: 50px; font-weight: bold;\">Correct</p>","response":null,"trial_index":182,"plugin_version":"2.1.0","time_elapsed":378733,"subject_id":"88970","group":"Group1","full_date":"2025-11-11T20:52:56.082Z","date":"2025-11-11","time":"20:52:56"},{"correct_response":"l","task":"test_phase","broad_category":"I","image_png":"I_Basalt_02.png","image_id":18,"category_name":"Basalt","category":2,"distinct_rating":1.84,"distinct_type":"Bottom","item_type":"Target","rt":3138,"stimulus":"Stimuli_Rocks480/I_Basalt_02.png","response":"a","trial_type":"image-keyboard-response","trial_index":183,"plugin_version":"2.1.0","time_elapsed":381888,"subject_id":"88970","group":"Group1","full_date":"2025-11-11T20:52:56.082Z","date":"2025-11-11","time":"20:52:56","cor_ans":false},{"trial_type":"html-keyboard-response","rt":null,"stimulus":"<p style=\"color: red; font-size: 50px; font-weight: bold;\">Incorrect</p>","response":null,"trial_index":184,"plugin_version":"2.1.0","time_elapsed":382390,"subject_id":"88970","group":"Group1","full_date":"2025-11-11T20:52:56.082Z","date":"2025-11-11","time":"20:52:56"},{"correct_response":"l","task":"test_phase","broad_category":"I","image_png":"I_Andesite_06.png","image_id":6,"category_name":"Andesite","category":1,"distinct_rating":3.17,"distinct_type":"Bottom","item_type":"Target","rt":1499,"stimulus":"Stimuli_Rocks480/I_Andesite_06.png","response":"l","trial_type":"image-keyboard-response","trial_index":185,"plugin_version":"2.1.0","time_elapsed":383905,"subject_id":"88970","group":"Group1","full_date":"2025-11-11T20:52:56.082Z","date":"2025-11-11","time":"20:52:56","cor_ans":true},{"trial_type":"html-keyboard-response","rt":null,"stimulus":"<p style=\"color: green; font-size: 50px; font-weight: bold;\">Correct</p>","response":null,"trial_index":186,"plugin_version":"2.1.0","time_elapsed":384407,"subject_id":"88970","group":"Group1","full_date":"2025-11-11T20:52:56.082Z","date":"2025-11-11","time":"20:52:56"},{"correct_response":"a","task":"test_phase","broad_category":"I","image_png":"I_Gabbro_12.png","image_id":60,"category_name":"Gabbro","category":4,"distinct_rating":2.6,"distinct_type":"Bottom","item_type":"Foil","rt":2200,"stimulus":"Stimuli_Rocks480/I_Gabbro_12.png","response":"a","trial_type":"image-keyboard-response","trial_index":187,"plugin_version":"2.1.0","time_elapsed":386625,"subject_id":"88970","group":"Group1","full_date":"2025-11-11T20:52:56.082Z","date":"2025-11-11","time":"20:52:56","cor_ans":true},{"trial_type":"html-keyboard-response","rt":null,"stimulus":"<p style=\"color: green; font-size: 50px; font-weight: bold;\">Correct</p>","response":null,"trial_index":188,"plugin_version":"2.1.0","time_elapsed":387127,"subject_id":"88970","group":"Group1","full_date":"2025-11-11T20:52:56.082Z","date":"2025-11-11","time":"20:52:56"},{"correct_response":"l","task":"test_phase","broad_category":"M","image_png":"M_Quartzite_08.png","image_id":280,"category_name":"Quartzite","category":18,"distinct_rating":2.15,"distinct_type":"Bottom","item_type":"Target","rt":798,"stimulus":"Stimuli_Rocks480/M_Quartzite_08.png","response":"l","trial_type":"image-keyboard-response","trial_index":189,"plugin_version":"2.1.0","time_elapsed":387938,"subject_id":"88970","group":"Group1","full_date":"2025-11-11T20:52:56.082Z","date":"2025-11-11","time":"20:52:56","cor_ans":true},{"trial_type":"html-keyboard-response","rt":null,"stimulus":"<p style=\"color: green; font-size: 50px; font-weight: bold;\">Correct</p>","response":null,"trial_index":190,"plugin_version":"2.1.0","time_elapsed":388440,"subject_id":"88970","group":"Group1","full_date":"2025-11-11T20:52:56.082Z","date":"2025-11-11","time":"20:52:56"},{"correct_response":"a","task":"test_phase","broad_category":"I","image_png":"I_Pumice_13.png","image_id":141,"category_name":"Pumice","category":9,"distinct_rating":3.12,"distinct_type":"Bottom","item_type":"Foil","rt":968,"stimulus":"Stimuli_Rocks480/I_Pumice_13.png","response":"a","trial_type":"image-keyboard-response","trial_index":191,"plugin_version":"2.1.0","time_elapsed":389423,"subject_id":"88970","group":"Group1","full_date":"2025-11-11T20:52:56.082Z","date":"2025-11-11","time":"20:52:56","cor_ans":true},{"trial_type":"html-keyboard-response","rt":null,"stimulus":"<p style=\"color: green; font-size: 50px; font-weight: bold;\">Correct</p>","response":null,"trial_index":192,"plugin_version":"2.1.0","time_elapsed":389925,"subject_id":"88970","group":"Group1","full_date":"2025-11-11T20:52:56.082Z","date":"2025-11-11","time":"20:52:56"},{"correct_response":"a","task":"test_phase","broad_category":"M","image_png":"M_Gneiss_14.png","image_id":206,"category_name":"Gneiss","category":13,"distinct_rating":3.41,"distinct_type":"Bottom","item_type":"Foil","rt":2666,"stimulus":"Stimuli_Rocks480/M_Gneiss_14.png","response":"l","trial_type":"image-keyboard-response","trial_index":193,"plugin_version":"2.1.0","time_elapsed":392604,"subject_id":"88970","group":"Group1","full_date":"2025-11-11T20:52:56.082Z","date":"2025-11-11","time":"20:52:56","cor_ans":false},{"trial_type":"html-keyboard-response","rt":null,"stimulus":"<p style=\"color: red; font-size: 50px; font-weight: bold;\">Incorrect</p>","response":null,"trial_index":194,"plugin_version":"2.1.0","time_elapsed":393107,"subject_id":"88970","group":"Group1","full_date":"2025-11-11T20:52:56.082Z","date":"2025-11-11","time":"20:52:56"},{"correct_response":"a","task":"test_phase","broad_category":"S","image_png":"S_Chert_13.png","image_id":365,"category_name":"Chert","category":23,"distinct_rating":6.57,"distinct_type":"Top","item_type":"Foil","rt":1056,"stimulus":"Stimuli_Rocks480/S_Chert_13.png","response":"a","trial_type":"image-keyboard-response","trial_index":195,"plugin_version":"2.1.0","time_elapsed":394172,"subject_id":"88970","group":"Group1","full_date":"2025-11-11T20:52:56.082Z","date":"2025-11-11","time":"20:52:56","cor_ans":true},{"trial_type":"html-keyboard-response","rt":null,"stimulus":"<p style=\"color: green; font-size: 50px; font-weight: bold;\">Correct</p>","response":null,"trial_index":196,"plugin_version":"2.1.0","time_elapsed":394674,"subject_id":"88970","group":"Group1","full_date":"2025-11-11T20:52:56.082Z","date":"2025-11-11","time":"20:52:56"},{"correct_response":"l","task":"test_phase","broad_category":"M","image_png":"M_Phyllite_03.png","image_id":259,"category_name":"Phyllite","category":17,"distinct_rating":2.5,"distinct_type":"Bottom","item_type":"Target","rt":1251,"stimulus":"Stimuli_Rocks480/M_Phyllite_03.png","response":"l","trial_type":"image-keyboard-response","trial_index":197,"plugin_version":"2.1.0","time_elapsed":395938,"subject_id":"88970","group":"Group1","full_date":"2025-11-11T20:52:56.082Z","date":"2025-11-11","time":"20:52:56","cor_ans":true},{"trial_type":"html-keyboard-response","rt":null,"stimulus":"<p style=\"color: green; font-size: 50px; font-weight: bold;\">Correct</p>","response":null,"trial_index":198,"plugin_version":"2.1.0","time_elapsed":396440,"subject_id":"88970","group":"Group1","full_date":"2025-11-11T20:52:56.082Z","date":"2025-11-11","time":"20:52:56"},{"correct_response":"a","task":"test_phase","broad_category":"M","image_png":"M_Phyllite_13.png","image_id":269,"category_name":"Phyllite","category":17,"distinct_rating":2.8,"distinct_type":"Bottom","item_type":"Foil","rt":966,"stimulus":"Stimuli_Rocks480/M_Phyllite_13.png","response":"l","trial_type":"image-keyboard-response","trial_index":199,"plugin_version":"2.1.0","time_elapsed":397418,"subject_id":"88970","group":"Group1","full_date":"2025-11-11T20:52:56.082Z","date":"2025-11-11","time":"20:52:56","cor_ans":false},{"trial_type":"html-keyboard-response","rt":null,"stimulus":"<p style=\"color: red; font-size: 50px; font-weight: bold;\">Incorrect</p>","response":null,"trial_index":200,"plugin_version":"2.1.0","time_elapsed":397920,"subject_id":"88970","group":"Group1","full_date":"2025-11-11T20:52:56.082Z","date":"2025-11-11","time":"20:52:56"},{"correct_response":"a","task":"test_phase","broad_category":"I","image_png":"I_Pegmatite_03.png","image_id":99,"category_name":"Pegmatite","category":7,"distinct_rating":7.24,"distinct_type":"Top","item_type":"Foil","rt":1209,"stimulus":"Stimuli_Rocks480/I_Pegmatite_03.png","response":"a","trial_type":"image-keyboard-response","trial_index":201,"plugin_version":"2.1.0","time_elapsed":399142,"subject_id":"88970","group":"Group1","full_date":"2025-11-11T20:52:56.082Z","date":"2025-11-11","time":"20:52:56","cor_ans":true},{"trial_type":"html-keyboard-response","rt":null,"stimulus":"<p style=\"color: green; font-size: 50px; font-weight: bold;\">Correct</p>","response":null,"trial_index":202,"plugin_version":"2.1.0","time_elapsed":399644,"subject_id":"88970","group":"Group1","full_date":"2025-11-11T20:52:56.082Z","date":"2025-11-11","time":"20:52:56"},{"correct_response":"a","task":"test_phase","broad_category":"S","image_png":"S_Dolomite_07.png","image_id":391,"category_name":"Dolomite","category":25,"distinct_rating":1.73,"distinct_type":"Bottom","item_type":"Foil","rt":960,"stimulus":"Stimuli_Rocks480/S_Dolomite_07.png","response":"l","trial_type":"image-keyboard-response","trial_index":203,"plugin_version":"2.1.0","time_elapsed":400618,"subject_id":"88970","group":"Group1","full_date":"2025-11-11T20:52:56.082Z","date":"2025-11-11","time":"20:52:56","cor_ans":false},{"trial_type":"html-keyboard-response","rt":null,"stimulus":"<p style=\"color: red; font-size: 50px; font-weight: bold;\">Incorrect</p>","response":null,"trial_index":204,"plugin_version":"2.1.0","time_elapsed":401120,"subject_id":"88970","group":"Group1","full_date":"2025-11-11T20:52:56.082Z","date":"2025-11-11","time":"20:52:56"},{"correct_response":"l","task":"test_phase","broad_category":"S","image_png":"S_Dolomite_14.png","image_id":398,"category_name":"Dolomite","category":25,"distinct_rating":1.43,"distinct_type":"Bottom","item_type":"Target","rt":867,"stimulus":"Stimuli_Rocks480/S_Dolomite_14.png","response":"l","trial_type":"image-keyboard-response","trial_index":205,"plugin_version":"2.1.0","time_elapsed":402000,"subject_id":"88970","group":"Group1","full_date":"2025-11-11T20:52:56.082Z","date":"2025-11-11","time":"20:52:56","cor_ans":true},{"trial_type":"html-keyboard-response","rt":null,"stimulus":"<p style=\"color: green; font-size: 50px; font-weight: bold;\">Correct</p>","response":null,"trial_index":206,"plugin_version":"2.1.0","time_elapsed":402502,"subject_id":"88970","group":"Group1","full_date":"2025-11-11T20:52:56.082Z","date":"2025-11-11","time":"20:52:56"},{"correct_response":"a","task":"test_phase","broad_category":"M","image_png":"M_Marble_02.png","image_id":226,"category_name":"Marble","category":15,"distinct_rating":3.2,"distinct_type":"Bottom","item_type":"Foil","rt":997,"stimulus":"Stimuli_Rocks480/M_Marble_02.png","response":"a","trial_type":"image-keyboard-response","trial_index":207,"plugin_version":"2.1.0","time_elapsed":403512,"subject_id":"88970","group":"Group1","full_date":"2025-11-11T20:52:56.082Z","date":"2025-11-11","time":"20:52:56","cor_ans":true},{"trial_type":"html-keyboard-response","rt":null,"stimulus":"<p style=\"color: green; font-size: 50px; font-weight: bold;\">Correct</p>","response":null,"trial_index":208,"plugin_version":"2.1.0","time_elapsed":404014,"subject_id":"88970","group":"Group1","full_date":"2025-11-11T20:52:56.082Z","date":"2025-11-11","time":"20:52:56"},{"correct_response":"a","task":"test_phase","broad_category":"I","image_png":"I_Pumice_01.png","image_id":129,"category_name":"Pumice","category":9,"distinct_rating":3.25,"distinct_type":"Bottom","item_type":"Foil","rt":974,"stimulus":"Stimuli_Rocks480/I_Pumice_01.png","response":"a","trial_type":"image-keyboard-response","trial_index":209,"plugin_version":"2.1.0","time_elapsed":405003,"subject_id":"88970","group":"Group1","full_date":"2025-11-11T20:52:56.082Z","date":"2025-11-11","time":"20:52:56","cor_ans":true},{"trial_type":"html-keyboard-response","rt":null,"stimulus":"<p style=\"color: green; font-size: 50px; font-weight: bold;\">Correct</p>","response":null,"trial_index":210,"plugin_version":"2.1.0","time_elapsed":405505,"subject_id":"88970","group":"Group1","full_date":"2025-11-11T20:52:56.082Z","date":"2025-11-11","time":"20:52:56"},{"correct_response":"l","task":"test_phase","broad_category":"S","image_png":"S_Dolomite_13.png","image_id":397,"category_name":"Dolomite","category":25,"distinct_rating":1.77,"distinct_type":"Bottom","item_type":"Target","rt":1049,"stimulus":"Stimuli_Rocks480/S_Dolomite_13.png","response":"a","trial_type":"image-keyboard-response","trial_index":211,"plugin_version":"2.1.0","time_elapsed":406570,"subject_id":"88970","group":"Group1","full_date":"2025-11-11T20:52:56.082Z","date":"2025-11-11","time":"20:52:56","cor_ans":false},{"trial_type":"html-keyboard-response","rt":null,"stimulus":"<p style=\"color: red; font-size: 50px; font-weight: bold;\">Incorrect</p>","response":null,"trial_index":212,"plugin_version":"2.1.0","time_elapsed":407072,"subject_id":"88970","group":"Group1","full_date":"2025-11-11T20:52:56.082Z","date":"2025-11-11","time":"20:52:56"},{"correct_response":"l","task":"test_phase","broad_category":"I","image_png":"I_Rhyolite_14.png","image_id":158,"category_name":"Rhyolite","category":10,"distinct_rating":2.59,"distinct_type":"Bottom","item_type":"Target","rt":849,"stimulus":"Stimuli_Rocks480/I_Rhyolite_14.png","response":"l","trial_type":"image-keyboard-response","trial_index":213,"plugin_version":"2.1.0","time_elapsed":407933,"subject_id":"88970","group":"Group1","full_date":"2025-11-11T20:52:56.082Z","date":"2025-11-11","time":"20:52:56","cor_ans":true},{"trial_type":"html-keyboard-response","rt":null,"stimulus":"<p style=\"color: green; font-size: 50px; font-weight: bold;\">Correct</p>","response":null,"trial_index":214,"plugin_version":"2.1.0","time_elapsed":408435,"subject_id":"88970","group":"Group1","full_date":"2025-11-11T20:52:56.082Z","date":"2025-11-11","time":"20:52:56"},{"correct_response":"a","task":"test_phase","broad_category":"S","image_png":"S_Rock Salt_13.png","image_id":445,"category_name":"Rock Salt","category":28,"distinct_rating":7.58,"distinct_type":"Top","item_type":"Foil","rt":801,"stimulus":"Stimuli_Rocks480/S_Rock Salt_13.png","response":"a","trial_type":"image-keyboard-response","trial_index":215,"plugin_version":"2.1.0","time_elapsed":409252,"subject_id":"88970","group":"Group1","full_date":"2025-11-11T20:52:56.082Z","date":"2025-11-11","time":"20:52:56","cor_ans":true},{"trial_type":"html-keyboard-response","rt":null,"stimulus":"<p style=\"color: green; font-size: 50px; font-weight: bold;\">Correct</p>","response":null,"trial_index":216,"plugin_version":"2.1.0","time_elapsed":409754,"subject_id":"88970","group":"Group1","full_date":"2025-11-11T20:52:56.082Z","date":"2025-11-11","time":"20:52:56"},{"correct_response":"l","task":"test_phase","broad_category":"S","image_png":"S_Breccia_11.png","image_id":347,"category_name":"Breccia","category":22,"distinct_rating":6.7,"distinct_type":"Top","item_type":"Target","rt":867,"stimulus":"Stimuli_Rocks480/S_Breccia_11.png","response":"a","trial_type":"image-keyboard-response","trial_index":217,"plugin_version":"2.1.0","time_elapsed":410643,"subject_id":"88970","group":"Group1","full_date":"2025-11-11T20:52:56.082Z","date":"2025-11-11","time":"20:52:56","cor_ans":false},{"trial_type":"html-keyboard-response","rt":null,"stimulus":"<p style=\"color: red; font-size: 50px; font-weight: bold;\">Incorrect</p>","response":null,"trial_index":218,"plugin_version":"2.1.0","time_elapsed":411145,"subject_id":"88970","group":"Group1","full_date":"2025-11-11T20:52:56.082Z","date":"2025-11-11","time":"20:52:56"},{"correct_response":"a","task":"test_phase","broad_category":"S","image_png":"S_Conglomerate_14.png","image_id":382,"category_name":"Conglomerate","category":24,"distinct_rating":6.86,"distinct_type":"Top","item_type":"Foil","rt":1258,"stimulus":"Stimuli_Rocks480/S_Conglomerate_14.png","response":"a","trial_type":"image-keyboard-response","trial_index":219,"plugin_version":"2.1.0","time_elapsed":412416,"subject_id":"88970","group":"Group1","full_date":"2025-11-11T20:52:56.082Z","date":"2025-11-11","time":"20:52:56","cor_ans":true},{"trial_type":"html-keyboard-response","rt":null,"stimulus":"<p style=\"color: green; font-size: 50px; font-weight: bold;\">Correct</p>","response":null,"trial_index":220,"plugin_version":"2.1.0","time_elapsed":412918,"subject_id":"88970","group":"Group1","full_date":"2025-11-11T20:52:56.082Z","date":"2025-11-11","time":"20:52:56"},{"correct_response":"l","task":"test_phase","broad_category":"M","image_png":"M_Marble_04.png","image_id":228,"category_name":"Marble","category":15,"distinct_rating":3.15,"distinct_type":"Bottom","item_type":"Target","rt":1072,"stimulus":"Stimuli_Rocks480/M_Marble_04.png","response":"a","trial_type":"image-keyboard-response","trial_index":221,"plugin_version":"2.1.0","time_elapsed":414003,"subject_id":"88970","group":"Group1","full_date":"2025-11-11T20:52:56.082Z","date":"2025-11-11","time":"20:52:56","cor_ans":false},{"trial_type":"html-keyboard-response","rt":null,"stimulus":"<p style=\"color: red; font-size: 50px; font-weight: bold;\">Incorrect</p>","response":null,"trial_index":222,"plugin_version":"2.1.0","time_elapsed":414506,"subject_id":"88970","group":"Group1","full_date":"2025-11-11T20:52:56.082Z","date":"2025-11-11","time":"20:52:56"},{"correct_response":"l","task":"test_phase","broad_category":"I","image_png":"I_Obsidian_05.png","image_id":85,"category_name":"Obsidian","category":6,"distinct_rating":7.32,"distinct_type":"Top","item_type":"Target","rt":1042,"stimulus":"Stimuli_Rocks480/I_Obsidian_05.png","response":"l","trial_type":"image-keyboard-response","trial_index":223,"plugin_version":"2.1.0","time_elapsed":415565,"subject_id":"88970","group":"Group1","full_date":"2025-11-11T20:52:56.082Z","date":"2025-11-11","time":"20:52:56","cor_ans":true},{"trial_type":"html-keyboard-response","rt":null,"stimulus":"<p style=\"color: green; font-size: 50px; font-weight: bold;\">Correct</p>","response":null,"trial_index":224,"plugin_version":"2.1.0","time_elapsed":416068,"subject_id":"88970","group":"Group1","full_date":"2025-11-11T20:52:56.082Z","date":"2025-11-11","time":"20:52:56"},{"correct_response":"a","task":"test_phase","broad_category":"I","image_png":"I_Andesite_04.png","image_id":4,"category_name":"Andesite","category":1,"distinct_rating":3.18,"distinct_type":"Bottom","item_type":"Foil","rt":799,"stimulus":"Stimuli_Rocks480/I_Andesite_04.png","response":"l","trial_type":"image-keyboard-response","trial_index":225,"plugin_version":"2.1.0","time_elapsed":416882,"subject_id":"88970","group":"Group1","full_date":"2025-11-11T20:52:56.082Z","date":"2025-11-11","time":"20:52:56","cor_ans":false},{"trial_type":"html-keyboard-response","rt":null,"stimulus":"<p style=\"color: red; font-size: 50px; font-weight: bold;\">Incorrect</p>","response":null,"trial_index":226,"plugin_version":"2.1.0","time_elapsed":417384,"subject_id":"88970","group":"Group1","full_date":"2025-11-11T20:52:56.082Z","date":"2025-11-11","time":"20:52:56"},{"correct_response":"a","task":"test_phase","broad_category":"I","image_png":"I_Andesite_03.png","image_id":3,"category_name":"Andesite","category":1,"distinct_rating":3.17,"distinct_type":"Bottom","item_type":"Foil","rt":752,"stimulus":"Stimuli_Rocks480/I_Andesite_03.png","response":"l","trial_type":"image-keyboard-response","trial_index":227,"plugin_version":"2.1.0","time_elapsed":418148,"subject_id":"88970","group":"Group1","full_date":"2025-11-11T20:52:56.082Z","date":"2025-11-11","time":"20:52:56","cor_ans":false},{"trial_type":"html-keyboard-response","rt":null,"stimulus":"<p style=\"color: red; font-size: 50px; font-weight: bold;\">Incorrect</p>","response":null,"trial_index":228,"plugin_version":"2.1.0","time_elapsed":418650,"subject_id":"88970","group":"Group1","full_date":"2025-11-11T20:52:56.082Z","date":"2025-11-11","time":"20:52:56"},{"correct_response":"a","task":"test_phase","broad_category":"M","image_png":"M_Slate_04.png","image_id":308,"category_name":"Slate","category":20,"distinct_rating":2.2,"distinct_type":"Bottom","item_type":"Foil","rt":807,"stimulus":"Stimuli_Rocks480/M_Slate_04.png","response":"l","trial_type":"image-keyboard-response","trial_index":229,"plugin_version":"2.1.0","time_elapsed":419468,"subject_id":"88970","group":"Group1","full_date":"2025-11-11T20:52:56.082Z","date":"2025-11-11","time":"20:52:56","cor_ans":false},{"trial_type":"html-keyboard-response","rt":null,"stimulus":"<p style=\"color: red; font-size: 50px; font-weight: bold;\">Incorrect</p>","response":null,"trial_index":230,"plugin_version":"2.1.0","time_elapsed":419971,"subject_id":"88970","group":"Group1","full_date":"2025-11-11T20:52:56.082Z","date":"2025-11-11","time":"20:52:56"},{"correct_response":"l","task":"test_phase","broad_category":"S","image_png":"S_Sandstone_15.png","image_id":463,"category_name":"Sandstone","category":29,"distinct_rating":2,"distinct_type":"Bottom","item_type":"Target","rt":1360,"stimulus":"Stimuli_Rocks480/S_Sandstone_15.png","response":"l","trial_type":"image-keyboard-response","trial_index":231,"plugin_version":"2.1.0","time_elapsed":421348,"subject_id":"88970","group":"Group1","full_date":"2025-11-11T20:52:56.082Z","date":"2025-11-11","time":"20:52:56","cor_ans":true},{"trial_type":"html-keyboard-response","rt":null,"stimulus":"<p style=\"color: green; font-size: 50px; font-weight: bold;\">Correct</p>","response":null,"trial_index":232,"plugin_version":"2.1.0","time_elapsed":421851,"subject_id":"88970","group":"Group1","full_date":"2025-11-11T20:52:56.082Z","date":"2025-11-11","time":"20:52:56"},{"correct_response":"a","task":"test_phase","broad_category":"I","image_png":"I_Pegmatite_11.png","image_id":107,"category_name":"Pegmatite","category":7,"distinct_rating":7.11,"distinct_type":"Top","item_type":"Foil","rt":888,"stimulus":"Stimuli_Rocks480/I_Pegmatite_11.png","response":"a","trial_type":"image-keyboard-response","trial_index":233,"plugin_version":"2.1.0","time_elapsed":422756,"subject_id":"88970","group":"Group1","full_date":"2025-11-11T20:52:56.082Z","date":"2025-11-11","time":"20:52:56","cor_ans":true},{"trial_type":"html-keyboard-response","rt":null,"stimulus":"<p style=\"color: green; font-size: 50px; font-weight: bold;\">Correct</p>","response":null,"trial_index":234,"plugin_version":"2.1.0","time_elapsed":423259,"subject_id":"88970","group":"Group1","full_date":"2025-11-11T20:52:56.082Z","date":"2025-11-11","time":"20:52:56"},{"correct_response":"a","task":"test_phase","broad_category":"I","image_png":"I_Gabbro_14.png","image_id":62,"category_name":"Gabbro","category":4,"distinct_rating":2.95,"distinct_type":"Bottom","item_type":"Foil","rt":754,"stimulus":"Stimuli_Rocks480/I_Gabbro_14.png","response":"a","trial_type":"image-keyboard-response","trial_index":235,"plugin_version":"2.1.0","time_elapsed":424028,"subject_id":"88970","group":"Group1","full_date":"2025-11-11T20:52:56.082Z","date":"2025-11-11","time":"20:52:56","cor_ans":true},{"trial_type":"htm