[{"width":1432,"height":821,"webaudio":true,"browser":"edge-chromium","browser_version":"142.0.0","mobile":false,"os":"Windows 10","fullscreen":true,"vsync_rate":60.39,"webcam":true,"microphone":true,"trial_type":"browser-check","trial_index":0,"plugin_version":"2.1.0","time_elapsed":1007,"subject_id":"88788","group":"Group2","full_date":"2025-11-12T03:45:03.309Z","date":"2025-11-12","time":"03:45:03"},{"success":true,"timeout":false,"failed_images":[],"failed_audio":[],"failed_video":[],"trial_type":"preload","trial_index":1,"plugin_version":"2.1.0","time_elapsed":4397,"subject_id":"88788","group":"Group2","full_date":"2025-11-12T03:45:03.309Z","date":"2025-11-12","time":"03:45:03"},{"rt":21433,"url":"SONA_consent_memorability.html","trial_type":"external-html","trial_index":2,"plugin_version":"2.1.0","time_elapsed":25877,"subject_id":"88788","group":"Group2","full_date":"2025-11-12T03:45:03.309Z","date":"2025-11-12","time":"03:45:03"},{"success":true,"rt":3263,"trial_type":"fullscreen","trial_index":3,"plugin_version":"2.1.0","time_elapsed":30143,"subject_id":"88788","group":"Group2","full_date":"2025-11-12T03:45:03.309Z","date":"2025-11-12","time":"03:45:03"},{"rt":30341,"stimulus":"<div style=\"max-width: 760px; margin: auto; font-size: 20px; line-height: 1.5;\">\n      <h1 style=\"text-align:center; font-size: 30px;\">Instructions</h1>\n      <p>\n        Welcome to the study on <b>visual memory</b>. This experiment consists of <b>two phases</b>: \n        a <b>study phase</b> and a <b>test phase</b>.\n      </p>\n      <p>\n        In the study phase, you will see a series of rock images along with their category labels.\n        The images will appear one at a time.\n        <b>Your task</b> is to learn the categories to which the rock images belong \n        and to remember each image as accurately as possible.\n      </p> \n      <p>\n        After the study phase, <b>your memory will be tested</b>. \n        Additional instructions for the test phase will be provided at that time.\n      </p>\n      <p>\n        If your computer has multiple <b>language settings</b> (e.g., English and another language),\n        please make sure it is set to English before starting.\n      </p>\n      <p>\n        You can track your progress using the <b>completion bar</b> at the top of the screen. \n        Please note that the bar will refresh when the test phase begins \n        to give you an accurate sense of your progress in both phases.\n      </p> \n      <p>\n        Press the button below when you are ready to begin.\n      </p>\n    </div>","response":0,"trial_type":"html-button-response","trial_index":4,"plugin_version":"2.1.0","time_elapsed":60486,"subject_id":"88788","group":"Group2","full_date":"2025-11-12T03:45:03.309Z","date":"2025-11-12","time":"03:45:03"},{"rt":null,"stimulus":"<p style=\"font-size: 50px; margin: 0; text-align: center;\">+</p>","response":null,"trial_type":"html-keyboard-response","trial_index":5,"plugin_version":"2.1.0","time_elapsed":61492,"subject_id":"88788","group":"Group2","full_date":"2025-11-12T03:45:03.309Z","date":"2025-11-12","time":"03:45:03"},{"task":"memory_phase","broad_category":"I","image_png":"I_Rhyolite_08.png","image_id":152,"category_name":"Rhyolite","category":10,"distinct_rating":1.38,"distinct_type":"Bottom","rt":null,"stimulus":"Stimuli_Rocks480/I_Rhyolite_08.png","response":null,"trial_type":"image-keyboard-response","trial_index":6,"plugin_version":"2.1.0","time_elapsed":64003,"subject_id":"88788","group":"Group2","full_date":"2025-11-12T03:45:03.309Z","date":"2025-11-12","time":"03:45:03"},{"rt":null,"stimulus":"<p style=\"font-size: 50px; margin: 0; text-align: center;\">+</p>","response":null,"trial_type":"html-keyboard-response","trial_index":7,"plugin_version":"2.1.0","time_elapsed":65013,"subject_id":"88788","group":"Group2","full_date":"2025-11-12T03:45:03.309Z","date":"2025-11-12","time":"03:45:03"},{"task":"memory_phase","broad_category":"M","image_png":"M_Gneiss_10.png","image_id":202,"category_name":"Gneiss","category":13,"distinct_rating":3.09,"distinct_type":"Bottom","rt":null,"stimulus":"Stimuli_Rocks480/M_Gneiss_10.png","response":null,"trial_type":"image-keyboard-response","trial_index":8,"plugin_version":"2.1.0","time_elapsed":67523,"subject_id":"88788","group":"Group2","full_date":"2025-11-12T03:45:03.309Z","date":"2025-11-12","time":"03:45:03"},{"rt":null,"stimulus":"<p style=\"font-size: 50px; margin: 0; text-align: center;\">+</p>","response":null,"trial_type":"html-keyboard-response","trial_index":9,"plugin_version":"2.1.0","time_elapsed":68537,"subject_id":"88788","group":"Group2","full_date":"2025-11-12T03:45:03.309Z","date":"2025-11-12","time":"03:45:03"},{"task":"memory_phase","broad_category":"I","image_png":"I_Peridotite_13.png","image_id":125,"category_name":"Peridotite","category":8,"distinct_rating":7.28,"distinct_type":"Top","rt":null,"stimulus":"Stimuli_Rocks480/I_Peridotite_13.png","response":null,"trial_type":"image-keyboard-response","trial_index":10,"plugin_version":"2.1.0","time_elapsed":71056,"subject_id":"88788","group":"Group2","full_date":"2025-11-12T03:45:03.309Z","date":"2025-11-12","time":"03:45:03"},{"rt":null,"stimulus":"<p style=\"font-size: 50px; margin: 0; text-align: center;\">+</p>","response":null,"trial_type":"html-keyboard-response","trial_index":11,"plugin_version":"2.1.0","time_elapsed":72069,"subject_id":"88788","group":"Group2","full_date":"2025-11-12T03:45:03.309Z","date":"2025-11-12","time":"03:45:03"},{"task":"memory_phase","broad_category":"M","image_png":"M_Gneiss_14.png","image_id":206,"category_name":"Gneiss","category":13,"distinct_rating":3.41,"distinct_type":"Bottom","rt":null,"stimulus":"Stimuli_Rocks480/M_Gneiss_14.png","response":null,"trial_type":"image-keyboard-response","trial_index":12,"plugin_version":"2.1.0","time_elapsed":74587,"subject_id":"88788","group":"Group2","full_date":"2025-11-12T03:45:03.309Z","date":"2025-11-12","time":"03:45:03"},{"rt":null,"stimulus":"<p style=\"font-size: 50px; margin: 0; text-align: center;\">+</p>","response":null,"trial_type":"html-keyboard-response","trial_index":13,"plugin_version":"2.1.0","time_elapsed":75599,"subject_id":"88788","group":"Group2","full_date":"2025-11-12T03:45:03.309Z","date":"2025-11-12","time":"03:45:03"},{"task":"memory_phase","broad_category":"I","image_png":"I_Obsidian_06.png","image_id":86,"category_name":"Obsidian","category":6,"distinct_rating":8.01,"distinct_type":"Top","rt":null,"stimulus":"Stimuli_Rocks480/I_Obsidian_06.png","response":null,"trial_type":"image-keyboard-response","trial_index":14,"plugin_version":"2.1.0","time_elapsed":78114,"subject_id":"88788","group":"Group2","full_date":"2025-11-12T03:45:03.309Z","date":"2025-11-12","time":"03:45:03"},{"rt":null,"stimulus":"<p style=\"font-size: 50px; margin: 0; text-align: center;\">+</p>","response":null,"trial_type":"html-keyboard-response","trial_index":15,"plugin_version":"2.1.0","time_elapsed":79129,"subject_id":"88788","group":"Group2","full_date":"2025-11-12T03:45:03.309Z","date":"2025-11-12","time":"03:45:03"},{"task":"memory_phase","broad_category":"S","image_png":"S_Dolomite_01.png","image_id":385,"category_name":"Dolomite","category":25,"distinct_rating":1.43,"distinct_type":"Bottom","rt":null,"stimulus":"Stimuli_Rocks480/S_Dolomite_01.png","response":null,"trial_type":"image-keyboard-response","trial_index":16,"plugin_version":"2.1.0","time_elapsed":81639,"subject_id":"88788","group":"Group2","full_date":"2025-11-12T03:45:03.309Z","date":"2025-11-12","time":"03:45:03"},{"rt":null,"stimulus":"<p style=\"font-size: 50px; margin: 0; text-align: center;\">+</p>","response":null,"trial_type":"html-keyboard-response","trial_index":17,"plugin_version":"2.1.0","time_elapsed":82647,"subject_id":"88788","group":"Group2","full_date":"2025-11-12T03:45:03.309Z","date":"2025-11-12","time":"03:45:03"},{"task":"memory_phase","broad_category":"M","image_png":"M_Slate_10.png","image_id":314,"category_name":"Slate","category":20,"distinct_rating":1.94,"distinct_type":"Bottom","rt":null,"stimulus":"Stimuli_Rocks480/M_Slate_10.png","response":null,"trial_type":"image-keyboard-response","trial_index":18,"plugin_version":"2.1.0","time_elapsed":85160,"subject_id":"88788","group":"Group2","full_date":"2025-11-12T03:45:03.309Z","date":"2025-11-12","time":"03:45:03"},{"rt":null,"stimulus":"<p style=\"font-size: 50px; margin: 0; text-align: center;\">+</p>","response":null,"trial_type":"html-keyboard-response","trial_index":19,"plugin_version":"2.1.0","time_elapsed":86162,"subject_id":"88788","group":"Group2","full_date":"2025-11-12T03:45:03.309Z","date":"2025-11-12","time":"03:45:03"},{"task":"memory_phase","broad_category":"I","image_png":"I_Andesite_04.png","image_id":4,"category_name":"Andesite","category":1,"distinct_rating":3.18,"distinct_type":"Bottom","rt":null,"stimulus":"Stimuli_Rocks480/I_Andesite_04.png","response":null,"trial_type":"image-keyboard-response","trial_index":20,"plugin_version":"2.1.0","time_elapsed":88676,"subject_id":"88788","group":"Group2","full_date":"2025-11-12T03:45:03.309Z","date":"2025-11-12","time":"03:45:03"},{"rt":null,"stimulus":"<p style=\"font-size: 50px; margin: 0; text-align: center;\">+</p>","response":null,"trial_type":"html-keyboard-response","trial_index":21,"plugin_version":"2.1.0","time_elapsed":89683,"subject_id":"88788","group":"Group2","full_date":"2025-11-12T03:45:03.309Z","date":"2025-11-12","time":"03:45:03"},{"task":"memory_phase","broad_category":"I","image_png":"I_Pumice_13.png","image_id":141,"category_name":"Pumice","category":9,"distinct_rating":3.12,"distinct_type":"Bottom","rt":null,"stimulus":"Stimuli_Rocks480/I_Pumice_13.png","response":null,"trial_type":"image-keyboard-response","trial_index":22,"plugin_version":"2.1.0","time_elapsed":92198,"subject_id":"88788","group":"Group2","full_date":"2025-11-12T03:45:03.309Z","date":"2025-11-12","time":"03:45:03"},{"rt":null,"stimulus":"<p style=\"font-size: 50px; margin: 0; text-align: center;\">+</p>","response":null,"trial_type":"html-keyboard-response","trial_index":23,"plugin_version":"2.1.0","time_elapsed":93203,"subject_id":"88788","group":"Group2","full_date":"2025-11-12T03:45:03.309Z","date":"2025-11-12","time":"03:45:03"},{"task":"memory_phase","broad_category":"I","image_png":"I_Basalt_13.png","image_id":29,"category_name":"Basalt","category":2,"distinct_rating":2.68,"distinct_type":"Bottom","rt":null,"stimulus":"Stimuli_Rocks480/I_Basalt_13.png","response":null,"trial_type":"image-keyboard-response","trial_index":24,"plugin_version":"2.1.0","time_elapsed":95714,"subject_id":"88788","group":"Group2","full_date":"2025-11-12T03:45:03.309Z","date":"2025-11-12","time":"03:45:03"},{"rt":null,"stimulus":"<p style=\"font-size: 50px; margin: 0; text-align: center;\">+</p>","response":null,"trial_type":"html-keyboard-response","trial_index":25,"plugin_version":"2.1.0","time_elapsed":96720,"subject_id":"88788","group":"Group2","full_date":"2025-11-12T03:45:03.309Z","date":"2025-11-12","time":"03:45:03"},{"task":"memory_phase","broad_category":"M","image_png":"M_Marble_14.png","image_id":238,"category_name":"Marble","category":15,"distinct_rating":3.31,"distinct_type":"Bottom","rt":null,"stimulus":"Stimuli_Rocks480/M_Marble_14.png","response":null,"trial_type":"image-keyboard-response","trial_index":26,"plugin_version":"2.1.0","time_elapsed":99233,"subject_id":"88788","group":"Group2","full_date":"2025-11-12T03:45:03.309Z","date":"2025-11-12","time":"03:45:03"},{"rt":null,"stimulus":"<p style=\"font-size: 50px; margin: 0; text-align: center;\">+</p>","response":null,"trial_type":"html-keyboard-response","trial_index":27,"plugin_version":"2.1.0","time_elapsed":100242,"subject_id":"88788","group":"Group2","full_date":"2025-11-12T03:45:03.309Z","date":"2025-11-12","time":"03:45:03"},{"task":"memory_phase","broad_category":"M","image_png":"M_Quartzite_15.png","image_id":287,"category_name":"Quartzite","category":18,"distinct_rating":2.19,"distinct_type":"Bottom","rt":null,"stimulus":"Stimuli_Rocks480/M_Quartzite_15.png","response":null,"trial_type":"image-keyboard-response","trial_index":28,"plugin_version":"2.1.0","time_elapsed":102758,"subject_id":"88788","group":"Group2","full_date":"2025-11-12T03:45:03.309Z","date":"2025-11-12","time":"03:45:03"},{"rt":null,"stimulus":"<p style=\"font-size: 50px; margin: 0; text-align: center;\">+</p>","response":null,"trial_type":"html-keyboard-response","trial_index":29,"plugin_version":"2.1.0","time_elapsed":103774,"subject_id":"88788","group":"Group2","full_date":"2025-11-12T03:45:03.309Z","date":"2025-11-12","time":"03:45:03"},{"task":"memory_phase","broad_category":"I","image_png":"I_Andesite_03.png","image_id":3,"category_name":"Andesite","category":1,"distinct_rating":3.17,"distinct_type":"Bottom","rt":null,"stimulus":"Stimuli_Rocks480/I_Andesite_03.png","response":null,"trial_type":"image-keyboard-response","trial_index":30,"plugin_version":"2.1.0","time_elapsed":106304,"subject_id":"88788","group":"Group2","full_date":"2025-11-12T03:45:03.309Z","date":"2025-11-12","time":"03:45:03"},{"rt":null,"stimulus":"<p style=\"font-size: 50px; margin: 0; text-align: center;\">+</p>","response":null,"trial_type":"html-keyboard-response","trial_index":31,"plugin_version":"2.1.0","time_elapsed":107307,"subject_id":"88788","group":"Group2","full_date":"2025-11-12T03:45:03.309Z","date":"2025-11-12","time":"03:45:03"},{"task":"memory_phase","broad_category":"M","image_png":"M_Slate_04.png","image_id":308,"category_name":"Slate","category":20,"distinct_rating":2.2,"distinct_type":"Bottom","rt":null,"stimulus":"Stimuli_Rocks480/M_Slate_04.png","response":null,"trial_type":"image-keyboard-response","trial_index":32,"plugin_version":"2.1.0","time_elapsed":109816,"subject_id":"88788","group":"Group2","full_date":"2025-11-12T03:45:03.309Z","date":"2025-11-12","time":"03:45:03"},{"rt":null,"stimulus":"<p style=\"font-size: 50px; margin: 0; text-align: center;\">+</p>","response":null,"trial_type":"html-keyboard-response","trial_index":33,"plugin_version":"2.1.0","time_elapsed":110820,"subject_id":"88788","group":"Group2","full_date":"2025-11-12T03:45:03.309Z","date":"2025-11-12","time":"03:45:03"},{"task":"memory_phase","broad_category":"S","image_png":"S_Dolomite_16.png","image_id":400,"category_name":"Dolomite","category":25,"distinct_rating":1.71,"distinct_type":"Bottom","rt":null,"stimulus":"Stimuli_Rocks480/S_Dolomite_16.png","response":null,"trial_type":"image-keyboard-response","trial_index":34,"plugin_version":"2.1.0","time_elapsed":113332,"subject_id":"88788","group":"Group2","full_date":"2025-11-12T03:45:03.309Z","date":"2025-11-12","time":"03:45:03"},{"rt":null,"stimulus":"<p style=\"font-size: 50px; margin: 0; text-align: center;\">+</p>","response":null,"trial_type":"html-keyboard-response","trial_index":35,"plugin_version":"2.1.0","time_elapsed":114337,"subject_id":"88788","group":"Group2","full_date":"2025-11-12T03:45:03.309Z","date":"2025-11-12","time":"03:45:03"},{"task":"memory_phase","broad_category":"I","image_png":"I_Diorite_15.png","image_id":47,"category_name":"Diorite","category":3,"distinct_rating":3.05,"distinct_type":"Bottom","rt":null,"stimulus":"Stimuli_Rocks480/I_Diorite_15.png","response":null,"trial_type":"image-keyboard-response","trial_index":36,"plugin_version":"2.1.0","time_elapsed":116843,"subject_id":"88788","group":"Group2","full_date":"2025-11-12T03:45:03.309Z","date":"2025-11-12","time":"03:45:03"},{"rt":null,"stimulus":"<p style=\"font-size: 50px; margin: 0; text-align: center;\">+</p>","response":null,"trial_type":"html-keyboard-response","trial_index":37,"plugin_version":"2.1.0","time_elapsed":117859,"subject_id":"88788","group":"Group2","full_date":"2025-11-12T03:45:03.309Z","date":"2025-11-12","time":"03:45:03"},{"task":"memory_phase","broad_category":"I","image_png":"I_Diorite_10.png","image_id":42,"category_name":"Diorite","category":3,"distinct_rating":2.84,"distinct_type":"Bottom","rt":null,"stimulus":"Stimuli_Rocks480/I_Diorite_10.png","response":null,"trial_type":"image-keyboard-response","trial_index":38,"plugin_version":"2.1.0","time_elapsed":120366,"subject_id":"88788","group":"Group2","full_date":"2025-11-12T03:45:03.309Z","date":"2025-11-12","time":"03:45:03"},{"rt":null,"stimulus":"<p style=\"font-size: 50px; margin: 0; text-align: center;\">+</p>","response":null,"trial_type":"html-keyboard-response","trial_index":39,"plugin_version":"2.1.0","time_elapsed":121371,"subject_id":"88788","group":"Group2","full_date":"2025-11-12T03:45:03.309Z","date":"2025-11-12","time":"03:45:03"},{"task":"memory_phase","broad_category":"S","image_png":"S_Rock Salt_15.png","image_id":447,"category_name":"Rock Salt","category":28,"distinct_rating":7.79,"distinct_type":"Top","rt":null,"stimulus":"Stimuli_Rocks480/S_Rock Salt_15.png","response":null,"trial_type":"image-keyboard-response","trial_index":40,"plugin_version":"2.1.0","time_elapsed":123880,"subject_id":"88788","group":"Group2","full_date":"2025-11-12T03:45:03.309Z","date":"2025-11-12","time":"03:45:03"},{"rt":null,"stimulus":"<p style=\"font-size: 50px; margin: 0; text-align: center;\">+</p>","response":null,"trial_type":"html-keyboard-response","trial_index":41,"plugin_version":"2.1.0","time_elapsed":124894,"subject_id":"88788","group":"Group2","full_date":"2025-11-12T03:45:03.309Z","date":"2025-11-12","time":"03:45:03"},{"task":"memory_phase","broad_category":"M","image_png":"M_Phyllite_05.png","image_id":261,"category_name":"Phyllite","category":17,"distinct_rating":2.14,"distinct_type":"Bottom","rt":null,"stimulus":"Stimuli_Rocks480/M_Phyllite_05.png","response":null,"trial_type":"image-keyboard-response","trial_index":42,"plugin_version":"2.1.0","time_elapsed":127410,"subject_id":"88788","group":"Group2","full_date":"2025-11-12T03:45:03.309Z","date":"2025-11-12","time":"03:45:03"},{"rt":null,"stimulus":"<p style=\"font-size: 50px; margin: 0; text-align: center;\">+</p>","response":null,"trial_type":"html-keyboard-response","trial_index":43,"plugin_version":"2.1.0","time_elapsed":128416,"subject_id":"88788","group":"Group2","full_date":"2025-11-12T03:45:03.309Z","date":"2025-11-12","time":"03:45:03"},{"task":"memory_phase","broad_category":"M","image_png":"M_Marble_03.png","image_id":227,"category_name":"Marble","category":15,"distinct_rating":2.67,"distinct_type":"Bottom","rt":null,"stimulus":"Stimuli_Rocks480/M_Marble_03.png","response":null,"trial_type":"image-keyboard-response","trial_index":44,"plugin_version":"2.1.0","time_elapsed":130930,"subject_id":"88788","group":"Group2","full_date":"2025-11-12T03:45:03.309Z","date":"2025-11-12","time":"03:45:03"},{"rt":null,"stimulus":"<p style=\"font-size: 50px; margin: 0; text-align: center;\">+</p>","response":null,"trial_type":"html-keyboard-response","trial_index":45,"plugin_version":"2.1.0","time_elapsed":131948,"subject_id":"88788","group":"Group2","full_date":"2025-11-12T03:45:03.309Z","date":"2025-11-12","time":"03:45:03"},{"task":"memory_phase","broad_category":"S","image_png":"S_Sandstone_08.png","image_id":456,"category_name":"Sandstone","category":29,"distinct_rating":1.5,"distinct_type":"Bottom","rt":null,"stimulus":"Stimuli_Rocks480/S_Sandstone_08.png","response":null,"trial_type":"image-keyboard-response","trial_index":46,"plugin_version":"2.1.0","time_elapsed":134465,"subject_id":"88788","group":"Group2","full_date":"2025-11-12T03:45:03.309Z","date":"2025-11-12","time":"03:45:03"},{"rt":null,"stimulus":"<p style=\"font-size: 50px; margin: 0; text-align: center;\">+</p>","response":null,"trial_type":"html-keyboard-response","trial_index":47,"plugin_version":"2.1.0","time_elapsed":135468,"subject_id":"88788","group":"Group2","full_date":"2025-11-12T03:45:03.309Z","date":"2025-11-12","time":"03:45:03"},{"task":"memory_phase","broad_category":"S","image_png":"S_Rock Salt_13.png","image_id":445,"category_name":"Rock Salt","category":28,"distinct_rating":7.58,"distinct_type":"Top","rt":null,"stimulus":"Stimuli_Rocks480/S_Rock Salt_13.png","response":null,"trial_type":"image-keyboard-response","trial_index":48,"plugin_version":"2.1.0","time_elapsed":137983,"subject_id":"88788","group":"Group2","full_date":"2025-11-12T03:45:03.309Z","date":"2025-11-12","time":"03:45:03"},{"rt":null,"stimulus":"<p style=\"font-size: 50px; margin: 0; text-align: center;\">+</p>","response":null,"trial_type":"html-keyboard-response","trial_index":49,"plugin_version":"2.1.0","time_elapsed":138997,"subject_id":"88788","group":"Group2","full_date":"2025-11-12T03:45:03.309Z","date":"2025-11-12","time":"03:45:03"},{"task":"memory_phase","broad_category":"S","image_png":"S_Sandstone_04.png","image_id":452,"category_name":"Sandstone","category":29,"distinct_rating":1.8,"distinct_type":"Bottom","rt":null,"stimulus":"Stimuli_Rocks480/S_Sandstone_04.png","response":null,"trial_type":"image-keyboard-response","trial_index":50,"plugin_version":"2.1.0","time_elapsed":141509,"subject_id":"88788","group":"Group2","full_date":"2025-11-12T03:45:03.309Z","date":"2025-11-12","time":"03:45:03"},{"rt":null,"stimulus":"<p style=\"font-size: 50px; margin: 0; text-align: center;\">+</p>","response":null,"trial_type":"html-keyboard-response","trial_index":51,"plugin_version":"2.1.0","time_elapsed":142512,"subject_id":"88788","group":"Group2","full_date":"2025-11-12T03:45:03.309Z","date":"2025-11-12","time":"03:45:03"},{"task":"memory_phase","broad_category":"I","image_png":"I_Basalt_08.png","image_id":24,"category_name":"Basalt","category":2,"distinct_rating":2.31,"distinct_type":"Bottom","rt":null,"stimulus":"Stimuli_Rocks480/I_Basalt_08.png","response":null,"trial_type":"image-keyboard-response","trial_index":52,"plugin_version":"2.1.0","time_elapsed":145017,"subject_id":"88788","group":"Group2","full_date":"2025-11-12T03:45:03.309Z","date":"2025-11-12","time":"03:45:03"},{"rt":null,"stimulus":"<p style=\"font-size: 50px; margin: 0; text-align: center;\">+</p>","response":null,"trial_type":"html-keyboard-response","trial_index":53,"plugin_version":"2.1.0","time_elapsed":146020,"subject_id":"88788","group":"Group2","full_date":"2025-11-12T03:45:03.309Z","date":"2025-11-12","time":"03:45:03"},{"task":"memory_phase","broad_category":"I","image_png":"I_Gabbro_12.png","image_id":60,"category_name":"Gabbro","category":4,"distinct_rating":2.6,"distinct_type":"Bottom","rt":null,"stimulus":"Stimuli_Rocks480/I_Gabbro_12.png","response":null,"trial_type":"image-keyboard-response","trial_index":54,"plugin_version":"2.1.0","time_elapsed":148539,"subject_id":"88788","group":"Group2","full_date":"2025-11-12T03:45:03.309Z","date":"2025-11-12","time":"03:45:03"},{"rt":1772,"stimulus":"<p style=\"font-size: 35px;\">Press SPACE to continue study phase</p>","response":" ","trial_type":"html-keyboard-response","trial_index":55,"plugin_version":"2.1.0","time_elapsed":150314,"subject_id":"88788","group":"Group2","full_date":"2025-11-12T03:45:03.309Z","date":"2025-11-12","time":"03:45:03"},{"rt":null,"stimulus":"<p style=\"font-size: 50px; margin: 0; text-align: center;\">+</p>","response":null,"trial_type":"html-keyboard-response","trial_index":56,"plugin_version":"2.1.0","time_elapsed":151329,"subject_id":"88788","group":"Group2","full_date":"2025-11-12T03:45:03.309Z","date":"2025-11-12","time":"03:45:03"},{"task":"memory_phase","broad_category":"S","image_png":"S_Chert_13.png","image_id":365,"category_name":"Chert","category":23,"distinct_rating":6.57,"distinct_type":"Top","rt":null,"stimulus":"Stimuli_Rocks480/S_Chert_13.png","response":null,"trial_type":"image-keyboard-response","trial_index":57,"plugin_version":"2.1.0","time_elapsed":153841,"subject_id":"88788","group":"Group2","full_date":"2025-11-12T03:45:03.309Z","date":"2025-11-12","time":"03:45:03"},{"rt":null,"stimulus":"<p style=\"font-size: 50px; margin: 0; text-align: center;\">+</p>","response":null,"trial_type":"html-keyboard-response","trial_index":58,"plugin_version":"2.1.0","time_elapsed":154847,"subject_id":"88788","group":"Group2","full_date":"2025-11-12T03:45:03.309Z","date":"2025-11-12","time":"03:45:03"},{"task":"memory_phase","broad_category":"S","image_png":"S_Sandstone_11.png","image_id":459,"category_name":"Sandstone","category":29,"distinct_rating":1.82,"distinct_type":"Bottom","rt":null,"stimulus":"Stimuli_Rocks480/S_Sandstone_11.png","response":null,"trial_type":"image-keyboard-response","trial_index":59,"plugin_version":"2.1.0","time_elapsed":157357,"subject_id":"88788","group":"Group2","full_date":"2025-11-12T03:45:03.309Z","date":"2025-11-12","time":"03:45:03"},{"rt":null,"stimulus":"<p style=\"font-size: 50px; margin: 0; text-align: center;\">+</p>","response":null,"trial_type":"html-keyboard-response","trial_index":60,"plugin_version":"2.1.0","time_elapsed":158361,"subject_id":"88788","group":"Group2","full_date":"2025-11-12T03:45:03.309Z","date":"2025-11-12","time":"03:45:03"},{"task":"memory_phase","broad_category":"S","image_png":"S_Conglomerate_14.png","image_id":382,"category_name":"Conglomerate","category":24,"distinct_rating":6.86,"distinct_type":"Top","rt":null,"stimulus":"Stimuli_Rocks480/S_Conglomerate_14.png","response":null,"trial_type":"image-keyboard-response","trial_index":61,"plugin_version":"2.1.0","time_elapsed":160863,"subject_id":"88788","group":"Group2","full_date":"2025-11-12T03:45:03.309Z","date":"2025-11-12","time":"03:45:03"},{"rt":null,"stimulus":"<p style=\"font-size: 50px; margin: 0; text-align: center;\">+</p>","response":null,"trial_type":"html-keyboard-response","trial_index":62,"plugin_version":"2.1.0","time_elapsed":161870,"subject_id":"88788","group":"Group2","full_date":"2025-11-12T03:45:03.309Z","date":"2025-11-12","time":"03:45:03"},{"task":"memory_phase","broad_category":"I","image_png":"I_Pumice_14.png","image_id":142,"category_name":"Pumice","category":9,"distinct_rating":3.22,"distinct_type":"Bottom","rt":null,"stimulus":"Stimuli_Rocks480/I_Pumice_14.png","response":null,"trial_type":"image-keyboard-response","trial_index":63,"plugin_version":"2.1.0","time_elapsed":164386,"subject_id":"88788","group":"Group2","full_date":"2025-11-12T03:45:03.309Z","date":"2025-11-12","time":"03:45:03"},{"rt":null,"stimulus":"<p style=\"font-size: 50px; margin: 0; text-align: center;\">+</p>","response":null,"trial_type":"html-keyboard-response","trial_index":64,"plugin_version":"2.1.0","time_elapsed":165395,"subject_id":"88788","group":"Group2","full_date":"2025-11-12T03:45:03.309Z","date":"2025-11-12","time":"03:45:03"},{"task":"memory_phase","broad_category":"M","image_png":"M_Phyllite_02.png","image_id":258,"category_name":"Phyllite","category":17,"distinct_rating":2.89,"distinct_type":"Bottom","rt":null,"stimulus":"Stimuli_Rocks480/M_Phyllite_02.png","response":null,"trial_type":"image-keyboard-response","trial_index":65,"plugin_version":"2.1.0","time_elapsed":167901,"subject_id":"88788","group":"Group2","full_date":"2025-11-12T03:45:03.309Z","date":"2025-11-12","time":"03:45:03"},{"rt":null,"stimulus":"<p style=\"font-size: 50px; margin: 0; text-align: center;\">+</p>","response":null,"trial_type":"html-keyboard-response","trial_index":66,"plugin_version":"2.1.0","time_elapsed":168910,"subject_id":"88788","group":"Group2","full_date":"2025-11-12T03:45:03.309Z","date":"2025-11-12","time":"03:45:03"},{"task":"memory_phase","broad_category":"I","image_png":"I_Pumice_01.png","image_id":129,"category_name":"Pumice","category":9,"distinct_rating":3.25,"distinct_type":"Bottom","rt":null,"stimulus":"Stimuli_Rocks480/I_Pumice_01.png","response":null,"trial_type":"image-keyboard-response","trial_index":67,"plugin_version":"2.1.0","time_elapsed":171426,"subject_id":"88788","group":"Group2","full_date":"2025-11-12T03:45:03.309Z","date":"2025-11-12","time":"03:45:03"},{"rt":null,"stimulus":"<p style=\"font-size: 50px; margin: 0; text-align: center;\">+</p>","response":null,"trial_type":"html-keyboard-response","trial_index":68,"plugin_version":"2.1.0","time_elapsed":172437,"subject_id":"88788","group":"Group2","full_date":"2025-11-12T03:45:03.309Z","date":"2025-11-12","time":"03:45:03"},{"task":"memory_phase","broad_category":"I","image_png":"I_Rhyolite_10.png","image_id":154,"category_name":"Rhyolite","category":10,"distinct_rating":2.88,"distinct_type":"Bottom","rt":null,"stimulus":"Stimuli_Rocks480/I_Rhyolite_10.png","response":null,"trial_type":"image-keyboard-response","trial_index":69,"plugin_version":"2.1.0","time_elapsed":174946,"subject_id":"88788","group":"Group2","full_date":"2025-11-12T03:45:03.309Z","date":"2025-11-12","time":"03:45:03"},{"rt":null,"stimulus":"<p style=\"font-size: 50px; margin: 0; text-align: center;\">+</p>","response":null,"trial_type":"html-keyboard-response","trial_index":70,"plugin_version":"2.1.0","time_elapsed":175958,"subject_id":"88788","group":"Group2","full_date":"2025-11-12T03:45:03.309Z","date":"2025-11-12","time":"03:45:03"},{"task":"memory_phase","broad_category":"M","image_png":"M_Phyllite_13.png","image_id":269,"category_name":"Phyllite","category":17,"distinct_rating":2.8,"distinct_type":"Bottom","rt":null,"stimulus":"Stimuli_Rocks480/M_Phyllite_13.png","response":null,"trial_type":"image-keyboard-response","trial_index":71,"plugin_version":"2.1.0","time_elapsed":178471,"subject_id":"88788","group":"Group2","full_date":"2025-11-12T03:45:03.309Z","date":"2025-11-12","time":"03:45:03"},{"rt":null,"stimulus":"<p style=\"font-size: 50px; margin: 0; text-align: center;\">+</p>","response":null,"trial_type":"html-keyboard-response","trial_index":72,"plugin_version":"2.1.0","time_elapsed":179483,"subject_id":"88788","group":"Group2","full_date":"2025-11-12T03:45:03.309Z","date":"2025-11-12","time":"03:45:03"},{"task":"memory_phase","broad_category":"I","image_png":"I_Andesite_09.png","image_id":9,"category_name":"Andesite","category":1,"distinct_rating":2.49,"distinct_type":"Bottom","rt":null,"stimulus":"Stimuli_Rocks480/I_Andesite_09.png","response":null,"trial_type":"image-keyboard-response","trial_index":73,"plugin_version":"2.1.0","time_elapsed":181999,"subject_id":"88788","group":"Group2","full_date":"2025-11-12T03:45:03.309Z","date":"2025-11-12","time":"03:45:03"},{"rt":null,"stimulus":"<p style=\"font-size: 50px; margin: 0; text-align: center;\">+</p>","response":null,"trial_type":"html-keyboard-response","trial_index":74,"plugin_version":"2.1.0","time_elapsed":183012,"subject_id":"88788","group":"Group2","full_date":"2025-11-12T03:45:03.309Z","date":"2025-11-12","time":"03:45:03"},{"task":"memory_phase","broad_category":"M","image_png":"M_Slate_14.png","image_id":318,"category_name":"Slate","category":20,"distinct_rating":2.58,"distinct_type":"Bottom","rt":null,"stimulus":"Stimuli_Rocks480/M_Slate_14.png","response":null,"trial_type":"image-keyboard-response","trial_index":75,"plugin_version":"2.1.0","time_elapsed":185525,"subject_id":"88788","group":"Group2","full_date":"2025-11-12T03:45:03.309Z","date":"2025-11-12","time":"03:45:03"},{"rt":null,"stimulus":"<p style=\"font-size: 50px; margin: 0; text-align: center;\">+</p>","response":null,"trial_type":"html-keyboard-response","trial_index":76,"plugin_version":"2.1.0","time_elapsed":186543,"subject_id":"88788","group":"Group2","full_date":"2025-11-12T03:45:03.309Z","date":"2025-11-12","time":"03:45:03"},{"task":"memory_phase","broad_category":"S","image_png":"S_Shale_02.png","image_id":466,"category_name":"Shale","category":30,"distinct_rating":2.9,"distinct_type":"Bottom","rt":null,"stimulus":"Stimuli_Rocks480/S_Shale_02.png","response":null,"trial_type":"image-keyboard-response","trial_index":77,"plugin_version":"2.1.0","time_elapsed":189057,"subject_id":"88788","group":"Group2","full_date":"2025-11-12T03:45:03.309Z","date":"2025-11-12","time":"03:45:03"},{"rt":null,"stimulus":"<p style=\"font-size: 50px; margin: 0; text-align: center;\">+</p>","response":null,"trial_type":"html-keyboard-response","trial_index":78,"plugin_version":"2.1.0","time_elapsed":190062,"subject_id":"88788","group":"Group2","full_date":"2025-11-12T03:45:03.309Z","date":"2025-11-12","time":"03:45:03"},{"task":"memory_phase","broad_category":"I","image_png":"I_Gabbro_02.png","image_id":50,"category_name":"Gabbro","category":4,"distinct_rating":2.73,"distinct_type":"Bottom","rt":null,"stimulus":"Stimuli_Rocks480/I_Gabbro_02.png","response":null,"trial_type":"image-keyboard-response","trial_index":79,"plugin_version":"2.1.0","time_elapsed":192569,"subject_id":"88788","group":"Group2","full_date":"2025-11-12T03:45:03.309Z","date":"2025-11-12","time":"03:45:03"},{"rt":null,"stimulus":"<p style=\"font-size: 50px; margin: 0; text-align: center;\">+</p>","response":null,"trial_type":"html-keyboard-response","trial_index":80,"plugin_version":"2.1.0","time_elapsed":193575,"subject_id":"88788","group":"Group2","full_date":"2025-11-12T03:45:03.309Z","date":"2025-11-12","time":"03:45:03"},{"task":"memory_phase","broad_category":"I","image_png":"I_Pegmatite_11.png","image_id":107,"category_name":"Pegmatite","category":7,"distinct_rating":7.11,"distinct_type":"Top","rt":null,"stimulus":"Stimuli_Rocks480/I_Pegmatite_11.png","response":null,"trial_type":"image-keyboard-response","trial_index":81,"plugin_version":"2.1.0","time_elapsed":196090,"subject_id":"88788","group":"Group2","full_date":"2025-11-12T03:45:03.309Z","date":"2025-11-12","time":"03:45:03"},{"rt":null,"stimulus":"<p style=\"font-size: 50px; margin: 0; text-align: center;\">+</p>","response":null,"trial_type":"html-keyboard-response","trial_index":82,"plugin_version":"2.1.0","time_elapsed":197102,"subject_id":"88788","group":"Group2","full_date":"2025-11-12T03:45:03.309Z","date":"2025-11-12","time":"03:45:03"},{"task":"memory_phase","broad_category":"M","image_png":"M_Gneiss_15.png","image_id":207,"category_name":"Gneiss","category":13,"distinct_rating":3.11,"distinct_type":"Bottom","rt":null,"stimulus":"Stimuli_Rocks480/M_Gneiss_15.png","response":null,"trial_type":"image-keyboard-response","trial_index":83,"plugin_version":"2.1.0","time_elapsed":199613,"subject_id":"88788","group":"Group2","full_date":"2025-11-12T03:45:03.309Z","date":"2025-11-12","time":"03:45:03"},{"rt":null,"stimulus":"<p style=\"font-size: 50px; margin: 0; text-align: center;\">+</p>","response":null,"trial_type":"html-keyboard-response","trial_index":84,"plugin_version":"2.1.0","time_elapsed":200628,"subject_id":"88788","group":"Group2","full_date":"2025-11-12T03:45:03.309Z","date":"2025-11-12","time":"03:45:03"},{"task":"memory_phase","broad_category":"S","image_png":"S_Dolomite_07.png","image_id":391,"category_name":"Dolomite","category":25,"distinct_rating":1.73,"distinct_type":"Bottom","rt":null,"stimulus":"Stimuli_Rocks480/S_Dolomite_07.png","response":null,"trial_type":"image-keyboard-response","trial_index":85,"plugin_version":"2.1.0","time_elapsed":203134,"subject_id":"88788","group":"Group2","full_date":"2025-11-12T03:45:03.309Z","date":"2025-11-12","time":"03:45:03"},{"rt":null,"stimulus":"<p style=\"font-size: 50px; margin: 0; text-align: center;\">+</p>","response":null,"trial_type":"html-keyboard-response","trial_index":86,"plugin_version":"2.1.0","time_elapsed":204148,"subject_id":"88788","group":"Group2","full_date":"2025-11-12T03:45:03.309Z","date":"2025-11-12","time":"03:45:03"},{"task":"memory_phase","broad_category":"I","image_png":"I_Gabbro_14.png","image_id":62,"category_name":"Gabbro","category":4,"distinct_rating":2.95,"distinct_type":"Bottom","rt":null,"stimulus":"Stimuli_Rocks480/I_Gabbro_14.png","response":null,"trial_type":"image-keyboard-response","trial_index":87,"plugin_version":"2.1.0","time_elapsed":206662,"subject_id":"88788","group":"Group2","full_date":"2025-11-12T03:45:03.309Z","date":"2025-11-12","time":"03:45:03"},{"rt":null,"stimulus":"<p style=\"font-size: 50px; margin: 0; text-align: center;\">+</p>","response":null,"trial_type":"html-keyboard-response","trial_index":88,"plugin_version":"2.1.0","time_elapsed":207678,"subject_id":"88788","group":"Group2","full_date":"2025-11-12T03:45:03.309Z","date":"2025-11-12","time":"03:45:03"},{"task":"memory_phase","broad_category":"I","image_png":"I_Basalt_10.png","image_id":26,"category_name":"Basalt","category":2,"distinct_rating":2.76,"distinct_type":"Bottom","rt":null,"stimulus":"Stimuli_Rocks480/I_Basalt_10.png","response":null,"trial_type":"image-keyboard-response","trial_index":89,"plugin_version":"2.1.0","time_elapsed":210187,"subject_id":"88788","group":"Group2","full_date":"2025-11-12T03:45:03.309Z","date":"2025-11-12","time":"03:45:03"},{"rt":null,"stimulus":"<p style=\"font-size: 50px; margin: 0; text-align: center;\">+</p>","response":null,"trial_type":"html-keyboard-response","trial_index":90,"plugin_version":"2.1.0","time_elapsed":211189,"subject_id":"88788","group":"Group2","full_date":"2025-11-12T03:45:03.309Z","date":"2025-11-12","time":"03:45:03"},{"task":"memory_phase","broad_category":"S","image_png":"S_Shale_03.png","image_id":467,"category_name":"Shale","category":30,"distinct_rating":1.95,"distinct_type":"Bottom","rt":null,"stimulus":"Stimuli_Rocks480/S_Shale_03.png","response":null,"trial_type":"image-keyboard-response","trial_index":91,"plugin_version":"2.1.0","time_elapsed":213699,"subject_id":"88788","group":"Group2","full_date":"2025-11-12T03:45:03.309Z","date":"2025-11-12","time":"03:45:03"},{"rt":null,"stimulus":"<p style=\"font-size: 50px; margin: 0; text-align: center;\">+</p>","response":null,"trial_type":"html-keyboard-response","trial_index":92,"plugin_version":"2.1.0","time_elapsed":214701,"subject_id":"88788","group":"Group2","full_date":"2025-11-12T03:45:03.309Z","date":"2025-11-12","time":"03:45:03"},{"task":"memory_phase","broad_category":"I","image_png":"I_Diorite_01.png","image_id":33,"category_name":"Diorite","category":3,"distinct_rating":2.97,"distinct_type":"Bottom","rt":null,"stimulus":"Stimuli_Rocks480/I_Diorite_01.png","response":null,"trial_type":"image-keyboard-response","trial_index":93,"plugin_version":"2.1.0","time_elapsed":217218,"subject_id":"88788","group":"Group2","full_date":"2025-11-12T03:45:03.309Z","date":"2025-11-12","time":"03:45:03"},{"rt":null,"stimulus":"<p style=\"font-size: 50px; margin: 0; text-align: center;\">+</p>","response":null,"trial_type":"html-keyboard-response","trial_index":94,"plugin_version":"2.1.0","time_elapsed":218227,"subject_id":"88788","group":"Group2","full_date":"2025-11-12T03:45:03.309Z","date":"2025-11-12","time":"03:45:03"},{"task":"memory_phase","broad_category":"I","image_png":"I_Rhyolite_05.png","image_id":149,"category_name":"Rhyolite","category":10,"distinct_rating":3.02,"distinct_type":"Bottom","rt":null,"stimulus":"Stimuli_Rocks480/I_Rhyolite_05.png","response":null,"trial_type":"image-keyboard-response","trial_index":95,"plugin_version":"2.1.0","time_elapsed":220736,"subject_id":"88788","group":"Group2","full_date":"2025-11-12T03:45:03.309Z","date":"2025-11-12","time":"03:45:03"},{"rt":null,"stimulus":"<p style=\"font-size: 50px; margin: 0; text-align: center;\">+</p>","response":null,"trial_type":"html-keyboard-response","trial_index":96,"plugin_version":"2.1.0","time_elapsed":221743,"subject_id":"88788","group":"Group2","full_date":"2025-11-12T03:45:03.309Z","date":"2025-11-12","time":"03:45:03"},{"task":"memory_phase","broad_category":"S","image_png":"S_Shale_07.png","image_id":471,"category_name":"Shale","category":30,"distinct_rating":2.73,"distinct_type":"Bottom","rt":null,"stimulus":"Stimuli_Rocks480/S_Shale_07.png","response":null,"trial_type":"image-keyboard-response","trial_index":97,"plugin_version":"2.1.0","time_elapsed":224248,"subject_id":"88788","group":"Group2","full_date":"2025-11-12T03:45:03.309Z","date":"2025-11-12","time":"03:45:03"},{"rt":null,"stimulus":"<p style=\"font-size: 50px; margin: 0; text-align: center;\">+</p>","response":null,"trial_type":"html-keyboard-response","trial_index":98,"plugin_version":"2.1.0","time_elapsed":225260,"subject_id":"88788","group":"Group2","full_date":"2025-11-12T03:45:03.309Z","date":"2025-11-12","time":"03:45:03"},{"task":"memory_phase","broad_category":"M","image_png":"M_Marble_02.png","image_id":226,"category_name":"Marble","category":15,"distinct_rating":3.2,"distinct_type":"Bottom","rt":null,"stimulus":"Stimuli_Rocks480/M_Marble_02.png","response":null,"trial_type":"image-keyboard-response","trial_index":99,"plugin_version":"2.1.0","time_elapsed":227771,"subject_id":"88788","group":"Group2","full_date":"2025-11-12T03:45:03.309Z","date":"2025-11-12","time":"03:45:03"},{"rt":null,"stimulus":"<p style=\"font-size: 50px; margin: 0; text-align: center;\">+</p>","response":null,"trial_type":"html-keyboard-response","trial_index":100,"plugin_version":"2.1.0","time_elapsed":228778,"subject_id":"88788","group":"Group2","full_date":"2025-11-12T03:45:03.309Z","date":"2025-11-12","time":"03:45:03"},{"task":"memory_phase","broad_category":"M","image_png":"M_Quartzite_07.png","image_id":279,"category_name":"Quartzite","category":18,"distinct_rating":1.97,"distinct_type":"Bottom","rt":null,"stimulus":"Stimuli_Rocks480/M_Quartzite_07.png","response":null,"trial_type":"image-keyboard-response","trial_index":101,"plugin_version":"2.1.0","time_elapsed":231285,"subject_id":"88788","group":"Group2","full_date":"2025-11-12T03:45:03.309Z","date":"2025-11-12","time":"03:45:03"},{"rt":null,"stimulus":"<p style=\"font-size: 50px; margin: 0; text-align: center;\">+</p>","response":null,"trial_type":"html-keyboard-response","trial_index":102,"plugin_version":"2.1.0","time_elapsed":232301,"subject_id":"88788","group":"Group2","full_date":"2025-11-12T03:45:03.309Z","date":"2025-11-12","time":"03:45:03"},{"task":"memory_phase","broad_category":"M","image_png":"M_Quartzite_12.png","image_id":284,"category_name":"Quartzite","category":18,"distinct_rating":1.92,"distinct_type":"Bottom","rt":null,"stimulus":"Stimuli_Rocks480/M_Quartzite_12.png","response":null,"trial_type":"image-keyboard-response","trial_index":103,"plugin_version":"2.1.0","time_elapsed":234804,"subject_id":"88788","group":"Group2","full_date":"2025-11-12T03:45:03.309Z","date":"2025-11-12","time":"03:45:03"},{"rt":null,"stimulus":"<p style=\"font-size: 50px; margin: 0; text-align: center;\">+</p>","response":null,"trial_type":"html-keyboard-response","trial_index":104,"plugin_version":"2.1.0","time_elapsed":235815,"subject_id":"88788","group":"Group2","full_date":"2025-11-12T03:45:03.309Z","date":"2025-11-12","time":"03:45:03"},{"task":"memory_phase","broad_category":"I","image_png":"I_Pegmatite_03.png","image_id":99,"category_name":"Pegmatite","category":7,"distinct_rating":7.24,"distinct_type":"Top","rt":null,"stimulus":"Stimuli_Rocks480/I_Pegmatite_03.png","response":null,"trial_type":"image-keyboard-response","trial_index":105,"plugin_version":"2.1.0","time_elapsed":238318,"subject_id":"88788","group":"Group2","full_date":"2025-11-12T03:45:03.309Z","date":"2025-11-12","time":"03:45:03"},{"rt":12812,"stimulus":"<div style=\"max-width: 760px; margin: auto; font-size: 20px; line-height: 1.5;\">\n      <h1 style=\"text-align:center; font-size: 30px;\">Instructions for the Test Phase</h1>\n      <p>\n        The study phase is now complete.\n      </p>\n      <p>\n        In the test phase, you will again see a series of rock images. \n        Some will be ones you saw before - during the study phase, while others will be new.  \n        <b>Your task</b> is to decide whether you have seen each image before by pressing the corresponding key on your keyboard:<br><br>\n          <b>A</b> - NO (you did not see this image before)<br>\n          <b>L</b> - YES (you saw this image before)<br><br>\n        The test will proceed at your own pace. You will receive feedback after each response.  \n        Please try to respond <b>as accurately as possible</b>.\n      </p>\n      <p>\n        <b>Reminder:</b> If your computer has multiple language settings (e.g., English and another language),\n        please ensure it is set to English during the test phase.\n      </p>\n      <p>\n        You can track your progress using the <b>completion bar</b> at the top of the screen.  \n        Note that it has been refreshed to reflect your progress during this final phase.\n      </p>\n      <p>\n        Press the button below when you are ready to continue.\n      </p>\n    </div>","response":0,"trial_type":"html-button-response","trial_index":106,"plugin_version":"2.1.0","time_elapsed":251133,"subject_id":"88788","group":"Group2","full_date":"2025-11-12T03:45:03.309Z","date":"2025-11-12","time":"03:45:03"},{"correct_response":"a","task":"test_phase","broad_category":"I","image_png":"I_Obsidian_05.png","image_id":85,"category_name":"Obsidian","category":6,"distinct_rating":7.32,"distinct_type":"Top","item_type":"Foil","rt":6055,"stimulus":"Stimuli_Rocks480/I_Obsidian_05.png","response":"a","trial_type":"image-keyboard-response","trial_index":107,"plugin_version":"2.1.0","time_elapsed":257192,"subject_id":"88788","group":"Group2","full_date":"2025-11-12T03:45:03.309Z","date":"2025-11-12","time":"03:45:03","cor_ans":true},{"trial_type":"html-keyboard-response","rt":null,"stimulus":"<p style=\"color: green; font-size: 50px; font-weight: bold;\">Correct</p>","response":null,"trial_index":108,"plugin_version":"2.1.0","time_elapsed":257705,"subject_id":"88788","group":"Group2","full_date":"2025-11-12T03:45:03.309Z","date":"2025-11-12","time":"03:45:03"},{"correct_response":"a","task":"test_phase","broad_category":"I","image_png":"I_Basalt_01.png","image_id":17,"category_name":"Basalt","category":2,"distinct_rating":1.92,"distinct_type":"Bottom","item_type":"Foil","rt":2090,"stimulus":"Stimuli_Rocks480/I_Basalt_01.png","response":"l","trial_type":"image-keyboard-response","trial_index":109,"plugin_version":"2.1.0","time_elapsed":259798,"subject_id":"88788","group":"Group2","full_date":"2025-11-12T03:45:03.309Z","date":"2025-11-12","time":"03:45:03","cor_ans":false},{"trial_type":"html-keyboard-response","rt":null,"stimulus":"<p style=\"color: red; font-size: 50px; font-weight: bold;\">Incorrect</p>","response":null,"trial_index":110,"plugin_version":"2.1.0","time_elapsed":260307,"subject_id":"88788","group":"Group2","full_date":"2025-11-12T03:45:03.309Z","date":"2025-11-12","time":"03:45:03"},{"correct_response":"a","task":"test_phase","broad_category":"S","image_png":"S_Sandstone_15.png","image_id":463,"category_name":"Sandstone","category":29,"distinct_rating":2,"distinct_type":"Bottom","item_type":"Foil","rt":4076,"stimulus":"Stimuli_Rocks480/S_Sandstone_15.png","response":"l","trial_type":"image-keyboard-response","trial_index":111,"plugin_version":"2.1.0","time_elapsed":264386,"subject_id":"88788","group":"Group2","full_date":"2025-11-12T03:45:03.309Z","date":"2025-11-12","time":"03:45:03","cor_ans":false},{"trial_type":"html-keyboard-response","rt":null,"stimulus":"<p style=\"color: red; font-size: 50px; font-weight: bold;\">Incorrect</p>","response":null,"trial_index":112,"plugin_version":"2.1.0","time_elapsed":264891,"subject_id":"88788","group":"Group2","full_date":"2025-11-12T03:45:03.309Z","date":"2025-11-12","time":"03:45:03"},{"correct_response":"l","task":"test_phase","broad_category":"S","image_png":"S_Shale_03.png","image_id":467,"category_name":"Shale","category":30,"distinct_rating":1.95,"distinct_type":"Bottom","item_type":"Target","rt":3658,"stimulus":"Stimuli_Rocks480/S_Shale_03.png","response":"l","trial_type":"image-keyboard-response","trial_index":113,"plugin_version":"2.1.0","time_elapsed":268551,"subject_id":"88788","group":"Group2","full_date":"2025-11-12T03:45:03.309Z","date":"2025-11-12","time":"03:45:03","cor_ans":true},{"trial_type":"html-keyboard-response","rt":null,"stimulus":"<p style=\"color: green; font-size: 50px; font-weight: bold;\">Correct</p>","response":null,"trial_index":114,"plugin_version":"2.1.0","time_elapsed":269059,"subject_id":"88788","group":"Group2","full_date":"2025-11-12T03:45:03.309Z","date":"2025-11-12","time":"03:45:03"},{"correct_response":"a","task":"test_phase","broad_category":"M","image_png":"M_Phyllite_03.png","image_id":259,"category_name":"Phyllite","category":17,"distinct_rating":2.5,"distinct_type":"Bottom","item_type":"Foil","rt":2132,"stimulus":"Stimuli_Rocks480/M_Phyllite_03.png","response":"a","trial_type":"image-keyboard-response","trial_index":115,"plugin_version":"2.1.0","time_elapsed":271194,"subject_id":"88788","group":"Group2","full_date":"2025-11-12T03:45:03.309Z","date":"2025-11-12","time":"03:45:03","cor_ans":true},{"trial_type":"html-keyboard-response","rt":null,"stimulus":"<p style=\"color: green; font-size: 50px; font-weight: bold;\">Correct</p>","response":null,"trial_index":116,"plugin_version":"2.1.0","time_elapsed":271704,"subject_id":"88788","group":"Group2","full_date":"2025-11-12T03:45:03.309Z","date":"2025-11-12","time":"03:45:03"},{"correct_response":"l","task":"test_phase","broad_category":"I","image_png":"I_Rhyolite_10.png","image_id":154,"category_name":"Rhyolite","category":10,"distinct_rating":2.88,"distinct_type":"Bottom","item_type":"Target","rt":1139,"stimulus":"Stimuli_Rocks480/I_Rhyolite_10.png","response":"l","trial_type":"image-keyboard-response","trial_index":117,"plugin_version":"2.1.0","time_elapsed":272847,"subject_id":"88788","group":"Group2","full_date":"2025-11-12T03:45:03.309Z","date":"2025-11-12","time":"03:45:03","cor_ans":true},{"trial_type":"html-keyboard-response","rt":null,"stimulus":"<p style=\"color: green; font-size: 50px; font-weight: bold;\">Correct</p>","response":null,"trial_index":118,"plugin_version":"2.1.0","time_elapsed":273361,"subject_id":"88788","group":"Group2","full_date":"2025-11-12T03:45:03.309Z","date":"2025-11-12","time":"03:45:03"},{"correct_response":"l","task":"test_phase","broad_category":"M","image_png":"M_Phyllite_05.png","image_id":261,"category_name":"Phyllite","category":17,"distinct_rating":2.14,"distinct_type":"Bottom","item_type":"Target","rt":1721,"stimulus":"Stimuli_Rocks480/M_Phyllite_05.png","response":"l","trial_type":"image-keyboard-response","trial_index":119,"plugin_version":"2.1.0","time_elapsed":275086,"subject_id":"88788","group":"Group2","full_date":"2025-11-12T03:45:03.309Z","date":"2025-11-12","time":"03:45:03","cor_ans":true},{"trial_type":"html-keyboard-response","rt":null,"stimulus":"<p style=\"color: green; font-size: 50px; font-weight: bold;\">Correct</p>","response":null,"trial_index":120,"plugin_version":"2.1.0","time_elapsed":275602,"subject_id":"88788","group":"Group2","full_date":"2025-11-12T03:45:03.309Z","date":"2025-11-12","time":"03:45:03"},{"correct_response":"l","task":"test_phase","broad_category":"M","image_png":"M_Quartzite_12.png","image_id":284,"category_name":"Quartzite","category":18,"distinct_rating":1.92,"distinct_type":"Bottom","item_type":"Target","rt":7217,"stimulus":"Stimuli_Rocks480/M_Quartzite_12.png","response":"a","trial_type":"image-keyboard-response","trial_index":121,"plugin_version":"2.1.0","time_elapsed":282821,"subject_id":"88788","group":"Group2","full_date":"2025-11-12T03:45:03.309Z","date":"2025-11-12","time":"03:45:03","cor_ans":false},{"trial_type":"html-keyboard-response","rt":null,"stimulus":"<p style=\"color: red; font-size: 50px; font-weight: bold;\">Incorrect</p>","response":null,"trial_index":122,"plugin_version":"2.1.0","time_elapsed":283330,"subject_id":"88788","group":"Group2","full_date":"2025-11-12T03:45:03.309Z","date":"2025-11-12","time":"03:45:03"},{"correct_response":"l","task":"test_phase","broad_category":"S","image_png":"S_Shale_02.png","image_id":466,"category_name":"Shale","category":30,"distinct_rating":2.9,"distinct_type":"Bottom","item_type":"Target","rt":1355,"stimulus":"Stimuli_Rocks480/S_Shale_02.png","response":"l","trial_type":"image-keyboard-response","trial_index":123,"plugin_version":"2.1.0","time_elapsed":284687,"subject_id":"88788","group":"Group2","full_date":"2025-11-12T03:45:03.309Z","date":"2025-11-12","time":"03:45:03","cor_ans":true},{"trial_type":"html-keyboard-response","rt":null,"stimulus":"<p style=\"color: green; font-size: 50px; font-weight: bold;\">Correct</p>","response":null,"trial_index":124,"plugin_version":"2.1.0","time_elapsed":285201,"subject_id":"88788","group":"Group2","full_date":"2025-11-12T03:45:03.309Z","date":"2025-11-12","time":"03:45:03"},{"correct_response":"l","task":"test_phase","broad_category":"M","image_png":"M_Gneiss_10.png","image_id":202,"category_name":"Gneiss","category":13,"distinct_rating":3.09,"distinct_type":"Bottom","item_type":"Target","rt":898,"stimulus":"Stimuli_Rocks480/M_Gneiss_10.png","response":"l","trial_type":"image-keyboard-response","trial_index":125,"plugin_version":"2.1.0","time_elapsed":286110,"subject_id":"88788","group":"Group2","full_date":"2025-11-12T03:45:03.309Z","date":"2025-11-12","time":"03:45:03","cor_ans":true},{"trial_type":"html-keyboard-response","rt":null,"stimulus":"<p style=\"color: green; font-size: 50px; font-weight: bold;\">Correct</p>","response":null,"trial_index":126,"plugin_version":"2.1.0","time_elapsed":286620,"subject_id":"88788","group":"Group2","full_date":"2025-11-12T03:45:03.309Z","date":"2025-11-12","time":"03:45:03"},{"correct_response":"a","task":"test_phase","broad_category":"I","image_png":"I_Pegmatite_10.png","image_id":106,"category_name":"Pegmatite","category":7,"distinct_rating":7.66,"distinct_type":"Top","item_type":"Foil","rt":1332,"stimulus":"Stimuli_Rocks480/I_Pegmatite_10.png","response":"a","trial_type":"image-keyboard-response","trial_index":127,"plugin_version":"2.1.0","time_elapsed":287956,"subject_id":"88788","group":"Group2","full_date":"2025-11-12T03:45:03.309Z","date":"2025-11-12","time":"03:45:03","cor_ans":true},{"trial_type":"html-keyboard-response","rt":null,"stimulus":"<p style=\"color: green; font-size: 50px; font-weight: bold;\">Correct</p>","response":null,"trial_index":128,"plugin_version":"2.1.0","time_elapsed":288463,"subject_id":"88788","group":"Group2","full_date":"2025-11-12T03:45:03.309Z","date":"2025-11-12","time":"03:45:03"},{"correct_response":"l","task":"test_phase","broad_category":"I","image_png":"I_Diorite_01.png","image_id":33,"category_name":"Diorite","category":3,"distinct_rating":2.97,"distinct_type":"Bottom","item_type":"Target","rt":954,"stimulus":"Stimuli_Rocks480/I_Diorite_01.png","response":"l","trial_type":"image-keyboard-response","trial_index":129,"plugin_version":"2.1.0","time_elapsed":289420,"subject_id":"88788","group":"Group2","full_date":"2025-11-12T03:45:03.309Z","date":"2025-11-12","time":"03:45:03","cor_ans":true},{"trial_type":"html-keyboard-response","rt":null,"stimulus":"<p style=\"color: green; font-size: 50px; font-weight: bold;\">Correct</p>","response":null,"trial_index":130,"plugin_version":"2.1.0","time_elapsed":289925,"subject_id":"88788","group":"Group2","full_date":"2025-11-12T03:45:03.309Z","date":"2025-11-12","time":"03:45:03"},{"correct_response":"l","task":"test_phase","broad_category":"M","image_png":"M_Phyllite_02.png","image_id":258,"category_name":"Phyllite","category":17,"distinct_rating":2.89,"distinct_type":"Bottom","item_type":"Target","rt":1573,"stimulus":"Stimuli_Rocks480/M_Phyllite_02.png","response":"l","trial_type":"image-keyboard-response","trial_index":131,"plugin_version":"2.1.0","time_elapsed":291501,"subject_id":"88788","group":"Group2","full_date":"2025-11-12T03:45:03.309Z","date":"2025-11-12","time":"03:45:03","cor_ans":true},{"trial_type":"html-keyboard-response","rt":null,"stimulus":"<p style=\"color: green; font-size: 50px; font-weight: bold;\">Correct</p>","response":null,"trial_index":132,"plugin_version":"2.1.0","time_elapsed":292010,"subject_id":"88788","group":"Group2","full_date":"2025-11-12T03:45:03.309Z","date":"2025-11-12","time":"03:45:03"},{"correct_response":"l","task":"test_phase","broad_category":"M","image_png":"M_Gneiss_15.png","image_id":207,"category_name":"Gneiss","category":13,"distinct_rating":3.11,"distinct_type":"Bottom","item_type":"Target","rt":1255,"stimulus":"Stimuli_Rocks480/M_Gneiss_15.png","response":"l","trial_type":"image-keyboard-response","trial_index":133,"plugin_version":"2.1.0","time_elapsed":293267,"subject_id":"88788","group":"Group2","full_date":"2025-11-12T03:45:03.309Z","date":"2025-11-12","time":"03:45:03","cor_ans":true},{"trial_type":"html-keyboard-response","rt":null,"stimulus":"<p style=\"color: green; font-size: 50px; font-weight: bold;\">Correct</p>","response":null,"trial_index":134,"plugin_version":"2.1.0","time_elapsed":293774,"subject_id":"88788","group":"Group2","full_date":"2025-11-12T03:45:03.309Z","date":"2025-11-12","time":"03:45:03"},{"correct_response":"a","task":"test_phase","broad_category":"M","image_png":"M_Gneiss_06.png","image_id":198,"category_name":"Gneiss","category":13,"distinct_rating":2.65,"distinct_type":"Bottom","item_type":"Foil","rt":900,"stimulus":"Stimuli_Rocks480/M_Gneiss_06.png","response":"l","trial_type":"image-keyboard-response","trial_index":135,"plugin_version":"2.1.0","time_elapsed":294676,"subject_id":"88788","group":"Group2","full_date":"2025-11-12T03:45:03.309Z","date":"2025-11-12","time":"03:45:03","cor_ans":false},{"trial_type":"html-keyboard-response","rt":null,"stimulus":"<p style=\"color: red; font-size: 50px; font-weight: bold;\">Incorrect</p>","response":null,"trial_index":136,"plugin_version":"2.1.0","time_elapsed":295187,"subject_id":"88788","group":"Group2","full_date":"2025-11-12T03:45:03.309Z","date":"2025-11-12","time":"03:45:03"},{"correct_response":"l","task":"test_phase","broad_category":"M","image_png":"M_Quartzite_07.png","image_id":279,"category_name":"Quartzite","category":18,"distinct_rating":1.97,"distinct_type":"Bottom","item_type":"Target","rt":1201,"stimulus":"Stimuli_Rocks480/M_Quartzite_07.png","response":"l","trial_type":"image-keyboard-response","trial_index":137,"plugin_version":"2.1.0","time_elapsed":296391,"subject_id":"88788","group":"Group2","full_date":"2025-11-12T03:45:03.309Z","date":"2025-11-12","time":"03:45:03","cor_ans":true},{"trial_type":"html-keyboard-response","rt":null,"stimulus":"<p style=\"color: green; font-size: 50px; font-weight: bold;\">Correct</p>","response":null,"trial_index":138,"plugin_version":"2.1.0","time_elapsed":296905,"subject_id":"88788","group":"Group2","full_date":"2025-11-12T03:45:03.309Z","date":"2025-11-12","time":"03:45:03"},{"correct_response":"a","task":"test_phase","broad_category":"M","image_png":"M_Gneiss_05.png","image_id":197,"category_name":"Gneiss","category":13,"distinct_rating":2.97,"distinct_type":"Bottom","item_type":"Foil","rt":4725,"stimulus":"Stimuli_Rocks480/M_Gneiss_05.png","response":"l","trial_type":"image-keyboard-response","trial_index":139,"plugin_version":"2.1.0","time_elapsed":301633,"subject_id":"88788","group":"Group2","full_date":"2025-11-12T03:45:03.309Z","date":"2025-11-12","time":"03:45:03","cor_ans":false},{"trial_type":"html-keyboard-response","rt":null,"stimulus":"<p style=\"color: red; font-size: 50px; font-weight: bold;\">Incorrect</p>","response":null,"trial_index":140,"plugin_version":"2.1.0","time_elapsed":302139,"subject_id":"88788","group":"Group2","full_date":"2025-11-12T03:45:03.309Z","date":"2025-11-12","time":"03:45:03"},{"correct_response":"a","task":"test_phase","broad_category":"I","image_png":"I_Pumice_12.png","image_id":140,"category_name":"Pumice","category":9,"distinct_rating":2.97,"distinct_type":"Bottom","item_type":"Foil","rt":1461,"stimulus":"Stimuli_Rocks480/I_Pumice_12.png","response":"a","trial_type":"image-keyboard-response","trial_index":141,"plugin_version":"2.1.0","time_elapsed":303603,"subject_id":"88788","group":"Group2","full_date":"2025-11-12T03:45:03.309Z","date":"2025-11-12","time":"03:45:03","cor_ans":true},{"trial_type":"html-keyboard-response","rt":null,"stimulus":"<p style=\"color: green; font-size: 50px; font-weight: bold;\">Correct</p>","response":null,"trial_index":142,"plugin_version":"2.1.0","time_elapsed":304107,"subject_id":"88788","group":"Group2","full_date":"2025-11-12T03:45:03.309Z","date":"2025-11-12","time":"03:45:03"},{"correct_response":"a","task":"test_phase","broad_category":"M","image_png":"M_Slate_03.png","image_id":307,"category_name":"Slate","category":20,"distinct_rating":1.87,"distinct_type":"Bottom","item_type":"Foil","rt":1201,"stimulus":"Stimuli_Rocks480/M_Slate_03.png","response":"l","trial_type":"image-keyboard-response","trial_index":143,"plugin_version":"2.1.0","time_elapsed":305311,"subject_id":"88788","group":"Group2","full_date":"2025-11-12T03:45:03.309Z","date":"2025-11-12","time":"03:45:03","cor_ans":false},{"trial_type":"html-keyboard-response","rt":null,"stimulus":"<p style=\"color: red; font-size: 50px; font-weight: bold;\">Incorrect</p>","response":null,"trial_index":144,"plugin_version":"2.1.0","time_elapsed":305818,"subject_id":"88788","group":"Group2","full_date":"2025-11-12T03:45:03.309Z","date":"2025-11-12","time":"03:45:03"},{"correct_response":"a","task":"test_phase","broad_category":"S","image_png":"S_Dolomite_12.png","image_id":396,"category_name":"Dolomite","category":25,"distinct_rating":1.85,"distinct_type":"Bottom","item_type":"Foil","rt":995,"stimulus":"Stimuli_Rocks480/S_Dolomite_12.png","response":"a","trial_type":"image-keyboard-response","trial_index":145,"plugin_version":"2.1.0","time_elapsed":306816,"subject_id":"88788","group":"Group2","full_date":"2025-11-12T03:45:03.309Z","date":"2025-11-12","time":"03:45:03","cor_ans":true},{"trial_type":"html-keyboard-response","rt":null,"stimulus":"<p style=\"color: green; font-size: 50px; font-weight: bold;\">Correct</p>","response":null,"trial_index":146,"plugin_version":"2.1.0","time_elapsed":307325,"subject_id":"88788","group":"Group2","full_date":"2025-11-12T03:45:03.309Z","date":"2025-11-12","time":"03:45:03"},{"correct_response":"l","task":"test_phase","broad_category":"I","image_png":"I_Basalt_08.png","image_id":24,"category_name":"Basalt","category":2,"distinct_rating":2.31,"distinct_type":"Bottom","item_type":"Target","rt":1602,"stimulus":"Stimuli_Rocks480/I_Basalt_08.png","response":"l","trial_type":"image-keyboard-response","trial_index":147,"plugin_version":"2.1.0","time_elapsed":308929,"subject_id":"88788","group":"Group2","full_date":"2025-11-12T03:45:03.309Z","date":"2025-11-12","time":"03:45:03","cor_ans":true},{"trial_type":"html-keyboard-response","rt":null,"stimulus":"<p style=\"color: green; font-size: 50px; font-weight: bold;\">Correct</p>","response":null,"trial_index":148,"plugin_version":"2.1.0","time_elapsed":309439,"subject_id":"88788","group":"Group2","full_date":"2025-11-12T03:45:03.309Z","date":"2025-11-12","time":"03:45:03"},{"correct_response":"a","task":"test_phase","broad_category":"S","image_png":"S_Shale_01.png","image_id":465,"category_name":"Shale","category":30,"distinct_rating":2.7,"distinct_type":"Bottom","item_type":"Foil","rt":2603,"stimulus":"Stimuli_Rocks480/S_Shale_01.png","response":"a","trial_type":"image-keyboard-response","trial_index":149,"plugin_version":"2.1.0","time_elapsed":312045,"subject_id":"88788","group":"Group2","full_date":"2025-11-12T03:45:03.309Z","date":"2025-11-12","time":"03:45:03","cor_ans":true},{"trial_type":"html-keyboard-response","rt":null,"stimulus":"<p style=\"color: green; font-size: 50px; font-weight: bold;\">Correct</p>","response":null,"trial_index":150,"plugin_version":"2.1.0","time_elapsed":312547,"subject_id":"88788","group":"Group2","full_date":"2025-11-12T03:45:03.309Z","date":"2025-11-12","time":"03:45:03"},{"correct_response":"l","task":"test_phase","broad_category":"M","image_png":"M_Marble_03.png","image_id":227,"category_name":"Marble","category":15,"distinct_rating":2.67,"distinct_type":"Bottom","item_type":"Target","rt":1096,"stimulus":"Stimuli_Rocks480/M_Marble_03.png","response":"l","trial_type":"image-keyboard-response","trial_index":151,"plugin_version":"2.1.0","time_elapsed":313646,"subject_id":"88788","group":"Group2","full_date":"2025-11-12T03:45:03.309Z","date":"2025-11-12","time":"03:45:03","cor_ans":true},{"trial_type":"html-keyboard-response","rt":null,"stimulus":"<p style=\"color: green; font-size: 50px; font-weight: bold;\">Correct</p>","response":null,"trial_index":152,"plugin_version":"2.1.0","time_elapsed":314161,"subject_id":"88788","group":"Group2","full_date":"2025-11-12T03:45:03.309Z","date":"2025-11-12","time":"03:45:03"},{"correct_response":"a","task":"test_phase","broad_category":"I","image_png":"I_Basalt_09.png","image_id":25,"category_name":"Basalt","category":2,"distinct_rating":1.89,"distinct_type":"Bottom","item_type":"Foil","rt":1567,"stimulus":"Stimuli_Rocks480/I_Basalt_09.png","response":"a","trial_type":"image-keyboard-response","trial_index":153,"plugin_version":"2.1.0","time_elapsed":315731,"subject_id":"88788","group":"Group2","full_date":"2025-11-12T03:45:03.309Z","date":"2025-11-12","time":"03:45:03","cor_ans":true},{"trial_type":"html-keyboard-response","rt":null,"stimulus":"<p style=\"color: green; font-size: 50px; font-weight: bold;\">Correct</p>","response":null,"trial_index":154,"plugin_version":"2.1.0","time_elapsed":316245,"subject_id":"88788","group":"Group2","full_date":"2025-11-12T03:45:03.309Z","date":"2025-11-12","time":"03:45:03"},{"correct_response":"a","task":"test_phase","broad_category":"I","image_png":"I_Gabbro_08.png","image_id":56,"category_name":"Gabbro","category":4,"distinct_rating":3.02,"distinct_type":"Bottom","item_type":"Foil","rt":1333,"stimulus":"Stimuli_Rocks480/I_Gabbro_08.png","response":"a","trial_type":"image-keyboard-response","trial_index":155,"plugin_version":"2.1.0","time_elapsed":317581,"subject_id":"88788","group":"Group2","full_date":"2025-11-12T03:45:03.309Z","date":"2025-11-12","time":"03:45:03","cor_ans":true},{"trial_type":"html-keyboard-response","rt":null,"stimulus":"<p style=\"color: green; font-size: 50px; font-weight: bold;\">Correct</p>","response":null,"trial_index":156,"plugin_version":"2.1.0","time_elapsed":318086,"subject_id":"88788","group":"Group2","full_date":"2025-11-12T03:45:03.309Z","date":"2025-11-12","time":"03:45:03"},{"correct_response":"a","task":"test_phase","broad_category":"I","image_png":"I_Diorite_03.png","image_id":35,"category_name":"Diorite","category":3,"distinct_rating":3.14,"distinct_type":"Bottom","item_type":"Foil","rt":788,"stimulus":"Stimuli_Rocks480/I_Diorite_03.png","response":"l","trial_type":"image-keyboard-response","trial_index":157,"plugin_version":"2.1.0","time_elapsed":318878,"subject_id":"88788","group":"Group2","full_date":"2025-11-12T03:45:03.309Z","date":"2025-11-12","time":"03:45:03","cor_ans":false},{"trial_type":"html-keyboard-response","rt":null,"stimulus":"<p style=\"color: red; font-size: 50px; font-weight: bold;\">Incorrect</p>","response":null,"trial_index":158,"plugin_version":"2.1.0","time_elapsed":319390,"subject_id":"88788","group":"Group2","full_date":"2025-11-12T03:45:03.309Z","date":"2025-11-12","time":"03:45:03"},{"correct_response":"a","task":"test_phase","broad_category":"M","image_png":"M_Marble_06.png","image_id":230,"category_name":"Marble","category":15,"distinct_rating":3.4,"distinct_type":"Bottom","item_type":"Foil","rt":2359,"stimulus":"Stimuli_Rocks480/M_Marble_06.png","response":"l","trial_type":"image-keyboard-response","trial_index":159,"plugin_version":"2.1.0","time_elapsed":321752,"subject_id":"88788","group":"Group2","full_date":"2025-11-12T03:45:03.309Z","date":"2025-11-12","time":"03:45:03","cor_ans":false},{"trial_type":"html-keyboard-response","rt":null,"stimulus":"<p style=\"color: red; font-size: 50px; font-weight: bold;\">Incorrect</p>","response":null,"trial_index":160,"plugin_version":"2.1.0","time_elapsed":322264,"subject_id":"88788","group":"Group2","full_date":"2025-11-12T03:45:03.309Z","date":"2025-11-12","time":"03:45:03"},{"correct_response":"l","task":"test_phase","broad_category":"I","image_png":"I_Andesite_04.png","image_id":4,"category_name":"Andesite","category":1,"distinct_rating":3.18,"distinct_type":"Bottom","item_type":"Target","rt":1671,"stimulus":"Stimuli_Rocks480/I_Andesite_04.png","response":"l","trial_type":"image-keyboard-response","trial_index":161,"plugin_version":"2.1.0","time_elapsed":323938,"subject_id":"88788","group":"Group2","full_date":"2025-11-12T03:45:03.309Z","date":"2025-11-12","time":"03:45:03","cor_ans":true},{"trial_type":"html-keyboard-response","rt":null,"stimulus":"<p style=\"color: green; font-size: 50px; font-weight: bold;\">Correct</p>","response":null,"trial_index":162,"plugin_version":"2.1.0","time_elapsed":324444,"subject_id":"88788","group":"Group2","full_date":"2025-11-12T03:45:03.309Z","date":"2025-11-12","time":"03:45:03"},{"correct_response":"l","task":"test_phase","broad_category":"I","image_png":"I_Andesite_09.png","image_id":9,"category_name":"Andesite","category":1,"distinct_rating":2.49,"distinct_type":"Bottom","item_type":"Target","rt":1060,"stimulus":"Stimuli_Rocks480/I_Andesite_09.png","response":"l","trial_type":"image-keyboard-response","trial_index":163,"plugin_version":"2.1.0","time_elapsed":325506,"subject_id":"88788","group":"Group2","full_date":"2025-11-12T03:45:03.309Z","date":"2025-11-12","time":"03:45:03","cor_ans":true},{"trial_type":"html-keyboard-response","rt":null,"stimulus":"<p style=\"color: green; font-size: 50px; font-weight: bold;\">Correct</p>","response":null,"trial_index":164,"plugin_version":"2.1.0","time_elapsed":326023,"subject_id":"88788","group":"Group2","full_date":"2025-11-12T03:45:03.309Z","date":"2025-11-12","time":"03:45:03"},{"correct_response":"a","task":"test_phase","broad_category":"I","image_png":"I_Pumice_08.png","image_id":136,"category_name":"Pumice","category":9,"distinct_rating":3.1,"distinct_type":"Bottom","item_type":"Foil","rt":958,"stimulus":"Stimuli_Rocks480/I_Pumice_08.png","response":"a","trial_type":"image-keyboard-response","trial_index":165,"plugin_version":"2.1.0","time_elapsed":326983,"subject_id":"88788","group":"Group2","full_date":"2025-11-12T03:45:03.309Z","date":"2025-11-12","time":"03:45:03","cor_ans":true},{"trial_type":"html-keyboard-response","rt":null,"stimulus":"<p style=\"color: green; font-size: 50px; font-weight: bold;\">Correct</p>","response":null,"trial_index":166,"plugin_version":"2.1.0","time_elapsed":327489,"subject_id":"88788","group":"Group2","full_date":"2025-11-12T03:45:03.309Z","date":"2025-11-12","time":"03:45:03"},{"correct_response":"l","task":"test_phase","broad_category":"I","image_png":"I_Gabbro_02.png","image_id":50,"category_name":"Gabbro","category":4,"distinct_rating":2.73,"distinct_type":"Bottom","item_type":"Target","rt":5822,"stimulus":"Stimuli_Rocks480/I_Gabbro_02.png","response":"a","trial_type":"image-keyboard-response","trial_index":167,"plugin_version":"2.1.0","time_elapsed":333313,"subject_id":"88788","group":"Group2","full_date":"2025-11-12T03:45:03.309Z","date":"2025-11-12","time":"03:45:03","cor_ans":false},{"trial_type":"html-keyboard-response","rt":null,"stimulus":"<p style=\"color: red; font-size: 50px; font-weight: bold;\">Incorrect</p>","response":null,"trial_index":168,"plugin_version":"2.1.0","time_elapsed":333820,"subject_id":"88788","group":"Group2","full_date":"2025-11-12T03:45:03.309Z","date":"2025-11-12","time":"03:45:03"},{"correct_response":"a","task":"test_phase","broad_category":"M","image_png":"M_Slate_11.png","image_id":315,"category_name":"Slate","category":20,"distinct_rating":2.75,"distinct_type":"Bottom","item_type":"Foil","rt":1491,"stimulus":"Stimuli_Rocks480/M_Slate_11.png","response":"l","trial_type":"image-keyboard-response","trial_index":169,"plugin_version":"2.1.0","time_elapsed":335315,"subject_id":"88788","group":"Group2","full_date":"2025-11-12T03:45:03.309Z","date":"2025-11-12","time":"03:45:03","cor_ans":false},{"trial_type":"html-keyboard-response","rt":null,"stimulus":"<p style=\"color: red; font-size: 50px; font-weight: bold;\">Incorrect</p>","response":null,"trial_index":170,"plugin_version":"2.1.0","time_elapsed":335824,"subject_id":"88788","group":"Group2","full_date":"2025-11-12T03:45:03.309Z","date":"2025-11-12","time":"03:45:03"},{"correct_response":"a","task":"test_phase","broad_category":"M","image_png":"M_Phyllite_10.png","image_id":266,"category_name":"Phyllite","category":17,"distinct_rating":2.6,"distinct_type":"Bottom","item_type":"Foil","rt":3406,"stimulus":"Stimuli_Rocks480/M_Phyllite_10.png","response":"a","trial_type":"image-keyboard-response","trial_index":171,"plugin_version":"2.1.0","time_elapsed":339232,"subject_id":"88788","group":"Group2","full_date":"2025-11-12T03:45:03.309Z","date":"2025-11-12","time":"03:45:03","cor_ans":true},{"trial_type":"html-keyboard-response","rt":null,"stimulus":"<p style=\"color: green; font-size: 50px; font-weight: bold;\">Correct</p>","response":null,"trial_index":172,"plugin_version":"2.1.0","time_elapsed":339737,"subject_id":"88788","group":"Group2","full_date":"2025-11-12T03:45:03.309Z","date":"2025-11-12","time":"03:45:03"},{"correct_response":"l","task":"test_phase","broad_category":"M","image_png":"M_Slate_04.png","image_id":308,"category_name":"Slate","category":20,"distinct_rating":2.2,"distinct_type":"Bottom","item_type":"Target","rt":3031,"stimulus":"Stimuli_Rocks480/M_Slate_04.png","response":"l","trial_type":"image-keyboard-response","trial_index":173,"plugin_version":"2.1.0","time_elapsed":342770,"subject_id":"88788","group":"Group2","full_date":"2025-11-12T03:45:03.309Z","date":"2025-11-12","time":"03:45:03","cor_ans":true},{"trial_type":"html-keyboard-response","rt":null,"stimulus":"<p style=\"color: green; font-size: 50px; font-weight: bold;\">Correct</p>","response":null,"trial_index":174,"plugin_version":"2.1.0","time_elapsed":343280,"subject_id":"88788","group":"Group2","full_date":"2025-11-12T03:45:03.309Z","date":"2025-11-12","time":"03:45:03"},{"correct_response":"l","task":"test_phase","broad_category":"I","image_png":"I_Obsidian_06.png","image_id":86,"category_name":"Obsidian","category":6,"distinct_rating":8.01,"distinct_type":"Top","item_type":"Target","rt":900,"stimulus":"Stimuli_Rocks480/I_Obsidian_06.png","response":"l","trial_type":"image-keyboard-response","trial_index":175,"plugin_version":"2.1.0","time_elapsed":344183,"subject_id":"88788","group":"Group2","full_date":"2025-11-12T03:45:03.309Z","date":"2025-11-12","time":"03:45:03","cor_ans":true},{"trial_type":"html-keyboard-response","rt":null,"stimulus":"<p style=\"color: green; font-size: 50px; font-weight: bold;\">Correct</p>","response":null,"trial_index":176,"plugin_version":"2.1.0","time_elapsed":344687,"subject_id":"88788","group":"Group2","full_date":"2025-11-12T03:45:03.309Z","date":"2025-11-12","time":"03:45:03"},{"correct_response":"a","task":"test_phase","broad_category":"S","image_png":"S_Dolomite_14.png","image_id":398,"category_name":"Dolomite","category":25,"distinct_rating":1.43,"distinct_type":"Bottom","item_type":"Foil","rt":6815,"stimulus":"Stimuli_Rocks480/S_Dolomite_14.png","response":"a","trial_type":"image-keyboard-response","trial_index":177,"plugin_version":"2.1.0","time_elapsed":351505,"subject_id":"88788","group":"Group2","full_date":"2025-11-12T03:45:03.309Z","date":"2025-11-12","time":"03:45:03","cor_ans":true},{"trial_type":"html-keyboard-response","rt":null,"stimulus":"<p style=\"color: green; font-size: 50px; font-weight: bold;\">Correct</p>","response":null,"trial_index":178,"plugin_version":"2.1.0","time_elapsed":352020,"subject_id":"88788","group":"Group2","full_date":"2025-11-12T03:45:03.309Z","date":"2025-11-12","time":"03:45:03"},{"correct_response":"l","task":"test_phase","broad_category":"S","image_png":"S_Dolomite_16.png","image_id":400,"category_name":"Dolomite","category":25,"distinct_rating":1.71,"distinct_type":"Bottom","item_type":"Target","rt":985,"stimulus":"Stimuli_Rocks480/S_Dolomite_16.png","response":"a","trial_type":"image-keyboard-response","trial_index":179,"plugin_version":"2.1.0","time_elapsed":353009,"subject_id":"88788","group":"Group2","full_date":"2025-11-12T03:45:03.309Z","date":"2025-11-12","time":"03:45:03","cor_ans":false},{"trial_type":"html-keyboard-response","rt":null,"stimulus":"<p style=\"color: red; font-size: 50px; font-weight: bold;\">Incorrect</p>","response":null,"trial_index":180,"plugin_version":"2.1.0","time_elapsed":353519,"subject_id":"88788","group":"Group2","full_date":"2025-11-12T03:45:03.309Z","date":"2025-11-12","time":"03:45:03"},{"correct_response":"a","task":"test_phase","broad_category":"M","image_png":"M_Marble_04.png","image_id":228,"category_name":"Marble","category":15,"distinct_rating":3.15,"distinct_type":"Bottom","item_type":"Foil","rt":1055,"stimulus":"Stimuli_Rocks480/M_Marble_04.png","response":"a","trial_type":"image-keyboard-response","trial_index":181,"plugin_version":"2.1.0","time_elapsed":354576,"subject_id":"88788","group":"Group2","full_date":"2025-11-12T03:45:03.309Z","date":"2025-11-12","time":"03:45:03","cor_ans":true},{"trial_type":"html-keyboard-response","rt":null,"stimulus":"<p style=\"color: green; font-size: 50px; font-weight: bold;\">Correct</p>","response":null,"trial_index":182,"plugin_version":"2.1.0","time_elapsed":355087,"subject_id":"88788","group":"Group2","full_date":"2025-11-12T03:45:03.309Z","date":"2025-11-12","time":"03:45:03"},{"correct_response":"a","task":"test_phase","broad_category":"S","image_png":"S_Shale_08.png","image_id":472,"category_name":"Shale","category":30,"distinct_rating":2.55,"distinct_type":"Bottom","item_type":"Foil","rt":1316,"stimulus":"Stimuli_Rocks480/S_Shale_08.png","response":"a","trial_type":"image-keyboard-response","trial_index":183,"plugin_version":"2.1.0","time_elapsed":356406,"subject_id":"88788","group":"Group2","full_date":"2025-11-12T03:45:03.309Z","date":"2025-11-12","time":"03:45:03","cor_ans":true},{"trial_type":"html-keyboard-response","rt":null,"stimulus":"<p style=\"color: green; font-size: 50px; font-weight: bold;\">Correct</p>","response":null,"trial_index":184,"plugin_version":"2.1.0","time_elapsed":356922,"subject_id":"88788","group":"Group2","full_date":"2025-11-12T03:45:03.309Z","date":"2025-11-12","time":"03:45:03"},{"correct_response":"a","task":"test_phase","broad_category":"I","image_png":"I_Rhyolite_16.png","image_id":160,"category_name":"Rhyolite","category":10,"distinct_rating":2.19,"distinct_type":"Bottom","item_type":"Foil","rt":1526,"stimulus":"Stimuli_Rocks480/I_Rhyolite_16.png","response":"a","trial_type":"image-keyboard-response","trial_index":185,"plugin_version":"2.1.0","time_elapsed":358451,"subject_id":"88788","group":"Group2","full_date":"2025-11-12T03:45:03.309Z","date":"2025-11-12","time":"03:45:03","cor_ans":true},{"trial_type":"html-keyboard-response","rt":null,"stimulus":"<p style=\"color: green; font-size: 50px; font-weight: bold;\">Correct</p>","response":null,"trial_index":186,"plugin_version":"2.1.0","time_elapsed":358958,"subject_id":"88788","group":"Group2","full_date":"2025-11-12T03:45:03.309Z","date":"2025-11-12","time":"03:45:03"},{"correct_response":"a","task":"test_phase","broad_category":"M","image_png":"M_Phyllite_07.png","image_id":263,"category_name":"Phyllite","category":17,"distinct_rating":2.59,"distinct_type":"Bottom","item_type":"Foil","rt":2056,"stimulus":"Stimuli_Rocks480/M_Phyllite_07.png","response":"a","trial_type":"image-keyboard-response","trial_index":187,"plugin_version":"2.1.0","time_elapsed":361017,"subject_id":"88788","group":"Group2","full_date":"2025-11-12T03:45:03.309Z","date":"2025-11-12","time":"03:45:03","cor_ans":true},{"trial_type":"html-keyboard-response","rt":null,"stimulus":"<p style=\"color: green; font-size: 50px; font-weight: bold;\">Correct</p>","response":null,"trial_index":188,"plugin_version":"2.1.0","time_elapsed":361528,"subject_id":"88788","group":"Group2","full_date":"2025-11-12T03:45:03.309Z","date":"2025-11-12","time":"03:45:03"},{"correct_response":"a","task":"test_phase","broad_category":"M","image_png":"M_Marble_16.png","image_id":240,"category_name":"Marble","category":15,"distinct_rating":2.57,"distinct_type":"Bottom","item_type":"Foil","rt":2191,"stimulus":"Stimuli_Rocks480/M_Marble_16.png","response":"a","trial_type":"image-keyboard-response","trial_index":189,"plugin_version":"2.1.0","time_elapsed":363722,"subject_id":"88788","group":"Group2","full_date":"2025-11-12T03:45:03.309Z","date":"2025-11-12","time":"03:45:03","cor_ans":true},{"trial_type":"html-keyboard-response","rt":null,"stimulus":"<p style=\"color: green; font-size: 50px; font-weight: bold;\">Correct</p>","response":null,"trial_index":190,"plugin_version":"2.1.0","time_elapsed":364237,"subject_id":"88788","group":"Group2","full_date":"2025-11-12T03:45:03.309Z","date":"2025-11-12","time":"03:45:03"},{"correct_response":"l","task":"test_phase","broad_category":"S","image_png":"S_Rock Salt_15.png","image_id":447,"category_name":"Rock Salt","category":28,"distinct_rating":7.79,"distinct_type":"Top","item_type":"Target","rt":818,"stimulus":"Stimuli_Rocks480/S_Rock Salt_15.png","response":"l","trial_type":"image-keyboard-response","trial_index":191,"plugin_version":"2.1.0","time_elapsed":365058,"subject_id":"88788","group":"Group2","full_date":"2025-11-12T03:45:03.309Z","date":"2025-11-12","time":"03:45:03","cor_ans":true},{"trial_type":"html-keyboard-response","rt":null,"stimulus":"<p style=\"color: green; font-size: 50px; font-weight: bold;\">Correct</p>","response":null,"trial_index":192,"plugin_version":"2.1.0","time_elapsed":365573,"subject_id":"88788","group":"Group2","full_date":"2025-11-12T03:45:03.309Z","date":"2025-11-12","time":"03:45:03"},{"correct_response":"l","task":"test_phase","broad_category":"I","image_png":"I_Gabbro_14.png","image_id":62,"category_name":"Gabbro","category":4,"distinct_rating":2.95,"distinct_type":"Bottom","item_type":"Target","rt":2645,"stimulus":"Stimuli_Rocks480/I_Gabbro_14.png","response":"a","trial_type":"image-keyboard-response","trial_index":193,"plugin_version":"2.1.0","time_elapsed":368220,"subject_id":"88788","group":"Group2","full_date":"2025-11-12T03:45:03.309Z","date":"2025-11-12","time":"03:45:03","cor_ans":false},{"trial_type":"html-keyboard-response","rt":null,"stimulus":"<p style=\"color: red; font-size: 50px; font-weight: bold;\">Incorrect</p>","response":null,"trial_index":194,"plugin_version":"2.1.0","time_elapsed":368734,"subject_id":"88788","group":"Group2","full_date":"2025-11-12T03:45:03.309Z","date":"2025-11-12","time":"03:45:03"},{"correct_response":"l","task":"test_phase","broad_category":"I","image_png":"I_Rhyolite_05.png","image_id":149,"category_name":"Rhyolite","category":10,"distinct_rating":3.02,"distinct_type":"Bottom","item_type":"Target","rt":10087,"stimulus":"Stimuli_Rocks480/I_Rhyolite_05.png","response":"a","trial_type":"image-keyboard-response","trial_index":195,"plugin_version":"2.1.0","time_elapsed":378823,"subject_id":"88788","group":"Group2","full_date":"2025-11-12T03:45:03.309Z","date":"2025-11-12","time":"03:45:03","cor_ans":false},{"trial_type":"html-keyboard-response","rt":null,"stimulus":"<p style=\"color: red; font-size: 50px; font-weight: bold;\">Incorrect</p>","response":null,"trial_index":196,"plugin_version":"2.1.0","time_elapsed":379331,"subject_id":"88788","group":"Group2","full_date":"2025-11-12T03:45:03.309Z","date":"2025-11-12","time":"03:45:03"},{"correct_response":"a","task":"test_phase","broad_category":"I","image_png":"I_Basalt_02.png","image_id":18,"category_name":"Basalt","category":2,"distinct_rating":1.84,"distinct_type":"Bottom","item_type":"Foil","rt":1362,"stimulus":"Stimuli_Rocks480/I_Basalt_02.png","response":"a","trial_type":"image-keyboard-response","trial_index":197,"plugin_version":"2.1.0","time_elapsed":380696,"subject_id":"88788","group":"Group2","full_date":"2025-11-12T03:45:03.309Z","date":"2025-11-12","time":"03:45:03","cor_ans":true},{"trial_type":"html-keyboard-response","rt":null,"stimulus":"<p style=\"color: green; font-size: 50px; font-weight: bold;\">Correct</p>","response":null,"trial_index":198,"plugin_version":"2.1.0","time_elapsed":381209,"subject_id":"88788","group":"Group2","full_date":"2025-11-12T03:45:03.309Z","date":"2025-11-12","time":"03:45:03"},{"correct_response":"l","task":"test_phase","broad_category":"I","image_png":"I_Pumice_14.png","image_id":142,"category_name":"Pumice","category":9,"distinct_rating":3.22,"distinct_type":"Bottom","item_type":"Target","rt":832,"stimulus":"Stimuli_Rocks480/I_Pumice_14.png","response":"l","trial_type":"image-keyboard-response","trial_index":199,"plugin_version":"2.1.0","time_elapsed":382043,"subject_id":"88788","group":"Group2","full_date":"2025-11-12T03:45:03.309Z","date":"2025-11-12","time":"03:45:03","cor_ans":true},{"trial_type":"html-keyboard-response","rt":null,"stimulus":"<p style=\"color: green; font-size: 50px; font-weight: bold;\">Correct</p>","response":null,"trial_index":200,"plugin_version":"2.1.0","time_elapsed":382551,"subject_id":"88788","group":"Group2","full_date":"2025-11-12T03:45:03.309Z","date":"2025-11-12","time":"03:45:03"},{"correct_response":"a","task":"test_phase","broad_category":"I","image_png":"I_Pumice_11.png","image_id":139,"category_name":"Pumice","category":9,"distinct_rating":1.74,"distinct_type":"Bottom","item_type":"Foil","rt":1332,"stimulus":"Stimuli_Rocks480/I_Pumice_11.png","response":"l","trial_type":"image-keyboard-response","trial_index":201,"plugin_version":"2.1.0","time_elapsed":383886,"subject_id":"88788","group":"Group2","full_date":"2025-11-12T03:45:03.309Z","date":"2025-11-12","time":"03:45:03","cor_ans":false},{"trial_type":"html-keyboard-response","rt":null,"stimulus":"<p style=\"color: red; font-size: 50px; font-weight: bold;\">Incorrect</p>","response":null,"trial_index":202,"plugin_version":"2.1.0","time_elapsed":384400,"subject_id":"88788","group":"Group2","full_date":"2025-11-12T03:45:03.309Z","date":"2025-11-12","time":"03:45:03"},{"correct_response":"a","task":"test_phase","broad_category":"S","image_png":"S_Sandstone_16.png","image_id":464,"category_name":"Sandstone","category":29,"distinct_rating":1.93,"distinct_type":"Bottom","item_type":"Foil","rt":1485,"stimulus":"Stimuli_Rocks480/S_Sandstone_16.png","response":"a","trial_type":"image-keyboard-response","trial_index":203,"plugin_version":"2.1.0","time_elapsed":385888,"subject_id":"88788","group":"Group2","full_date":"2025-11-12T03:45:03.309Z","date":"2025-11-12","time":"03:45:03","cor_ans":true},{"trial_type":"html-keyboard-response","rt":null,"stimulus":"<p style=\"color: green; font-size: 50px; font-weight: bold;\">Correct</p>","response":null,"trial_index":204,"plugin_version":"2.1.0","time_elapsed":386404,"subject_id":"88788","group":"Group2","full_date":"2025-11-12T03:45:03.309Z","date":"2025-11-12","time":"03:45:03"},{"correct_response":"l","task":"test_phase","broad_category":"I","image_png":"I_Pumice_13.png","image_id":141,"category_name":"Pumice","category":9,"distinct_rating":3.12,"distinct_type":"Bottom","item_type":"Target","rt":803,"stimulus":"Stimuli_Rocks480/I_Pumice_13.png","response":"l","trial_type":"image-keyboard-response","trial_index":205,"plugin_version":"2.1.0","time_elapsed":387209,"subject_id":"88788","group":"Group2","full_date":"2025-11-12T03:45:03.309Z","date":"2025-11-12","time":"03:45:03","cor_ans":true},{"trial_type":"html-keyboard-response","rt":null,"stimulus":"<p style=\"color: green; font-size: 50px; font-weight: bold;\">Correct</p>","response":null,"trial_index":206,"plugin_version":"2.1.0","time_elapsed":387710,"subject_id":"88788","group":"Group2","full_date":"2025-11-12T03:45:03.309Z","date":"2025-11-12","time":"03:45:03"},{"correct_response":"a","task":"test_phase","broad_category":"I","image_png":"I_Andesite_10.png","image_id":10,"category_name":"Andesite","category":1,"distinct_rating":3.15,"distinct_type":"Bottom","item_type":"Foil","rt":1896,"stimulus":"Stimuli_Rocks480/I_Andesite_10.png","response":"a","trial_type":"image-keyboard-response","trial_index":207,"plugin_version":"2.1.0","time_elapsed":389609,"subject_id":"88788","group":"Group2","full_date":"2025-11-12T03:45:03.309Z","date":"2025-11-12","time":"03:45:03","cor_ans":true},{"trial_type":"html-keyboard-response","rt":null,"stimulus":"<p style=\"color: green; font-size: 50px; font-weight: bold;\">Correct</p>","response":null,"trial_index":208,"plugin_version":"2.1.0","time_elapsed":390111,"subject_id":"88788","group":"Group2","full_date":"2025-11-12T03:45:03.309Z","date":"2025-11-12","time":"03:45:03"},{"correct_response":"l","task":"test_phase","broad_category":"S","image_png":"S_Shale_07.png","image_id":471,"category_name":"Shale","category":30,"distinct_rating":2.73,"distinct_type":"Bottom","item_type":"Target","rt":1587,"stimulus":"Stimuli_Rocks480/S_Shale_07.png","response":"a","trial_type":"image-keyboard-response","trial_index":209,"plugin_version":"2.1.0","time_elapsed":391702,"subject_id":"88788","group":"Group2","full_date":"2025-11-12T03:45:03.309Z","date":"2025-11-12","time":"03:45:03","cor_ans":false},{"trial_type":"html-keyboard-response","rt":null,"stimulus":"<p style=\"color: red; font-size: 50px; font-weight: bold;\">Incorrect</p>","response":null,"trial_index":210,"plugin_version":"2.1.0","time_elapsed":392209,"subject_id":"88788","group":"Group2","full_date":"2025-11-12T03:45:03.309Z","date":"2025-11-12","time":"03:45:03"},{"correct_response":"l","task":"test_phase","broad_category":"I","image_png":"I_Peridotite_13.png","image_id":125,"category_name":"Peridotite","category":8,"distinct_rating":7.28,"distinct_type":"Top","item_type":"Target","rt":862,"stimulus":"Stimuli_Rocks480/I_Peridotite_13.png","response":"a","trial_type":"image-keyboard-response","trial_index":211,"plugin_version":"2.1.0","time_elapsed":393073,"subject_id":"88788","group":"Group2","full_date":"2025-11-12T03:45:03.309Z","date":"2025-11-12","time":"03:45:03","cor_ans":false},{"trial_type":"html-keyboard-response","rt":null,"stimulus":"<p style=\"color: red; font-size: 50px; font-weight: bold;\">Incorrect</p>","response":null,"trial_index":212,"plugin_version":"2.1.0","time_elapsed":393578,"subject_id":"88788","group":"Group2","full_date":"2025-11-12T03:45:03.309Z","date":"2025-11-12","time":"03:45:03"},{"correct_response":"a","task":"test_phase","broad_category":"I","image_png":"I_Andesite_06.png","image_id":6,"category_name":"Andesite","category":1,"distinct_rating":3.17,"distinct_type":"Bottom","item_type":"Foil","rt":4018,"stimulus":"Stimuli_Rocks480/I_Andesite_06.png","response":"a","trial_type":"image-keyboard-response","trial_index":213,"plugin_version":"2.1.0","time_elapsed":397599,"subject_id":"88788","group":"Group2","full_date":"2025-11-12T03:45:03.309Z","date":"2025-11-12","time":"03:45:03","cor_ans":true},{"trial_type":"html-keyboard-response","rt":null,"stimulus":"<p style=\"color: green; font-size: 50px; font-weight: bold;\">Correct</p>","response":null,"trial_index":214,"plugin_version":"2.1.0","time_elapsed":398111,"subject_id":"88788","group":"Group2","full_date":"2025-11-12T03:45:03.309Z","date":"2025-11-12","time":"03:45:03"},{"correct_response":"l","task":"test_phase","broad_category":"I","image_png":"I_Gabbro_12.png","image_id":60,"category_name":"Gabbro","category":4,"distinct_rating":2.6,"distinct_type":"Bottom","item_type":"Target","rt":2233,"stimulus":"Stimuli_Rocks480/I_Gabbro_12.png","response":"a","trial_type":"image-keyboard-response","trial_index":215,"plugin_version":"2.1.0","time_elapsed":400346,"subject_id":"88788","group":"Group2","full_date":"2025-11-12T03:45:03.309Z","date":"2025-11-12","time":"03:45:03","cor_ans":false},{"trial_type":"html-keyboard-response","rt":null,"stimulus":"<p style=\"color: red; font-size: 50px; font-weight: bold;\">Incorrect</p>","response":null,"trial_index":216,"plugin_version":"2.1.0","time_elapsed":400854,"subject_id":"88788","group":"Group2","full_date":"2025-11-12T03:45:03.309Z","date":"2025-11-12","time":"03:45:03"},{"correct_response":"a","task":"test_phase","broad_category":"I","image_png":"I_Gabbro_16.png","image_id":64,"category_name":"Gabbro","category":4,"distinct_rating":2.52,"distinct_type":"Bottom","item_type":"Foil","rt":3395,"stimulus":"Stimuli_Rocks480/I_Gabbro_16.png","response":"l","trial_type":"image-keyboard-response","trial_index":217,"plugin_version":"2.1.0","time_elapsed":404260,"subject_id":"88788","group":"Group2","full_date":"2025-11-12T03:45:03.309Z","date":"2025-11-12","time":"03:45:03","cor_ans":false},{"trial_type":"html-keyboard-response","rt":null,"stimulus":"<p style=\"color: red; font-size: 50px; font-weight: bold;\">Incorrect</p>","response":null,"trial_index":218,"plugin_version":"2.1.0","time_elapsed":404769,"subject_id":"88788","group":"Group2","full_date":"2025-11-12T03:45:03.309Z","date":"2025-11-12","time":"03:45:03"},{"correct_response":"a","task":"test_phase","broad_category":"S","image_png":"S_Chert_10.png","image_id":362,"category_name":"Chert","category":23,"distinct_rating":7.17,"distinct_type":"Top","item_type":"Foil","rt":850,"stimulus":"Stimuli_Rocks480/S_Chert_10.png","response":"a","trial_type":"image-keyboard-response","trial_index":219,"plugin_version":"2.1.0","time_elapsed":405621,"subject_id":"88788","group":"Group2","full_date":"2025-11-12T03:45:03.309Z","date":"2025-11-12","time":"03:45:03","cor_ans":true},{"trial_type":"html-keyboard-response","rt":null,"stimulus":"<p style=\"color: green; font-size: 50px; font-weight: bold;\">Correct</p>","response":null,"trial_index":220,"plugin_version":"2.1.0","time_elapsed":406129,"subject_id":"88788","group":"Group2","full_date":"2025-11-12T03:45:03.309Z","date":"2025-11-12","time":"03:45:03"},{"correct_response":"l","task":"test_phase","broad_category":"I","image_png":"I_Pumice_01.png","image_id":129,"category_name":"Pumice","category":9,"distinct_rating":3.25,"distinct_type":"Bottom","item_type":"Target","rt":1148,"stimulus":"Stimuli_Rocks480/I_Pumice_01.png","response":"l","trial_type":"image-keyboard-response","trial_index":221,"plugin_version":"2.1.0","time_elapsed":407280,"subject_id":"88788","group":"Group2","full_date":"2025-11-12T03:45:03.309Z","date":"2025-11-12","time":"03:45:03","cor_ans":true},{"trial_type":"html-keyboard-response","rt":null,"stimulus":"<p style=\"color: green; font-size: 50px; font-weight: bold;\">Correct</p>","response":null,"trial_index":222,"plugin_version":"2.1.0","time_elapsed":407786,"subject_id":"88788","group":"Group2","full_date":"2025-11-12T03:45:03.309Z","date":"2025-11-12","time":"03:45:03"},{"correct_response":"l","task":"test_phase","broad_category":"S","image_png":"S_Sandstone_11.png","image_id":459,"category_name":"Sandstone","category":29,"distinct_rating":1.82,"distinct_type":"Bottom","item_type":"Target","rt":4101,"stimulus":"Stimuli_Rocks480/S_Sandstone_11.png","response":"l","trial_type":"image-keyboard-response","trial_index":223,"plugin_version":"2.1.0","time_elapsed":411890,"subject_id":"88788","group":"Group2","full_date":"2025-11-12T03:45:03.309Z","date":"2025-11-12","time":"03:45:03","cor_ans":true},{"trial_type":"html-keyboard-response","rt":null,"stimulus":"<p style=\"color: green; font-size: 50px; font-weight: bold;\">Correct</p>","response":null,"trial_index":224,"plugin_version":"2.1.0","time_elapsed":412394,"subject_id":"88788","group":"Group2","full_date":"2025-11-12T03:45:03.309Z","date":"2025-11-12","time":"03:45:03"},{"correct_response":"l","task":"test_phase","broad_category":"M","image_png":"M_Slate_14.png","image_id":318,"category_name":"Slate","category":20,"distinct_rating":2.58,"distinct_type":"Bottom","item_type":"Target","rt":1000,"stimulus":"Stimuli_Rocks480/M_Slate_14.png","response":"l","trial_type":"image-keyboard-response","trial_index":225,"plugin_version":"2.1.0","time_elapsed":413397,"subject_id":"88788","group":"Group2","full_date":"2025-11-12T03:45:03.309Z","date":"2025-11-12","time":"03:45:03","cor_ans":true},{"trial_type":"html-keyboard-response","rt":null,"stimulus":"<p style=\"color: green; font-size: 50px; font-weight: bold;\">Correct</p>","response":null,"trial_index":226,"plugin_version":"2.1.0","time_elapsed":413903,"subject_id":"88788","group":"Group2","full_date":"2025-11-12T03:45:03.309Z","date":"2025-11-12","time":"03:45:03"},{"correct_response":"a","task":"test_phase","broad_category":"I","image_png":"I_Diorite_05.png","image_id":37,"category_name":"Diorite","category":3,"distinct_rating":3.08,"distinct_type":"Bottom","item_type":"Foil","rt":1019,"stimulus":"Stimuli_Rocks480/I_Diorite_05.png","response":"l","trial_type":"image-keyboard-response","trial_index":227,"plugin_version":"2.1.0","time_elapsed":414924,"subject_id":"88788","group":"Group2","full_date":"2025-11-12T03:45:03.309Z","date":"2025-11-12","time":"03:45:03","cor_ans":false},{"trial_type":"html-keyboard-response","rt":null,"stimulus":"<p style=\"color: red; font-size: 50px; font-weight: bold;\">Incorrect</p>","response":null,"trial_index":228,"plugin_version":"2.1.0","time_elapsed":415433,"subject_id":"88788","group":"Group2","full_date":"2025-11-12T03:45:03.309Z","date":"2025-11-12","time":"03:45:03"},{"correct_response":"l","task":"test_phase","broad_category":"S","image_png":"S_Sandstone_08.png","image_id":456,"category_name":"Sandstone","category":29,"distinct_rating":1.5,"distinct_type":"Bottom","item_type":"Target","rt":1791,"stimulus":"Stimuli_Rocks480/S_Sandstone_08.png","response":"l","trial_type":"image-keyboard-response","trial_index":229,"plugin_version":"2.1.0","time_elapsed":417226,"subject_id":"88788","group":"Group2","full_date":"2025-11-12T03:45:03.309Z","date":"2025-11-12","time":"03:45:03","cor_ans":true},{"trial_type":"html-keyboard-response","rt":null,"stimulus":"<p style=\"color: green; font-size: 50px; font-weight: bold;\">Correct</p>","response":null,"trial_index":230,"plugin_version":"2.1.0","time_elapsed":417735,"subject_id":"88788","group":"Group2","full_date":"2025-11-12T03:45:03.309Z","date":"2025-11-12","time":"03:45:03"},{"correct_response":"a","task":"test_phase","broad_category":"M","image_png":"M_Gneiss_13.png","image_id":205,"category_name":"Gneiss","category":13,"distinct_rating":3.26,"distinct_type":"Bottom","item_type":"Foil","rt":1727,"stimulus":"Stimuli_Rocks480/M_Gneiss_13.png","response":"a","trial_type":"image-keyboard-response","trial_index":231,"plugin_version":"2.1.0","time_elapsed":419464,"subject_id":"88788","group":"Group2","full_date":"2025-11-12T03:45:03.309Z","date":"2025-11-12","time":"03:45:03","cor_ans":true},{"trial_type":"html-keyboard-response","rt":null,"stimulus":"<p style=\"color: green; font-size: 50px; font-weight: bold;\">Correct</p>","response":null,"trial_index":232,"plugin_version":"2.1.0","time_elapsed":419977,"subject_id":"88788","group":"Group2","full_date":"2025-11-12T03:45:03.309Z","date":"2025-11-12","time":"03:45:03"},{"correct_response":"l","task":"test_phase","broad_category":"M","image_png":"M_Marble_02.png","image_id":226,"category_name":"Marble","category":15,"distinct_rating":3.2,"distinct_type":"Bottom","item_type":"Target","rt":1646,"stimulus":"Stimuli_Rocks480/M_Marble_02.png","response":"l","trial_type":"image-keyboard-response","trial_index":233,"plugin_version":"2.1.0","time_elapsed":421625,"subject_id":"88788","group":"Group2","full_date":"2025-11-12T03:45:03.309Z","date":"2025-11-12","time":"03:45:03","cor_ans":true},{"trial_type":"html-keyboard-response","rt":null,"stimulus":"<p style=\"color: green; font-size: 50px; font-weight: bold;\">Correct</p>","response":null,"trial_index":234,"plugin_version":"2.1.0","time_elapsed":422128,"subject_id":"88788","group":"Group2","full_date":"2025-11-12T03:45:03.309Z","date":"2025-11-12","time":"03:45:03"},{"correct_response":"l","task":"test_phase","broad_category":"I","image_png":"I_Pegmatite_03.png","image_id":99,"category_name":"Pegmatite","category":7,"distinct_rating":7.24,"distinct_type":"Top","item_type":"Target","rt":1084,"stimulus":"Stimuli_Rocks480/I_Pegmatite_03.png","response":"l","trial_type":"image-keyboard-response","trial_index":235,"plugin_version":"2.1.0","time_elapsed":423214,"subject_id":"88788","group":"Group2","full_date":"2025-11-12T03:45:03.309Z","date":"2025-11-12","time":"03:45:03","cor_ans":true},{"trial_type":"html-keyboard-response","rt":null,"stimulus"