[{"width":1324,"height":769,"webaudio":true,"browser":"safari","browser_version":"18.6.0","mobile":false,"os":"Mac OS","fullscreen":true,"vsync_rate":59.46,"webcam":true,"microphone":true,"trial_type":"browser-check","trial_index":0,"plugin_version":"2.1.0","time_elapsed":1019,"subject_id":"89447","group":"Group1","full_date":"2025-11-10T18:54:01.943Z","date":"2025-11-10","time":"18:54:01"},{"success":true,"timeout":false,"failed_images":[],"failed_audio":[],"failed_video":[],"trial_type":"preload","trial_index":1,"plugin_version":"2.1.0","time_elapsed":12467,"subject_id":"89447","group":"Group1","full_date":"2025-11-10T18:54:01.943Z","date":"2025-11-10","time":"18:54:01"},{"rt":6759,"url":"SONA_consent_memorability.html","trial_type":"external-html","trial_index":2,"plugin_version":"2.1.0","time_elapsed":19303,"subject_id":"89447","group":"Group1","full_date":"2025-11-10T18:54:01.943Z","date":"2025-11-10","time":"18:54:01"},{"success":true,"rt":1314,"trial_type":"fullscreen","trial_index":3,"plugin_version":"2.1.0","time_elapsed":21622,"subject_id":"89447","group":"Group1","full_date":"2025-11-10T18:54:01.943Z","date":"2025-11-10","time":"18:54:01"},{"rt":13878,"stimulus":"<div style=\"max-width: 760px; margin: auto; font-size: 20px; line-height: 1.5;\">\n      <h1 style=\"text-align:center; font-size: 30px;\">Instructions</h1>\n      <p>\n        Welcome to the study on <b>visual memory</b>. This experiment consists of <b>two phases</b>: \n        a <b>study phase</b> and a <b>test phase</b>.\n      </p>\n      <p>\n        In the study phase, you will see a series of rock images along with their category labels.\n        The images will appear one at a time.\n        <b>Your task</b> is to learn the categories to which the rock images belong \n        and to remember each image as accurately as possible.\n      </p> \n      <p>\n        After the study phase, <b>your memory will be tested</b>. \n        Additional instructions for the test phase will be provided at that time.\n      </p>\n      <p>\n        If your computer has multiple <b>language settings</b> (e.g., English and another language),\n        please make sure it is set to English before starting.\n      </p>\n      <p>\n        You can track your progress using the <b>completion bar</b> at the top of the screen. \n        Please note that the bar will refresh when the test phase begins \n        to give you an accurate sense of your progress in both phases.\n      </p> \n      <p>\n        Press the button below when you are ready to begin.\n      </p>\n    </div>","response":0,"trial_type":"html-button-response","trial_index":4,"plugin_version":"2.1.0","time_elapsed":35503,"subject_id":"89447","group":"Group1","full_date":"2025-11-10T18:54:01.943Z","date":"2025-11-10","time":"18:54:01"},{"rt":null,"stimulus":"<p style=\"font-size: 50px; margin: 0; text-align: center;\">+</p>","response":null,"trial_type":"html-keyboard-response","trial_index":5,"plugin_version":"2.1.0","time_elapsed":36507,"subject_id":"89447","group":"Group1","full_date":"2025-11-10T18:54:01.943Z","date":"2025-11-10","time":"18:54:01"},{"task":"memory_phase","broad_category":"I","image_png":"I_Pegmatite_16.png","image_id":112,"category_name":"Pegmatite","category":7,"distinct_rating":7.03,"distinct_type":"Top","rt":null,"stimulus":"Stimuli_Rocks480/I_Pegmatite_16.png","response":null,"trial_type":"image-keyboard-response","trial_index":6,"plugin_version":"2.1.0","time_elapsed":39025,"subject_id":"89447","group":"Group1","full_date":"2025-11-10T18:54:01.943Z","date":"2025-11-10","time":"18:54:01"},{"rt":null,"stimulus":"<p style=\"font-size: 50px; margin: 0; text-align: center;\">+</p>","response":null,"trial_type":"html-keyboard-response","trial_index":7,"plugin_version":"2.1.0","time_elapsed":40028,"subject_id":"89447","group":"Group1","full_date":"2025-11-10T18:54:01.943Z","date":"2025-11-10","time":"18:54:01"},{"task":"memory_phase","broad_category":"M","image_png":"M_Phyllite_03.png","image_id":259,"category_name":"Phyllite","category":17,"distinct_rating":2.5,"distinct_type":"Bottom","rt":null,"stimulus":"Stimuli_Rocks480/M_Phyllite_03.png","response":null,"trial_type":"image-keyboard-response","trial_index":8,"plugin_version":"2.1.0","time_elapsed":42544,"subject_id":"89447","group":"Group1","full_date":"2025-11-10T18:54:01.943Z","date":"2025-11-10","time":"18:54:01"},{"rt":null,"stimulus":"<p style=\"font-size: 50px; margin: 0; text-align: center;\">+</p>","response":null,"trial_type":"html-keyboard-response","trial_index":9,"plugin_version":"2.1.0","time_elapsed":43546,"subject_id":"89447","group":"Group1","full_date":"2025-11-10T18:54:01.943Z","date":"2025-11-10","time":"18:54:01"},{"task":"memory_phase","broad_category":"M","image_png":"M_Gneiss_13.png","image_id":205,"category_name":"Gneiss","category":13,"distinct_rating":3.26,"distinct_type":"Bottom","rt":null,"stimulus":"Stimuli_Rocks480/M_Gneiss_13.png","response":null,"trial_type":"image-keyboard-response","trial_index":10,"plugin_version":"2.1.0","time_elapsed":46059,"subject_id":"89447","group":"Group1","full_date":"2025-11-10T18:54:01.943Z","date":"2025-11-10","time":"18:54:01"},{"rt":null,"stimulus":"<p style=\"font-size: 50px; margin: 0; text-align: center;\">+</p>","response":null,"trial_type":"html-keyboard-response","trial_index":11,"plugin_version":"2.1.0","time_elapsed":47062,"subject_id":"89447","group":"Group1","full_date":"2025-11-10T18:54:01.943Z","date":"2025-11-10","time":"18:54:01"},{"task":"memory_phase","broad_category":"M","image_png":"M_Slate_03.png","image_id":307,"category_name":"Slate","category":20,"distinct_rating":1.87,"distinct_type":"Bottom","rt":null,"stimulus":"Stimuli_Rocks480/M_Slate_03.png","response":null,"trial_type":"image-keyboard-response","trial_index":12,"plugin_version":"2.1.0","time_elapsed":49577,"subject_id":"89447","group":"Group1","full_date":"2025-11-10T18:54:01.943Z","date":"2025-11-10","time":"18:54:01"},{"rt":null,"stimulus":"<p style=\"font-size: 50px; margin: 0; text-align: center;\">+</p>","response":null,"trial_type":"html-keyboard-response","trial_index":13,"plugin_version":"2.1.0","time_elapsed":50579,"subject_id":"89447","group":"Group1","full_date":"2025-11-10T18:54:01.943Z","date":"2025-11-10","time":"18:54:01"},{"task":"memory_phase","broad_category":"I","image_png":"I_Basalt_09.png","image_id":25,"category_name":"Basalt","category":2,"distinct_rating":1.89,"distinct_type":"Bottom","rt":null,"stimulus":"Stimuli_Rocks480/I_Basalt_09.png","response":null,"trial_type":"image-keyboard-response","trial_index":14,"plugin_version":"2.1.0","time_elapsed":53093,"subject_id":"89447","group":"Group1","full_date":"2025-11-10T18:54:01.943Z","date":"2025-11-10","time":"18:54:01"},{"rt":null,"stimulus":"<p style=\"font-size: 50px; margin: 0; text-align: center;\">+</p>","response":null,"trial_type":"html-keyboard-response","trial_index":15,"plugin_version":"2.1.0","time_elapsed":54095,"subject_id":"89447","group":"Group1","full_date":"2025-11-10T18:54:01.943Z","date":"2025-11-10","time":"18:54:01"},{"task":"memory_phase","broad_category":"M","image_png":"M_Gneiss_06.png","image_id":198,"category_name":"Gneiss","category":13,"distinct_rating":2.65,"distinct_type":"Bottom","rt":null,"stimulus":"Stimuli_Rocks480/M_Gneiss_06.png","response":null,"trial_type":"image-keyboard-response","trial_index":16,"plugin_version":"2.1.0","time_elapsed":56612,"subject_id":"89447","group":"Group1","full_date":"2025-11-10T18:54:01.943Z","date":"2025-11-10","time":"18:54:01"},{"rt":null,"stimulus":"<p style=\"font-size: 50px; margin: 0; text-align: center;\">+</p>","response":null,"trial_type":"html-keyboard-response","trial_index":17,"plugin_version":"2.1.0","time_elapsed":57614,"subject_id":"89447","group":"Group1","full_date":"2025-11-10T18:54:01.943Z","date":"2025-11-10","time":"18:54:01"},{"task":"memory_phase","broad_category":"I","image_png":"I_Diorite_03.png","image_id":35,"category_name":"Diorite","category":3,"distinct_rating":3.14,"distinct_type":"Bottom","rt":null,"stimulus":"Stimuli_Rocks480/I_Diorite_03.png","response":null,"trial_type":"image-keyboard-response","trial_index":18,"plugin_version":"2.1.0","time_elapsed":60132,"subject_id":"89447","group":"Group1","full_date":"2025-11-10T18:54:01.943Z","date":"2025-11-10","time":"18:54:01"},{"rt":null,"stimulus":"<p style=\"font-size: 50px; margin: 0; text-align: center;\">+</p>","response":null,"trial_type":"html-keyboard-response","trial_index":19,"plugin_version":"2.1.0","time_elapsed":61134,"subject_id":"89447","group":"Group1","full_date":"2025-11-10T18:54:01.943Z","date":"2025-11-10","time":"18:54:01"},{"task":"memory_phase","broad_category":"M","image_png":"M_Slate_15.png","image_id":319,"category_name":"Slate","category":20,"distinct_rating":2.13,"distinct_type":"Bottom","rt":null,"stimulus":"Stimuli_Rocks480/M_Slate_15.png","response":null,"trial_type":"image-keyboard-response","trial_index":20,"plugin_version":"2.1.0","time_elapsed":63644,"subject_id":"89447","group":"Group1","full_date":"2025-11-10T18:54:01.943Z","date":"2025-11-10","time":"18:54:01"},{"rt":null,"stimulus":"<p style=\"font-size: 50px; margin: 0; text-align: center;\">+</p>","response":null,"trial_type":"html-keyboard-response","trial_index":21,"plugin_version":"2.1.0","time_elapsed":64646,"subject_id":"89447","group":"Group1","full_date":"2025-11-10T18:54:01.943Z","date":"2025-11-10","time":"18:54:01"},{"task":"memory_phase","broad_category":"S","image_png":"S_Sandstone_03.png","image_id":451,"category_name":"Sandstone","category":29,"distinct_rating":1.86,"distinct_type":"Bottom","rt":null,"stimulus":"Stimuli_Rocks480/S_Sandstone_03.png","response":null,"trial_type":"image-keyboard-response","trial_index":22,"plugin_version":"2.1.0","time_elapsed":67162,"subject_id":"89447","group":"Group1","full_date":"2025-11-10T18:54:01.943Z","date":"2025-11-10","time":"18:54:01"},{"rt":null,"stimulus":"<p style=\"font-size: 50px; margin: 0; text-align: center;\">+</p>","response":null,"trial_type":"html-keyboard-response","trial_index":23,"plugin_version":"2.1.0","time_elapsed":68165,"subject_id":"89447","group":"Group1","full_date":"2025-11-10T18:54:01.943Z","date":"2025-11-10","time":"18:54:01"},{"task":"memory_phase","broad_category":"I","image_png":"I_Gabbro_08.png","image_id":56,"category_name":"Gabbro","category":4,"distinct_rating":3.02,"distinct_type":"Bottom","rt":null,"stimulus":"Stimuli_Rocks480/I_Gabbro_08.png","response":null,"trial_type":"image-keyboard-response","trial_index":24,"plugin_version":"2.1.0","time_elapsed":70679,"subject_id":"89447","group":"Group1","full_date":"2025-11-10T18:54:01.943Z","date":"2025-11-10","time":"18:54:01"},{"rt":null,"stimulus":"<p style=\"font-size: 50px; margin: 0; text-align: center;\">+</p>","response":null,"trial_type":"html-keyboard-response","trial_index":25,"plugin_version":"2.1.0","time_elapsed":71682,"subject_id":"89447","group":"Group1","full_date":"2025-11-10T18:54:01.943Z","date":"2025-11-10","time":"18:54:01"},{"task":"memory_phase","broad_category":"M","image_png":"M_Quartzite_13.png","image_id":285,"category_name":"Quartzite","category":18,"distinct_rating":2.27,"distinct_type":"Bottom","rt":null,"stimulus":"Stimuli_Rocks480/M_Quartzite_13.png","response":null,"trial_type":"image-keyboard-response","trial_index":26,"plugin_version":"2.1.0","time_elapsed":74198,"subject_id":"89447","group":"Group1","full_date":"2025-11-10T18:54:01.943Z","date":"2025-11-10","time":"18:54:01"},{"rt":null,"stimulus":"<p style=\"font-size: 50px; margin: 0; text-align: center;\">+</p>","response":null,"trial_type":"html-keyboard-response","trial_index":27,"plugin_version":"2.1.0","time_elapsed":75200,"subject_id":"89447","group":"Group1","full_date":"2025-11-10T18:54:01.943Z","date":"2025-11-10","time":"18:54:01"},{"task":"memory_phase","broad_category":"S","image_png":"S_Dolomite_13.png","image_id":397,"category_name":"Dolomite","category":25,"distinct_rating":1.77,"distinct_type":"Bottom","rt":null,"stimulus":"Stimuli_Rocks480/S_Dolomite_13.png","response":null,"trial_type":"image-keyboard-response","trial_index":28,"plugin_version":"2.1.0","time_elapsed":77714,"subject_id":"89447","group":"Group1","full_date":"2025-11-10T18:54:01.943Z","date":"2025-11-10","time":"18:54:01"},{"rt":null,"stimulus":"<p style=\"font-size: 50px; margin: 0; text-align: center;\">+</p>","response":null,"trial_type":"html-keyboard-response","trial_index":29,"plugin_version":"2.1.0","time_elapsed":78716,"subject_id":"89447","group":"Group1","full_date":"2025-11-10T18:54:01.943Z","date":"2025-11-10","time":"18:54:01"},{"task":"memory_phase","broad_category":"S","image_png":"S_Chert_10.png","image_id":362,"category_name":"Chert","category":23,"distinct_rating":7.17,"distinct_type":"Top","rt":null,"stimulus":"Stimuli_Rocks480/S_Chert_10.png","response":null,"trial_type":"image-keyboard-response","trial_index":30,"plugin_version":"2.1.0","time_elapsed":81230,"subject_id":"89447","group":"Group1","full_date":"2025-11-10T18:54:01.943Z","date":"2025-11-10","time":"18:54:01"},{"rt":null,"stimulus":"<p style=\"font-size: 50px; margin: 0; text-align: center;\">+</p>","response":null,"trial_type":"html-keyboard-response","trial_index":31,"plugin_version":"2.1.0","time_elapsed":82233,"subject_id":"89447","group":"Group1","full_date":"2025-11-10T18:54:01.943Z","date":"2025-11-10","time":"18:54:01"},{"task":"memory_phase","broad_category":"M","image_png":"M_Gneiss_05.png","image_id":197,"category_name":"Gneiss","category":13,"distinct_rating":2.97,"distinct_type":"Bottom","rt":null,"stimulus":"Stimuli_Rocks480/M_Gneiss_05.png","response":null,"trial_type":"image-keyboard-response","trial_index":32,"plugin_version":"2.1.0","time_elapsed":84753,"subject_id":"89447","group":"Group1","full_date":"2025-11-10T18:54:01.943Z","date":"2025-11-10","time":"18:54:01"},{"rt":null,"stimulus":"<p style=\"font-size: 50px; margin: 0; text-align: center;\">+</p>","response":null,"trial_type":"html-keyboard-response","trial_index":33,"plugin_version":"2.1.0","time_elapsed":85756,"subject_id":"89447","group":"Group1","full_date":"2025-11-10T18:54:01.943Z","date":"2025-11-10","time":"18:54:01"},{"task":"memory_phase","broad_category":"S","image_png":"S_Sandstone_15.png","image_id":463,"category_name":"Sandstone","category":29,"distinct_rating":2,"distinct_type":"Bottom","rt":null,"stimulus":"Stimuli_Rocks480/S_Sandstone_15.png","response":null,"trial_type":"image-keyboard-response","trial_index":34,"plugin_version":"2.1.0","time_elapsed":88274,"subject_id":"89447","group":"Group1","full_date":"2025-11-10T18:54:01.943Z","date":"2025-11-10","time":"18:54:01"},{"rt":null,"stimulus":"<p style=\"font-size: 50px; margin: 0; text-align: center;\">+</p>","response":null,"trial_type":"html-keyboard-response","trial_index":35,"plugin_version":"2.1.0","time_elapsed":89276,"subject_id":"89447","group":"Group1","full_date":"2025-11-10T18:54:01.943Z","date":"2025-11-10","time":"18:54:01"},{"task":"memory_phase","broad_category":"I","image_png":"I_Rhyolite_11.png","image_id":155,"category_name":"Rhyolite","category":10,"distinct_rating":1.73,"distinct_type":"Bottom","rt":null,"stimulus":"Stimuli_Rocks480/I_Rhyolite_11.png","response":null,"trial_type":"image-keyboard-response","trial_index":36,"plugin_version":"2.1.0","time_elapsed":91788,"subject_id":"89447","group":"Group1","full_date":"2025-11-10T18:54:01.943Z","date":"2025-11-10","time":"18:54:01"},{"rt":null,"stimulus":"<p style=\"font-size: 50px; margin: 0; text-align: center;\">+</p>","response":null,"trial_type":"html-keyboard-response","trial_index":37,"plugin_version":"2.1.0","time_elapsed":92790,"subject_id":"89447","group":"Group1","full_date":"2025-11-10T18:54:01.943Z","date":"2025-11-10","time":"18:54:01"},{"task":"memory_phase","broad_category":"I","image_png":"I_Andesite_06.png","image_id":6,"category_name":"Andesite","category":1,"distinct_rating":3.17,"distinct_type":"Bottom","rt":null,"stimulus":"Stimuli_Rocks480/I_Andesite_06.png","response":null,"trial_type":"image-keyboard-response","trial_index":38,"plugin_version":"2.1.0","time_elapsed":95305,"subject_id":"89447","group":"Group1","full_date":"2025-11-10T18:54:01.943Z","date":"2025-11-10","time":"18:54:01"},{"rt":null,"stimulus":"<p style=\"font-size: 50px; margin: 0; text-align: center;\">+</p>","response":null,"trial_type":"html-keyboard-response","trial_index":39,"plugin_version":"2.1.0","time_elapsed":96308,"subject_id":"89447","group":"Group1","full_date":"2025-11-10T18:54:01.943Z","date":"2025-11-10","time":"18:54:01"},{"task":"memory_phase","broad_category":"S","image_png":"S_Shale_08.png","image_id":472,"category_name":"Shale","category":30,"distinct_rating":2.55,"distinct_type":"Bottom","rt":null,"stimulus":"Stimuli_Rocks480/S_Shale_08.png","response":null,"trial_type":"image-keyboard-response","trial_index":40,"plugin_version":"2.1.0","time_elapsed":98823,"subject_id":"89447","group":"Group1","full_date":"2025-11-10T18:54:01.943Z","date":"2025-11-10","time":"18:54:01"},{"rt":null,"stimulus":"<p style=\"font-size: 50px; margin: 0; text-align: center;\">+</p>","response":null,"trial_type":"html-keyboard-response","trial_index":41,"plugin_version":"2.1.0","time_elapsed":99826,"subject_id":"89447","group":"Group1","full_date":"2025-11-10T18:54:01.943Z","date":"2025-11-10","time":"18:54:01"},{"task":"memory_phase","broad_category":"I","image_png":"I_Rhyolite_14.png","image_id":158,"category_name":"Rhyolite","category":10,"distinct_rating":2.59,"distinct_type":"Bottom","rt":null,"stimulus":"Stimuli_Rocks480/I_Rhyolite_14.png","response":null,"trial_type":"image-keyboard-response","trial_index":42,"plugin_version":"2.1.0","time_elapsed":102337,"subject_id":"89447","group":"Group1","full_date":"2025-11-10T18:54:01.943Z","date":"2025-11-10","time":"18:54:01"},{"rt":null,"stimulus":"<p style=\"font-size: 50px; margin: 0; text-align: center;\">+</p>","response":null,"trial_type":"html-keyboard-response","trial_index":43,"plugin_version":"2.1.0","time_elapsed":103340,"subject_id":"89447","group":"Group1","full_date":"2025-11-10T18:54:01.943Z","date":"2025-11-10","time":"18:54:01"},{"task":"memory_phase","broad_category":"M","image_png":"M_Quartzite_05.png","image_id":277,"category_name":"Quartzite","category":18,"distinct_rating":2.23,"distinct_type":"Bottom","rt":null,"stimulus":"Stimuli_Rocks480/M_Quartzite_05.png","response":null,"trial_type":"image-keyboard-response","trial_index":44,"plugin_version":"2.1.0","time_elapsed":105856,"subject_id":"89447","group":"Group1","full_date":"2025-11-10T18:54:01.943Z","date":"2025-11-10","time":"18:54:01"},{"rt":null,"stimulus":"<p style=\"font-size: 50px; margin: 0; text-align: center;\">+</p>","response":null,"trial_type":"html-keyboard-response","trial_index":45,"plugin_version":"2.1.0","time_elapsed":106858,"subject_id":"89447","group":"Group1","full_date":"2025-11-10T18:54:01.943Z","date":"2025-11-10","time":"18:54:01"},{"task":"memory_phase","broad_category":"M","image_png":"M_Marble_04.png","image_id":228,"category_name":"Marble","category":15,"distinct_rating":3.15,"distinct_type":"Bottom","rt":null,"stimulus":"Stimuli_Rocks480/M_Marble_04.png","response":null,"trial_type":"image-keyboard-response","trial_index":46,"plugin_version":"2.1.0","time_elapsed":109374,"subject_id":"89447","group":"Group1","full_date":"2025-11-10T18:54:01.943Z","date":"2025-11-10","time":"18:54:01"},{"rt":null,"stimulus":"<p style=\"font-size: 50px; margin: 0; text-align: center;\">+</p>","response":null,"trial_type":"html-keyboard-response","trial_index":47,"plugin_version":"2.1.0","time_elapsed":110376,"subject_id":"89447","group":"Group1","full_date":"2025-11-10T18:54:01.943Z","date":"2025-11-10","time":"18:54:01"},{"task":"memory_phase","broad_category":"M","image_png":"M_Quartzite_08.png","image_id":280,"category_name":"Quartzite","category":18,"distinct_rating":2.15,"distinct_type":"Bottom","rt":null,"stimulus":"Stimuli_Rocks480/M_Quartzite_08.png","response":null,"trial_type":"image-keyboard-response","trial_index":48,"plugin_version":"2.1.0","time_elapsed":112891,"subject_id":"89447","group":"Group1","full_date":"2025-11-10T18:54:01.943Z","date":"2025-11-10","time":"18:54:01"},{"rt":null,"stimulus":"<p style=\"font-size: 50px; margin: 0; text-align: center;\">+</p>","response":null,"trial_type":"html-keyboard-response","trial_index":49,"plugin_version":"2.1.0","time_elapsed":113894,"subject_id":"89447","group":"Group1","full_date":"2025-11-10T18:54:01.943Z","date":"2025-11-10","time":"18:54:01"},{"task":"memory_phase","broad_category":"S","image_png":"S_Shale_01.png","image_id":465,"category_name":"Shale","category":30,"distinct_rating":2.7,"distinct_type":"Bottom","rt":null,"stimulus":"Stimuli_Rocks480/S_Shale_01.png","response":null,"trial_type":"image-keyboard-response","trial_index":50,"plugin_version":"2.1.0","time_elapsed":116407,"subject_id":"89447","group":"Group1","full_date":"2025-11-10T18:54:01.943Z","date":"2025-11-10","time":"18:54:01"},{"rt":null,"stimulus":"<p style=\"font-size: 50px; margin: 0; text-align: center;\">+</p>","response":null,"trial_type":"html-keyboard-response","trial_index":51,"plugin_version":"2.1.0","time_elapsed":117410,"subject_id":"89447","group":"Group1","full_date":"2025-11-10T18:54:01.943Z","date":"2025-11-10","time":"18:54:01"},{"task":"memory_phase","broad_category":"I","image_png":"I_Diorite_05.png","image_id":37,"category_name":"Diorite","category":3,"distinct_rating":3.08,"distinct_type":"Bottom","rt":null,"stimulus":"Stimuli_Rocks480/I_Diorite_05.png","response":null,"trial_type":"image-keyboard-response","trial_index":52,"plugin_version":"2.1.0","time_elapsed":119924,"subject_id":"89447","group":"Group1","full_date":"2025-11-10T18:54:01.943Z","date":"2025-11-10","time":"18:54:01"},{"rt":null,"stimulus":"<p style=\"font-size: 50px; margin: 0; text-align: center;\">+</p>","response":null,"trial_type":"html-keyboard-response","trial_index":53,"plugin_version":"2.1.0","time_elapsed":120926,"subject_id":"89447","group":"Group1","full_date":"2025-11-10T18:54:01.943Z","date":"2025-11-10","time":"18:54:01"},{"task":"memory_phase","broad_category":"S","image_png":"S_Dolomite_12.png","image_id":396,"category_name":"Dolomite","category":25,"distinct_rating":1.85,"distinct_type":"Bottom","rt":null,"stimulus":"Stimuli_Rocks480/S_Dolomite_12.png","response":null,"trial_type":"image-keyboard-response","trial_index":54,"plugin_version":"2.1.0","time_elapsed":123442,"subject_id":"89447","group":"Group1","full_date":"2025-11-10T18:54:01.943Z","date":"2025-11-10","time":"18:54:01"},{"rt":21156,"stimulus":"<p style=\"font-size: 35px;\">Press SPACE to continue study phase</p>","response":" ","trial_type":"html-keyboard-response","trial_index":55,"plugin_version":"2.1.0","time_elapsed":144600,"subject_id":"89447","group":"Group1","full_date":"2025-11-10T18:54:01.943Z","date":"2025-11-10","time":"18:54:01"},{"rt":null,"stimulus":"<p style=\"font-size: 50px; margin: 0; text-align: center;\">+</p>","response":null,"trial_type":"html-keyboard-response","trial_index":56,"plugin_version":"2.1.0","time_elapsed":145603,"subject_id":"89447","group":"Group1","full_date":"2025-11-10T18:54:01.943Z","date":"2025-11-10","time":"18:54:01"},{"task":"memory_phase","broad_category":"I","image_png":"I_Basalt_02.png","image_id":18,"category_name":"Basalt","category":2,"distinct_rating":1.84,"distinct_type":"Bottom","rt":null,"stimulus":"Stimuli_Rocks480/I_Basalt_02.png","response":null,"trial_type":"image-keyboard-response","trial_index":57,"plugin_version":"2.1.0","time_elapsed":148119,"subject_id":"89447","group":"Group1","full_date":"2025-11-10T18:54:01.943Z","date":"2025-11-10","time":"18:54:01"},{"rt":null,"stimulus":"<p style=\"font-size: 50px; margin: 0; text-align: center;\">+</p>","response":null,"trial_type":"html-keyboard-response","trial_index":58,"plugin_version":"2.1.0","time_elapsed":149121,"subject_id":"89447","group":"Group1","full_date":"2025-11-10T18:54:01.943Z","date":"2025-11-10","time":"18:54:01"},{"task":"memory_phase","broad_category":"M","image_png":"M_Marble_06.png","image_id":230,"category_name":"Marble","category":15,"distinct_rating":3.4,"distinct_type":"Bottom","rt":null,"stimulus":"Stimuli_Rocks480/M_Marble_06.png","response":null,"trial_type":"image-keyboard-response","trial_index":59,"plugin_version":"2.1.0","time_elapsed":151635,"subject_id":"89447","group":"Group1","full_date":"2025-11-10T18:54:01.943Z","date":"2025-11-10","time":"18:54:01"},{"rt":null,"stimulus":"<p style=\"font-size: 50px; margin: 0; text-align: center;\">+</p>","response":null,"trial_type":"html-keyboard-response","trial_index":60,"plugin_version":"2.1.0","time_elapsed":152637,"subject_id":"89447","group":"Group1","full_date":"2025-11-10T18:54:01.943Z","date":"2025-11-10","time":"18:54:01"},{"task":"memory_phase","broad_category":"S","image_png":"S_Breccia_11.png","image_id":347,"category_name":"Breccia","category":22,"distinct_rating":6.7,"distinct_type":"Top","rt":null,"stimulus":"Stimuli_Rocks480/S_Breccia_11.png","response":null,"trial_type":"image-keyboard-response","trial_index":61,"plugin_version":"2.1.0","time_elapsed":155158,"subject_id":"89447","group":"Group1","full_date":"2025-11-10T18:54:01.943Z","date":"2025-11-10","time":"18:54:01"},{"rt":null,"stimulus":"<p style=\"font-size: 50px; margin: 0; text-align: center;\">+</p>","response":null,"trial_type":"html-keyboard-response","trial_index":62,"plugin_version":"2.1.0","time_elapsed":156160,"subject_id":"89447","group":"Group1","full_date":"2025-11-10T18:54:01.943Z","date":"2025-11-10","time":"18:54:01"},{"task":"memory_phase","broad_category":"I","image_png":"I_Gabbro_11.png","image_id":59,"category_name":"Gabbro","category":4,"distinct_rating":1.99,"distinct_type":"Bottom","rt":null,"stimulus":"Stimuli_Rocks480/I_Gabbro_11.png","response":null,"trial_type":"image-keyboard-response","trial_index":63,"plugin_version":"2.1.0","time_elapsed":158677,"subject_id":"89447","group":"Group1","full_date":"2025-11-10T18:54:01.943Z","date":"2025-11-10","time":"18:54:01"},{"rt":null,"stimulus":"<p style=\"font-size: 50px; margin: 0; text-align: center;\">+</p>","response":null,"trial_type":"html-keyboard-response","trial_index":64,"plugin_version":"2.1.0","time_elapsed":159680,"subject_id":"89447","group":"Group1","full_date":"2025-11-10T18:54:01.943Z","date":"2025-11-10","time":"18:54:01"},{"task":"memory_phase","broad_category":"I","image_png":"I_Pegmatite_10.png","image_id":106,"category_name":"Pegmatite","category":7,"distinct_rating":7.66,"distinct_type":"Top","rt":null,"stimulus":"Stimuli_Rocks480/I_Pegmatite_10.png","response":null,"trial_type":"image-keyboard-response","trial_index":65,"plugin_version":"2.1.0","time_elapsed":162195,"subject_id":"89447","group":"Group1","full_date":"2025-11-10T18:54:01.943Z","date":"2025-11-10","time":"18:54:01"},{"rt":null,"stimulus":"<p style=\"font-size: 50px; margin: 0; text-align: center;\">+</p>","response":null,"trial_type":"html-keyboard-response","trial_index":66,"plugin_version":"2.1.0","time_elapsed":163198,"subject_id":"89447","group":"Group1","full_date":"2025-11-10T18:54:01.943Z","date":"2025-11-10","time":"18:54:01"},{"task":"memory_phase","broad_category":"S","image_png":"S_Rock Salt_01.png","image_id":433,"category_name":"Rock Salt","category":28,"distinct_rating":7.18,"distinct_type":"Top","rt":null,"stimulus":"Stimuli_Rocks480/S_Rock Salt_01.png","response":null,"trial_type":"image-keyboard-response","trial_index":67,"plugin_version":"2.1.0","time_elapsed":165716,"subject_id":"89447","group":"Group1","full_date":"2025-11-10T18:54:01.943Z","date":"2025-11-10","time":"18:54:01"},{"rt":null,"stimulus":"<p style=\"font-size: 50px; margin: 0; text-align: center;\">+</p>","response":null,"trial_type":"html-keyboard-response","trial_index":68,"plugin_version":"2.1.0","time_elapsed":166718,"subject_id":"89447","group":"Group1","full_date":"2025-11-10T18:54:01.943Z","date":"2025-11-10","time":"18:54:01"},{"task":"memory_phase","broad_category":"I","image_png":"I_Obsidian_05.png","image_id":85,"category_name":"Obsidian","category":6,"distinct_rating":7.32,"distinct_type":"Top","rt":null,"stimulus":"Stimuli_Rocks480/I_Obsidian_05.png","response":null,"trial_type":"image-keyboard-response","trial_index":69,"plugin_version":"2.1.0","time_elapsed":169234,"subject_id":"89447","group":"Group1","full_date":"2025-11-10T18:54:01.943Z","date":"2025-11-10","time":"18:54:01"},{"rt":null,"stimulus":"<p style=\"font-size: 50px; margin: 0; text-align: center;\">+</p>","response":null,"trial_type":"html-keyboard-response","trial_index":70,"plugin_version":"2.1.0","time_elapsed":170236,"subject_id":"89447","group":"Group1","full_date":"2025-11-10T18:54:01.943Z","date":"2025-11-10","time":"18:54:01"},{"task":"memory_phase","broad_category":"M","image_png":"M_Phyllite_10.png","image_id":266,"category_name":"Phyllite","category":17,"distinct_rating":2.6,"distinct_type":"Bottom","rt":null,"stimulus":"Stimuli_Rocks480/M_Phyllite_10.png","response":null,"trial_type":"image-keyboard-response","trial_index":71,"plugin_version":"2.1.0","time_elapsed":172750,"subject_id":"89447","group":"Group1","full_date":"2025-11-10T18:54:01.943Z","date":"2025-11-10","time":"18:54:01"},{"rt":null,"stimulus":"<p style=\"font-size: 50px; margin: 0; text-align: center;\">+</p>","response":null,"trial_type":"html-keyboard-response","trial_index":72,"plugin_version":"2.1.0","time_elapsed":173753,"subject_id":"89447","group":"Group1","full_date":"2025-11-10T18:54:01.943Z","date":"2025-11-10","time":"18:54:01"},{"task":"memory_phase","broad_category":"I","image_png":"I_Andesite_10.png","image_id":10,"category_name":"Andesite","category":1,"distinct_rating":3.15,"distinct_type":"Bottom","rt":null,"stimulus":"Stimuli_Rocks480/I_Andesite_10.png","response":null,"trial_type":"image-keyboard-response","trial_index":73,"plugin_version":"2.1.0","time_elapsed":176264,"subject_id":"89447","group":"Group1","full_date":"2025-11-10T18:54:01.943Z","date":"2025-11-10","time":"18:54:01"},{"rt":null,"stimulus":"<p style=\"font-size: 50px; margin: 0; text-align: center;\">+</p>","response":null,"trial_type":"html-keyboard-response","trial_index":74,"plugin_version":"2.1.0","time_elapsed":177266,"subject_id":"89447","group":"Group1","full_date":"2025-11-10T18:54:01.943Z","date":"2025-11-10","time":"18:54:01"},{"task":"memory_phase","broad_category":"I","image_png":"I_Pumice_08.png","image_id":136,"category_name":"Pumice","category":9,"distinct_rating":3.1,"distinct_type":"Bottom","rt":null,"stimulus":"Stimuli_Rocks480/I_Pumice_08.png","response":null,"trial_type":"image-keyboard-response","trial_index":75,"plugin_version":"2.1.0","time_elapsed":179779,"subject_id":"89447","group":"Group1","full_date":"2025-11-10T18:54:01.943Z","date":"2025-11-10","time":"18:54:01"},{"rt":null,"stimulus":"<p style=\"font-size: 50px; margin: 0; text-align: center;\">+</p>","response":null,"trial_type":"html-keyboard-response","trial_index":76,"plugin_version":"2.1.0","time_elapsed":180781,"subject_id":"89447","group":"Group1","full_date":"2025-11-10T18:54:01.943Z","date":"2025-11-10","time":"18:54:01"},{"task":"memory_phase","broad_category":"I","image_png":"I_Andesite_08.png","image_id":8,"category_name":"Andesite","category":1,"distinct_rating":1.95,"distinct_type":"Bottom","rt":null,"stimulus":"Stimuli_Rocks480/I_Andesite_08.png","response":null,"trial_type":"image-keyboard-response","trial_index":77,"plugin_version":"2.1.0","time_elapsed":183297,"subject_id":"89447","group":"Group1","full_date":"2025-11-10T18:54:01.943Z","date":"2025-11-10","time":"18:54:01"},{"rt":null,"stimulus":"<p style=\"font-size: 50px; margin: 0; text-align: center;\">+</p>","response":null,"trial_type":"html-keyboard-response","trial_index":78,"plugin_version":"2.1.0","time_elapsed":184300,"subject_id":"89447","group":"Group1","full_date":"2025-11-10T18:54:01.943Z","date":"2025-11-10","time":"18:54:01"},{"task":"memory_phase","broad_category":"M","image_png":"M_Slate_11.png","image_id":315,"category_name":"Slate","category":20,"distinct_rating":2.75,"distinct_type":"Bottom","rt":null,"stimulus":"Stimuli_Rocks480/M_Slate_11.png","response":null,"trial_type":"image-keyboard-response","trial_index":79,"plugin_version":"2.1.0","time_elapsed":186811,"subject_id":"89447","group":"Group1","full_date":"2025-11-10T18:54:01.943Z","date":"2025-11-10","time":"18:54:01"},{"rt":null,"stimulus":"<p style=\"font-size: 50px; margin: 0; text-align: center;\">+</p>","response":null,"trial_type":"html-keyboard-response","trial_index":80,"plugin_version":"2.1.0","time_elapsed":187813,"subject_id":"89447","group":"Group1","full_date":"2025-11-10T18:54:01.943Z","date":"2025-11-10","time":"18:54:01"},{"task":"memory_phase","broad_category":"I","image_png":"I_Pumice_11.png","image_id":139,"category_name":"Pumice","category":9,"distinct_rating":1.74,"distinct_type":"Bottom","rt":null,"stimulus":"Stimuli_Rocks480/I_Pumice_11.png","response":null,"trial_type":"image-keyboard-response","trial_index":81,"plugin_version":"2.1.0","time_elapsed":190323,"subject_id":"89447","group":"Group1","full_date":"2025-11-10T18:54:01.943Z","date":"2025-11-10","time":"18:54:01"},{"rt":null,"stimulus":"<p style=\"font-size: 50px; margin: 0; text-align: center;\">+</p>","response":null,"trial_type":"html-keyboard-response","trial_index":82,"plugin_version":"2.1.0","time_elapsed":191325,"subject_id":"89447","group":"Group1","full_date":"2025-11-10T18:54:01.943Z","date":"2025-11-10","time":"18:54:01"},{"task":"memory_phase","broad_category":"M","image_png":"M_Phyllite_07.png","image_id":263,"category_name":"Phyllite","category":17,"distinct_rating":2.59,"distinct_type":"Bottom","rt":null,"stimulus":"Stimuli_Rocks480/M_Phyllite_07.png","response":null,"trial_type":"image-keyboard-response","trial_index":83,"plugin_version":"2.1.0","time_elapsed":193840,"subject_id":"89447","group":"Group1","full_date":"2025-11-10T18:54:01.943Z","date":"2025-11-10","time":"18:54:01"},{"rt":null,"stimulus":"<p style=\"font-size: 50px; margin: 0; text-align: center;\">+</p>","response":null,"trial_type":"html-keyboard-response","trial_index":84,"plugin_version":"2.1.0","time_elapsed":194843,"subject_id":"89447","group":"Group1","full_date":"2025-11-10T18:54:01.943Z","date":"2025-11-10","time":"18:54:01"},{"task":"memory_phase","broad_category":"S","image_png":"S_Conglomerate_05.png","image_id":373,"category_name":"Conglomerate","category":24,"distinct_rating":7.32,"distinct_type":"Top","rt":null,"stimulus":"Stimuli_Rocks480/S_Conglomerate_05.png","response":null,"trial_type":"image-keyboard-response","trial_index":85,"plugin_version":"2.1.0","time_elapsed":197358,"subject_id":"89447","group":"Group1","full_date":"2025-11-10T18:54:01.943Z","date":"2025-11-10","time":"18:54:01"},{"rt":null,"stimulus":"<p style=\"font-size: 50px; margin: 0; text-align: center;\">+</p>","response":null,"trial_type":"html-keyboard-response","trial_index":86,"plugin_version":"2.1.0","time_elapsed":198361,"subject_id":"89447","group":"Group1","full_date":"2025-11-10T18:54:01.943Z","date":"2025-11-10","time":"18:54:01"},{"task":"memory_phase","broad_category":"I","image_png":"I_Diorite_04.png","image_id":36,"category_name":"Diorite","category":3,"distinct_rating":2.98,"distinct_type":"Bottom","rt":null,"stimulus":"Stimuli_Rocks480/I_Diorite_04.png","response":null,"trial_type":"image-keyboard-response","trial_index":87,"plugin_version":"2.1.0","time_elapsed":200877,"subject_id":"89447","group":"Group1","full_date":"2025-11-10T18:54:01.943Z","date":"2025-11-10","time":"18:54:01"},{"rt":null,"stimulus":"<p style=\"font-size: 50px; margin: 0; text-align: center;\">+</p>","response":null,"trial_type":"html-keyboard-response","trial_index":88,"plugin_version":"2.1.0","time_elapsed":201879,"subject_id":"89447","group":"Group1","full_date":"2025-11-10T18:54:01.943Z","date":"2025-11-10","time":"18:54:01"},{"task":"memory_phase","broad_category":"S","image_png":"S_Sandstone_16.png","image_id":464,"category_name":"Sandstone","category":29,"distinct_rating":1.93,"distinct_type":"Bottom","rt":null,"stimulus":"Stimuli_Rocks480/S_Sandstone_16.png","response":null,"trial_type":"image-keyboard-response","trial_index":89,"plugin_version":"2.1.0","time_elapsed":204391,"subject_id":"89447","group":"Group1","full_date":"2025-11-10T18:54:01.943Z","date":"2025-11-10","time":"18:54:01"},{"rt":null,"stimulus":"<p style=\"font-size: 50px; margin: 0; text-align: center;\">+</p>","response":null,"trial_type":"html-keyboard-response","trial_index":90,"plugin_version":"2.1.0","time_elapsed":205393,"subject_id":"89447","group":"Group1","full_date":"2025-11-10T18:54:01.943Z","date":"2025-11-10","time":"18:54:01"},{"task":"memory_phase","broad_category":"I","image_png":"I_Basalt_01.png","image_id":17,"category_name":"Basalt","category":2,"distinct_rating":1.92,"distinct_type":"Bottom","rt":null,"stimulus":"Stimuli_Rocks480/I_Basalt_01.png","response":null,"trial_type":"image-keyboard-response","trial_index":91,"plugin_version":"2.1.0","time_elapsed":207911,"subject_id":"89447","group":"Group1","full_date":"2025-11-10T18:54:01.943Z","date":"2025-11-10","time":"18:54:01"},{"rt":null,"stimulus":"<p style=\"font-size: 50px; margin: 0; text-align: center;\">+</p>","response":null,"trial_type":"html-keyboard-response","trial_index":92,"plugin_version":"2.1.0","time_elapsed":208913,"subject_id":"89447","group":"Group1","full_date":"2025-11-10T18:54:01.943Z","date":"2025-11-10","time":"18:54:01"},{"task":"memory_phase","broad_category":"M","image_png":"M_Marble_16.png","image_id":240,"category_name":"Marble","category":15,"distinct_rating":2.57,"distinct_type":"Bottom","rt":null,"stimulus":"Stimuli_Rocks480/M_Marble_16.png","response":null,"trial_type":"image-keyboard-response","trial_index":93,"plugin_version":"2.1.0","time_elapsed":211428,"subject_id":"89447","group":"Group1","full_date":"2025-11-10T18:54:01.943Z","date":"2025-11-10","time":"18:54:01"},{"rt":null,"stimulus":"<p style=\"font-size: 50px; margin: 0; text-align: center;\">+</p>","response":null,"trial_type":"html-keyboard-response","trial_index":94,"plugin_version":"2.1.0","time_elapsed":212431,"subject_id":"89447","group":"Group1","full_date":"2025-11-10T18:54:01.943Z","date":"2025-11-10","time":"18:54:01"},{"task":"memory_phase","broad_category":"I","image_png":"I_Pumice_12.png","image_id":140,"category_name":"Pumice","category":9,"distinct_rating":2.97,"distinct_type":"Bottom","rt":null,"stimulus":"Stimuli_Rocks480/I_Pumice_12.png","response":null,"trial_type":"image-keyboard-response","trial_index":95,"plugin_version":"2.1.0","time_elapsed":214941,"subject_id":"89447","group":"Group1","full_date":"2025-11-10T18:54:01.943Z","date":"2025-11-10","time":"18:54:01"},{"rt":null,"stimulus":"<p style=\"font-size: 50px; margin: 0; text-align: center;\">+</p>","response":null,"trial_type":"html-keyboard-response","trial_index":96,"plugin_version":"2.1.0","time_elapsed":215944,"subject_id":"89447","group":"Group1","full_date":"2025-11-10T18:54:01.943Z","date":"2025-11-10","time":"18:54:01"},{"task":"memory_phase","broad_category":"S","image_png":"S_Rock Gypsum_04.png","image_id":420,"category_name":"Rock Gypsum","category":27,"distinct_rating":7.61,"distinct_type":"Top","rt":null,"stimulus":"Stimuli_Rocks480/S_Rock Gypsum_04.png","response":null,"trial_type":"image-keyboard-response","trial_index":97,"plugin_version":"2.1.0","time_elapsed":218461,"subject_id":"89447","group":"Group1","full_date":"2025-11-10T18:54:01.943Z","date":"2025-11-10","time":"18:54:01"},{"rt":null,"stimulus":"<p style=\"font-size: 50px; margin: 0; text-align: center;\">+</p>","response":null,"trial_type":"html-keyboard-response","trial_index":98,"plugin_version":"2.1.0","time_elapsed":219463,"subject_id":"89447","group":"Group1","full_date":"2025-11-10T18:54:01.943Z","date":"2025-11-10","time":"18:54:01"},{"task":"memory_phase","broad_category":"I","image_png":"I_Rhyolite_16.png","image_id":160,"category_name":"Rhyolite","category":10,"distinct_rating":2.19,"distinct_type":"Bottom","rt":null,"stimulus":"Stimuli_Rocks480/I_Rhyolite_16.png","response":null,"trial_type":"image-keyboard-response","trial_index":99,"plugin_version":"2.1.0","time_elapsed":221978,"subject_id":"89447","group":"Group1","full_date":"2025-11-10T18:54:01.943Z","date":"2025-11-10","time":"18:54:01"},{"rt":null,"stimulus":"<p style=\"font-size: 50px; margin: 0; text-align: center;\">+</p>","response":null,"trial_type":"html-keyboard-response","trial_index":100,"plugin_version":"2.1.0","time_elapsed":222981,"subject_id":"89447","group":"Group1","full_date":"2025-11-10T18:54:01.943Z","date":"2025-11-10","time":"18:54:01"},{"task":"memory_phase","broad_category":"I","image_png":"I_Gabbro_16.png","image_id":64,"category_name":"Gabbro","category":4,"distinct_rating":2.52,"distinct_type":"Bottom","rt":null,"stimulus":"Stimuli_Rocks480/I_Gabbro_16.png","response":null,"trial_type":"image-keyboard-response","trial_index":101,"plugin_version":"2.1.0","time_elapsed":225495,"subject_id":"89447","group":"Group1","full_date":"2025-11-10T18:54:01.943Z","date":"2025-11-10","time":"18:54:01"},{"rt":null,"stimulus":"<p style=\"font-size: 50px; margin: 0; text-align: center;\">+</p>","response":null,"trial_type":"html-keyboard-response","trial_index":102,"plugin_version":"2.1.0","time_elapsed":226497,"subject_id":"89447","group":"Group1","full_date":"2025-11-10T18:54:01.943Z","date":"2025-11-10","time":"18:54:01"},{"task":"memory_phase","broad_category":"S","image_png":"S_Dolomite_14.png","image_id":398,"category_name":"Dolomite","category":25,"distinct_rating":1.43,"distinct_type":"Bottom","rt":null,"stimulus":"Stimuli_Rocks480/S_Dolomite_14.png","response":null,"trial_type":"image-keyboard-response","trial_index":103,"plugin_version":"2.1.0","time_elapsed":229012,"subject_id":"89447","group":"Group1","full_date":"2025-11-10T18:54:01.943Z","date":"2025-11-10","time":"18:54:01"},{"rt":null,"stimulus":"<p style=\"font-size: 50px; margin: 0; text-align: center;\">+</p>","response":null,"trial_type":"html-keyboard-response","trial_index":104,"plugin_version":"2.1.0","time_elapsed":230014,"subject_id":"89447","group":"Group1","full_date":"2025-11-10T18:54:01.943Z","date":"2025-11-10","time":"18:54:01"},{"task":"memory_phase","broad_category":"S","image_png":"S_Shale_12.png","image_id":476,"category_name":"Shale","category":30,"distinct_rating":2.48,"distinct_type":"Bottom","rt":null,"stimulus":"Stimuli_Rocks480/S_Shale_12.png","response":null,"trial_type":"image-keyboard-response","trial_index":105,"plugin_version":"2.1.0","time_elapsed":232531,"subject_id":"89447","group":"Group1","full_date":"2025-11-10T18:54:01.943Z","date":"2025-11-10","time":"18:54:01"},{"rt":14467,"stimulus":"<div style=\"max-width: 760px; margin: auto; font-size: 20px; line-height: 1.5;\">\n      <h1 style=\"text-align:center; font-size: 30px;\">Instructions for the Test Phase</h1>\n      <p>\n        The study phase is now complete.\n      </p>\n      <p>\n        In the test phase, you will again see a series of rock images. \n        Some will be ones you saw before - during the study phase, while others will be new.  \n        <b>Your task</b> is to decide whether you have seen each image before by pressing the corresponding key on your keyboard:<br><br>\n          <b>A</b> - NO (you did not see this image before)<br>\n          <b>L</b> - YES (you saw this image before)<br><br>\n        The test will proceed at your own pace. You will receive feedback after each response.  \n        Please try to respond <b>as accurately as possible</b>.\n      </p>\n      <p>\n        <b>Reminder:</b> If your computer has multiple language settings (e.g., English and another language),\n        please ensure it is set to English during the test phase.\n      </p>\n      <p>\n        You can track your progress using the <b>completion bar</b> at the top of the screen.  \n        Note that it has been refreshed to reflect your progress during this final phase.\n      </p>\n      <p>\n        Press the button below when you are ready to continue.\n      </p>\n    </div>","response":0,"trial_type":"html-button-response","trial_index":106,"plugin_version":"2.1.0","time_elapsed":247001,"subject_id":"89447","group":"Group1","full_date":"2025-11-10T18:54:01.943Z","date":"2025-11-10","time":"18:54:01"},{"correct_response":"a","task":"test_phase","broad_category":"M","image_png":"M_Slate_04.png","image_id":308,"category_name":"Slate","category":20,"distinct_rating":2.2,"distinct_type":"Bottom","item_type":"Foil","rt":3676,"stimulus":"Stimuli_Rocks480/M_Slate_04.png","response":"l","trial_type":"image-keyboard-response","trial_index":107,"plugin_version":"2.1.0","time_elapsed":250688,"subject_id":"89447","group":"Group1","full_date":"2025-11-10T18:54:01.943Z","date":"2025-11-10","time":"18:54:01","cor_ans":false},{"trial_type":"html-keyboard-response","rt":null,"stimulus":"<p style=\"color: red; font-size: 50px; font-weight: bold;\">Incorrect</p>","response":null,"trial_index":108,"plugin_version":"2.1.0","time_elapsed":251191,"subject_id":"89447","group":"Group1","full_date":"2025-11-10T18:54:01.943Z","date":"2025-11-10","time":"18:54:01"},{"correct_response":"a","task":"test_phase","broad_category":"I","image_png":"I_Obsidian_06.png","image_id":86,"category_name":"Obsidian","category":6,"distinct_rating":8.01,"distinct_type":"Top","item_type":"Foil","rt":1861,"stimulus":"Stimuli_Rocks480/I_Obsidian_06.png","response":"l","trial_type":"image-keyboard-response","trial_index":109,"plugin_version":"2.1.0","time_elapsed":253067,"subject_id":"89447","group":"Group1","full_date":"2025-11-10T18:54:01.943Z","date":"2025-11-10","time":"18:54:01","cor_ans":false},{"trial_type":"html-keyboard-response","rt":null,"stimulus":"<p style=\"color: red; font-size: 50px; font-weight: bold;\">Incorrect</p>","response":null,"trial_index":110,"plugin_version":"2.1.0","time_elapsed":253569,"subject_id":"89447","group":"Group1","full_date":"2025-11-10T18:54:01.943Z","date":"2025-11-10","time":"18:54:01"},{"correct_response":"l","task":"test_phase","broad_category":"I","image_png":"I_Pumice_11.png","image_id":139,"category_name":"Pumice","category":9,"distinct_rating":1.74,"distinct_type":"Bottom","item_type":"Target","rt":4873,"stimulus":"Stimuli_Rocks480/I_Pumice_11.png","response":"l","trial_type":"image-keyboard-response","trial_index":111,"plugin_version":"2.1.0","time_elapsed":258444,"subject_id":"89447","group":"Group1","full_date":"2025-11-10T18:54:01.943Z","date":"2025-11-10","time":"18:54:01","cor_ans":true},{"trial_type":"html-keyboard-response","rt":null,"stimulus":"<p style=\"color: green; font-size: 50px; font-weight: bold;\">Correct</p>","response":null,"trial_index":112,"plugin_version":"2.1.0","time_elapsed":258947,"subject_id":"89447","group":"Group1","full_date":"2025-11-10T18:54:01.943Z","date":"2025-11-10","time":"18:54:01"},{"correct_response":"l","task":"test_phase","broad_category":"I","image_png":"I_Basalt_09.png","image_id":25,"category_name":"Basalt","category":2,"distinct_rating":1.89,"distinct_type":"Bottom","item_type":"Target","rt":1493,"stimulus":"Stimuli_Rocks480/I_Basalt_09.png","response":"a","trial_type":"image-keyboard-response","trial_index":113,"plugin_version":"2.1.0","time_elapsed":260452,"subject_id":"89447","group":"Group1","full_date":"2025-11-10T18:54:01.943Z","date":"2025-11-10","time":"18:54:01","cor_ans":false},{"trial_type":"html-keyboard-response","rt":null,"stimulus":"<p style=\"color: red; font-size: 50px; font-weight: bold;\">Incorrect</p>","response":null,"trial_index":114,"plugin_version":"2.1.0","time_elapsed":260954,"subject_id":"89447","group":"Group1","full_date":"2025-11-10T18:54:01.943Z","date":"2025-11-10","time":"18:54:01"},{"correct_response":"l","task":"test_phase","broad_category":"M","image_png":"M_Gneiss_05.png","image_id":197,"category_name":"Gneiss","category":13,"distinct_rating":2.97,"distinct_type":"Bottom","item_type":"Target","rt":2046,"stimulus":"Stimuli_Rocks480/M_Gneiss_05.png","response":"l","trial_type":"image-keyboard-response","trial_index":115,"plugin_version":"2.1.0","time_elapsed":263019,"subject_id":"89447","group":"Group1","full_date":"2025-11-10T18:54:01.943Z","date":"2025-11-10","time":"18:54:01","cor_ans":true},{"trial_type":"html-keyboard-response","rt":null,"stimulus":"<p style=\"color: green; font-size: 50px; font-weight: bold;\">Correct</p>","response":null,"trial_index":116,"plugin_version":"2.1.0","time_elapsed":263521,"subject_id":"89447","group":"Group1","full_date":"2025-11-10T18:54:01.943Z","date":"2025-11-10","time":"18:54:01"},{"correct_response":"a","task":"test_phase","broad_category":"S","image_png":"S_Sandstone_08.png","image_id":456,"category_name":"Sandstone","category":29,"distinct_rating":1.5,"distinct_type":"Bottom","item_type":"Foil","rt":2161,"stimulus":"Stimuli_Rocks480/S_Sandstone_08.png","response":"a","trial_type":"image-keyboard-response","trial_index":117,"plugin_version":"2.1.0","time_elapsed":265692,"subject_id":"89447","group":"Group1","full_date":"2025-11-10T18:54:01.943Z","date":"2025-11-10","time":"18:54:01","cor_ans":true},{"trial_type":"html-keyboard-response","rt":null,"stimulus":"<p style=\"color: green; font-size: 50px; font-weight: bold;\">Correct</p>","response":null,"trial_index":118,"plugin_version":"2.1.0","time_elapsed":266194,"subject_id":"89447","group":"Group1","full_date":"2025-11-10T18:54:01.943Z","date":"2025-11-10","time":"18:54:01"},{"correct_response":"a","task":"test_phase","broad_category":"S","image_png":"S_Chert_13.png","image_id":365,"category_name":"Chert","category":23,"distinct_rating":6.57,"distinct_type":"Top","item_type":"Foil","rt":1061,"stimulus":"Stimuli_Rocks480/S_Chert_13.png","response":"l","trial_type":"image-keyboard-response","trial_index":119,"plugin_version":"2.1.0","time_elapsed":267264,"subject_id":"89447","group":"Group1","full_date":"2025-11-10T18:54:01.943Z","date":"2025-11-10","time":"18:54:01","cor_ans":false},{"trial_type":"html-keyboard-response","rt":null,"stimulus":"<p style=\"color: red; font-size: 50px; font-weight: bold;\">Incorrect</p>","response":null,"trial_index":120,"plugin_version":"2.1.0","time_elapsed":267766,"subject_id":"89447","group":"Group1","full_date":"2025-11-10T18:54:01.943Z","date":"2025-11-10","time":"18:54:01"},{"correct_response":"a","task":"test_phase","broad_category":"M","image_png":"M_Gneiss_10.png","image_id":202,"category_name":"Gneiss","category":13,"distinct_rating":3.09,"distinct_type":"Bottom","item_type":"Foil","rt":1370,"stimulus":"Stimuli_Rocks480/M_Gneiss_10.png","response":"l","trial_type":"image-keyboard-response","trial_index":121,"plugin_version":"2.1.0","time_elapsed":269150,"subject_id":"89447","group":"Group1","full_date":"2025-11-10T18:54:01.943Z","date":"2025-11-10","time":"18:54:01","cor_ans":false},{"trial_type":"html-keyboard-response","rt":null,"stimulus":"<p style=\"color: red; font-size: 50px; font-weight: bold;\">Incorrect</p>","response":null,"trial_index":122,"plugin_version":"2.1.0","time_elapsed":269653,"subject_id":"89447","group":"Group1","full_date":"2025-11-10T18:54:01.943Z","date":"2025-11-10","time":"18:54:01"},{"correct_response":"a","task":"test_phase","broad_category":"M","image_png":"M_Marble_14.png","image_id":238,"category_name":"Marble","category":15,"distinct_rating":3.31,"distinct_type":"Bottom","item_type":"Foil","rt":764,"stimulus":"Stimuli_Rocks480/M_Marble_14.png","response":"l","trial_type":"image-keyboard-response","trial_index":123,"plugin_version":"2.1.0","time_elapsed":270429,"subject_id":"89447","group":"Group1","full_date":"2025-11-10T18:54:01.943Z","date":"2025-11-10","time":"18:54:01","cor_ans":false},{"trial_type":"html-keyboard-response","rt":null,"stimulus":"<p style=\"color: red; font-size: 50px; font-weight: bold;\">Incorrect</p>","response":null,"trial_index":124,"plugin_version":"2.1.0","time_elapsed":270931,"subject_id":"89447","group":"Group1","full_date":"2025-11-10T18:54:01.943Z","date":"2025-11-10","time":"18:54:01"},{"correct_response":"l","task":"test_phase","broad_category":"I","image_png":"I_Gabbro_08.png","image_id":56,"category_name":"Gabbro","category":4,"distinct_rating":3.02,"distinct_type":"Bottom","item_type":"Target","rt":1183,"stimulus":"Stimuli_Rocks480/I_Gabbro_08.png","response":"a","trial_type":"image-keyboard-response","trial_index":125,"plugin_version":"2.1.0","time_elapsed":272127,"subject_id":"89447","group":"Group1","full_date":"2025-11-10T18:54:01.943Z","date":"2025-11-10","time":"18:54:01","cor_ans":false},{"trial_type":"html-keyboard-response","rt":null,"stimulus":"<p style=\"color: red; font-size: 50px; font-weight: bold;\">Incorrect</p>","response":null,"trial_index":126,"plugin_version":"2.1.0","time_elapsed":272629,"subject_id":"89447","group":"Group1","full_date":"2025-11-10T18:54:01.943Z","date":"2025-11-10","time":"18:54:01"},{"correct_response":"l","task":"test_phase","broad_category":"I","image_png":"I_Rhyolite_14.png","image_id":158,"category_name":"Rhyolite","category":10,"distinct_rating":2.59,"distinct_type":"Bottom","item_type":"Target","rt":1738,"stimulus":"Stimuli_Rocks480/I_Rhyolite_14.png","response":"a","trial_type":"image-keyboard-response","trial_index":127,"plugin_version":"2.1.0","time_elapsed":274380,"subject_id":"89447","group":"Group1","full_date":"2025-11-10T18:54:01.943Z","date":"2025-11-10","time":"18:54:01","cor_ans":false},{"trial_type":"html-keyboard-response","rt":null,"stimulus":"<p style=\"color: red; font-size: 50px; font-weight: bold;\">Incorrect</p>","response":null,"trial_index":128,"plugin_version":"2.1.0","time_elapsed":274882,"subject_id":"89447","group":"Group1","full_date":"2025-11-10T18:54:01.943Z","date":"2025-11-10","time":"18:54:01"},{"correct_response":"l","task":"test_phase","broad_category":"S","image_png":"S_Chert_10.png","image_id":362,"category_name":"Chert","category":23,"distinct_rating":7.17,"distinct_type":"Top","item_type":"Target","rt":1281,"stimulus":"Stimuli_Rocks480/S_Chert_10.png","response":"a","trial_type":"image-keyboard-response","trial_index":129,"plugin_version":"2.1.0","time_elapsed":276177,"subject_id":"89447","group":"Group1","full_date":"2025-11-10T18:54:01.943Z","date":"2025-11-10","time":"18:54:01","cor_ans":false},{"trial_type":"html-keyboard-response","rt":null,"stimulus":"<p style=\"color: red; font-size: 50px; font-weight: bold;\">Incorrect</p>","response":null,"trial_index":130,"plugin_version":"2.1.0","time_elapsed":276679,"subject_id":"89447","group":"Group1","full_date":"2025-11-10T18:54:01.943Z","date":"2025-11-10","time":"18:54:01"},{"correct_response":"l","task":"test_phase","broad_category":"S","image_png":"S_Rock Gypsum_04.png","image_id":420,"category_name":"Rock Gypsum","category":27,"distinct_rating":7.61,"distinct_type":"Top","item_type":"Target","rt":1010,"stimulus":"Stimuli_Rocks480/S_Rock Gypsum_04.png","response":"l","trial_type":"image-keyboard-response","trial_index":131,"plugin_version":"2.1.0","time_elapsed":277690,"subject_id":"89447","group":"Group1","full_date":"2025-11-10T18:54:01.943Z","date":"2025-11-10","time":"18:54:01","cor_ans":true},{"trial_type":"html-keyboard-response","rt":null,"stimulus":"<p style=\"color: green; font-size: 50px; font-weight: bold;\">Correct</p>","response":null,"trial_index":132,"plugin_version":"2.1.0","time_elapsed":278192,"subject_id":"89447","group":"Group1","full_date":"2025-11-10T18:54:01.943Z","date":"2025-11-10","time":"18:54:01"},{"correct_response":"a","task":"test_phase","broad_category":"S","image_png":"S_Dolomite_07.png","image_id":391,"category_name":"Dolomite","category":25,"distinct_rating":1.73,"distinct_type":"Bottom","item_type":"Foil","rt":1282,"stimulus":"Stimuli_Rocks480/S_Dolomite_07.png","response":"l","trial_type":"image-keyboard-response","trial_index":133,"plugin_version":"2.1.0","time_elapsed":279487,"subject_id":"89447","group":"Group1","full_date":"2025-11-10T18:54:01.943Z","date":"2025-11-10","time":"18:54:01","cor_ans":false},{"trial_type":"html-keyboard-response","rt":null,"stimulus":"<p style=\"color: red; font-size: 50px; font-weight: bold;\">Incorrect</p>","response":null,"trial_index":134,"plugin_version":"2.1.0","time_elapsed":279989,"subject_id":"89447","group":"Group1","full_date":"2025-11-10T18:54:01.943Z","date":"2025-11-10","time":"18:54:01"},{"correct_response":"l","task":"test_phase","broad_category":"I","image_png":"I_Pegmatite_10.png","image_id":106,"category_name":"Pegmatite","category":7,"distinct_rating":7.66,"distinct_type":"Top","item_type":"Target","rt":988,"stimulus":"Stimuli_Rocks480/I_Pegmatite_10.png","response":"a","trial_type":"image-keyboard-response","trial_index":135,"plugin_version":"2.1.0","time_elapsed":280988,"subject_id":"89447","group":"Group1","full_date":"2025-11-10T18:54:01.943Z","date":"2025-11-10","time":"18:54:01","cor_ans":false},{"trial_type":"html-keyboard-response","rt":null,"stimulus":"<p style=\"color: red; font-size: 50px; font-weight: bold;\">Incorrect</p>","response":null,"trial_index":136,"plugin_version":"2.1.0","time_elapsed":281490,"subject_id":"89447","group":"Group1","full_date":"2025-11-10T18:54:01.943Z","date":"2025-11-10","time":"18:54:01"},{"correct_response":"a","task":"test_phase","broad_category":"I","image_png":"I_Rhyolite_05.png","image_id":149,"category_name":"Rhyolite","category":10,"distinct_rating":3.02,"distinct_type":"Bottom","item_type":"Foil","rt":1240,"stimulus":"Stimuli_Rocks480/I_Rhyolite_05.png","response":"l","trial_type":"image-keyboard-response","trial_index":137,"plugin_version":"2.1.0","time_elapsed":282746,"subject_id":"89447","group":"Group1","full_date":"2025-11-10T18:54:01.943Z","date":"2025-11-10","time":"18:54:01","cor_ans":false},{"trial_type":"html-keyboard-response","rt":null,"stimulus":"<p style=\"color: red; font-size: 50px; font-weight: bold;\">Incorrect</p>","response":null,"trial_index":138,"plugin_version":"2.1.0","time_elapsed":283249,"subject_id":"89447","group":"Group1","full_date":"2025-11-10T18:54:01.943Z","date":"2025-11-10","time":"18:54:01"},{"correct_response":"l","task":"test_phase","broad_category":"I","image_png":"I_Pumice_12.png","image_id":140,"category_name":"Pumice","category":9,"distinct_rating":2.97,"distinct_type":"Bottom","item_type":"Target","rt":3089,"stimulus":"Stimuli_Rocks480/I_Pumice_12.png","response":"l","trial_type":"image-keyboard-response","trial_index":139,"plugin_version":"2.1.0","time_elapsed":286339,"subject_id":"89447","group":"Group1","full_date":"2025-11-10T18:54:01.943Z","date":"2025-11-10","time":"18:54:01","cor_ans":true},{"trial_type":"html-keyboard-response","rt":null,"stimulus":"<p style=\"color: green; font-size: 50px; font-weight: bold;\">Correct</p>","response":null,"trial_index":140,"plugin_version":"2.1.0","time_elapsed":286841,"subject_id":"89447","group":"Group1","full_date":"2025-11-10T18:54:01.943Z","date":"2025-11-10","time":"18:54:01"},{"correct_response":"a","task":"test_phase","broad_category":"S","image_png":"S_Conglomerate_14.png","image_id":382,"category_name":"Conglomerate","category":24,"distinct_rating":6.86,"distinct_type":"Top","item_type":"Foil","rt":1064,"stimulus":"Stimuli_Rocks480/S_Conglomerate_14.png","response":"a","trial_type":"image-keyboard-response","trial_index":141,"plugin_version":"2.1.0","time_elapsed":287917,"subject_id":"89447","group":"Group1","full_date":"2025-11-10T18:54:01.943Z","date":"2025-11-10","time":"18:54:01","cor_ans":true},{"trial_type":"html-keyboard-response","rt":null,"stimulus":"<p style=\"color: green; font-size: 50px; font-weight: bold;\">Correct</p>","response":null,"trial_index":142,"plugin_version":"2.1.0","time_elapsed":288419,"subject_id":"89447","group":"Group1","full_date":"2025-11-10T18:54:01.943Z","date":"2025-11-10","time":"18:54:01"},{"correct_response":"l","task":"test_phase","broad_category":"I","image_png":"I_Obsidian_05.png","image_id":85,"category_name":"Obsidian","category":6,"distinct_rating":7.32,"distinct_type":"Top","item_type":"Target","rt":1034,"stimulus":"Stimuli_Rocks480/I_Obsidian_05.png","response":"l","trial_type":"image-keyboard-response","trial_index":143,"plugin_version":"2.1.0","time_elapsed":289468,"subject_id":"89447","group":"Group1","full_date":"2025-11-10T18:54:01.943Z","date":"2025-11-10","time":"18:54:01","cor_ans":true},{"trial_type":"html-keyboard-response","rt":null,"stimulus":"<p style=\"color: green; font-size: 50px; font-weight: bold;\">Correct</p>","response":null,"trial_index":144,"plugin_version":"2.1.0","time_elapsed":289970,"subject_id":"89447","group":"Group1","full_date":"2025-11-10T18:54:01.943Z","date":"2025-11-10","time":"18:54:01"},{"correct_response":"a","task":"test_phase","broad_category":"I","image_png":"I_Rhyolite_10.png","image_id":154,"category_name":"Rhyolite","category":10,"distinct_rating":2.88,"distinct_type":"Bottom","item_type":"Foil","rt":2699,"stimulus":"Stimuli_Rocks480/I_Rhyolite_10.png","response":"l","trial_type":"image-keyboard-response","trial_index":145,"plugin_version":"2.1.0","time_elapsed":292690,"subject_id":"89447","group":"Group1","full_date":"2025-11-10T18:54:01.943Z","date":"2025-11-10","time":"18:54:01","cor_ans":false},{"trial_type":"html-keyboard-response","rt":null,"stimulus":"<p style=\"color: red; font-size: 50px; font-weight: bold;\">Incorrect</p>","response":null,"trial_index":146,"plugin_version":"2.1.0","time_elapsed":293192,"subject_id":"89447","group":"Group1","full_date":"2025-11-10T18:54:01.943Z","date":"2025-11-10","time":"18:54:01"},{"correct_response":"a","task":"test_phase","broad_category":"I","image_png":"I_Basalt_08.png","image_id":24,"category_name":"Basalt","category":2,"distinct_rating":2.31,"distinct_type":"Bottom","item_type":"Foil","rt":1267,"stimulus":"Stimuli_Rocks480/I_Basalt_08.png","response":"a","trial_type":"image-keyboard-response","trial_index":147,"plugin_version":"2.1.0","time_elapsed":294478,"subject_id":"89447","group":"Group1","full_date":"2025-11-10T18:54:01.943Z","date":"2025-11-10","time":"18:54:01","cor_ans":true},{"trial_type":"html-keyboard-response","rt":null,"stimulus":"<p style=\"color: green; font-size: 50px; font-weight: bold;\">Correct</p>","response":null,"trial_index":148,"plugin_version":"2.1.0","time_elapsed":294980,"subject_id":"89447","group":"Group1","full_date":"2025-11-10T18:54:01.943Z","date":"2025-11-10","time":"18:54:01"},{"correct_response":"a","task":"test_phase","broad_category":"I","image_png":"I_Andesite_09.png","image_id":9,"category_name":"Andesite","category":1,"distinct_rating":2.49,"distinct_type":"Bottom","item_type":"Foil","rt":2045,"stimulus":"Stimuli_Rocks480/I_Andesite_09.png","response":"l","trial_type":"image-keyboard-response","trial_index":149,"plugin_version":"2.1.0","time_elapsed":297037,"subject_id":"89447","group":"Group1","full_date":"2025-11-10T18:54:01.943Z","date":"2025-11-10","time":"18:54:01","cor_ans":false},{"trial_type":"html-keyboard-response","rt":null,"stimulus":"<p style=\"color: red; font-size: 50px; font-weight: bold;\">Incorrect</p>","response":null,"trial_index":150,"plugin_version":"2.1.0","time_elapsed":297540,"subject_id":"89447","group":"Group1","full_date":"2025-11-10T18:54:01.943Z","date":"2025-11-10","time":"18:54:01"},{"correct_response":"l","task":"test_phase","broad_category":"I","image_png":"I_Pumice_08.png","image_id":136,"category_name":"Pumice","category":9,"distinct_rating":3.1,"distinct_type":"Bottom","item_type":"Target","rt":1098,"stimulus":"Stimuli_Rocks480/I_Pumice_08.png","response":"a","trial_type":"image-keyboard-response","trial_index":151,"plugin_version":"2.1.0","time_elapsed":298651,"subject_id":"89447","group":"Group1","full_date":"2025-11-10T18:54:01.943Z","date":"2025-11-10","time":"18:54:01","cor_ans":false},{"trial_type":"html-keyboard-response","rt":null,"stimulus":"<p style=\"color: red; font-size: 50px; font-weight: bold;\">Incorrect</p>","response":null,"trial_index":152,"plugin_version":"2.1.0","time_elapsed":299153,"subject_id":"89447","group":"Group1","full_date":"2025-11-10T18:54:01.943Z","date":"2025-11-10","time":"18:54:01"},{"correct_response":"l","task":"test_phase","broad_category":"M","image_png":"M_Phyllite_07.png","image_id":263,"category_name":"Phyllite","category":17,"distinct_rating":2.59,"distinct_type":"Bottom","item_type":"Target","rt":1893,"stimulus":"Stimuli_Rocks480/M_Phyllite_07.png","response":"l","trial_type":"image-keyboard-response","trial_index":153,"plugin_version":"2.1.0","time_elapsed":301057,"subject_id":"89447","group":"Group1","full_date":"2025-11-10T18:54:01.943Z","date":"2025-11-10","time":"18:54:01","cor_ans":true},{"trial_type":"html-keyboard-response","rt":null,"stimulus":"<p style=\"color: green; font-size: 50px; font-weight: bold;\">Correct</p>","response":null,"trial_index":154,"plugin_version":"2.1.0","time_elapsed":301559,"subject_id":"89447","group":"Group1","full_date":"2025-11-10T18:54:01.943Z","date":"2025-11-10","time":"18:54:01"},{"correct_response":"l","task":"test_phase","broad_category":"M","image_png":"M_Quartzite_13.png","image_id":285,"category_name":"Quartzite","category":18,"distinct_rating":2.27,"distinct_type":"Bottom","item_type":"Target","rt":779,"stimulus":"Stimuli_Rocks480/M_Quartzite_13.png","response":"l","trial_type":"image-keyboard-response","trial_index":155,"plugin_version":"2.1.0","time_elapsed":302352,"subject_id":"89447","group":"Group1","full_date":"2025-11-10T18:54:01.943Z","date":"2025-11-10","time":"18:54:01","cor_ans":true},{"trial_type":"html-keyboard-response","rt":null,"stimulus":"<p style=\"color: green; font-size: 50px; font-weight: bold;\">Correct</p>","response":null,"trial_index":156,"plugin_version":"2.1.0","time_elapsed":302854,"subject_id":"89447","group":"Group1","full_date":"2025-11-10T18:54:01.943Z","date":"2025-11-10","time":"18:54:01"},{"correct_response":"a","task":"test_phase","broad_category":"S","image_png":"S_Sandstone_04.png","image_id":452,"category_name":"Sandstone","category":29,"distinct_rating":1.8,"distinct_type":"Bottom","item_type":"Foil","rt":736,"stimulus":"Stimuli_Rocks480/S_Sandstone_04.png","response":"l","trial_type":"image-keyboard-response","trial_index":157,"plugin_version":"2.1.0","time_elapsed":303604,"subject_id":"89447","group":"Group1","full_date":"2025-11-10T18:54:01.943Z","date":"2025-11-10","time":"18:54:01","cor_ans":false},{"trial_type":"html-keyboard-response","rt":null,"stimulus":"<p style=\"color: red; font-size: 50px; font-weight: bold;\">Incorrect</p>","response":null,"trial_index":158,"plugin_version":"2.1.0","time_elapsed":304106,"subject_id":"89447","group":"Group1","full_date":"2025-11-10T18:54:01.943Z","date":"2025-11-10","time":"18:54:01"},{"correct_response":"a","task":"test_phase","broad_category":"M","image_png":"M_Slate_14.png","image_id":318,"category_name":"Slate","category":20,"distinct_rating":2.58,"distinct_type":"Bottom","item_type":"Foil","rt":1034,"stimulus":"Stimuli_Rocks480/M_Slate_14.png","response":"l","trial_type":"image-keyboard-response","trial_index":159,"plugin_version":"2.1.0","time_elapsed":305151,"subject_id":"89447","group":"Group1","full_date":"2025-11-10T18:54:01.943Z","date":"2025-11-10","time":"18:54:01","cor_ans":false},{"trial_type":"html-keyboard-response","rt":null,"stimulus":"<p style=\"color: red; font-size: 50px; font-weight: bold;\">Incorrect</p>","response":null,"trial_index":160,"plugin_version":"2.1.0","time_elapsed":305653,"subject_id":"89447","group":"Group1","full_date":"2025-11-10T18:54:01.943Z","date":"2025-11-10","time":"18:54:01"},{"correct_response":"l","task":"test_phase","broad_category":"M","image_png":"M_Phyllite_10.png","image_id":266,"category_name":"Phyllite","category":17,"distinct_rating":2.6,"distinct_type":"Bottom","item_type":"Target","rt":1196,"stimulus":"Stimuli_Rocks480/M_Phyllite_10.png","response":"a","trial_type":"image-keyboard-response","trial_index":161,"plugin_version":"2.1.0","time_elapsed":306860,"subject_id":"89447","group":"Group1","full_date":"2025-11-10T18:54:01.943Z","date":"2025-11-10","time":"18:54:01","cor_ans":false},{"trial_type":"html-keyboard-response","rt":null,"stimulus":"<p style=\"color: red; font-size: 50px; font-weight: bold;\">Incorrect</p>","response":null,"trial_index":162,"plugin_version":"2.1.0","time_elapsed":307363,"subject_id":"89447","group":"Group1","full_date":"2025-11-10T18:54:01.943Z","date":"2025-11-10","time":"18:54:01"},{"correct_response":"a","task":"test_phase","broad_category":"S","image_png":"S_Sandstone_11.png","image_id":459,"category_name":"Sandstone","category":29,"distinct_rating":1.82,"distinct_type":"Bottom","item_type":"Foil","rt":11189,"stimulus":"Stimuli_Rocks480/S_Sandstone_11.png","response":"l","trial_type":"image-keyboard-response","trial_index":163,"plugin_version":"2.1.0","time_elapsed":318571,"subject_id":"89447","group":"Group1","full_date":"2025-11-10T18:54:01.943Z","date":"2025-11-10","time":"18:54:01","cor_ans":false},{"trial_type":"html-keyboard-response","rt":null,"stimulus":"<p style=\"color: red; font-size: 50px; font-weight: bold;\">Incorrect</p>","response":null,"trial_index":164,"plugin_version":"2.1.0","time_elapsed":319073,"subject_id":"89447","group":"Group1","full_date":"2025-11-10T18:54:01.943Z","date":"2025-11-10","time":"18:54:01"},{"correct_response":"l","task":"test_phase","broad_category":"M","image_png":"M_Quartzite_05.png","image_id":277,"category_name":"Quartzite","category":18,"distinct_rating":2.23,"distinct_type":"Bottom","item_type":"Target","rt":884,"stimulus":"Stimuli_Rocks480/M_Quartzite_05.png","response":"l","trial_type":"image-keyboard-response","trial_index":165,"plugin_version":"2.1.0","time_elapsed":319975,"subject_id":"89447","group":"Group1","full_date":"2025-11-10T18:54:01.943Z","date":"2025-11-10","time":"18:54:01","cor_ans":true},{"trial_type":"html-keyboard-response","rt":null,"stimulus":"<p style=\"color: green; font-size: 50px; font-weight: bold;\">Correct</p>","response":null,"trial_index":166,"plugin_version":"2.1.0","time_elapsed":320478,"subject_id":"89447","group":"Group1","full_date":"2025-11-10T18:54:01.943Z","date":"2025-11-10","time":"18:54:01"},{"correct_response":"a","task":"test_phase","broad_category":"I","image_png":"I_Gabbro_12.png","image_id":60,"category_name":"Gabbro","category":4,"distinct_rating":2.6,"distinct_type":"Bottom","item_type":"Foil","rt":1225,"stimulus":"Stimuli_Rocks480/I_Gabbro_12.png","response":"l","trial_type":"image-keyboard-response","trial_index":167,"plugin_version":"2.1.0","time_elapsed":321720,"subject_id":"89447","group":"Group1","full_date":"2025-11-10T18:54:01.943Z","date":"2025-11-10","time":"18:54:01","cor_ans":false},{"trial_type":"html-keyboard-response","rt":null,"stimulus":"<p style=\"color: red; font-size: 50px; font-weight: bold;\">Incorrect</p>","response":null,"trial_index":168,"plugin_version":"2.1.0","time_elapsed":322223,"subject_id":"89447","group":"Group1","full_date":"2025-11-10T18:54:01.943Z","date":"2025-11-10","time":"18:54:01"},{"correct_response":"a","task":"test_phase","broad_category":"M","image_png":"M_Marble_03.png","image_id":227,"category_name":"Marble","category":15,"distinct_rating":2.67,"distinct_type":"Bottom","item_type":"Foil","rt":1742,"stimulus":"Stimuli_Rocks480/M_Marble_03.png","response":"a","trial_type":"image-keyboard-response","trial_index":169,"plugin_version":"2.1.0","time_elapsed":323977,"subject_id":"89447","group":"Group1","full_date":"2025-11-10T18:54:01.943Z","date":"2025-11-10","time":"18:54:01","cor_ans":true},{"trial_type":"html-keyboard-response","rt":null,"stimulus":"<p style=\"color: green; font-size: 50px; font-weight: bold;\">Correct</p>","response":null,"trial_index":170,"plugin_version":"2.1.0","time_elapsed":324480,"subject_id":"89447","group":"Group1","full_date":"2025-11-10T18:54:01.943Z","date":"2025-11-10","time":"18:54:01"},{"correct_response":"l","task":"test_phase","broad_category":"I","image_png":"I_Diorite_04.png","image_id":36,"category_name":"Diorite","category":3,"distinct_rating":2.98,"distinct_type":"Bottom","item_type":"Target","rt":2147,"stimulus":"Stimuli_Rocks480/I_Diorite_04.png","response":"l","trial_type":"image-keyboard-response","trial_index":171,"plugin_version":"2.1.0","time_elapsed":326643,"subject_id":"89447","group":"Group1","full_date":"2025-11-10T18:54:01.943Z","date":"2025-11-10","time":"18:54:01","cor_ans":true},{"trial_type":"html-keyboard-response","rt":null,"stimulus":"<p style=\"color: green; font-size: 50px; font-weight: bold;\">Correct</p>","response":null,"trial_index":172,"plugin_version":"2.1.0","time_elapsed":327145,"subject_id":"89447","group":"Group1","full_date":"2025-11-10T18:54:01.943Z","date":"2025-11-10","time":"18:54:01"},{"correct_response":"a","task":"test_phase","broad_category":"M","image_png":"M_Quartzite_07.png","image_id":279,"category_name":"Quartzite","category":18,"distinct_rating":1.97,"distinct_type":"Bottom","item_type":"Foil","rt":1314,"stimulus":"Stimuli_Rocks480/M_Quartzite_07.png","response":"a","trial_type":"image-keyboard-response","trial_index":173,"plugin_version":"2.1.0","time_elapsed":328479,"subject_id":"89447","group":"Group1","full_date":"2025-11-10T18:54:01.943Z","date":"2025-11-10","time":"18:54:01","cor_ans":true},{"trial_type":"html-keyboard-response","rt":null,"stimulus":"<p style=\"color: green; font-size: 50px; font-weight: bold;\">Correct</p>","response":null,"trial_index":174,"plugin_version":"2.1.0","time_elapsed":328982,"subject_id":"89447","group":"Group1","full_date":"2025-11-10T18:54:01.943Z","date":"2025-11-10","time":"18:54:01"},{"correct_response":"l","task":"test_phase","broad_category":"I","image_png":"I_Rhyolite_11.png","image_id":155,"category_name":"Rhyolite","category":10,"distinct_rating":1.73,"distinct_type":"Bottom","item_type":"Target","rt":9655,"stimulus":"Stimuli_Rocks480/I_Rhyolite_11.png","response":"l","trial_type":"image-keyboard-response","trial_index":175,"plugin_version":"2.1.0","time_elapsed":338649,"subject_id":"89447","group":"Group1","full_date":"2025-11-10T18:54:01.943Z","date":"2025-11-10","time":"18:54:01","cor_ans":true},{"trial_type":"html-keyboard-response","rt":null,"stimulus":"<p style=\"color: green; font-size: 50px; font-weight: bold;\">Correct</p>","response":null,"trial_index":176,"plugin_version":"2.1.0","time_elapsed":339151,"subject_id":"89447","group":"Group1","full_date":"2025-11-10T18:54:01.943Z","date":"2025-11-10","time":"18:54:01"},{"correct_response":"a","task":"test_phase","broad_category":"M","image_png":"M_Gneiss_14.png","image_id":206,"category_name":"Gneiss","category":13,"distinct_rating":3.41,"distinct_type":"Bottom","item_type":"Foil","rt":809,"stimulus":"Stimuli_Rocks480/M_Gneiss_14.png","response":"l","trial_type":"image-keyboard-response","trial_index":177,"plugin_version":"2.1.0","time_elapsed":339973,"subject_id":"89447","group":"Group1","full_date":"2025-11-10T18:54:01.943Z","date":"2025-11-10","time":"18:54:01","cor_ans":false},{"trial_type":"html-keyboard-response","rt":null,"stimulus":"<p style=\"color: red; font-size: 50px; font-weight: bold;\">Incorrect</p>","response":null,"trial_index":178,"plugin_version":"2.1.0","time_elapsed":340475,"subject_id":"89447","group":"Group1","full_date":"2025-11-10T18:54:01.943Z","date":"2025-11-10","time":"18:54:01"},{"correct_response":"l","task":"test_phase","broad_category":"I","image_png":"I_Andesite_08.png","image_id":8,"category_name":"Andesite","category":1,"distinct_rating":1.95,"distinct_type":"Bottom","item_type":"Target","rt":642,"stimulus":"Stimuli_Rocks480/I_Andesite_08.png","response":"l","trial_type":"image-keyboard-response","trial_index":179,"plugin_version":"2.1.0","time_elapsed":341131,"subject_id":"89447","group":"Group1","full_date":"2025-11-10T18:54:01.943Z","date":"2025-11-10","time":"18:54:01","cor_ans":true},{"trial_type":"html-keyboard-response","rt":null,"stimulus":"<p style=\"color: green; font-size: 50px; font-weight: bold;\">Correct</p>","response":null,"trial_index":180,"plugin_version":"2.1.0","time_elapsed":341633,"subject_id":"89447","group":"Group1","full_date":"2025-11-10T18:54:01.943Z","date":"2025-11-10","time":"18:54:01"},{"correct_response":"a","task":"test_phase","broad_category":"I","image_png":"I_Diorite_01.png","image_id":33,"category_name":"Diorite","category":3,"distinct_rating":2.97,"distinct_type":"Bottom","item_type":"Foil","rt":1270,"stimulus":"Stimuli_Rocks480/I_Diorite_01.png","response":"a","trial_type":"image-keyboard-response","trial_index":181,"plugin_version":"2.1.0","time_elapsed":342920,"subject_id":"89447","group":"Group1","full_date":"2025-11-10T18:54:01.943Z","date":"2025-11-10","time":"18:54:01","cor_ans":true},{"trial_type":"html-keyboard-response","rt":null,"stimulus":"<p style=\"color: green; font-size: 50px; font-weight: bold;\">Correct</p>","response":null,"trial_index":182,"plugin_version":"2.1.0","time_elapsed":343422,"subject_id":"89447","group":"Group1","full_date":"2025-11-10T18:54:01.943Z","date":"2025-11-10","time":"18:54:01"},{"correct_response":"a","task":"test_phase","broad_category":"M","image_png":"M_Phyllite_02.png","image_id":258,"category_name":"Phyllite","category":17,"distinct_rating":2.89,"distinct_type":"Bottom","item_type":"Foil","rt":1423,"stimulus":"Stimuli_Rocks480/M_Phyllite_02.png","response":"a","trial_type":"image-keyboard-response","trial_index":183,"plugin_version":"2.1.0","time_elapsed":344860,"subject_id":"89447","group":"Group1","full_date":"2025-11-10T18:54:01.943Z","date":"2025-11-10","time":"18:54:01","cor_ans":true},{"trial_type":"html-keyboard-response","rt":null,"stimulus":"<p style=\"color: green; font-size: 50px; font-weight: bold;\">Correct</p>","response":null,"trial_index":184,"plugin_version":"2.1.0","time_elapsed":345363,"subject_id":"89447","group":"Group1","full_date":"2025-11-10T18:54:01.943Z","date":"2025-11-10","time":"18:54:01"},{"correct_response":"a","task":"test_phase","broad_category":"I","image_png":"I_Pumice_14.png","image_id":142,"category_name":"Pumice","category":9,"distinct_rating":3.22,"distinct_type":"Bottom","item_type":"Foil","rt":1169,"stimulus":"Stimuli_Rocks480/I_Pumice_14.png","response":"a","trial_type":"image-keyboard-response","trial_index":185,"plugin_version":"2.1.0","time_elapsed":346547,"subject_id":"89447","group":"Group1","full_date":"2025-11-10T18:54:01.943Z","date":"2025-11-10","time":"18:54:01","cor_ans":true},{"trial_type":"html-keyboard-response","rt":null,"stimulus":"<p style=\"color: green; font-size: 50px; font-weight: bold;\">Correct</p>","response":null,"trial_index":186,"plugin_version":"2.1.0","time_elapsed":347049,"subject_id":"89447","group":"Group1","full_date":"2025-11-10T18:54:01.943Z","date":"2025-11-10","time":"18:54:01"},{"correct_response":"a","task":"test_phase","broad_category":"M","image_png":"M_Phyllite_05.png","image_id":261,"category_name":"Phyllite","category":17,"distinct_rating":2.14,"distinct_type":"Bottom","item_type":"Foil","rt":858,"stimulus":"Stimuli_Rocks480/M_Phyllite_05.png","response":"l","trial_type":"image-keyboard-response","trial_index":187,"plugin_version":"2.1.0","time_elapsed":347919,"subject_id":"89447","group":"Group1","full_date":"2025-11-10T18:54:01.943Z","date":"2025-11-10","time":"18:54:01","cor_ans":false},{"trial_type":"html-keyboard-response","rt":null,"stimulus":"<p style=\"color: red; font-size: 50px; font-weight: bold;\">Incorrect</p>","response":null,"trial_index":188,"plugin_version":"2.1.0","time_elapsed":348421,"subject_id":"89447","group":"Group1","full_date":"2025-11-10T18:54:01.943Z","date":"2025-11-10","time":"18:54:01"},{"correct_response":"l","task":"test_phase","broad_category":"I","image_png":"I_Andesite_10.png","image_id":10,"category_name":"Andesite","category":1,"distinct_rating":3.15,"distinct_type":"Bottom","item_type":"Target","rt":1514,"stimulus":"Stimuli_Rocks480/I_Andesite_10.png","response":"l","trial_type":"image-keyboard-response","trial_index":189,"plugin_version":"2.1.0","time_elapsed":349946,"subject_id":"89447","group":"Group1","full_date":"2025-11-10T18:54:01.943Z","date":"2025-11-10","time":"18:54:01","cor_ans":true},{"trial_type":"html-keyboard-response","rt":null,"stimulus":"<p style=\"color: green; font-size: 50px; font-weight: bold;\">Correct</p>","response":null,"trial_index":190,"plugin_version":"2.1.0","time_elapsed":350448,"subject_id":"89447","group":"Group1","full_date":"2025-11-10T18:54:01.943Z","date":"2025-11-10","time":"18:54:01"},{"correct_response":"l","task":"test_phase","broad_category":"M","image_png":"M_Gneiss_13.png","image_id":205,"category_name":"Gneiss","category":13,"distinct_rating":3.26,"distinct_type":"Bottom","item_type":"Target","rt":1856,"stimulus":"Stimuli_Rocks480/M_Gneiss_13.png","response":"l","trial_type":"image-keyboard-response","trial_index":191,"plugin_version":"2.1.0","time_elapsed":352317,"subject_id":"89447","group":"Group1","full_date":"2025-11-10T18:54:01.943Z","date":"2025-11-10","time":"18:54:01","cor_ans":true},{"trial_type":"html-keyboard-response","rt":null,"stimulus":"<p style=\"color: green; font-size: 50px; font-weight: bold;\">Correct</p>","response":null,"trial_index":192,"plugin_version":"2.1.0","time_elapsed":352819,"subject_id":"89447","group":"Group1","full_date":"2025-11-10T18:54:01.943Z","date":"2025-11-10","time":"18:54:01"},{"correct_response":"a","task":"test_phase","broad_category":"M","image_png":"M_Gneiss_15.png","image_id":207,"category_name":"Gneiss","category":13,"distinct_rating":3.11,"distinct_type":"Bottom","item_type":"Foil","rt":1149,"stimulus":"Stimuli_Rocks480/M_Gneiss_15.png","response":"a","trial_type":"image-keyboard-response","trial_index":193,"plugin_version":"2.1.0","time_elapsed":353980,"subject_id":"89447","group":"Group1","full_date":"2025-11-10T18:54:01.943Z","date":"2025-11-10","time":"18:54:01","cor_ans":true},{"trial_type":"html-keyboard-response","rt":null,"stimulus":"<p style=\"color: green; font-size: 50px; font-weight: bold;\">Correct</p>","response":null,"trial_index":194,"plugin_version":"2.1.0","time_elapsed":354483,"subject_id":"89447","group":"Group1","full_date":"2025-11-10T18:54:01.943Z","date":"2025-11-10","time":"18:54:01"},{"correct_response":"a","task":"test_phase","broad_category":"I","image_png":"I_Pumice_13.png","image_id":141,"category_name":"Pumice","category":9,"distinct_rating":3.12,"distinct_type":"Bottom","item_type":"Foil","rt":2507,"stimulus":"Stimuli_Rocks480/I_Pumice_13.png","response":"l","trial_type":"image-keyboard-response","trial_index":195,"plugin_version":"2.1.0","time_elapsed":357004,"subject_id":"89447","group":"Group1","full_date":"2025-11-10T18:54:01.943Z","date":"2025-11-10","time":"18:54:01","cor_ans":false},{"trial_type":"html-keyboard-response","rt":null,"stimulus":"<p style=\"color: red; font-size: 50px; font-weight: bold;\">Incorrect</p>","response":null,"trial_index":196,"plugin_version":"2.1.0","time_elapsed":357507,"subject_id":"89447","group":"Group1","full_date":"2025-11-10T18:54:01.943Z","date":"2025-11-10","time":"18:54:01"},{"correct_response":"l","task":"test_phase","broad_category":"S","image_png":"S_Shale_12.png","image_id":476,"category_name":"Shale","category":30,"distinct_rating":2.48,"distinct_type":"Bottom","item_type":"Target","rt":1139,"stimulus":"Stimuli_Rocks480/S_Shale_12.png","response":"l","trial_type":"image-keyboard-response","trial_index":197,"plugin_version":"2.1.0","time_elapsed":358660,"subject_id":"89447","group":"Group1","full_date":"2025-11-10T18:54:01.943Z","date":"2025-11-10","time":"18:54:01","cor_ans":true},{"trial_type":"html-keyboard-response","rt":null,"stimulus":"<p style=\"color: green; font-size: 50px; font-weight: bold;\">Correct</p>","response":null,"trial_index":198,"plugin_version":"2.1.0","time_elapsed":359162,"subject_id":"89447","group":"Group1","full_date":"2025-11-10T18:54:01.943Z","date":"2025-11-10","time":"18:54:01"},{"correct_response":"a","task":"test_phase","broad_category":"I","image_png":"I_Peridotite_13.png","image_id":125,"category_name":"Peridotite","category":8,"distinct_rating":7.28,"distinct_type":"Top","item_type":"Foil","rt":1024,"stimulus":"Stimuli_Rocks480/I_Peridotite_13.png","response":"a","trial_type":"image-keyboard-response","trial_index":199,"plugin_version":"2.1.0","time_elapsed":360202,"subject_id":"89447","group":"Group1","full_date":"2025-11-10T18:54:01.943Z","date":"2025-11-10","time":"18:54:01","cor_ans":true},{"trial_type":"html-keyboard-response","rt":null,"stimulus":"<p style=\"color: green; font-size: 50px; font-weight: bold;\">Correct</p>","response":null,"trial_index":200,"plugin_version":"2.1.0","time_elapsed":360704,"subject_id":"89447","group":"Group1","full_date":"2025-11-10T18:54:01.943Z","date":"2025-11-10","time":"18:54:01"},{"correct_response":"a","task":"test_phase","broad_category":"S","image_png":"S_Shale_02.png","image_id":466,"category_name":"Shale","category":30,"distinct_rating":2.9,"distinct_type":"Bottom","item_type":"Foil","rt":1062,"stimulus":"Stimuli_Rocks480/S_Shale_02.png","response":"l","trial_type":"image-keyboard-response","trial_index":201,"plugin_version":"2.1.0","time_elapsed":361778,"subject_id":"89447","group":"Group1","full_date":"2025-11-10T18:54:01.943Z","date":"2025-11-10","time":"18:54:01","cor_ans":false},{"trial_type":"html-keyboard-response","rt":null,"stimulus":"<p style=\"color: red; font-size: 50px; font-weight: bold;\">Incorrect</p>","response":null,"trial_index":202,"plugin_version":"2.1.0","time_elapsed":362279,"subject_id":"89447","group":"Group1","full_date":"2025-11-10T18:54:01.943Z","date":"2025-11-10","time":"18:54:01"},{"correct_response":"a","task":"test_phase","broad_category":"S","image_png":"S_Dolomite_16.png","image_id":400,"category_name":"Dolomite","category":25,"distinct_rating":1.71,"distinct_type":"Bottom","item_type":"Foil","rt":1338,"stimulus":"Stimuli_Rocks480/S_Dolomite_16.png","response":"l","trial_type":"image-keyboard-response","trial_index":203,"plugin_version":"2.1.0","time_elapsed":363629,"subject_id":"89447","group":"Group1","full_date":"2025-11-10T18:54:01.943Z","date":"2025-11-10","time":"18:54:01","cor_ans":false},{"trial_type":"html-keyboard-response","rt":null,"stimulus":"<p style=\"color: red; font-size: 50px; font-weight: bold;\">Incorrect</p>","response":null,"trial_index":204,"plugin_version":"2.1.0","time_elapsed":364131,"subject_id":"89447","group":"Group1","full_date":"2025-11-10T18:54:01.943Z","date":"2025-11-10","time":"18:54:01"},{"correct_response":"l","task":"test_phase","broad_category":"S","image_png":"S_Breccia_11.png","image_id":347,"category_name":"Breccia","category":22,"distinct_rating":6.7,"distinct_type":"Top","item_type":"Target","rt":1953,"stimulus":"Stimuli_Rocks480/S_Breccia_11.png","response":"a","trial_type":"image-keyboard-response","trial_index":205,"plugin_version":"2.1.0","time_elapsed":366106,"subject_id":"89447","group":"Group1","full_date":"2025-11-10T18:54:01.943Z","date":"2025-11-10","time":"18:54:01","cor_ans":false},{"trial_type":"html-keyboard-response","rt":null,"stimulus":"<p style=\"color: red; font-size: 50px; font-weight: bold;\">Incorrect</p>","response":null,"trial_index":206,"plugin_version":"2.1.0","time_elapsed":366607,"subject_id":"89447","group":"Group1","full_date":"2025-11-10T18:54:01.943Z","date":"2025-11-10","time":"18:54:01"},{"correct_response":"l","task":"test_phase","broad_category":"S","image_png":"S_Sandstone_16.png","image_id":464,"category_name":"Sandstone","category":29,"distinct_rating":1.93,"distinct_type":"Bottom","item_type":"Target","rt":1354,"stimulus":"Stimuli_Rocks480/S_Sandstone_16.png","response":"l","trial_type":"image-keyboard-response","trial_index":207,"plugin_version":"2.1.0","time_elapsed":367971,"subject_id":"89447","group":"Group1","full_date":"2025-11-10T18:54:01.943Z","date":"2025-11-10","time":"18:54:01","cor_ans":true},{"trial_type":"html-keyboard-response","rt":null,"stimulus":"<p style=\"color: green; font-size: 50px; font-weight: bold;\">Correct</p>","response":null,"trial_index":208,"plugin_version":"2.1.0","time_elapsed":368473,"subject_id":"89447","group":"Group1","full_date":"2025-11-10T18:54:01.943Z","date":"2025-11-10","time":"18:54:01"},{"correct_response":"a","task":"test_phase","broad_category":"I","image_png":"I_Gabbro_14.png","image_id":62,"category_name":"Gabbro","category":4,"distinct_rating":2.95,"distinct_type":"Bottom","item_type":"Foil","rt":1093,"stimulus":"Stimuli_Rocks480/I_Gabbro_14.png","response":"l","trial_type":"image-keyboard-response","trial_index":209,"plugin_version":"2.1.0","time_elapsed":369581,"subject_id":"89447","group":"Group1","full_date":"2025-11-10T18:54:01.943Z","date":"2025-11-10","time":"18:54:01","cor_ans":false},{"trial_type":"html-keyboard-response","rt":null,"stimulus":"<p style=\"color: red; font-size: 50px; font-weight: bold;\">Incorrect</p>","response":null,"trial_index":210,"plugin_version":"2.1.0","time_elapsed":370083,"subject_id":"89447","group":"Group1","full_date":"2025-11-10T18:54:01.943Z","date":"2025-11-10","time":"18:54:01"},{"correct_response":"l","task":"test_phase","broad_category":"M","image_png":"M_Marble_06.png","image_id":230,"category_name":"Marble","category":15,"distinct_rating":3.4,"distinct_type":"Bottom","item_type":"Target","rt":1994,"stimulus":"Stimuli_Rocks480/M_Marble_06.png","response":"l","trial_type":"image-keyboard-response","trial_index":211,"plugin_version":"2.1.0","time_elapsed":372089,"subject_id":"89447","group":"Group1","full_date":"2025-11-10T18:54:01.943Z","date":"2025-11-10","time":"18:54:01","cor_ans":true},{"trial_type":"html-keyboard-response","rt":null,"stimulus":"<p style=\"color: green; font-size: 50px; font-weight: bold;\">Correct</p>","response":null,"trial_index":212,"plugin_version":"2.1.0","time_elapsed":372591,"subject_id":"89447","group":"Group1","full_date":"2025-11-10T18:54:01.943Z","date":"2025-11-10","time":"18:54:01"},{"correct_response":"a","task":"test_phase","broad_category":"S","image_png":"S_Shale_07.png","image_id":471,"category_name":"Shale","category":30,"distinct_rating":2.73,"distinct_type":"Bottom","item_type":"Foil","rt":2394,"stimulus":"Stimuli_Rocks480/S_Shale_07.png","response":"a","trial_type":"image-keyboard-response","trial_index":213,"plugin_version":"2.1.0","time_elapsed":374999,"subject_id":"89447","group":"Group1","full_date":"2025-11-10T18:54:01.943Z","date":"2025-11-10","time":"18:54:01","cor_ans":true},{"trial_type":"html-keyboard-response","rt":null,"stimulus":"<p style=\"color: green; font-size: 50px; font-weight: bold;\">Correct</p>","response":null,"trial_index":214,"plugin_version":"2.1.0","time_elapsed":375502,"subject_id":"89447","group":"Group1","full_date":"2025-11-10T18:54:01.943Z","date":"2025-11-10","time":"18:54:01"},{"correct_response":"l","task":"test_phase","broad_category":"M","image_png":"M_Marble_04.png","image_id":228,"category_name":"Marble","category":15,"distinct_rating":3.15,"distinct_type":"Bottom","item_type":"Target","rt":1139,"stimulus":"Stimuli_Rocks480/M_Marble_04.png","response":"l","trial_type":"image-keyboard-response","trial_index":215,"plugin_version":"2.1.0","time_elapsed":376654,"subject_id":"89447","group":"Group1","full_date":"2025-11-10T18:54:01.943Z","date":"2025-11-10","time":"18:54:01","cor_ans":true},{"trial_type":"html-keyboard-response","rt":null,"stimulus":"<p style=\"color: green; font-size: 50px; font-weight: bold;\">Correct</p>","response":null,"trial_index":216,"plugin_version":"2.1.0","time_elapsed":377157,"subject_id":"89447","group":"Group1","full_date":"2025-11-10T18:54:01.943Z","date":"2025-11-10","time":"18:54:01"},{"correct_response":"l","task":"test_phase","broad_category":"I","image_png":"I_Basalt_01.png","image_id":17,"category_name":"Basalt","category":2,"distinct_rating":1.92,"distinct_type":"Bottom","item_type":"Target","rt":1210,"stimulus":"Stimuli_Rocks480/I_Basalt_01.png","response":"l","trial_type":"image-keyboard-response","trial_index":217,"plugin_version":"2.1.0","time_elapsed":378383,"subject_id":"89447","group":"Group1","full_date":"2025-11-10T18:54:01.943Z","date":"2025-11-10","time":"18:54:01","cor_ans":true},{"trial_type":"html-keyboard-response","rt":null,"stimulus":"<p style=\"color: green; font-size: 50px; font-weight: bold;\">Correct</p>","response":null,"trial_index":218,"plugin_version":"2.1.0","time_elapsed":378885,"subject_id":"89447","group":"Group1","full_date":"2025-11-10T18:54:01.943Z","date":"2025-11-10","time":"18:54:01"},{"correct_response":"l","task":"test_phase","broad_category":"S","image_png":"S_Sandstone_15.png","image_id":463,"category_name":"Sandstone","category":29,"distinct_rating":2,"distinct_type":"Bottom","item_type":"Target","rt":1027,"stimulus":"Stimuli_Rocks480/S_Sandstone_15.png","response":"a","trial_type":"image-keyboard-response","trial_index":219,"plugin_version":"2.1.0","time_elapsed":379928,"subject_id":"89447","group":"Group1","full_date":"2025-11-10T18:54:01.943Z","date":"2025-11-10","time":"18:54:01","cor_ans":false},{"trial_type":"html-keyboard-response","rt":null,"stimulus":"<p style=\"color: red; font-size: 50px; font-weight: bold;\">Incorrect</p>","response":null,"trial_index":220,"plugin_version":"2.1.0","time_elapsed":380430,"subject_id":"89447","group":"Group1","full_date":"2025-11-10T18:54:01.943Z","date":"2025-11-10","time":"18:54:01"},{"correct_response":"a","task":"test_phase","broad_category":"M","image_png":"M_Marble_02.png","image_id":226,"category_name":"Marble","category":15,"distinct_rating":3.2,"distinct_type":"Bottom","item_type":"Foil","rt":849,"stimulus":"Stimuli_Rocks480/M_Marble_02.png","response":"l","trial_type":"image-keyboard-response","trial_index":221,"plugin_version":"2.1.0","time_elapsed":381291,"subject_id":"89447","group":"Group1","full_date":"2025-11-10T18:54:01.943Z","date":"2025-11-10","time":"18:54:01","cor_ans":false},{"trial_type":"html-keyboard-response","rt":null,"stimulus":"<p style=\"color: red; font-size: 50px; font-weight: bold;\">Incorrect</p>","response":null,"trial_index":222,"plugin_version":"2.1.0","time_elapsed":381792,"subject_id":"89447","group":"Group1","full_date":"2025-11-10T18:54:01.943Z","date":"2025-11-10","time":"18:54:01"},{"correct_response":"l","task":"test_phase","broad_category":"S","image_png":"S_Dolomite_14.png","image_id":398,"category_name":"Dolomite","category":25,"distinct_rating":1.43,"distinct_type":"Bottom","item_type":"Target","rt":1021,"stimulus":"Stimuli_Rocks480/S_Dolomite_14.png","response":"a","trial_type":"image-keyboard-response","trial_index":223,"plugin_version":"2.1.0","time_elapsed":382829,"subject_id":"89447","group":"Group1","full_date":"2025-11-10T18:54:01.943Z","date":"2025-11-10","time":"18:54:01","cor_ans":false},{"trial_type":"html-keyboard-response","rt":null,"stimulus":"<p style=\"color: red; font-size: 50px; font-weight: bold;\">Incorrect</p>","response":null,"trial_index":224,"plugin_version":"2.1.0","time_elapsed":383332,"subject_id":"89447","group":"Group1","full_date":"2025-11-10T18:54:01.943Z","date":"2025-11-10","time":"18:54:01"},{"correct_response":"a","task":"test_phase","broad_category":"I","image_png":"I_Andesite_03.png","image_id":3,"category_name":"Andesite","category":1,"distinct_rating":3.17,"distinct_type":"Bottom","item_type":"Foil","rt":2878,"stimulus":"Stimuli_Rocks480/I_Andesite_03.png","response":"a","trial_type":"image-keyboard-response","trial_index":225,"plugin_version":"2.1.0","time_elapsed":386219,"subject_id":"89447","group":"Group1","full_date":"2025-11-10T18:54:01.943Z","date":"2025-11-10","time":"18:54:01","cor_ans":true},{"trial_type":"html-keyboard-response","rt":null,"stimulus":"<p style=\"color: green; font-size: 50px; font-weight: bold;\">Correct</p>","response":null,"trial_index":226,"plugin_version":"2.1.0","time_elapsed":386721,"subject_id":"89447","group":"Group1","full_date":"2025-11-10T18:54:01.943Z","date":"2025-11-10","time":"18:54:01"},{"correct_response":"l","task":"test_phase","broad_category":"S","image_png":"S_Dolomite_13.png","image_id":397,"category_name":"Dolomite","category":25,"distinct_rating":1.77,"distinct_type":"Bottom","item_type":"Target","rt":2155,"stimulus":"Stimuli_Rocks480/S_Dolomite_13.png","response":"l","trial_type":"image-keyboard-response","trial_index":227,"plugin_version":"2.1.0","time_elapsed":388889,"subject_id":"89447","group":"Group1","full_date":"2025-11-10T18:54:01.943Z","date":"2025-11-10","time":"18:54:01","cor_ans":true},{"trial_type":"html-keyboard-response","rt":null,"stimulus":"<p style=\"color: green; font-size: 50px; font-weight: bold;\">Correct</p>","response":null,"trial_index":228,"plugin_version":"2.1.0","time_elapsed":389392,"subject_id":"89447","group":"Group1","full_date":"2025-11-10T18:54:01.943Z","date":"2025-11-10","time":"18:54:01"},{"correct_response":"l","task":"test_phase","broad_category":"M","image_png":"M_Quartzite_08.png","image_id":280,"category_name":"Quartzite","category":18,"distinct_rating":2.15,"distinct_type":"Bottom","item_type":"Target","rt":2708,"stimulus":"Stimuli_Rocks480/M_Quartzite_08.png","response":"a","trial_type":"image-keyboard-response","trial_index":229,"plugin_version":"2.1.0","time_elapsed":392113,"subject_id":"89447","group":"Group1","full_date":"2025-11-10T18:54:01.943Z","date":"2025-11-10","time":"18:54:01","cor_ans":false},{"trial_type":"html-keyboard-response","rt":null,"stimulus":"<p style=\"color: red; font-size: 50px; font-weight: bold;\">Incorrect</p>","response":null,"trial_index":230,"plugin_version":"2.1.0","time_elapsed":392615,"subject_id":"89447","group":"Group1","full_date":"2025-11-10T18:54:01.943Z","date":"2025-11-10","time":"18:54:01"},{"correct_response":"l","task":"test_phase","broad_category":"M","image_png":"M_Slate_11.png","image_id":315,"category_name":"Slate","category":20,"distinct_rating":2.75,"distinct_type":"Bottom","item_type":"Target","rt":1370,"stimulus":"Stimuli_Rocks480/M_Slate_11.png","response":"l","trial_type":"image-keyboard-response","trial_index":231,"plugin_version":"2.1.0","time_elapsed":393996,"subject_id":"89447","group":"Group1","full_date":"2025-11-10T18:54:01.943Z","date":"2025-11-10","time":"18:54:01","cor_ans":true},{"trial_type":"html-keyboard-response","rt":null,"stimulus":"<p style=\"color: green; font-size: 50px; font-weight: bold;\">Correct</p>","response":null,"trial_index":232,"plugin_version":"2.1.0","time_elapsed":394499,"subject_id":"89447","group":"Group1","full_date":"2025-11-10T18:54:01.943Z","date":"2025-11-10","time":"18:54:01"},{"correct_response":"l","task":"test_phase","broad_category":"M","image_png":"M_Slate_03.png","image_id":307,"category_name":"Slate","category":20,"distinct_rating":1.87,"distinct_type":"Bottom","item_type":"Target","rt":1255,"stimulus":"Stimuli_Rocks480/M_Slate_03.png","response":"l","trial_type":"image-keyboard-response","trial_index":233,"plugin_version":"2.1.0","time_elapsed":395768,"subject_id":"89447","group":"Group1","full_date":"2025-11-10T18:54:01.943Z","date":"2025-11-10","time":"18:54:01","cor_ans":true},{"trial_type":"html-keyboard-response","rt":null,"stimulus":"<p style=\"color: green; font-size: 50px; font-weight: bold;\">Correct</p>","response":null,"trial_index":234,"plugin_version":"2.1.0","time_elapsed":396270,"subject_id":"89447","group":"Group1","full_date":"2025-11-10T18:54:01.943Z","date":"2025-11-10","time":"18:54:01"},{"correct_response":"l","task":"test_phase","broad_category":"I","image_png":"I_Diorite_05.png","image_id":37,"category_name":"Diorite","category":3,"distinct_rating":3.08,"distinct_type":"Bottom","item_type":"Target","rt":731,"stimulus":"Stimuli_Rocks480/I_Diorite_05.png","response":"l","trial_type":"image-keyboard-response","trial_index":235,"plugin_version":"2.1.0","time_elapsed":397015,"subject_id":"89447","group":"Group1","full_date":"2025-11-10T18:54:01.943Z","date":"2025-11-10","time":"18:54:01","cor_ans":true},{"trial_type"