[{"width":1710,"height":989,"webaudio":true,"browser":"safari","browser_version":"18.6.0","mobile":false,"os":"Mac OS","fullscreen":true,"vsync_rate":60,"webcam":true,"microphone":true,"trial_type":"browser-check","trial_index":0,"plugin_version":"2.1.0","time_elapsed":1013,"subject_id":"88914","group":"Group1","full_date":"2025-11-11T18:05:28.424Z","date":"2025-11-11","time":"18:05:28"},{"success":true,"timeout":false,"failed_images":[],"failed_audio":[],"failed_video":[],"trial_type":"preload","trial_index":1,"plugin_version":"2.1.0","time_elapsed":8674,"subject_id":"88914","group":"Group1","full_date":"2025-11-11T18:05:28.424Z","date":"2025-11-11","time":"18:05:28"},{"rt":5717,"url":"SONA_consent_memorability.html","trial_type":"external-html","trial_index":2,"plugin_version":"2.1.0","time_elapsed":14481,"subject_id":"88914","group":"Group1","full_date":"2025-11-11T18:05:28.424Z","date":"2025-11-11","time":"18:05:28"},{"success":true,"rt":7198,"trial_type":"fullscreen","trial_index":3,"plugin_version":"2.1.0","time_elapsed":22686,"subject_id":"88914","group":"Group1","full_date":"2025-11-11T18:05:28.424Z","date":"2025-11-11","time":"18:05:28"},{"rt":1258,"stimulus":"<div style=\"max-width: 760px; margin: auto; font-size: 20px; line-height: 1.5;\">\n      <h1 style=\"text-align:center; font-size: 30px;\">Instructions</h1>\n      <p>\n        Welcome to the study on <b>visual memory</b>. This experiment consists of <b>two phases</b>: \n        a <b>study phase</b> and a <b>test phase</b>.\n      </p>\n      <p>\n        In the study phase, you will see a series of rock images along with their category labels.\n        The images will appear one at a time.\n        <b>Your task</b> is to learn the categories to which the rock images belong \n        and to remember each image as accurately as possible.\n      </p> \n      <p>\n        After the study phase, <b>your memory will be tested</b>. \n        Additional instructions for the test phase will be provided at that time.\n      </p>\n      <p>\n        If your computer has multiple <b>language settings</b> (e.g., English and another language),\n        please make sure it is set to English before starting.\n      </p>\n      <p>\n        You can track your progress using the <b>completion bar</b> at the top of the screen. \n        Please note that the bar will refresh when the test phase begins \n        to give you an accurate sense of your progress in both phases.\n      </p> \n      <p>\n        Press the button below when you are ready to begin.\n      </p>\n    </div>","response":0,"trial_type":"html-button-response","trial_index":4,"plugin_version":"2.1.0","time_elapsed":23947,"subject_id":"88914","group":"Group1","full_date":"2025-11-11T18:05:28.424Z","date":"2025-11-11","time":"18:05:28"},{"rt":null,"stimulus":"<p style=\"font-size: 50px; margin: 0; text-align: center;\">+</p>","response":null,"trial_type":"html-keyboard-response","trial_index":5,"plugin_version":"2.1.0","time_elapsed":24950,"subject_id":"88914","group":"Group1","full_date":"2025-11-11T18:05:28.424Z","date":"2025-11-11","time":"18:05:28"},{"task":"memory_phase","broad_category":"M","image_png":"M_Slate_03.png","image_id":307,"category_name":"Slate","category":20,"distinct_rating":1.87,"distinct_type":"Bottom","rt":null,"stimulus":"Stimuli_Rocks480/M_Slate_03.png","response":null,"trial_type":"image-keyboard-response","trial_index":6,"plugin_version":"2.1.0","time_elapsed":27465,"subject_id":"88914","group":"Group1","full_date":"2025-11-11T18:05:28.424Z","date":"2025-11-11","time":"18:05:28"},{"rt":null,"stimulus":"<p style=\"font-size: 50px; margin: 0; text-align: center;\">+</p>","response":null,"trial_type":"html-keyboard-response","trial_index":7,"plugin_version":"2.1.0","time_elapsed":28467,"subject_id":"88914","group":"Group1","full_date":"2025-11-11T18:05:28.424Z","date":"2025-11-11","time":"18:05:28"},{"task":"memory_phase","broad_category":"I","image_png":"I_Basalt_01.png","image_id":17,"category_name":"Basalt","category":2,"distinct_rating":1.92,"distinct_type":"Bottom","rt":null,"stimulus":"Stimuli_Rocks480/I_Basalt_01.png","response":null,"trial_type":"image-keyboard-response","trial_index":8,"plugin_version":"2.1.0","time_elapsed":30982,"subject_id":"88914","group":"Group1","full_date":"2025-11-11T18:05:28.424Z","date":"2025-11-11","time":"18:05:28"},{"rt":null,"stimulus":"<p style=\"font-size: 50px; margin: 0; text-align: center;\">+</p>","response":null,"trial_type":"html-keyboard-response","trial_index":9,"plugin_version":"2.1.0","time_elapsed":31985,"subject_id":"88914","group":"Group1","full_date":"2025-11-11T18:05:28.424Z","date":"2025-11-11","time":"18:05:28"},{"task":"memory_phase","broad_category":"M","image_png":"M_Marble_06.png","image_id":230,"category_name":"Marble","category":15,"distinct_rating":3.4,"distinct_type":"Bottom","rt":null,"stimulus":"Stimuli_Rocks480/M_Marble_06.png","response":null,"trial_type":"image-keyboard-response","trial_index":10,"plugin_version":"2.1.0","time_elapsed":34502,"subject_id":"88914","group":"Group1","full_date":"2025-11-11T18:05:28.424Z","date":"2025-11-11","time":"18:05:28"},{"rt":null,"stimulus":"<p style=\"font-size: 50px; margin: 0; text-align: center;\">+</p>","response":null,"trial_type":"html-keyboard-response","trial_index":11,"plugin_version":"2.1.0","time_elapsed":35504,"subject_id":"88914","group":"Group1","full_date":"2025-11-11T18:05:28.424Z","date":"2025-11-11","time":"18:05:28"},{"task":"memory_phase","broad_category":"I","image_png":"I_Basalt_02.png","image_id":18,"category_name":"Basalt","category":2,"distinct_rating":1.84,"distinct_type":"Bottom","rt":null,"stimulus":"Stimuli_Rocks480/I_Basalt_02.png","response":null,"trial_type":"image-keyboard-response","trial_index":12,"plugin_version":"2.1.0","time_elapsed":38022,"subject_id":"88914","group":"Group1","full_date":"2025-11-11T18:05:28.424Z","date":"2025-11-11","time":"18:05:28"},{"rt":null,"stimulus":"<p style=\"font-size: 50px; margin: 0; text-align: center;\">+</p>","response":null,"trial_type":"html-keyboard-response","trial_index":13,"plugin_version":"2.1.0","time_elapsed":39024,"subject_id":"88914","group":"Group1","full_date":"2025-11-11T18:05:28.424Z","date":"2025-11-11","time":"18:05:28"},{"task":"memory_phase","broad_category":"S","image_png":"S_Shale_12.png","image_id":476,"category_name":"Shale","category":30,"distinct_rating":2.48,"distinct_type":"Bottom","rt":null,"stimulus":"Stimuli_Rocks480/S_Shale_12.png","response":null,"trial_type":"image-keyboard-response","trial_index":14,"plugin_version":"2.1.0","time_elapsed":41540,"subject_id":"88914","group":"Group1","full_date":"2025-11-11T18:05:28.424Z","date":"2025-11-11","time":"18:05:28"},{"rt":null,"stimulus":"<p style=\"font-size: 50px; margin: 0; text-align: center;\">+</p>","response":null,"trial_type":"html-keyboard-response","trial_index":15,"plugin_version":"2.1.0","time_elapsed":42542,"subject_id":"88914","group":"Group1","full_date":"2025-11-11T18:05:28.424Z","date":"2025-11-11","time":"18:05:28"},{"task":"memory_phase","broad_category":"S","image_png":"S_Chert_10.png","image_id":362,"category_name":"Chert","category":23,"distinct_rating":7.17,"distinct_type":"Top","rt":null,"stimulus":"Stimuli_Rocks480/S_Chert_10.png","response":null,"trial_type":"image-keyboard-response","trial_index":16,"plugin_version":"2.1.0","time_elapsed":45059,"subject_id":"88914","group":"Group1","full_date":"2025-11-11T18:05:28.424Z","date":"2025-11-11","time":"18:05:28"},{"rt":null,"stimulus":"<p style=\"font-size: 50px; margin: 0; text-align: center;\">+</p>","response":null,"trial_type":"html-keyboard-response","trial_index":17,"plugin_version":"2.1.0","time_elapsed":46061,"subject_id":"88914","group":"Group1","full_date":"2025-11-11T18:05:28.424Z","date":"2025-11-11","time":"18:05:28"},{"task":"memory_phase","broad_category":"I","image_png":"I_Diorite_04.png","image_id":36,"category_name":"Diorite","category":3,"distinct_rating":2.98,"distinct_type":"Bottom","rt":null,"stimulus":"Stimuli_Rocks480/I_Diorite_04.png","response":null,"trial_type":"image-keyboard-response","trial_index":18,"plugin_version":"2.1.0","time_elapsed":48578,"subject_id":"88914","group":"Group1","full_date":"2025-11-11T18:05:28.424Z","date":"2025-11-11","time":"18:05:28"},{"rt":null,"stimulus":"<p style=\"font-size: 50px; margin: 0; text-align: center;\">+</p>","response":null,"trial_type":"html-keyboard-response","trial_index":19,"plugin_version":"2.1.0","time_elapsed":49581,"subject_id":"88914","group":"Group1","full_date":"2025-11-11T18:05:28.424Z","date":"2025-11-11","time":"18:05:28"},{"task":"memory_phase","broad_category":"M","image_png":"M_Phyllite_07.png","image_id":263,"category_name":"Phyllite","category":17,"distinct_rating":2.59,"distinct_type":"Bottom","rt":null,"stimulus":"Stimuli_Rocks480/M_Phyllite_07.png","response":null,"trial_type":"image-keyboard-response","trial_index":20,"plugin_version":"2.1.0","time_elapsed":52095,"subject_id":"88914","group":"Group1","full_date":"2025-11-11T18:05:28.424Z","date":"2025-11-11","time":"18:05:28"},{"rt":null,"stimulus":"<p style=\"font-size: 50px; margin: 0; text-align: center;\">+</p>","response":null,"trial_type":"html-keyboard-response","trial_index":21,"plugin_version":"2.1.0","time_elapsed":53098,"subject_id":"88914","group":"Group1","full_date":"2025-11-11T18:05:28.424Z","date":"2025-11-11","time":"18:05:28"},{"task":"memory_phase","broad_category":"I","image_png":"I_Pumice_08.png","image_id":136,"category_name":"Pumice","category":9,"distinct_rating":3.1,"distinct_type":"Bottom","rt":null,"stimulus":"Stimuli_Rocks480/I_Pumice_08.png","response":null,"trial_type":"image-keyboard-response","trial_index":22,"plugin_version":"2.1.0","time_elapsed":55614,"subject_id":"88914","group":"Group1","full_date":"2025-11-11T18:05:28.424Z","date":"2025-11-11","time":"18:05:28"},{"rt":null,"stimulus":"<p style=\"font-size: 50px; margin: 0; text-align: center;\">+</p>","response":null,"trial_type":"html-keyboard-response","trial_index":23,"plugin_version":"2.1.0","time_elapsed":56617,"subject_id":"88914","group":"Group1","full_date":"2025-11-11T18:05:28.424Z","date":"2025-11-11","time":"18:05:28"},{"task":"memory_phase","broad_category":"I","image_png":"I_Rhyolite_14.png","image_id":158,"category_name":"Rhyolite","category":10,"distinct_rating":2.59,"distinct_type":"Bottom","rt":null,"stimulus":"Stimuli_Rocks480/I_Rhyolite_14.png","response":null,"trial_type":"image-keyboard-response","trial_index":24,"plugin_version":"2.1.0","time_elapsed":59130,"subject_id":"88914","group":"Group1","full_date":"2025-11-11T18:05:28.424Z","date":"2025-11-11","time":"18:05:28"},{"rt":null,"stimulus":"<p style=\"font-size: 50px; margin: 0; text-align: center;\">+</p>","response":null,"trial_type":"html-keyboard-response","trial_index":25,"plugin_version":"2.1.0","time_elapsed":60134,"subject_id":"88914","group":"Group1","full_date":"2025-11-11T18:05:28.424Z","date":"2025-11-11","time":"18:05:28"},{"task":"memory_phase","broad_category":"I","image_png":"I_Andesite_10.png","image_id":10,"category_name":"Andesite","category":1,"distinct_rating":3.15,"distinct_type":"Bottom","rt":null,"stimulus":"Stimuli_Rocks480/I_Andesite_10.png","response":null,"trial_type":"image-keyboard-response","trial_index":26,"plugin_version":"2.1.0","time_elapsed":62645,"subject_id":"88914","group":"Group1","full_date":"2025-11-11T18:05:28.424Z","date":"2025-11-11","time":"18:05:28"},{"rt":null,"stimulus":"<p style=\"font-size: 50px; margin: 0; text-align: center;\">+</p>","response":null,"trial_type":"html-keyboard-response","trial_index":27,"plugin_version":"2.1.0","time_elapsed":63648,"subject_id":"88914","group":"Group1","full_date":"2025-11-11T18:05:28.424Z","date":"2025-11-11","time":"18:05:28"},{"task":"memory_phase","broad_category":"I","image_png":"I_Rhyolite_11.png","image_id":155,"category_name":"Rhyolite","category":10,"distinct_rating":1.73,"distinct_type":"Bottom","rt":null,"stimulus":"Stimuli_Rocks480/I_Rhyolite_11.png","response":null,"trial_type":"image-keyboard-response","trial_index":28,"plugin_version":"2.1.0","time_elapsed":66163,"subject_id":"88914","group":"Group1","full_date":"2025-11-11T18:05:28.424Z","date":"2025-11-11","time":"18:05:28"},{"rt":null,"stimulus":"<p style=\"font-size: 50px; margin: 0; text-align: center;\">+</p>","response":null,"trial_type":"html-keyboard-response","trial_index":29,"plugin_version":"2.1.0","time_elapsed":67167,"subject_id":"88914","group":"Group1","full_date":"2025-11-11T18:05:28.424Z","date":"2025-11-11","time":"18:05:28"},{"task":"memory_phase","broad_category":"S","image_png":"S_Breccia_11.png","image_id":347,"category_name":"Breccia","category":22,"distinct_rating":6.7,"distinct_type":"Top","rt":null,"stimulus":"Stimuli_Rocks480/S_Breccia_11.png","response":null,"trial_type":"image-keyboard-response","trial_index":30,"plugin_version":"2.1.0","time_elapsed":69693,"subject_id":"88914","group":"Group1","full_date":"2025-11-11T18:05:28.424Z","date":"2025-11-11","time":"18:05:28"},{"rt":null,"stimulus":"<p style=\"font-size: 50px; margin: 0; text-align: center;\">+</p>","response":null,"trial_type":"html-keyboard-response","trial_index":31,"plugin_version":"2.1.0","time_elapsed":70695,"subject_id":"88914","group":"Group1","full_date":"2025-11-11T18:05:28.424Z","date":"2025-11-11","time":"18:05:28"},{"task":"memory_phase","broad_category":"S","image_png":"S_Sandstone_16.png","image_id":464,"category_name":"Sandstone","category":29,"distinct_rating":1.93,"distinct_type":"Bottom","rt":null,"stimulus":"Stimuli_Rocks480/S_Sandstone_16.png","response":null,"trial_type":"image-keyboard-response","trial_index":32,"plugin_version":"2.1.0","time_elapsed":73210,"subject_id":"88914","group":"Group1","full_date":"2025-11-11T18:05:28.424Z","date":"2025-11-11","time":"18:05:28"},{"rt":null,"stimulus":"<p style=\"font-size: 50px; margin: 0; text-align: center;\">+</p>","response":null,"trial_type":"html-keyboard-response","trial_index":33,"plugin_version":"2.1.0","time_elapsed":74213,"subject_id":"88914","group":"Group1","full_date":"2025-11-11T18:05:28.424Z","date":"2025-11-11","time":"18:05:28"},{"task":"memory_phase","broad_category":"S","image_png":"S_Dolomite_14.png","image_id":398,"category_name":"Dolomite","category":25,"distinct_rating":1.43,"distinct_type":"Bottom","rt":null,"stimulus":"Stimuli_Rocks480/S_Dolomite_14.png","response":null,"trial_type":"image-keyboard-response","trial_index":34,"plugin_version":"2.1.0","time_elapsed":76727,"subject_id":"88914","group":"Group1","full_date":"2025-11-11T18:05:28.424Z","date":"2025-11-11","time":"18:05:28"},{"rt":null,"stimulus":"<p style=\"font-size: 50px; margin: 0; text-align: center;\">+</p>","response":null,"trial_type":"html-keyboard-response","trial_index":35,"plugin_version":"2.1.0","time_elapsed":77730,"subject_id":"88914","group":"Group1","full_date":"2025-11-11T18:05:28.424Z","date":"2025-11-11","time":"18:05:28"},{"task":"memory_phase","broad_category":"I","image_png":"I_Gabbro_11.png","image_id":59,"category_name":"Gabbro","category":4,"distinct_rating":1.99,"distinct_type":"Bottom","rt":null,"stimulus":"Stimuli_Rocks480/I_Gabbro_11.png","response":null,"trial_type":"image-keyboard-response","trial_index":36,"plugin_version":"2.1.0","time_elapsed":80245,"subject_id":"88914","group":"Group1","full_date":"2025-11-11T18:05:28.424Z","date":"2025-11-11","time":"18:05:28"},{"rt":null,"stimulus":"<p style=\"font-size: 50px; margin: 0; text-align: center;\">+</p>","response":null,"trial_type":"html-keyboard-response","trial_index":37,"plugin_version":"2.1.0","time_elapsed":81248,"subject_id":"88914","group":"Group1","full_date":"2025-11-11T18:05:28.424Z","date":"2025-11-11","time":"18:05:28"},{"task":"memory_phase","broad_category":"I","image_png":"I_Rhyolite_16.png","image_id":160,"category_name":"Rhyolite","category":10,"distinct_rating":2.19,"distinct_type":"Bottom","rt":null,"stimulus":"Stimuli_Rocks480/I_Rhyolite_16.png","response":null,"trial_type":"image-keyboard-response","trial_index":38,"plugin_version":"2.1.0","time_elapsed":83763,"subject_id":"88914","group":"Group1","full_date":"2025-11-11T18:05:28.424Z","date":"2025-11-11","time":"18:05:28"},{"rt":null,"stimulus":"<p style=\"font-size: 50px; margin: 0; text-align: center;\">+</p>","response":null,"trial_type":"html-keyboard-response","trial_index":39,"plugin_version":"2.1.0","time_elapsed":84765,"subject_id":"88914","group":"Group1","full_date":"2025-11-11T18:05:28.424Z","date":"2025-11-11","time":"18:05:28"},{"task":"memory_phase","broad_category":"I","image_png":"I_Diorite_03.png","image_id":35,"category_name":"Diorite","category":3,"distinct_rating":3.14,"distinct_type":"Bottom","rt":null,"stimulus":"Stimuli_Rocks480/I_Diorite_03.png","response":null,"trial_type":"image-keyboard-response","trial_index":40,"plugin_version":"2.1.0","time_elapsed":87285,"subject_id":"88914","group":"Group1","full_date":"2025-11-11T18:05:28.424Z","date":"2025-11-11","time":"18:05:28"},{"rt":null,"stimulus":"<p style=\"font-size: 50px; margin: 0; text-align: center;\">+</p>","response":null,"trial_type":"html-keyboard-response","trial_index":41,"plugin_version":"2.1.0","time_elapsed":88288,"subject_id":"88914","group":"Group1","full_date":"2025-11-11T18:05:28.424Z","date":"2025-11-11","time":"18:05:28"},{"task":"memory_phase","broad_category":"M","image_png":"M_Quartzite_08.png","image_id":280,"category_name":"Quartzite","category":18,"distinct_rating":2.15,"distinct_type":"Bottom","rt":null,"stimulus":"Stimuli_Rocks480/M_Quartzite_08.png","response":null,"trial_type":"image-keyboard-response","trial_index":42,"plugin_version":"2.1.0","time_elapsed":90804,"subject_id":"88914","group":"Group1","full_date":"2025-11-11T18:05:28.424Z","date":"2025-11-11","time":"18:05:28"},{"rt":null,"stimulus":"<p style=\"font-size: 50px; margin: 0; text-align: center;\">+</p>","response":null,"trial_type":"html-keyboard-response","trial_index":43,"plugin_version":"2.1.0","time_elapsed":91807,"subject_id":"88914","group":"Group1","full_date":"2025-11-11T18:05:28.424Z","date":"2025-11-11","time":"18:05:28"},{"task":"memory_phase","broad_category":"I","image_png":"I_Andesite_06.png","image_id":6,"category_name":"Andesite","category":1,"distinct_rating":3.17,"distinct_type":"Bottom","rt":null,"stimulus":"Stimuli_Rocks480/I_Andesite_06.png","response":null,"trial_type":"image-keyboard-response","trial_index":44,"plugin_version":"2.1.0","time_elapsed":94324,"subject_id":"88914","group":"Group1","full_date":"2025-11-11T18:05:28.424Z","date":"2025-11-11","time":"18:05:28"},{"rt":null,"stimulus":"<p style=\"font-size: 50px; margin: 0; text-align: center;\">+</p>","response":null,"trial_type":"html-keyboard-response","trial_index":45,"plugin_version":"2.1.0","time_elapsed":95327,"subject_id":"88914","group":"Group1","full_date":"2025-11-11T18:05:28.424Z","date":"2025-11-11","time":"18:05:28"},{"task":"memory_phase","broad_category":"S","image_png":"S_Rock Gypsum_04.png","image_id":420,"category_name":"Rock Gypsum","category":27,"distinct_rating":7.61,"distinct_type":"Top","rt":null,"stimulus":"Stimuli_Rocks480/S_Rock Gypsum_04.png","response":null,"trial_type":"image-keyboard-response","trial_index":46,"plugin_version":"2.1.0","time_elapsed":97843,"subject_id":"88914","group":"Group1","full_date":"2025-11-11T18:05:28.424Z","date":"2025-11-11","time":"18:05:28"},{"rt":null,"stimulus":"<p style=\"font-size: 50px; margin: 0; text-align: center;\">+</p>","response":null,"trial_type":"html-keyboard-response","trial_index":47,"plugin_version":"2.1.0","time_elapsed":98846,"subject_id":"88914","group":"Group1","full_date":"2025-11-11T18:05:28.424Z","date":"2025-11-11","time":"18:05:28"},{"task":"memory_phase","broad_category":"M","image_png":"M_Quartzite_05.png","image_id":277,"category_name":"Quartzite","category":18,"distinct_rating":2.23,"distinct_type":"Bottom","rt":null,"stimulus":"Stimuli_Rocks480/M_Quartzite_05.png","response":null,"trial_type":"image-keyboard-response","trial_index":48,"plugin_version":"2.1.0","time_elapsed":101365,"subject_id":"88914","group":"Group1","full_date":"2025-11-11T18:05:28.424Z","date":"2025-11-11","time":"18:05:28"},{"rt":null,"stimulus":"<p style=\"font-size: 50px; margin: 0; text-align: center;\">+</p>","response":null,"trial_type":"html-keyboard-response","trial_index":49,"plugin_version":"2.1.0","time_elapsed":102368,"subject_id":"88914","group":"Group1","full_date":"2025-11-11T18:05:28.424Z","date":"2025-11-11","time":"18:05:28"},{"task":"memory_phase","broad_category":"I","image_png":"I_Pegmatite_16.png","image_id":112,"category_name":"Pegmatite","category":7,"distinct_rating":7.03,"distinct_type":"Top","rt":null,"stimulus":"Stimuli_Rocks480/I_Pegmatite_16.png","response":null,"trial_type":"image-keyboard-response","trial_index":50,"plugin_version":"2.1.0","time_elapsed":104882,"subject_id":"88914","group":"Group1","full_date":"2025-11-11T18:05:28.424Z","date":"2025-11-11","time":"18:05:28"},{"rt":null,"stimulus":"<p style=\"font-size: 50px; margin: 0; text-align: center;\">+</p>","response":null,"trial_type":"html-keyboard-response","trial_index":51,"plugin_version":"2.1.0","time_elapsed":105885,"subject_id":"88914","group":"Group1","full_date":"2025-11-11T18:05:28.424Z","date":"2025-11-11","time":"18:05:28"},{"task":"memory_phase","broad_category":"M","image_png":"M_Marble_16.png","image_id":240,"category_name":"Marble","category":15,"distinct_rating":2.57,"distinct_type":"Bottom","rt":null,"stimulus":"Stimuli_Rocks480/M_Marble_16.png","response":null,"trial_type":"image-keyboard-response","trial_index":52,"plugin_version":"2.1.0","time_elapsed":108402,"subject_id":"88914","group":"Group1","full_date":"2025-11-11T18:05:28.424Z","date":"2025-11-11","time":"18:05:28"},{"rt":null,"stimulus":"<p style=\"font-size: 50px; margin: 0; text-align: center;\">+</p>","response":null,"trial_type":"html-keyboard-response","trial_index":53,"plugin_version":"2.1.0","time_elapsed":109405,"subject_id":"88914","group":"Group1","full_date":"2025-11-11T18:05:28.424Z","date":"2025-11-11","time":"18:05:28"},{"task":"memory_phase","broad_category":"M","image_png":"M_Gneiss_05.png","image_id":197,"category_name":"Gneiss","category":13,"distinct_rating":2.97,"distinct_type":"Bottom","rt":null,"stimulus":"Stimuli_Rocks480/M_Gneiss_05.png","response":null,"trial_type":"image-keyboard-response","trial_index":54,"plugin_version":"2.1.0","time_elapsed":111928,"subject_id":"88914","group":"Group1","full_date":"2025-11-11T18:05:28.424Z","date":"2025-11-11","time":"18:05:28"},{"rt":8378,"stimulus":"<p style=\"font-size: 35px;\">Press SPACE to continue study phase</p>","response":" ","trial_type":"html-keyboard-response","trial_index":55,"plugin_version":"2.1.0","time_elapsed":120308,"subject_id":"88914","group":"Group1","full_date":"2025-11-11T18:05:28.424Z","date":"2025-11-11","time":"18:05:28"},{"rt":null,"stimulus":"<p style=\"font-size: 50px; margin: 0; text-align: center;\">+</p>","response":null,"trial_type":"html-keyboard-response","trial_index":56,"plugin_version":"2.1.0","time_elapsed":121311,"subject_id":"88914","group":"Group1","full_date":"2025-11-11T18:05:28.424Z","date":"2025-11-11","time":"18:05:28"},{"task":"memory_phase","broad_category":"S","image_png":"S_Shale_01.png","image_id":465,"category_name":"Shale","category":30,"distinct_rating":2.7,"distinct_type":"Bottom","rt":null,"stimulus":"Stimuli_Rocks480/S_Shale_01.png","response":null,"trial_type":"image-keyboard-response","trial_index":57,"plugin_version":"2.1.0","time_elapsed":123827,"subject_id":"88914","group":"Group1","full_date":"2025-11-11T18:05:28.424Z","date":"2025-11-11","time":"18:05:28"},{"rt":null,"stimulus":"<p style=\"font-size: 50px; margin: 0; text-align: center;\">+</p>","response":null,"trial_type":"html-keyboard-response","trial_index":58,"plugin_version":"2.1.0","time_elapsed":124828,"subject_id":"88914","group":"Group1","full_date":"2025-11-11T18:05:28.424Z","date":"2025-11-11","time":"18:05:28"},{"task":"memory_phase","broad_category":"S","image_png":"S_Shale_08.png","image_id":472,"category_name":"Shale","category":30,"distinct_rating":2.55,"distinct_type":"Bottom","rt":null,"stimulus":"Stimuli_Rocks480/S_Shale_08.png","response":null,"trial_type":"image-keyboard-response","trial_index":59,"plugin_version":"2.1.0","time_elapsed":127342,"subject_id":"88914","group":"Group1","full_date":"2025-11-11T18:05:28.424Z","date":"2025-11-11","time":"18:05:28"},{"rt":null,"stimulus":"<p style=\"font-size: 50px; margin: 0; text-align: center;\">+</p>","response":null,"trial_type":"html-keyboard-response","trial_index":60,"plugin_version":"2.1.0","time_elapsed":128345,"subject_id":"88914","group":"Group1","full_date":"2025-11-11T18:05:28.424Z","date":"2025-11-11","time":"18:05:28"},{"task":"memory_phase","broad_category":"M","image_png":"M_Gneiss_13.png","image_id":205,"category_name":"Gneiss","category":13,"distinct_rating":3.26,"distinct_type":"Bottom","rt":null,"stimulus":"Stimuli_Rocks480/M_Gneiss_13.png","response":null,"trial_type":"image-keyboard-response","trial_index":61,"plugin_version":"2.1.0","time_elapsed":130857,"subject_id":"88914","group":"Group1","full_date":"2025-11-11T18:05:28.424Z","date":"2025-11-11","time":"18:05:28"},{"rt":null,"stimulus":"<p style=\"font-size: 50px; margin: 0; text-align: center;\">+</p>","response":null,"trial_type":"html-keyboard-response","trial_index":62,"plugin_version":"2.1.0","time_elapsed":131859,"subject_id":"88914","group":"Group1","full_date":"2025-11-11T18:05:28.424Z","date":"2025-11-11","time":"18:05:28"},{"task":"memory_phase","broad_category":"I","image_png":"I_Pumice_12.png","image_id":140,"category_name":"Pumice","category":9,"distinct_rating":2.97,"distinct_type":"Bottom","rt":null,"stimulus":"Stimuli_Rocks480/I_Pumice_12.png","response":null,"trial_type":"image-keyboard-response","trial_index":63,"plugin_version":"2.1.0","time_elapsed":134373,"subject_id":"88914","group":"Group1","full_date":"2025-11-11T18:05:28.424Z","date":"2025-11-11","time":"18:05:28"},{"rt":null,"stimulus":"<p style=\"font-size: 50px; margin: 0; text-align: center;\">+</p>","response":null,"trial_type":"html-keyboard-response","trial_index":64,"plugin_version":"2.1.0","time_elapsed":135375,"subject_id":"88914","group":"Group1","full_date":"2025-11-11T18:05:28.424Z","date":"2025-11-11","time":"18:05:28"},{"task":"memory_phase","broad_category":"S","image_png":"S_Dolomite_12.png","image_id":396,"category_name":"Dolomite","category":25,"distinct_rating":1.85,"distinct_type":"Bottom","rt":null,"stimulus":"Stimuli_Rocks480/S_Dolomite_12.png","response":null,"trial_type":"image-keyboard-response","trial_index":65,"plugin_version":"2.1.0","time_elapsed":137891,"subject_id":"88914","group":"Group1","full_date":"2025-11-11T18:05:28.424Z","date":"2025-11-11","time":"18:05:28"},{"rt":null,"stimulus":"<p style=\"font-size: 50px; margin: 0; text-align: center;\">+</p>","response":null,"trial_type":"html-keyboard-response","trial_index":66,"plugin_version":"2.1.0","time_elapsed":138894,"subject_id":"88914","group":"Group1","full_date":"2025-11-11T18:05:28.424Z","date":"2025-11-11","time":"18:05:28"},{"task":"memory_phase","broad_category":"S","image_png":"S_Rock Salt_01.png","image_id":433,"category_name":"Rock Salt","category":28,"distinct_rating":7.18,"distinct_type":"Top","rt":null,"stimulus":"Stimuli_Rocks480/S_Rock Salt_01.png","response":null,"trial_type":"image-keyboard-response","trial_index":67,"plugin_version":"2.1.0","time_elapsed":141413,"subject_id":"88914","group":"Group1","full_date":"2025-11-11T18:05:28.424Z","date":"2025-11-11","time":"18:05:28"},{"rt":null,"stimulus":"<p style=\"font-size: 50px; margin: 0; text-align: center;\">+</p>","response":null,"trial_type":"html-keyboard-response","trial_index":68,"plugin_version":"2.1.0","time_elapsed":142416,"subject_id":"88914","group":"Group1","full_date":"2025-11-11T18:05:28.424Z","date":"2025-11-11","time":"18:05:28"},{"task":"memory_phase","broad_category":"S","image_png":"S_Conglomerate_05.png","image_id":373,"category_name":"Conglomerate","category":24,"distinct_rating":7.32,"distinct_type":"Top","rt":null,"stimulus":"Stimuli_Rocks480/S_Conglomerate_05.png","response":null,"trial_type":"image-keyboard-response","trial_index":69,"plugin_version":"2.1.0","time_elapsed":144930,"subject_id":"88914","group":"Group1","full_date":"2025-11-11T18:05:28.424Z","date":"2025-11-11","time":"18:05:28"},{"rt":null,"stimulus":"<p style=\"font-size: 50px; margin: 0; text-align: center;\">+</p>","response":null,"trial_type":"html-keyboard-response","trial_index":70,"plugin_version":"2.1.0","time_elapsed":145932,"subject_id":"88914","group":"Group1","full_date":"2025-11-11T18:05:28.424Z","date":"2025-11-11","time":"18:05:28"},{"task":"memory_phase","broad_category":"I","image_png":"I_Andesite_08.png","image_id":8,"category_name":"Andesite","category":1,"distinct_rating":1.95,"distinct_type":"Bottom","rt":null,"stimulus":"Stimuli_Rocks480/I_Andesite_08.png","response":null,"trial_type":"image-keyboard-response","trial_index":71,"plugin_version":"2.1.0","time_elapsed":148449,"subject_id":"88914","group":"Group1","full_date":"2025-11-11T18:05:28.424Z","date":"2025-11-11","time":"18:05:28"},{"rt":null,"stimulus":"<p style=\"font-size: 50px; margin: 0; text-align: center;\">+</p>","response":null,"trial_type":"html-keyboard-response","trial_index":72,"plugin_version":"2.1.0","time_elapsed":149451,"subject_id":"88914","group":"Group1","full_date":"2025-11-11T18:05:28.424Z","date":"2025-11-11","time":"18:05:28"},{"task":"memory_phase","broad_category":"I","image_png":"I_Obsidian_05.png","image_id":85,"category_name":"Obsidian","category":6,"distinct_rating":7.32,"distinct_type":"Top","rt":null,"stimulus":"Stimuli_Rocks480/I_Obsidian_05.png","response":null,"trial_type":"image-keyboard-response","trial_index":73,"plugin_version":"2.1.0","time_elapsed":151970,"subject_id":"88914","group":"Group1","full_date":"2025-11-11T18:05:28.424Z","date":"2025-11-11","time":"18:05:28"},{"rt":null,"stimulus":"<p style=\"font-size: 50px; margin: 0; text-align: center;\">+</p>","response":null,"trial_type":"html-keyboard-response","trial_index":74,"plugin_version":"2.1.0","time_elapsed":152971,"subject_id":"88914","group":"Group1","full_date":"2025-11-11T18:05:28.424Z","date":"2025-11-11","time":"18:05:28"},{"task":"memory_phase","broad_category":"M","image_png":"M_Slate_15.png","image_id":319,"category_name":"Slate","category":20,"distinct_rating":2.13,"distinct_type":"Bottom","rt":null,"stimulus":"Stimuli_Rocks480/M_Slate_15.png","response":null,"trial_type":"image-keyboard-response","trial_index":75,"plugin_version":"2.1.0","time_elapsed":155484,"subject_id":"88914","group":"Group1","full_date":"2025-11-11T18:05:28.424Z","date":"2025-11-11","time":"18:05:28"},{"rt":null,"stimulus":"<p style=\"font-size: 50px; margin: 0; text-align: center;\">+</p>","response":null,"trial_type":"html-keyboard-response","trial_index":76,"plugin_version":"2.1.0","time_elapsed":156487,"subject_id":"88914","group":"Group1","full_date":"2025-11-11T18:05:28.424Z","date":"2025-11-11","time":"18:05:28"},{"task":"memory_phase","broad_category":"I","image_png":"I_Basalt_09.png","image_id":25,"category_name":"Basalt","category":2,"distinct_rating":1.89,"distinct_type":"Bottom","rt":null,"stimulus":"Stimuli_Rocks480/I_Basalt_09.png","response":null,"trial_type":"image-keyboard-response","trial_index":77,"plugin_version":"2.1.0","time_elapsed":159000,"subject_id":"88914","group":"Group1","full_date":"2025-11-11T18:05:28.424Z","date":"2025-11-11","time":"18:05:28"},{"rt":null,"stimulus":"<p style=\"font-size: 50px; margin: 0; text-align: center;\">+</p>","response":null,"trial_type":"html-keyboard-response","trial_index":78,"plugin_version":"2.1.0","time_elapsed":160002,"subject_id":"88914","group":"Group1","full_date":"2025-11-11T18:05:28.424Z","date":"2025-11-11","time":"18:05:28"},{"task":"memory_phase","broad_category":"M","image_png":"M_Phyllite_03.png","image_id":259,"category_name":"Phyllite","category":17,"distinct_rating":2.5,"distinct_type":"Bottom","rt":null,"stimulus":"Stimuli_Rocks480/M_Phyllite_03.png","response":null,"trial_type":"image-keyboard-response","trial_index":79,"plugin_version":"2.1.0","time_elapsed":162519,"subject_id":"88914","group":"Group1","full_date":"2025-11-11T18:05:28.424Z","date":"2025-11-11","time":"18:05:28"},{"rt":null,"stimulus":"<p style=\"font-size: 50px; margin: 0; text-align: center;\">+</p>","response":null,"trial_type":"html-keyboard-response","trial_index":80,"plugin_version":"2.1.0","time_elapsed":163521,"subject_id":"88914","group":"Group1","full_date":"2025-11-11T18:05:28.424Z","date":"2025-11-11","time":"18:05:28"},{"task":"memory_phase","broad_category":"I","image_png":"I_Gabbro_08.png","image_id":56,"category_name":"Gabbro","category":4,"distinct_rating":3.02,"distinct_type":"Bottom","rt":null,"stimulus":"Stimuli_Rocks480/I_Gabbro_08.png","response":null,"trial_type":"image-keyboard-response","trial_index":81,"plugin_version":"2.1.0","time_elapsed":166036,"subject_id":"88914","group":"Group1","full_date":"2025-11-11T18:05:28.424Z","date":"2025-11-11","time":"18:05:28"},{"rt":null,"stimulus":"<p style=\"font-size: 50px; margin: 0; text-align: center;\">+</p>","response":null,"trial_type":"html-keyboard-response","trial_index":82,"plugin_version":"2.1.0","time_elapsed":167038,"subject_id":"88914","group":"Group1","full_date":"2025-11-11T18:05:28.424Z","date":"2025-11-11","time":"18:05:28"},{"task":"memory_phase","broad_category":"I","image_png":"I_Pegmatite_10.png","image_id":106,"category_name":"Pegmatite","category":7,"distinct_rating":7.66,"distinct_type":"Top","rt":null,"stimulus":"Stimuli_Rocks480/I_Pegmatite_10.png","response":null,"trial_type":"image-keyboard-response","trial_index":83,"plugin_version":"2.1.0","time_elapsed":169552,"subject_id":"88914","group":"Group1","full_date":"2025-11-11T18:05:28.424Z","date":"2025-11-11","time":"18:05:28"},{"rt":null,"stimulus":"<p style=\"font-size: 50px; margin: 0; text-align: center;\">+</p>","response":null,"trial_type":"html-keyboard-response","trial_index":84,"plugin_version":"2.1.0","time_elapsed":170555,"subject_id":"88914","group":"Group1","full_date":"2025-11-11T18:05:28.424Z","date":"2025-11-11","time":"18:05:28"},{"task":"memory_phase","broad_category":"S","image_png":"S_Dolomite_13.png","image_id":397,"category_name":"Dolomite","category":25,"distinct_rating":1.77,"distinct_type":"Bottom","rt":null,"stimulus":"Stimuli_Rocks480/S_Dolomite_13.png","response":null,"trial_type":"image-keyboard-response","trial_index":85,"plugin_version":"2.1.0","time_elapsed":173072,"subject_id":"88914","group":"Group1","full_date":"2025-11-11T18:05:28.424Z","date":"2025-11-11","time":"18:05:28"},{"rt":null,"stimulus":"<p style=\"font-size: 50px; margin: 0; text-align: center;\">+</p>","response":null,"trial_type":"html-keyboard-response","trial_index":86,"plugin_version":"2.1.0","time_elapsed":174074,"subject_id":"88914","group":"Group1","full_date":"2025-11-11T18:05:28.424Z","date":"2025-11-11","time":"18:05:28"},{"task":"memory_phase","broad_category":"I","image_png":"I_Diorite_05.png","image_id":37,"category_name":"Diorite","category":3,"distinct_rating":3.08,"distinct_type":"Bottom","rt":null,"stimulus":"Stimuli_Rocks480/I_Diorite_05.png","response":null,"trial_type":"image-keyboard-response","trial_index":87,"plugin_version":"2.1.0","time_elapsed":176589,"subject_id":"88914","group":"Group1","full_date":"2025-11-11T18:05:28.424Z","date":"2025-11-11","time":"18:05:28"},{"rt":null,"stimulus":"<p style=\"font-size: 50px; margin: 0; text-align: center;\">+</p>","response":null,"trial_type":"html-keyboard-response","trial_index":88,"plugin_version":"2.1.0","time_elapsed":177591,"subject_id":"88914","group":"Group1","full_date":"2025-11-11T18:05:28.424Z","date":"2025-11-11","time":"18:05:28"},{"task":"memory_phase","broad_category":"M","image_png":"M_Quartzite_13.png","image_id":285,"category_name":"Quartzite","category":18,"distinct_rating":2.27,"distinct_type":"Bottom","rt":null,"stimulus":"Stimuli_Rocks480/M_Quartzite_13.png","response":null,"trial_type":"image-keyboard-response","trial_index":89,"plugin_version":"2.1.0","time_elapsed":180109,"subject_id":"88914","group":"Group1","full_date":"2025-11-11T18:05:28.424Z","date":"2025-11-11","time":"18:05:28"},{"rt":null,"stimulus":"<p style=\"font-size: 50px; margin: 0; text-align: center;\">+</p>","response":null,"trial_type":"html-keyboard-response","trial_index":90,"plugin_version":"2.1.0","time_elapsed":181112,"subject_id":"88914","group":"Group1","full_date":"2025-11-11T18:05:28.424Z","date":"2025-11-11","time":"18:05:28"},{"task":"memory_phase","broad_category":"M","image_png":"M_Marble_04.png","image_id":228,"category_name":"Marble","category":15,"distinct_rating":3.15,"distinct_type":"Bottom","rt":null,"stimulus":"Stimuli_Rocks480/M_Marble_04.png","response":null,"trial_type":"image-keyboard-response","trial_index":91,"plugin_version":"2.1.0","time_elapsed":183629,"subject_id":"88914","group":"Group1","full_date":"2025-11-11T18:05:28.424Z","date":"2025-11-11","time":"18:05:28"},{"rt":null,"stimulus":"<p style=\"font-size: 50px; margin: 0; text-align: center;\">+</p>","response":null,"trial_type":"html-keyboard-response","trial_index":92,"plugin_version":"2.1.0","time_elapsed":184631,"subject_id":"88914","group":"Group1","full_date":"2025-11-11T18:05:28.424Z","date":"2025-11-11","time":"18:05:28"},{"task":"memory_phase","broad_category":"M","image_png":"M_Phyllite_10.png","image_id":266,"category_name":"Phyllite","category":17,"distinct_rating":2.6,"distinct_type":"Bottom","rt":null,"stimulus":"Stimuli_Rocks480/M_Phyllite_10.png","response":null,"trial_type":"image-keyboard-response","trial_index":93,"plugin_version":"2.1.0","time_elapsed":187145,"subject_id":"88914","group":"Group1","full_date":"2025-11-11T18:05:28.424Z","date":"2025-11-11","time":"18:05:28"},{"rt":null,"stimulus":"<p style=\"font-size: 50px; margin: 0; text-align: center;\">+</p>","response":null,"trial_type":"html-keyboard-response","trial_index":94,"plugin_version":"2.1.0","time_elapsed":188147,"subject_id":"88914","group":"Group1","full_date":"2025-11-11T18:05:28.424Z","date":"2025-11-11","time":"18:05:28"},{"task":"memory_phase","broad_category":"I","image_png":"I_Pumice_11.png","image_id":139,"category_name":"Pumice","category":9,"distinct_rating":1.74,"distinct_type":"Bottom","rt":null,"stimulus":"Stimuli_Rocks480/I_Pumice_11.png","response":null,"trial_type":"image-keyboard-response","trial_index":95,"plugin_version":"2.1.0","time_elapsed":190659,"subject_id":"88914","group":"Group1","full_date":"2025-11-11T18:05:28.424Z","date":"2025-11-11","time":"18:05:28"},{"rt":null,"stimulus":"<p style=\"font-size: 50px; margin: 0; text-align: center;\">+</p>","response":null,"trial_type":"html-keyboard-response","trial_index":96,"plugin_version":"2.1.0","time_elapsed":191662,"subject_id":"88914","group":"Group1","full_date":"2025-11-11T18:05:28.424Z","date":"2025-11-11","time":"18:05:28"},{"task":"memory_phase","broad_category":"M","image_png":"M_Gneiss_06.png","image_id":198,"category_name":"Gneiss","category":13,"distinct_rating":2.65,"distinct_type":"Bottom","rt":null,"stimulus":"Stimuli_Rocks480/M_Gneiss_06.png","response":null,"trial_type":"image-keyboard-response","trial_index":97,"plugin_version":"2.1.0","time_elapsed":194181,"subject_id":"88914","group":"Group1","full_date":"2025-11-11T18:05:28.424Z","date":"2025-11-11","time":"18:05:28"},{"rt":null,"stimulus":"<p style=\"font-size: 50px; margin: 0; text-align: center;\">+</p>","response":null,"trial_type":"html-keyboard-response","trial_index":98,"plugin_version":"2.1.0","time_elapsed":195183,"subject_id":"88914","group":"Group1","full_date":"2025-11-11T18:05:28.424Z","date":"2025-11-11","time":"18:05:28"},{"task":"memory_phase","broad_category":"I","image_png":"I_Gabbro_16.png","image_id":64,"category_name":"Gabbro","category":4,"distinct_rating":2.52,"distinct_type":"Bottom","rt":null,"stimulus":"Stimuli_Rocks480/I_Gabbro_16.png","response":null,"trial_type":"image-keyboard-response","trial_index":99,"plugin_version":"2.1.0","time_elapsed":197700,"subject_id":"88914","group":"Group1","full_date":"2025-11-11T18:05:28.424Z","date":"2025-11-11","time":"18:05:28"},{"rt":null,"stimulus":"<p style=\"font-size: 50px; margin: 0; text-align: center;\">+</p>","response":null,"trial_type":"html-keyboard-response","trial_index":100,"plugin_version":"2.1.0","time_elapsed":198702,"subject_id":"88914","group":"Group1","full_date":"2025-11-11T18:05:28.424Z","date":"2025-11-11","time":"18:05:28"},{"task":"memory_phase","broad_category":"S","image_png":"S_Sandstone_03.png","image_id":451,"category_name":"Sandstone","category":29,"distinct_rating":1.86,"distinct_type":"Bottom","rt":null,"stimulus":"Stimuli_Rocks480/S_Sandstone_03.png","response":null,"trial_type":"image-keyboard-response","trial_index":101,"plugin_version":"2.1.0","time_elapsed":201218,"subject_id":"88914","group":"Group1","full_date":"2025-11-11T18:05:28.424Z","date":"2025-11-11","time":"18:05:28"},{"rt":null,"stimulus":"<p style=\"font-size: 50px; margin: 0; text-align: center;\">+</p>","response":null,"trial_type":"html-keyboard-response","trial_index":102,"plugin_version":"2.1.0","time_elapsed":202221,"subject_id":"88914","group":"Group1","full_date":"2025-11-11T18:05:28.424Z","date":"2025-11-11","time":"18:05:28"},{"task":"memory_phase","broad_category":"S","image_png":"S_Sandstone_15.png","image_id":463,"category_name":"Sandstone","category":29,"distinct_rating":2,"distinct_type":"Bottom","rt":null,"stimulus":"Stimuli_Rocks480/S_Sandstone_15.png","response":null,"trial_type":"image-keyboard-response","trial_index":103,"plugin_version":"2.1.0","time_elapsed":204741,"subject_id":"88914","group":"Group1","full_date":"2025-11-11T18:05:28.424Z","date":"2025-11-11","time":"18:05:28"},{"rt":null,"stimulus":"<p style=\"font-size: 50px; margin: 0; text-align: center;\">+</p>","response":null,"trial_type":"html-keyboard-response","trial_index":104,"plugin_version":"2.1.0","time_elapsed":205743,"subject_id":"88914","group":"Group1","full_date":"2025-11-11T18:05:28.424Z","date":"2025-11-11","time":"18:05:28"},{"task":"memory_phase","broad_category":"M","image_png":"M_Slate_11.png","image_id":315,"category_name":"Slate","category":20,"distinct_rating":2.75,"distinct_type":"Bottom","rt":null,"stimulus":"Stimuli_Rocks480/M_Slate_11.png","response":null,"trial_type":"image-keyboard-response","trial_index":105,"plugin_version":"2.1.0","time_elapsed":208256,"subject_id":"88914","group":"Group1","full_date":"2025-11-11T18:05:28.424Z","date":"2025-11-11","time":"18:05:28"},{"rt":1339,"stimulus":"<div style=\"max-width: 760px; margin: auto; font-size: 20px; line-height: 1.5;\">\n      <h1 style=\"text-align:center; font-size: 30px;\">Instructions for the Test Phase</h1>\n      <p>\n        The study phase is now complete.\n      </p>\n      <p>\n        In the test phase, you will again see a series of rock images. \n        Some will be ones you saw before - during the study phase, while others will be new.  \n        <b>Your task</b> is to decide whether you have seen each image before by pressing the corresponding key on your keyboard:<br><br>\n          <b>A</b> - NO (you did not see this image before)<br>\n          <b>L</b> - YES (you saw this image before)<br><br>\n        The test will proceed at your own pace. You will receive feedback after each response.  \n        Please try to respond <b>as accurately as possible</b>.\n      </p>\n      <p>\n        <b>Reminder:</b> If your computer has multiple language settings (e.g., English and another language),\n        please ensure it is set to English during the test phase.\n      </p>\n      <p>\n        You can track your progress using the <b>completion bar</b> at the top of the screen.  \n        Note that it has been refreshed to reflect your progress during this final phase.\n      </p>\n      <p>\n        Press the button below when you are ready to continue.\n      </p>\n    </div>","response":0,"trial_type":"html-button-response","trial_index":106,"plugin_version":"2.1.0","time_elapsed":209598,"subject_id":"88914","group":"Group1","full_date":"2025-11-11T18:05:28.424Z","date":"2025-11-11","time":"18:05:28"},{"correct_response":"a","task":"test_phase","broad_category":"I","image_png":"I_Pegmatite_03.png","image_id":99,"category_name":"Pegmatite","category":7,"distinct_rating":7.24,"distinct_type":"Top","item_type":"Foil","rt":3197,"stimulus":"Stimuli_Rocks480/I_Pegmatite_03.png","response":"a","trial_type":"image-keyboard-response","trial_index":107,"plugin_version":"2.1.0","time_elapsed":212812,"subject_id":"88914","group":"Group1","full_date":"2025-11-11T18:05:28.424Z","date":"2025-11-11","time":"18:05:28","cor_ans":true},{"trial_type":"html-keyboard-response","rt":null,"stimulus":"<p style=\"color: green; font-size: 50px; font-weight: bold;\">Correct</p>","response":null,"trial_index":108,"plugin_version":"2.1.0","time_elapsed":213315,"subject_id":"88914","group":"Group1","full_date":"2025-11-11T18:05:28.424Z","date":"2025-11-11","time":"18:05:28"},{"correct_response":"l","task":"test_phase","broad_category":"M","image_png":"M_Gneiss_13.png","image_id":205,"category_name":"Gneiss","category":13,"distinct_rating":3.26,"distinct_type":"Bottom","item_type":"Target","rt":4849,"stimulus":"Stimuli_Rocks480/M_Gneiss_13.png","response":"l","trial_type":"image-keyboard-response","trial_index":109,"plugin_version":"2.1.0","time_elapsed":218167,"subject_id":"88914","group":"Group1","full_date":"2025-11-11T18:05:28.424Z","date":"2025-11-11","time":"18:05:28","cor_ans":true},{"trial_type":"html-keyboard-response","rt":null,"stimulus":"<p style=\"color: green; font-size: 50px; font-weight: bold;\">Correct</p>","response":null,"trial_index":110,"plugin_version":"2.1.0","time_elapsed":218669,"subject_id":"88914","group":"Group1","full_date":"2025-11-11T18:05:28.424Z","date":"2025-11-11","time":"18:05:28"},{"correct_response":"l","task":"test_phase","broad_category":"M","image_png":"M_Gneiss_06.png","image_id":198,"category_name":"Gneiss","category":13,"distinct_rating":2.65,"distinct_type":"Bottom","item_type":"Target","rt":1677,"stimulus":"Stimuli_Rocks480/M_Gneiss_06.png","response":"l","trial_type":"image-keyboard-response","trial_index":111,"plugin_version":"2.1.0","time_elapsed":220348,"subject_id":"88914","group":"Group1","full_date":"2025-11-11T18:05:28.424Z","date":"2025-11-11","time":"18:05:28","cor_ans":true},{"trial_type":"html-keyboard-response","rt":null,"stimulus":"<p style=\"color: green; font-size: 50px; font-weight: bold;\">Correct</p>","response":null,"trial_index":112,"plugin_version":"2.1.0","time_elapsed":220851,"subject_id":"88914","group":"Group1","full_date":"2025-11-11T18:05:28.424Z","date":"2025-11-11","time":"18:05:28"},{"correct_response":"a","task":"test_phase","broad_category":"I","image_png":"I_Gabbro_12.png","image_id":60,"category_name":"Gabbro","category":4,"distinct_rating":2.6,"distinct_type":"Bottom","item_type":"Foil","rt":3397,"stimulus":"Stimuli_Rocks480/I_Gabbro_12.png","response":"l","trial_type":"image-keyboard-response","trial_index":113,"plugin_version":"2.1.0","time_elapsed":224265,"subject_id":"88914","group":"Group1","full_date":"2025-11-11T18:05:28.424Z","date":"2025-11-11","time":"18:05:28","cor_ans":false},{"trial_type":"html-keyboard-response","rt":null,"stimulus":"<p style=\"color: red; font-size: 50px; font-weight: bold;\">Incorrect</p>","response":null,"trial_index":114,"plugin_version":"2.1.0","time_elapsed":224767,"subject_id":"88914","group":"Group1","full_date":"2025-11-11T18:05:28.424Z","date":"2025-11-11","time":"18:05:28"},{"correct_response":"a","task":"test_phase","broad_category":"M","image_png":"M_Phyllite_05.png","image_id":261,"category_name":"Phyllite","category":17,"distinct_rating":2.14,"distinct_type":"Bottom","item_type":"Foil","rt":1128,"stimulus":"Stimuli_Rocks480/M_Phyllite_05.png","response":"l","trial_type":"image-keyboard-response","trial_index":115,"plugin_version":"2.1.0","time_elapsed":225910,"subject_id":"88914","group":"Group1","full_date":"2025-11-11T18:05:28.424Z","date":"2025-11-11","time":"18:05:28","cor_ans":false},{"trial_type":"html-keyboard-response","rt":null,"stimulus":"<p style=\"color: red; font-size: 50px; font-weight: bold;\">Incorrect</p>","response":null,"trial_index":116,"plugin_version":"2.1.0","time_elapsed":226412,"subject_id":"88914","group":"Group1","full_date":"2025-11-11T18:05:28.424Z","date":"2025-11-11","time":"18:05:28"},{"correct_response":"l","task":"test_phase","broad_category":"I","image_png":"I_Gabbro_11.png","image_id":59,"category_name":"Gabbro","category":4,"distinct_rating":1.99,"distinct_type":"Bottom","item_type":"Target","rt":706,"stimulus":"Stimuli_Rocks480/I_Gabbro_11.png","response":"l","trial_type":"image-keyboard-response","trial_index":117,"plugin_version":"2.1.0","time_elapsed":227133,"subject_id":"88914","group":"Group1","full_date":"2025-11-11T18:05:28.424Z","date":"2025-11-11","time":"18:05:28","cor_ans":true},{"trial_type":"html-keyboard-response","rt":null,"stimulus":"<p style=\"color: green; font-size: 50px; font-weight: bold;\">Correct</p>","response":null,"trial_index":118,"plugin_version":"2.1.0","time_elapsed":227635,"subject_id":"88914","group":"Group1","full_date":"2025-11-11T18:05:28.424Z","date":"2025-11-11","time":"18:05:28"},{"correct_response":"l","task":"test_phase","broad_category":"S","image_png":"S_Dolomite_13.png","image_id":397,"category_name":"Dolomite","category":25,"distinct_rating":1.77,"distinct_type":"Bottom","item_type":"Target","rt":1295,"stimulus":"Stimuli_Rocks480/S_Dolomite_13.png","response":"l","trial_type":"image-keyboard-response","trial_index":119,"plugin_version":"2.1.0","time_elapsed":228945,"subject_id":"88914","group":"Group1","full_date":"2025-11-11T18:05:28.424Z","date":"2025-11-11","time":"18:05:28","cor_ans":true},{"trial_type":"html-keyboard-response","rt":null,"stimulus":"<p style=\"color: green; font-size: 50px; font-weight: bold;\">Correct</p>","response":null,"trial_index":120,"plugin_version":"2.1.0","time_elapsed":229448,"subject_id":"88914","group":"Group1","full_date":"2025-11-11T18:05:28.424Z","date":"2025-11-11","time":"18:05:28"},{"correct_response":"a","task":"test_phase","broad_category":"I","image_png":"I_Pumice_14.png","image_id":142,"category_name":"Pumice","category":9,"distinct_rating":3.22,"distinct_type":"Bottom","item_type":"Foil","rt":1366,"stimulus":"Stimuli_Rocks480/I_Pumice_14.png","response":"a","trial_type":"image-keyboard-response","trial_index":121,"plugin_version":"2.1.0","time_elapsed":230829,"subject_id":"88914","group":"Group1","full_date":"2025-11-11T18:05:28.424Z","date":"2025-11-11","time":"18:05:28","cor_ans":true},{"trial_type":"html-keyboard-response","rt":null,"stimulus":"<p style=\"color: green; font-size: 50px; font-weight: bold;\">Correct</p>","response":null,"trial_index":122,"plugin_version":"2.1.0","time_elapsed":231331,"subject_id":"88914","group":"Group1","full_date":"2025-11-11T18:05:28.424Z","date":"2025-11-11","time":"18:05:28"},{"correct_response":"a","task":"test_phase","broad_category":"I","image_png":"I_Basalt_13.png","image_id":29,"category_name":"Basalt","category":2,"distinct_rating":2.68,"distinct_type":"Bottom","item_type":"Foil","rt":1004,"stimulus":"Stimuli_Rocks480/I_Basalt_13.png","response":"a","trial_type":"image-keyboard-response","trial_index":123,"plugin_version":"2.1.0","time_elapsed":232350,"subject_id":"88914","group":"Group1","full_date":"2025-11-11T18:05:28.424Z","date":"2025-11-11","time":"18:05:28","cor_ans":true},{"trial_type":"html-keyboard-response","rt":null,"stimulus":"<p style=\"color: green; font-size: 50px; font-weight: bold;\">Correct</p>","response":null,"trial_index":124,"plugin_version":"2.1.0","time_elapsed":232853,"subject_id":"88914","group":"Group1","full_date":"2025-11-11T18:05:28.424Z","date":"2025-11-11","time":"18:05:28"},{"correct_response":"l","task":"test_phase","broad_category":"I","image_png":"I_Pumice_08.png","image_id":136,"category_name":"Pumice","category":9,"distinct_rating":3.1,"distinct_type":"Bottom","item_type":"Target","rt":897,"stimulus":"Stimuli_Rocks480/I_Pumice_08.png","response":"l","trial_type":"image-keyboard-response","trial_index":125,"plugin_version":"2.1.0","time_elapsed":233764,"subject_id":"88914","group":"Group1","full_date":"2025-11-11T18:05:28.424Z","date":"2025-11-11","time":"18:05:28","cor_ans":true},{"trial_type":"html-keyboard-response","rt":null,"stimulus":"<p style=\"color: green; font-size: 50px; font-weight: bold;\">Correct</p>","response":null,"trial_index":126,"plugin_version":"2.1.0","time_elapsed":234266,"subject_id":"88914","group":"Group1","full_date":"2025-11-11T18:05:28.424Z","date":"2025-11-11","time":"18:05:28"},{"correct_response":"l","task":"test_phase","broad_category":"I","image_png":"I_Diorite_03.png","image_id":35,"category_name":"Diorite","category":3,"distinct_rating":3.14,"distinct_type":"Bottom","item_type":"Target","rt":2793,"stimulus":"Stimuli_Rocks480/I_Diorite_03.png","response":"a","trial_type":"image-keyboard-response","trial_index":127,"plugin_version":"2.1.0","time_elapsed":237076,"subject_id":"88914","group":"Group1","full_date":"2025-11-11T18:05:28.424Z","date":"2025-11-11","time":"18:05:28","cor_ans":false},{"trial_type":"html-keyboard-response","rt":null,"stimulus":"<p style=\"color: red; font-size: 50px; font-weight: bold;\">Incorrect</p>","response":null,"trial_index":128,"plugin_version":"2.1.0","time_elapsed":237579,"subject_id":"88914","group":"Group1","full_date":"2025-11-11T18:05:28.424Z","date":"2025-11-11","time":"18:05:28"},{"correct_response":"a","task":"test_phase","broad_category":"M","image_png":"M_Gneiss_14.png","image_id":206,"category_name":"Gneiss","category":13,"distinct_rating":3.41,"distinct_type":"Bottom","item_type":"Foil","rt":771,"stimulus":"Stimuli_Rocks480/M_Gneiss_14.png","response":"a","trial_type":"image-keyboard-response","trial_index":129,"plugin_version":"2.1.0","time_elapsed":238365,"subject_id":"88914","group":"Group1","full_date":"2025-11-11T18:05:28.424Z","date":"2025-11-11","time":"18:05:28","cor_ans":true},{"trial_type":"html-keyboard-response","rt":null,"stimulus":"<p style=\"color: green; font-size: 50px; font-weight: bold;\">Correct</p>","response":null,"trial_index":130,"plugin_version":"2.1.0","time_elapsed":238868,"subject_id":"88914","group":"Group1","full_date":"2025-11-11T18:05:28.424Z","date":"2025-11-11","time":"18:05:28"},{"correct_response":"a","task":"test_phase","broad_category":"S","image_png":"S_Shale_03.png","image_id":467,"category_name":"Shale","category":30,"distinct_rating":1.95,"distinct_type":"Bottom","item_type":"Foil","rt":725,"stimulus":"Stimuli_Rocks480/S_Shale_03.png","response":"a","trial_type":"image-keyboard-response","trial_index":131,"plugin_version":"2.1.0","time_elapsed":239610,"subject_id":"88914","group":"Group1","full_date":"2025-11-11T18:05:28.424Z","date":"2025-11-11","time":"18:05:28","cor_ans":true},{"trial_type":"html-keyboard-response","rt":null,"stimulus":"<p style=\"color: green; font-size: 50px; font-weight: bold;\">Correct</p>","response":null,"trial_index":132,"plugin_version":"2.1.0","time_elapsed":240113,"subject_id":"88914","group":"Group1","full_date":"2025-11-11T18:05:28.424Z","date":"2025-11-11","time":"18:05:28"},{"correct_response":"l","task":"test_phase","broad_category":"M","image_png":"M_Quartzite_05.png","image_id":277,"category_name":"Quartzite","category":18,"distinct_rating":2.23,"distinct_type":"Bottom","item_type":"Target","rt":1007,"stimulus":"Stimuli_Rocks480/M_Quartzite_05.png","response":"l","trial_type":"image-keyboard-response","trial_index":133,"plugin_version":"2.1.0","time_elapsed":241135,"subject_id":"88914","group":"Group1","full_date":"2025-11-11T18:05:28.424Z","date":"2025-11-11","time":"18:05:28","cor_ans":true},{"trial_type":"html-keyboard-response","rt":null,"stimulus":"<p style=\"color: green; font-size: 50px; font-weight: bold;\">Correct</p>","response":null,"trial_index":134,"plugin_version":"2.1.0","time_elapsed":241638,"subject_id":"88914","group":"Group1","full_date":"2025-11-11T18:05:28.424Z","date":"2025-11-11","time":"18:05:28"},{"correct_response":"a","task":"test_phase","broad_category":"S","image_png":"S_Sandstone_11.png","image_id":459,"category_name":"Sandstone","category":29,"distinct_rating":1.82,"distinct_type":"Bottom","item_type":"Foil","rt":1487,"stimulus":"Stimuli_Rocks480/S_Sandstone_11.png","response":"a","trial_type":"image-keyboard-response","trial_index":135,"plugin_version":"2.1.0","time_elapsed":243142,"subject_id":"88914","group":"Group1","full_date":"2025-11-11T18:05:28.424Z","date":"2025-11-11","time":"18:05:28","cor_ans":true},{"trial_type":"html-keyboard-response","rt":null,"stimulus":"<p style=\"color: green; font-size: 50px; font-weight: bold;\">Correct</p>","response":null,"trial_index":136,"plugin_version":"2.1.0","time_elapsed":243645,"subject_id":"88914","group":"Group1","full_date":"2025-11-11T18:05:28.424Z","date":"2025-11-11","time":"18:05:28"},{"correct_response":"a","task":"test_phase","broad_category":"I","image_png":"I_Diorite_10.png","image_id":42,"category_name":"Diorite","category":3,"distinct_rating":2.84,"distinct_type":"Bottom","item_type":"Foil","rt":871,"stimulus":"Stimuli_Rocks480/I_Diorite_10.png","response":"a","trial_type":"image-keyboard-response","trial_index":137,"plugin_version":"2.1.0","time_elapsed":244532,"subject_id":"88914","group":"Group1","full_date":"2025-11-11T18:05:28.424Z","date":"2025-11-11","time":"18:05:28","cor_ans":true},{"trial_type":"html-keyboard-response","rt":null,"stimulus":"<p style=\"color: green; font-size: 50px; font-weight: bold;\">Correct</p>","response":null,"trial_index":138,"plugin_version":"2.1.0","time_elapsed":245034,"subject_id":"88914","group":"Group1","full_date":"2025-11-11T18:05:28.424Z","date":"2025-11-11","time":"18:05:28"},{"correct_response":"l","task":"test_phase","broad_category":"S","image_png":"S_Shale_12.png","image_id":476,"category_name":"Shale","category":30,"distinct_rating":2.48,"distinct_type":"Bottom","item_type":"Target","rt":3627,"stimulus":"Stimuli_Rocks480/S_Shale_12.png","response":"a","trial_type":"image-keyboard-response","trial_index":139,"plugin_version":"2.1.0","time_elapsed":248679,"subject_id":"88914","group":"Group1","full_date":"2025-11-11T18:05:28.424Z","date":"2025-11-11","time":"18:05:28","cor_ans":false},{"trial_type":"html-keyboard-response","rt":null,"stimulus":"<p style=\"color: red; font-size: 50px; font-weight: bold;\">Incorrect</p>","response":null,"trial_index":140,"plugin_version":"2.1.0","time_elapsed":249181,"subject_id":"88914","group":"Group1","full_date":"2025-11-11T18:05:28.424Z","date":"2025-11-11","time":"18:05:28"},{"correct_response":"l","task":"test_phase","broad_category":"M","image_png":"M_Quartzite_13.png","image_id":285,"category_name":"Quartzite","category":18,"distinct_rating":2.27,"distinct_type":"Bottom","item_type":"Target","rt":1285,"stimulus":"Stimuli_Rocks480/M_Quartzite_13.png","response":"a","trial_type":"image-keyboard-response","trial_index":141,"plugin_version":"2.1.0","time_elapsed":250482,"subject_id":"88914","group":"Group1","full_date":"2025-11-11T18:05:28.424Z","date":"2025-11-11","time":"18:05:28","cor_ans":false},{"trial_type":"html-keyboard-response","rt":null,"stimulus":"<p style=\"color: red; font-size: 50px; font-weight: bold;\">Incorrect</p>","response":null,"trial_index":142,"plugin_version":"2.1.0","time_elapsed":250984,"subject_id":"88914","group":"Group1","full_date":"2025-11-11T18:05:28.424Z","date":"2025-11-11","time":"18:05:28"},{"correct_response":"l","task":"test_phase","broad_category":"M","image_png":"M_Marble_04.png","image_id":228,"category_name":"Marble","category":15,"distinct_rating":3.15,"distinct_type":"Bottom","item_type":"Target","rt":765,"stimulus":"Stimuli_Rocks480/M_Marble_04.png","response":"l","trial_type":"image-keyboard-response","trial_index":143,"plugin_version":"2.1.0","time_elapsed":251763,"subject_id":"88914","group":"Group1","full_date":"2025-11-11T18:05:28.424Z","date":"2025-11-11","time":"18:05:28","cor_ans":true},{"trial_type":"html-keyboard-response","rt":null,"stimulus":"<p style=\"color: green; font-size: 50px; font-weight: bold;\">Correct</p>","response":null,"trial_index":144,"plugin_version":"2.1.0","time_elapsed":252265,"subject_id":"88914","group":"Group1","full_date":"2025-11-11T18:05:28.424Z","date":"2025-11-11","time":"18:05:28"},{"correct_response":"a","task":"test_phase","broad_category":"M","image_png":"M_Phyllite_02.png","image_id":258,"category_name":"Phyllite","category":17,"distinct_rating":2.89,"distinct_type":"Bottom","item_type":"Foil","rt":4671,"stimulus":"Stimuli_Rocks480/M_Phyllite_02.png","response":"l","trial_type":"image-keyboard-response","trial_index":145,"plugin_version":"2.1.0","time_elapsed":256953,"subject_id":"88914","group":"Group1","full_date":"2025-11-11T18:05:28.424Z","date":"2025-11-11","time":"18:05:28","cor_ans":false},{"trial_type":"html-keyboard-response","rt":null,"stimulus":"<p style=\"color: red; font-size: 50px; font-weight: bold;\">Incorrect</p>","response":null,"trial_index":146,"plugin_version":"2.1.0","time_elapsed":257455,"subject_id":"88914","group":"Group1","full_date":"2025-11-11T18:05:28.424Z","date":"2025-11-11","time":"18:05:28"},{"correct_response":"l","task":"test_phase","broad_category":"M","image_png":"M_Slate_03.png","image_id":307,"category_name":"Slate","category":20,"distinct_rating":1.87,"distinct_type":"Bottom","item_type":"Target","rt":871,"stimulus":"Stimuli_Rocks480/M_Slate_03.png","response":"l","trial_type":"image-keyboard-response","trial_index":147,"plugin_version":"2.1.0","time_elapsed":258338,"subject_id":"88914","group":"Group1","full_date":"2025-11-11T18:05:28.424Z","date":"2025-11-11","time":"18:05:28","cor_ans":true},{"trial_type":"html-keyboard-response","rt":null,"stimulus":"<p style=\"color: green; font-size: 50px; font-weight: bold;\">Correct</p>","response":null,"trial_index":148,"plugin_version":"2.1.0","time_elapsed":258841,"subject_id":"88914","group":"Group1","full_date":"2025-11-11T18:05:28.424Z","date":"2025-11-11","time":"18:05:28"},{"correct_response":"l","task":"test_phase","broad_category":"M","image_png":"M_Phyllite_03.png","image_id":259,"category_name":"Phyllite","category":17,"distinct_rating":2.5,"distinct_type":"Bottom","item_type":"Target","rt":2042,"stimulus":"Stimuli_Rocks480/M_Phyllite_03.png","response":"a","trial_type":"image-keyboard-response","trial_index":149,"plugin_version":"2.1.0","time_elapsed":260896,"subject_id":"88914","group":"Group1","full_date":"2025-11-11T18:05:28.424Z","date":"2025-11-11","time":"18:05:28","cor_ans":false},{"trial_type":"html-keyboard-response","rt":null,"stimulus":"<p style=\"color: red; font-size: 50px; font-weight: bold;\">Incorrect</p>","response":null,"trial_index":150,"plugin_version":"2.1.0","time_elapsed":261399,"subject_id":"88914","group":"Group1","full_date":"2025-11-11T18:05:28.424Z","date":"2025-11-11","time":"18:05:28"},{"correct_response":"a","task":"test_phase","broad_category":"I","image_png":"I_Basalt_10.png","image_id":26,"category_name":"Basalt","category":2,"distinct_rating":2.76,"distinct_type":"Bottom","item_type":"Foil","rt":1003,"stimulus":"Stimuli_Rocks480/I_Basalt_10.png","response":"a","trial_type":"image-keyboard-response","trial_index":151,"plugin_version":"2.1.0","time_elapsed":262418,"subject_id":"88914","group":"Group1","full_date":"2025-11-11T18:05:28.424Z","date":"2025-11-11","time":"18:05:28","cor_ans":true},{"trial_type":"html-keyboard-response","rt":null,"stimulus":"<p style=\"color: green; font-size: 50px; font-weight: bold;\">Correct</p>","response":null,"trial_index":152,"plugin_version":"2.1.0","time_elapsed":262920,"subject_id":"88914","group":"Group1","full_date":"2025-11-11T18:05:28.424Z","date":"2025-11-11","time":"18:05:28"},{"correct_response":"l","task":"test_phase","broad_category":"I","image_png":"I_Basalt_02.png","image_id":18,"category_name":"Basalt","category":2,"distinct_rating":1.84,"distinct_type":"Bottom","item_type":"Target","rt":1193,"stimulus":"Stimuli_Rocks480/I_Basalt_02.png","response":"a","trial_type":"image-keyboard-response","trial_index":153,"plugin_version":"2.1.0","time_elapsed":264128,"subject_id":"88914","group":"Group1","full_date":"2025-11-11T18:05:28.424Z","date":"2025-11-11","time":"18:05:28","cor_ans":false},{"trial_type":"html-keyboard-response","rt":null,"stimulus":"<p style=\"color: red; font-size: 50px; font-weight: bold;\">Incorrect</p>","response":null,"trial_index":154,"plugin_version":"2.1.0","time_elapsed":264630,"subject_id":"88914","group":"Group1","full_date":"2025-11-11T18:05:28.424Z","date":"2025-11-11","time":"18:05:28"},{"correct_response":"a","task":"test_phase","broad_category":"I","image_png":"I_Rhyolite_10.png","image_id":154,"category_name":"Rhyolite","category":10,"distinct_rating":2.88,"distinct_type":"Bottom","item_type":"Foil","rt":1113,"stimulus":"Stimuli_Rocks480/I_Rhyolite_10.png","response":"a","trial_type":"image-keyboard-response","trial_index":155,"plugin_version":"2.1.0","time_elapsed":265764,"subject_id":"88914","group":"Group1","full_date":"2025-11-11T18:05:28.424Z","date":"2025-11-11","time":"18:05:28","cor_ans":true},{"trial_type":"html-keyboard-response","rt":null,"stimulus":"<p style=\"color: green; font-size: 50px; font-weight: bold;\">Correct</p>","response":null,"trial_index":156,"plugin_version":"2.1.0","time_elapsed":266267,"subject_id":"88914","group":"Group1","full_date":"2025-11-11T18:05:28.424Z","date":"2025-11-11","time":"18:05:28"},{"correct_response":"l","task":"test_phase","broad_category":"I","image_png":"I_Pumice_12.png","image_id":140,"category_name":"Pumice","category":9,"distinct_rating":2.97,"distinct_type":"Bottom","item_type":"Target","rt":1876,"stimulus":"Stimuli_Rocks480/I_Pumice_12.png","response":"a","trial_type":"image-keyboard-response","trial_index":157,"plugin_version":"2.1.0","time_elapsed":268152,"subject_id":"88914","group":"Group1","full_date":"2025-11-11T18:05:28.424Z","date":"2025-11-11","time":"18:05:28","cor_ans":false},{"trial_type":"html-keyboard-response","rt":null,"stimulus":"<p style=\"color: red; font-size: 50px; font-weight: bold;\">Incorrect</p>","response":null,"trial_index":158,"plugin_version":"2.1.0","time_elapsed":268655,"subject_id":"88914","group":"Group1","full_date":"2025-11-11T18:05:28.424Z","date":"2025-11-11","time":"18:05:28"},{"correct_response":"a","task":"test_phase","broad_category":"I","image_png":"I_Peridotite_13.png","image_id":125,"category_name":"Peridotite","category":8,"distinct_rating":7.28,"distinct_type":"Top","item_type":"Foil","rt":781,"stimulus":"Stimuli_Rocks480/I_Peridotite_13.png","response":"a","trial_type":"image-keyboard-response","trial_index":159,"plugin_version":"2.1.0","time_elapsed":269454,"subject_id":"88914","group":"Group1","full_date":"2025-11-11T18:05:28.424Z","date":"2025-11-11","time":"18:05:28","cor_ans":true},{"trial_type":"html-keyboard-response","rt":null,"stimulus":"<p style=\"color: green; font-size: 50px; font-weight: bold;\">Correct</p>","response":null,"trial_index":160,"plugin_version":"2.1.0","time_elapsed":269956,"subject_id":"88914","group":"Group1","full_date":"2025-11-11T18:05:28.424Z","date":"2025-11-11","time":"18:05:28"},{"correct_response":"a","task":"test_phase","broad_category":"M","image_png":"M_Slate_10.png","image_id":314,"category_name":"Slate","category":20,"distinct_rating":1.94,"distinct_type":"Bottom","item_type":"Foil","rt":797,"stimulus":"Stimuli_Rocks480/M_Slate_10.png","response":"l","trial_type":"image-keyboard-response","trial_index":161,"plugin_version":"2.1.0","time_elapsed":270764,"subject_id":"88914","group":"Group1","full_date":"2025-11-11T18:05:28.424Z","date":"2025-11-11","time":"18:05:28","cor_ans":false},{"trial_type":"html-keyboard-response","rt":null,"stimulus":"<p style=\"color: red; font-size: 50px; font-weight: bold;\">Incorrect</p>","response":null,"trial_index":162,"plugin_version":"2.1.0","time_elapsed":271266,"subject_id":"88914","group":"Group1","full_date":"2025-11-11T18:05:28.424Z","date":"2025-11-11","time":"18:05:28"},{"correct_response":"a","task":"test_phase","broad_category":"I","image_png":"I_Basalt_08.png","image_id":24,"category_name":"Basalt","category":2,"distinct_rating":2.31,"distinct_type":"Bottom","item_type":"Foil","rt":965,"stimulus":"Stimuli_Rocks480/I_Basalt_08.png","response":"a","trial_type":"image-keyboard-response","trial_index":163,"plugin_version":"2.1.0","time_elapsed":272252,"subject_id":"88914","group":"Group1","full_date":"2025-11-11T18:05:28.424Z","date":"2025-11-11","time":"18:05:28","cor_ans":true},{"trial_type":"html-keyboard-response","rt":null,"stimulus":"<p style=\"color: green; font-size: 50px; font-weight: bold;\">Correct</p>","response":null,"trial_index":164,"plugin_version":"2.1.0","time_elapsed":272754,"subject_id":"88914","group":"Group1","full_date":"2025-11-11T18:05:28.424Z","date":"2025-11-11","time":"18:05:28"},{"correct_response":"l","task":"test_phase","broad_category":"S","image_png":"S_Conglomerate_05.png","image_id":373,"category_name":"Conglomerate","category":24,"distinct_rating":7.32,"distinct_type":"Top","item_type":"Target","rt":776,"stimulus":"Stimuli_Rocks480/S_Conglomerate_05.png","response":"l","trial_type":"image-keyboard-response","trial_index":165,"plugin_version":"2.1.0","time_elapsed":273544,"subject_id":"88914","group":"Group1","full_date":"2025-11-11T18:05:28.424Z","date":"2025-11-11","time":"18:05:28","cor_ans":true},{"trial_type":"html-keyboard-response","rt":null,"stimulus":"<p style=\"color: green; font-size: 50px; font-weight: bold;\">Correct</p>","response":null,"trial_index":166,"plugin_version":"2.1.0","time_elapsed":274047,"subject_id":"88914","group":"Group1","full_date":"2025-11-11T18:05:28.424Z","date":"2025-11-11","time":"18:05:28"},{"correct_response":"a","task":"test_phase","broad_category":"S","image_png":"S_Chert_13.png","image_id":365,"category_name":"Chert","category":23,"distinct_rating":6.57,"distinct_type":"Top","item_type":"Foil","rt":853,"stimulus":"Stimuli_Rocks480/S_Chert_13.png","response":"a","trial_type":"image-keyboard-response","trial_index":167,"plugin_version":"2.1.0","time_elapsed":274910,"subject_id":"88914","group":"Group1","full_date":"2025-11-11T18:05:28.424Z","date":"2025-11-11","time":"18:05:28","cor_ans":true},{"trial_type":"html-keyboard-response","rt":null,"stimulus":"<p style=\"color: green; font-size: 50px; font-weight: bold;\">Correct</p>","response":null,"trial_index":168,"plugin_version":"2.1.0","time_elapsed":275413,"subject_id":"88914","group":"Group1","full_date":"2025-11-11T18:05:28.424Z","date":"2025-11-11","time":"18:05:28"},{"correct_response":"l","task":"test_phase","broad_category":"S","image_png":"S_Dolomite_14.png","image_id":398,"category_name":"Dolomite","category":25,"distinct_rating":1.43,"distinct_type":"Bottom","item_type":"Target","rt":808,"stimulus":"Stimuli_Rocks480/S_Dolomite_14.png","response":"a","trial_type":"image-keyboard-response","trial_index":169,"plugin_version":"2.1.0","time_elapsed":276234,"subject_id":"88914","group":"Group1","full_date":"2025-11-11T18:05:28.424Z","date":"2025-11-11","time":"18:05:28","cor_ans":false},{"trial_type":"html-keyboard-response","rt":null,"stimulus":"<p style=\"color: red; font-size: 50px; font-weight: bold;\">Incorrect</p>","response":null,"trial_index":170,"plugin_version":"2.1.0","time_elapsed":276737,"subject_id":"88914","group":"Group1","full_date":"2025-11-11T18:05:28.424Z","date":"2025-11-11","time":"18:05:28"},{"correct_response":"l","task":"test_phase","broad_category":"M","image_png":"M_Marble_06.png","image_id":230,"category_name":"Marble","category":15,"distinct_rating":3.4,"distinct_type":"Bottom","item_type":"Target","rt":1077,"stimulus":"Stimuli_Rocks480/M_Marble_06.png","response":"a","trial_type":"image-keyboard-response","trial_index":171,"plugin_version":"2.1.0","time_elapsed":277829,"subject_id":"88914","group":"Group1","full_date":"2025-11-11T18:05:28.424Z","date":"2025-11-11","time":"18:05:28","cor_ans":false},{"trial_type":"html-keyboard-response","rt":null,"stimulus":"<p style=\"color: red; font-size: 50px; font-weight: bold;\">Incorrect</p>","response":null,"trial_index":172,"plugin_version":"2.1.0","time_elapsed":278331,"subject_id":"88914","group":"Group1","full_date":"2025-11-11T18:05:28.424Z","date":"2025-11-11","time":"18:05:28"},{"correct_response":"l","task":"test_phase","broad_category":"I","image_png":"I_Rhyolite_11.png","image_id":155,"category_name":"Rhyolite","category":10,"distinct_rating":1.73,"distinct_type":"Bottom","item_type":"Target","rt":1770,"stimulus":"Stimuli_Rocks480/I_Rhyolite_11.png","response":"a","trial_type":"image-keyboard-response","trial_index":173,"plugin_version":"2.1.0","time_elapsed":280114,"subject_id":"88914","group":"Group1","full_date":"2025-11-11T18:05:28.424Z","date":"2025-11-11","time":"18:05:28","cor_ans":false},{"trial_type":"html-keyboard-response","rt":null,"stimulus":"<p style=\"color: red; font-size: 50px; font-weight: bold;\">Incorrect</p>","response":null,"trial_index":174,"plugin_version":"2.1.0","time_elapsed":280617,"subject_id":"88914","group":"Group1","full_date":"2025-11-11T18:05:28.424Z","date":"2025-11-11","time":"18:05:28"},{"correct_response":"l","task":"test_phase","broad_category":"S","image_png":"S_Sandstone_15.png","image_id":463,"category_name":"Sandstone","category":29,"distinct_rating":2,"distinct_type":"Bottom","item_type":"Target","rt":690,"stimulus":"Stimuli_Rocks480/S_Sandstone_15.png","response":"a","trial_type":"image-keyboard-response","trial_index":175,"plugin_version":"2.1.0","time_elapsed":281323,"subject_id":"88914","group":"Group1","full_date":"2025-11-11T18:05:28.424Z","date":"2025-11-11","time":"18:05:28","cor_ans":false},{"trial_type":"html-keyboard-response","rt":null,"stimulus":"<p style=\"color: red; font-size: 50px; font-weight: bold;\">Incorrect</p>","response":null,"trial_index":176,"plugin_version":"2.1.0","time_elapsed":281825,"subject_id":"88914","group":"Group1","full_date":"2025-11-11T18:05:28.424Z","date":"2025-11-11","time":"18:05:28"},{"correct_response":"l","task":"test_phase","broad_category":"S","image_png":"S_Shale_01.png","image_id":465,"category_name":"Shale","category":30,"distinct_rating":2.7,"distinct_type":"Bottom","item_type":"Target","rt":731,"stimulus":"Stimuli_Rocks480/S_Shale_01.png","response":"a","trial_type":"image-keyboard-response","trial_index":177,"plugin_version":"2.1.0","time_elapsed":282571,"subject_id":"88914","group":"Group1","full_date":"2025-11-11T18:05:28.424Z","date":"2025-11-11","time":"18:05:28","cor_ans":false},{"trial_type":"html-keyboard-response","rt":null,"stimulus":"<p style=\"color: red; font-size: 50px; font-weight: bold;\">Incorrect</p>","response":null,"trial_index":178,"plugin_version":"2.1.0","time_elapsed":283073,"subject_id":"88914","group":"Group1","full_date":"2025-11-11T18:05:28.424Z","date":"2025-11-11","time":"18:05:28"},{"correct_response":"a","task":"test_phase","broad_category":"S","image_png":"S_Sandstone_08.png","image_id":456,"category_name":"Sandstone","category":29,"distinct_rating":1.5,"distinct_type":"Bottom","item_type":"Foil","rt":792,"stimulus":"Stimuli_Rocks480/S_Sandstone_08.png","response":"a","trial_type":"image-keyboard-response","trial_index":179,"plugin_version":"2.1.0","time_elapsed":283882,"subject_id":"88914","group":"Group1","full_date":"2025-11-11T18:05:28.424Z","date":"2025-11-11","time":"18:05:28","cor_ans":true},{"trial_type":"html-keyboard-response","rt":null,"stimulus":"<p style=\"color: green; font-size: 50px; font-weight: bold;\">Correct</p>","response":null,"trial_index":180,"plugin_version":"2.1.0","time_elapsed":284384,"subject_id":"88914","group":"Group1","full_date":"2025-11-11T18:05:28.424Z","date":"2025-11-11","time":"18:05:28"},{"correct_response":"l","task":"test_phase","broad_category":"I","image_png":"I_Pegmatite_10.png","image_id":106,"category_name":"Pegmatite","category":7,"distinct_rating":7.66,"distinct_type":"Top","item_type":"Target","rt":804,"stimulus":"Stimuli_Rocks480/I_Pegmatite_10.png","response":"l","trial_type":"image-keyboard-response","trial_index":181,"plugin_version":"2.1.0","time_elapsed":285200,"subject_id":"88914","group":"Group1","full_date":"2025-11-11T18:05:28.424Z","date":"2025-11-11","time":"18:05:28","cor_ans":true},{"trial_type":"html-keyboard-response","rt":null,"stimulus":"<p style=\"color: green; font-size: 50px; font-weight: bold;\">Correct</p>","response":null,"trial_index":182,"plugin_version":"2.1.0","time_elapsed":285702,"subject_id":"88914","group":"Group1","full_date":"2025-11-11T18:05:28.424Z","date":"2025-11-11","time":"18:05:28"},{"correct_response":"l","task":"test_phase","broad_category":"I","image_png":"I_Andesite_06.png","image_id":6,"category_name":"Andesite","category":1,"distinct_rating":3.17,"distinct_type":"Bottom","item_type":"Target","rt":2058,"stimulus":"Stimuli_Rocks480/I_Andesite_06.png","response":"a","trial_type":"image-keyboard-response","trial_index":183,"plugin_version":"2.1.0","time_elapsed":287777,"subject_id":"88914","group":"Group1","full_date":"2025-11-11T18:05:28.424Z","date":"2025-11-11","time":"18:05:28","cor_ans":false},{"trial_type":"html-keyboard-response","rt":null,"stimulus":"<p style=\"color: red; font-size: 50px; font-weight: bold;\">Incorrect</p>","response":null,"trial_index":184,"plugin_version":"2.1.0","time_elapsed":288279,"subject_id":"88914","group":"Group1","full_date":"2025-11-11T18:05:28.424Z","date":"2025-11-11","time":"18:05:28"},{"correct_response":"a","task":"test_phase","broad_category":"I","image_png":"I_Andesite_03.png","image_id":3,"category_name":"Andesite","category":1,"distinct_rating":3.17,"distinct_type":"Bottom","item_type":"Foil","rt":838,"stimulus":"Stimuli_Rocks480/I_Andesite_03.png","response":"a","trial_type":"image-keyboard-response","trial_index":185,"plugin_version":"2.1.0","time_elapsed":289127,"subject_id":"88914","group":"Group1","full_date":"2025-11-11T18:05:28.424Z","date":"2025-11-11","time":"18:05:28","cor_ans":true},{"trial_type":"html-keyboard-response","rt":null,"stimulus":"<p style=\"color: green; font-size: 50px; font-weight: bold;\">Correct</p>","response":null,"trial_index":186,"plugin_version":"2.1.0","time_elapsed":289629,"subject_id":"88914","group":"Group1","full_date":"2025-11-11T18:05:28.424Z","date":"2025-11-11","time":"18:05:28"},{"correct_response":"a","task":"test_phase","broad_category":"M","image_png":"M_Marble_02.png","image_id":226,"category_name":"Marble","category":15,"distinct_rating":3.2,"distinct_type":"Bottom","item_type":"Foil","rt":1275,"stimulus":"Stimuli_Rocks480/M_Marble_02.png","response":"l","trial_type":"image-keyboard-response","trial_index":187,"plugin_version":"2.1.0","time_elapsed":290917,"subject_id":"88914","group":"Group1","full_date":"2025-11-11T18:05:28.424Z","date":"2025-11-11","time":"18:05:28","cor_ans":false},{"trial_type":"html-keyboard-response","rt":null,"stimulus":"<p style=\"color: red; font-size: 50px; font-weight: bold;\">Incorrect</p>","response":null,"trial_index":188,"plugin_version":"2.1.0","time_elapsed":291419,"subject_id":"88914","group":"Group1","full_date":"2025-11-11T18:05:28.424Z","date":"2025-11-11","time":"18:05:28"},{"correct_response":"l","task":"test_phase","broad_category":"S","image_png":"S_Rock Salt_01.png","image_id":433,"category_name":"Rock Salt","category":28,"distinct_rating":7.18,"distinct_type":"Top","item_type":"Target","rt":600,"stimulus":"Stimuli_Rocks480/S_Rock Salt_01.png","response":"a","trial_type":"image-keyboard-response","trial_index":189,"plugin_version":"2.1.0","time_elapsed":292038,"subject_id":"88914","group":"Group1","full_date":"2025-11-11T18:05:28.424Z","date":"2025-11-11","time":"18:05:28","cor_ans":false},{"trial_type":"html-keyboard-response","rt":null,"stimulus":"<p style=\"color: red; font-size: 50px; font-weight: bold;\">Incorrect</p>","response":null,"trial_index":190,"plugin_version":"2.1.0","time_elapsed":292541,"subject_id":"88914","group":"Group1","full_date":"2025-11-11T18:05:28.424Z","date":"2025-11-11","time":"18:05:28"},{"correct_response":"l","task":"test_phase","broad_category":"S","image_png":"S_Breccia_11.png","image_id":347,"category_name":"Breccia","category":22,"distinct_rating":6.7,"distinct_type":"Top","item_type":"Target","rt":982,"stimulus":"Stimuli_Rocks480/S_Breccia_11.png","response":"l","trial_type":"image-keyboard-response","trial_index":191,"plugin_version":"2.1.0","time_elapsed":293548,"subject_id":"88914","group":"Group1","full_date":"2025-11-11T18:05:28.424Z","date":"2025-11-11","time":"18:05:28","cor_ans":true},{"trial_type":"html-keyboard-response","rt":null,"stimulus":"<p style=\"color: green; font-size: 50px; font-weight: bold;\">Correct</p>","response":null,"trial_index":192,"plugin_version":"2.1.0","time_elapsed":294051,"subject_id":"88914","group":"Group1","full_date":"2025-11-11T18:05:28.424Z","date":"2025-11-11","time":"18:05:28"},{"correct_response":"a","task":"test_phase","broad_category":"S","image_png":"S_Rock Salt_13.png","image_id":445,"category_name":"Rock Salt","category":28,"distinct_rating":7.58,"distinct_type":"Top","item_type":"Foil","rt":2578,"stimulus":"Stimuli_Rocks480/S_Rock Salt_13.png","response":"a","trial_type":"image-keyboard-response","trial_index":193,"plugin_version":"2.1.0","time_elapsed":296647,"subject_id":"88914","group":"Group1","full_date":"2025-11-11T18:05:28.424Z","date":"2025-11-11","time":"18:05:28","cor_ans":true},{"trial_type":"html-keyboard-response","rt":null,"stimulus":"<p style=\"color: green; font-size: 50px; font-weight: bold;\">Correct</p>","response":null,"trial_index":194,"plugin_version":"2.1.0","time_elapsed":297150,"subject_id":"88914","group":"Group1","full_date":"2025-11-11T18:05:28.424Z","date":"2025-11-11","time":"18:05:28"},{"correct_response":"a","task":"test_phase","broad_category":"M","image_png":"M_Slate_14.png","image_id":318,"category_name":"Slate","category":20,"distinct_rating":2.58,"distinct_type":"Bottom","item_type":"Foil","rt":1140,"stimulus":"Stimuli_Rocks480/M_Slate_14.png","response":"a","trial_type":"image-keyboard-response","trial_index":195,"plugin_version":"2.1.0","time_elapsed":298301,"subject_id":"88914","group":"Group1","full_date":"2025-11-11T18:05:28.424Z","date":"2025-11-11","time":"18:05:28","cor_ans":true},{"trial_type":"html-keyboard-response","rt":null,"stimulus":"<p style=\"color: green; font-size: 50px; font-weight: bold;\">Correct</p>","response":null,"trial_index":196,"plugin_version":"2.1.0","time_elapsed":298803,"subject_id":"88914","group":"Group1","full_date":"2025-11-11T18:05:28.424Z","date":"2025-11-11","time":"18:05:28"},{"correct_response":"l","task":"test_phase","broad_category":"S","image_png":"S_Sandstone_03.png","image_id":451,"category_name":"Sandstone","category":29,"distinct_rating":1.86,"distinct_type":"Bottom","item_type":"Target","rt":2016,"stimulus":"Stimuli_Rocks480/S_Sandstone_03.png","response":"l","trial_type":"image-keyboard-response","trial_index":197,"plugin_version":"2.1.0","time_elapsed":300835,"subject_id":"88914","group":"Group1","full_date":"2025-11-11T18:05:28.424Z","date":"2025-11-11","time":"18:05:28","cor_ans":true},{"trial_type":"html-keyboard-response","rt":null,"stimulus":"<p style=\"color: green; font-size: 50px; font-weight: bold;\">Correct</p>","response":null,"trial_index":198,"plugin_version":"2.1.0","time_elapsed":301337,"subject_id":"88914","group":"Group1","full_date":"2025-11-11T18:05:28.424Z","date":"2025-11-11","time":"18:05:28"},{"correct_response":"a","task":"test_phase","broad_category":"S","image_png":"S_Sandstone_04.png","image_id":452,"category_name":"Sandstone","category":29,"distinct_rating":1.8,"distinct_type":"Bottom","item_type":"Foil","rt":847,"stimulus":"Stimuli_Rocks480/S_Sandstone_04.png","response":"l","trial_type":"image-keyboard-response","trial_index":199,"plugin_version":"2.1.0","time_elapsed":302200,"subject_id":"88914","group":"Group1","full_date":"2025-11-11T18:05:28.424Z","date":"2025-11-11","time":"18:05:28","cor_ans":false},{"trial_type":"html-keyboard-response","rt":null,"stimulus":"<p style=\"color: red; font-size: 50px; font-weight: bold;\">Incorrect</p>","response":null,"trial_index":200,"plugin_version":"2.1.0","time_elapsed":302702,"subject_id":"88914","group":"Group1","full_date":"2025-11-11T18:05:28.424Z","date":"2025-11-11","time":"18:05:28"},{"correct_response":"l","task":"test_phase","broad_category":"S","image_png":"S_Shale_08.png","image_id":472,"category_name":"Shale","category":30,"distinct_rating":2.55,"distinct_type":"Bottom","item_type":"Target","rt":1871,"stimulus":"Stimuli_Rocks480/S_Shale_08.png","response":"a","trial_type":"image-keyboard-response","trial_index":201,"plugin_version":"2.1.0","time_elapsed":304589,"subject_id":"88914","group":"Group1","full_date":"2025-11-11T18:05:28.424Z","date":"2025-11-11","time":"18:05:28","cor_ans":false},{"trial_type":"html-keyboard-response","rt":null,"stimulus":"<p style=\"color: red; font-size: 50px; font-weight: bold;\">Incorrect</p>","response":null,"trial_index":202,"plugin_version":"2.1.0","time_elapsed":305091,"subject_id":"88914","group":"Group1","full_date":"2025-11-11T18:05:28.424Z","date":"2025-11-11","time":"18:05:28"},{"correct_response":"l","task":"test_phase","broad_category":"M","image_png":"M_Gneiss_05.png","image_id":197,"category_name":"Gneiss","category":13,"distinct_rating":2.97,"distinct_type":"Bottom","item_type":"Target","rt":797,"stimulus":"Stimuli_Rocks480/M_Gneiss_05.png","response":"l","trial_type":"image-keyboard-response","trial_index":203,"plugin_version":"2.1.0","time_elapsed":305907,"subject_id":"88914","group":"Group1","full_date":"2025-11-11T18:05:28.424Z","date":"2025-11-11","time":"18:05:28","cor_ans":true},{"trial_type":"html-keyboard-response","rt":null,"stimulus":"<p style=\"color: green; font-size: 50px; font-weight: bold;\">Correct</p>","response":null,"trial_index":204,"plugin_version":"2.1.0","time_elapsed":306410,"subject_id":"88914","group":"Group1","full_date":"2025-11-11T18:05:28.424Z","date":"2025-11-11","time":"18:05:28"},{"correct_response":"a","task":"test_phase","broad_category":"S","image_png":"S_Shale_07.png","image_id":471,"category_name":"Shale","category":30,"distinct_rating":2.73,"distinct_type":"Bottom","item_type":"Foil","rt":1139,"stimulus":"Stimuli_Rocks480/S_Shale_07.png","response":"l","trial_type":"image-keyboard-response","trial_index":205,"plugin_version":"2.1.0","time_elapsed":307562,"subject_id":"88914","group":"Group1","full_date":"2025-11-11T18:05:28.424Z","date":"2025-11-11","time":"18:05:28","cor_ans":false},{"trial_type":"html-keyboard-response","rt":null,"stimulus":"<p style=\"color: red; font-size: 50px; font-weight: bold;\">Incorrect</p>","response":null,"trial_index":206,"plugin_version":"2.1.0","time_elapsed":308064,"subject_id":"88914","group":"Group1","full_date":"2025-11-11T18:05:28.424Z","date":"2025-11-11","time":"18:05:28"},{"correct_response":"a","task":"test_phase","broad_category":"I","image_png":"I_Pegmatite_11.png","image_id":107,"category_name":"Pegmatite","category":7,"distinct_rating":7.11,"distinct_type":"Top","item_type":"Foil","rt":619,"stimulus":"Stimuli_Rocks480/I_Pegmatite_11.png","response":"l","trial_type":"image-keyboard-response","trial_index":207,"plugin_version":"2.1.0","time_elapsed":308700,"subject_id":"88914","group":"Group1","full_date":"2025-11-11T18:05:28.424Z","date":"2025-11-11","time":"18:05:28","cor_ans":false},{"trial_type":"html-keyboard-response","rt":null,"stimulus":"<p style=\"color: red; font-size: 50px; font-weight: bold;\">Incorrect</p>","response":null,"trial_index":208,"plugin_version":"2.1.0","time_elapsed":309203,"subject_id":"88914","group":"Group1","full_date":"2025-11-11T18:05:28.424Z","date":"2025-11-11","time":"18:05:28"},{"correct_response":"a","task":"test_phase","broad_category":"I","image_png":"I_Rhyolite_08.png","image_id":152,"category_name":"Rhyolite","category":10,"distinct_rating":1.38,"distinct_type":"Bottom","item_type":"Foil","rt":511,"stimulus":"Stimuli_Rocks480/I_Rhyolite_08.png","response":"l","trial_type":"image-keyboard-response","trial_index":209,"plugin_version":"2.1.0","time_elapsed":309728,"subject_id":"88914","group":"Group1","full_date":"2025-11-11T18:05:28.424Z","date":"2025-11-11","time":"18:05:28","cor_ans":false},{"trial_type":"html-keyboard-response","rt":null,"stimulus":"<p style=\"color: red; font-size: 50px; font-weight: bold;\">Incorrect</p>","response":null,"trial_index":210,"plugin_version":"2.1.0","time_elapsed":310230,"subject_id":"88914","group":"Group1","full_date":"2025-11-11T18:05:28.424Z","date":"2025-11-11","time":"18:05:28"},{"correct_response":"l","task":"test_phase","broad_category":"M","image_png":"M_Marble_16.png","image_id":240,"category_name":"Marble","category":15,"distinct_rating":2.57,"distinct_type":"Bottom","item_type":"Target","rt":555,"stimulus":"Stimuli_Rocks480/M_Marble_16.png","response":"l","trial_type":"image-keyboard-response","trial_index":211,"plugin_version":"2.1.0","time_elapsed":310800,"subject_id":"88914","group":"Group1","full_date":"2025-11-11T18:05:28.424Z","date":"2025-11-11","time":"18:05:28","cor_ans":true},{"trial_type":"html-keyboard-response","rt":null,"stimulus":"<p style=\"color: green; font-size: 50px; font-weight: bold;\">Correct</p>","response":null,"trial_index":212,"plugin_version":"2.1.0","time_elapsed":311302,"subject_id":"88914","group":"Group1","full_date":"2025-11-11T18:05:28.424Z","date":"2025-11-11","time":"18:05:28"},{"correct_response":"a","task":"test_phase","broad_category":"M","image_png":"M_Quartzite_15.png","image_id":287,"category_name":"Quartzite","category":18,"distinct_rating":2.19,"distinct_type":"Bottom","item_type":"Foil","rt":1509,"stimulus":"Stimuli_Rocks480/M_Quartzite_15.png","response":"a","trial_type":"image-keyboard-response","trial_index":213,"plugin_version":"2.1.0","time_elapsed":312826,"subject_id":"88914","group":"Group1","full_date":"2025-11-11T18:05:28.424Z","date":"2025-11-11","time":"18:05:28","cor_ans":true},{"trial_type":"html-keyboard-response","rt":null,"stimulus":"<p style=\"color: green; font-size: 50px; font-weight: bold;\">Correct</p>","response":null,"trial_index":214,"plugin_version":"2.1.0","time_elapsed":313329,"subject_id":"88914","group":"Group1","full_date":"2025-11-11T18:05:28.424Z","date":"2025-11-11","time":"18:05:28"},{"correct_response":"a","task":"test_phase","broad_category":"M","image_png":"M_Quartzite_07.png","image_id":279,"category_name":"Quartzite","category":18,"distinct_rating":1.97,"distinct_type":"Bottom","item_type":"Foil","rt":942,"stimulus":"Stimuli_Rocks480/M_Quartzite_07.png","response":"a","trial_type":"image-keyboard-response","trial_index":215,"plugin_version":"2.1.0","time_elapsed":314289,"subject_id":"88914","group":"Group1","full_date":"2025-11-11T18:05:28.424Z","date":"2025-11-11","time":"18:05:28","cor_ans":true},{"trial_type":"html-keyboard-response","rt":null,"stimulus":"<p style=\"color: green; font-size: 50px; font-weight: bold;\">Correct</p>","response":null,"trial_index":216,"plugin_version":"2.1.0","time_elapsed":314791,"subject_id":"88914","group":"Group1","full_date":"2025-11-11T18:05:28.424Z","date":"2025-11-11","time":"18:05:28"},{"correct_response":"a","task":"test_phase","broad_category":"S","image_png":"S_Dolomite_07.png","image_id":391,"category_name":"Dolomite","category":25,"distinct_rating":1.73,"distinct_type":"Bottom","item_type":"Foil","rt":1086,"stimulus":"Stimuli_Rocks480/S_Dolomite_07.png","response":"a","trial_type":"image-keyboard-response","trial_index":217,"plugin_version":"2.1.0","time_elapsed":315895,"subject_id":"88914","group":"Group1","full_date":"2025-11-11T18:05:28.424Z","date":"2025-11-11","time":"18:05:28","cor_ans":true},{"trial_type":"html-keyboard-response","rt":null,"stimulus":"<p style=\"color: green; font-size: 50px; font-weight: bold;\">Correct</p>","response":null,"trial_index":218,"plugin_version":"2.1.0","time_elapsed":316398,"subject_id":"88914","group":"Group1","full_date":"2025-11-11T18:05:28.424Z","date":"2025-11-11","time":"18:05:28"},{"correct_response":"a","task":"test_phase","broad_category":"I","image_png":"I_Andesite_04.png","image_id":4,"category_name":"Andesite","category":1,"distinct_rating":3.18,"distinct_type":"Bottom","item_type":"Foil","rt":744,"stimulus":"Stimuli_Rocks480/I_Andesite_04.png","response":"a","trial_type":"image-keyboard-response","trial_index":219,"plugin_version":"2.1.0","time_elapsed":317155,"subject_id":"88914","group":"Group1","full_date":"2025-11-11T18:05:28.424Z","date":"2025-11-11","time":"18:05:28","cor_ans":true},{"trial_type":"html-keyboard-response","rt":null,"stimulus":"<p style=\"color: green; font-size: 50px; font-weight: bold;\">Correct</p>","response":null,"trial_index":220,"plugin_version":"2.1.0","time_elapsed":317657,"subject_id":"88914","group":"Group1","full_date":"2025-11-11T18:05:28.424Z","date":"2025-11-11","time":"18:05:28"},{"correct_response":"a","task":"test_phase","broad_category":"S","image_png":"S_Conglomerate_14.png","image_id":382,"category_name":"Conglomerate","category":24,"distinct_rating":6.86,"distinct_type":"Top","item_type":"Foil","rt":1749,"stimulus":"Stimuli_Rocks480/S_Conglomerate_14.png","response":"a","trial_type":"image-keyboard-response","trial_index":221,"plugin_version":"2.1.0","time_elapsed":319425,"subject_id":"88914","group":"Group1","full_date":"2025-11-11T18:05:28.424Z","date":"2025-11-11","time":"18:05:28","cor_ans":true},{"trial_type":"html-keyboard-response","rt":null,"stimulus":"<p style=\"color: green; font-size: 50px; font-weight: bold;\">Correct</p>","response":null,"trial_index":222,"plugin_version":"2.1.0","time_elapsed":319928,"subject_id":"88914","group":"Group1","full_date":"2025-11-11T18:05:28.424Z","date":"2025-11-11","time":"18:05:28"},{"correct_response":"l","task":"test_phase","broad_category":"M","image_png":"M_Slate_15.png","image_id":319,"category_name":"Slate","category":20,"distinct_rating":2.13,"distinct_type":"Bottom","item_type":"Target","rt":1620,"stimulus":"Stimuli_Rocks480/M_Slate_15.png","response":"a","trial_type":"image-keyboard-response","trial_index":223,"plugin_version":"2.1.0","time_elapsed":321559,"subject_id":"88914","group":"Group1","full_date":"2025-11-11T18:05:28.424Z","date":"2025-11-11","time":"18:05:28","cor_ans":false},{"trial_type":"html-keyboard-response","rt":null,"stimulus":"<p style=\"color: red; font-size: 50px; font-weight: bold;\">Incorrect</p>","response":null,"trial_index":224,"plugin_version":"2.1.0","time_elapsed":322062,"subject_id":"88914","group":"Group1","full_date":"2025-11-11T18:05:28.424Z","date":"2025-11-11","time":"18:05:28"},{"correct_response":"l","task":"test_phase","broad_category":"I","image_png":"I_Obsidian_05.png","image_id":85,"category_name":"Obsidian","category":6,"distinct_rating":7.32,"distinct_type":"Top","item_type":"Target","rt":633,"stimulus":"Stimuli_Rocks480/I_Obsidian_05.png","response":"a","trial_type":"image-keyboard-response","trial_index":225,"plugin_version":"2.1.0","time_elapsed":322710,"subject_id":"88914","group":"Group1","full_date":"2025-11-11T18:05:28.424Z","date":"2025-11-11","time":"18:05:28","cor_ans":false},{"trial_type":"html-keyboard-response","rt":null,"stimulus":"<p style=\"color: red; font-size: 50px; font-weight: bold;\">Incorrect</p>","response":null,"trial_index":226,"plugin_version":"2.1.0","time_elapsed":323213,"subject_id":"88914","group":"Group1","full_date":"2025-11-11T18:05:28.424Z","date":"2025-11-11","time":"18:05:28"},{"correct_response":"a","task":"test_phase","broad_category":"M","image_png":"M_Marble_14.png","image_id":238,"category_name":"Marble","category":15,"distinct_rating":3.31,"distinct_type":"Bottom","item_type":"Foil","rt":428,"stimulus":"Stimuli_Rocks480/M_Marble_14.png","response":"l","trial_type":"image-keyboard-response","trial_index":227,"plugin_version":"2.1.0","time_elapsed":323656,"subject_id":"88914","group":"Group1","full_date":"2025-11-11T18:05:28.424Z","date":"2025-11-11","time":"18:05:28","cor_ans":false},{"trial_type":"html-keyboard-response","rt":null,"stimulus":"<p style=\"color: red; font-size: 50px; font-weight: bold;\">Incorrect</p>","response":null,"trial_index":228,"plugin_version":"2.1.0","time_elapsed":324159,"subject_id":"88914","group":"Group1","full_date":"2025-11-11T18:05:28.424Z","date":"2025-11-11","time":"18:05:28"},{"correct_response":"a","task":"test_phase","broad_category":"M","image_png":"M_Quartzite_12.png","image_id":284,"category_name":"Quartzite","category":18,"distinct_rating":1.92,"distinct_type":"Bottom","item_type":"Foil","rt":1105,"stimulus":"Stimuli_Rocks480/M_Quartzite_12.png","response":"a","trial_type":"image-keyboard-response","trial_index":229,"plugin_version":"2.1.0","time_elapsed":325276,"subject_id":"88914","group":"Group1","full_date":"2025-11-11T18:05:28.424Z","date":"2025-11-11","time":"18:05:28","cor_ans":true},{"trial_type":"html-keyboard-response","rt":null,"stimulus":"<p style=\"color: green; font-size: 50px; font-weight: bold;\">Correct</p>","response":null,"trial_index":230,"plugin_version":"2.1.0","time_elapsed":325779,"subject_id":"88914","group":"Group1","full_date":"2025-11-11T18:05:28.424Z","date":"2025-11-11","time":"18:05:28"},{"correct_response":"a","task":"test_phase","broad_category":"S","image_png":"S_Shale_02.png","image_id":466,"category_name":"Shale","category":30,"distinct_rating":2.9,"distinct_type":"Bottom","item_type":"Foil","rt":740,"stimulus":"Stimuli_Rocks480/S_Shale_02.png","response":"a","trial_type":"image-keyboard-response","trial_index":231,"plugin_version":"2.1.0","time_elapsed":326532,"subject_id":"88914","group":"Group1","full_date":"2025-11-11T18:05:28.424Z","date":"2025-11-11","time":"18:05:28","cor_ans":true},{"trial_type":"html-keyboard-response","rt":null,"stimulus":"<p style=\"color: green; font-size: 50px; font-weight: bold;\">Correct</p>","response":null,"trial_index":232,"plugin_version":"2.1.0","time_elapsed":327035,"subject_id":"88914","group":"Group1","full_date":"2025-11-11T18:05:28.424Z","date":"2025-11-11","time":"18:05:28"},{"correct_response":"l","task":"test_phase","broad_category":"I","image_png":"I_Gabbro_08.png","image_id":56,"category_name":"Gabbro","category":4,"distinct_rating":3.02,"distinct_type":"Bottom","item_type":"Target","rt":661,"stimulus":"Stimuli_Rocks480/I_Gabbro_08.png","response":"a","trial_type":"image-keyboard-response","trial_index":233,"plugin_version":"2.1.0","time_elapsed":327709,"subject_id":"88914","group":"Group1","full_date":"2025-11-11T18:05:28.424Z","date":"2025-11-11","time":"18:05:28","cor_ans":false},{"trial_type":"html-keyboard-response","rt":null,"stimulus":"<p style=\"color: red; font-size: 50px; font-weight: bold;\">Incorrect</p>","response":null,"trial_index":234,"plugin_version":"2.1.0","time_elapsed":328212,"subject_id":"88914","group":"Group1","full_date":"2025-11-11T18:05:28.424Z","date":"2025-11-11","time":"18:05:28"},{"correct_response":"a","task":"test_phase","broad_category":"S","image_png":"S_Dolomite_01.png","image_id":385,"category_name":"Dolomite","category":25,"distinct_rating":1.43,"distinct_type":"Bottom","item_type":"Foil","rt":2083,"stimulus":"Stimuli_Rocks480/S_Dolomite_01.png","response":"a","trial_type":"image-keyboard-response","trial_index":235,"plugin_version":"2.1.0","time_elapsed":330312,"subject_id":"88914","group":"Group1","full_date":"2025-11-11T18:05:28.424Z","date":"2025-11-11","time":"18:05:28","cor_ans":true},{"trial_type":"html-keyboard-response","rt":