[{"width":1351,"height":687,"webaudio":true,"browser":"chrome","browser_version":"142.0.0","mobile":false,"os":"Mac OS","fullscreen":true,"vsync_rate":60.44,"webcam":true,"microphone":true,"trial_type":"browser-check","trial_index":0,"plugin_version":"2.1.0","time_elapsed":1005,"subject_id":"89034","group":"Group1","full_date":"2025-11-12T18:31:12.926Z","date":"2025-11-12","time":"18:31:12"},{"success":true,"timeout":false,"failed_images":[],"failed_audio":[],"failed_video":[],"trial_type":"preload","trial_index":1,"plugin_version":"2.1.0","time_elapsed":5818,"subject_id":"89034","group":"Group1","full_date":"2025-11-12T18:31:12.926Z","date":"2025-11-12","time":"18:31:12"},{"rt":11810,"url":"SONA_consent_memorability.html","trial_type":"external-html","trial_index":2,"plugin_version":"2.1.0","time_elapsed":17684,"subject_id":"89034","group":"Group1","full_date":"2025-11-12T18:31:12.926Z","date":"2025-11-12","time":"18:31:12"},{"success":true,"rt":1402,"trial_type":"fullscreen","trial_index":3,"plugin_version":"2.1.0","time_elapsed":20090,"subject_id":"89034","group":"Group1","full_date":"2025-11-12T18:31:12.926Z","date":"2025-11-12","time":"18:31:12"},{"rt":14037,"stimulus":"<div style=\"max-width: 760px; margin: auto; font-size: 20px; line-height: 1.5;\">\n      <h1 style=\"text-align:center; font-size: 30px;\">Instructions</h1>\n      <p>\n        Welcome to the study on <b>visual memory</b>. This experiment consists of <b>two phases</b>: \n        a <b>study phase</b> and a <b>test phase</b>.\n      </p>\n      <p>\n        In the study phase, you will see a series of rock images along with their category labels.\n        The images will appear one at a time.\n        <b>Your task</b> is to learn the categories to which the rock images belong \n        and to remember each image as accurately as possible.\n      </p> \n      <p>\n        After the study phase, <b>your memory will be tested</b>. \n        Additional instructions for the test phase will be provided at that time.\n      </p>\n      <p>\n        If your computer has multiple <b>language settings</b> (e.g., English and another language),\n        please make sure it is set to English before starting.\n      </p>\n      <p>\n        You can track your progress using the <b>completion bar</b> at the top of the screen. \n        Please note that the bar will refresh when the test phase begins \n        to give you an accurate sense of your progress in both phases.\n      </p> \n      <p>\n        Press the button below when you are ready to begin.\n      </p>\n    </div>","response":0,"trial_type":"html-button-response","trial_index":4,"plugin_version":"2.1.0","time_elapsed":34129,"subject_id":"89034","group":"Group1","full_date":"2025-11-12T18:31:12.926Z","date":"2025-11-12","time":"18:31:12"},{"rt":null,"stimulus":"<p style=\"font-size: 50px; margin: 0; text-align: center;\">+</p>","response":null,"trial_type":"html-keyboard-response","trial_index":5,"plugin_version":"2.1.0","time_elapsed":35133,"subject_id":"89034","group":"Group1","full_date":"2025-11-12T18:31:12.926Z","date":"2025-11-12","time":"18:31:12"},{"task":"memory_phase","broad_category":"I","image_png":"I_Pumice_11.png","image_id":139,"category_name":"Pumice","category":9,"distinct_rating":1.74,"distinct_type":"Bottom","rt":null,"stimulus":"Stimuli_Rocks480/I_Pumice_11.png","response":null,"trial_type":"image-keyboard-response","trial_index":6,"plugin_version":"2.1.0","time_elapsed":37639,"subject_id":"89034","group":"Group1","full_date":"2025-11-12T18:31:12.926Z","date":"2025-11-12","time":"18:31:12"},{"rt":null,"stimulus":"<p style=\"font-size: 50px; margin: 0; text-align: center;\">+</p>","response":null,"trial_type":"html-keyboard-response","trial_index":7,"plugin_version":"2.1.0","time_elapsed":38640,"subject_id":"89034","group":"Group1","full_date":"2025-11-12T18:31:12.926Z","date":"2025-11-12","time":"18:31:12"},{"task":"memory_phase","broad_category":"I","image_png":"I_Rhyolite_11.png","image_id":155,"category_name":"Rhyolite","category":10,"distinct_rating":1.73,"distinct_type":"Bottom","rt":null,"stimulus":"Stimuli_Rocks480/I_Rhyolite_11.png","response":null,"trial_type":"image-keyboard-response","trial_index":8,"plugin_version":"2.1.0","time_elapsed":41144,"subject_id":"89034","group":"Group1","full_date":"2025-11-12T18:31:12.926Z","date":"2025-11-12","time":"18:31:12"},{"rt":null,"stimulus":"<p style=\"font-size: 50px; margin: 0; text-align: center;\">+</p>","response":null,"trial_type":"html-keyboard-response","trial_index":9,"plugin_version":"2.1.0","time_elapsed":42146,"subject_id":"89034","group":"Group1","full_date":"2025-11-12T18:31:12.926Z","date":"2025-11-12","time":"18:31:12"},{"task":"memory_phase","broad_category":"M","image_png":"M_Slate_15.png","image_id":319,"category_name":"Slate","category":20,"distinct_rating":2.13,"distinct_type":"Bottom","rt":null,"stimulus":"Stimuli_Rocks480/M_Slate_15.png","response":null,"trial_type":"image-keyboard-response","trial_index":10,"plugin_version":"2.1.0","time_elapsed":44650,"subject_id":"89034","group":"Group1","full_date":"2025-11-12T18:31:12.926Z","date":"2025-11-12","time":"18:31:12"},{"rt":null,"stimulus":"<p style=\"font-size: 50px; margin: 0; text-align: center;\">+</p>","response":null,"trial_type":"html-keyboard-response","trial_index":11,"plugin_version":"2.1.0","time_elapsed":45653,"subject_id":"89034","group":"Group1","full_date":"2025-11-12T18:31:12.926Z","date":"2025-11-12","time":"18:31:12"},{"task":"memory_phase","broad_category":"M","image_png":"M_Marble_06.png","image_id":230,"category_name":"Marble","category":15,"distinct_rating":3.4,"distinct_type":"Bottom","rt":null,"stimulus":"Stimuli_Rocks480/M_Marble_06.png","response":null,"trial_type":"image-keyboard-response","trial_index":12,"plugin_version":"2.1.0","time_elapsed":48156,"subject_id":"89034","group":"Group1","full_date":"2025-11-12T18:31:12.926Z","date":"2025-11-12","time":"18:31:12"},{"rt":null,"stimulus":"<p style=\"font-size: 50px; margin: 0; text-align: center;\">+</p>","response":null,"trial_type":"html-keyboard-response","trial_index":13,"plugin_version":"2.1.0","time_elapsed":49158,"subject_id":"89034","group":"Group1","full_date":"2025-11-12T18:31:12.926Z","date":"2025-11-12","time":"18:31:12"},{"task":"memory_phase","broad_category":"S","image_png":"S_Shale_08.png","image_id":472,"category_name":"Shale","category":30,"distinct_rating":2.55,"distinct_type":"Bottom","rt":null,"stimulus":"Stimuli_Rocks480/S_Shale_08.png","response":null,"trial_type":"image-keyboard-response","trial_index":14,"plugin_version":"2.1.0","time_elapsed":51663,"subject_id":"89034","group":"Group1","full_date":"2025-11-12T18:31:12.926Z","date":"2025-11-12","time":"18:31:12"},{"rt":null,"stimulus":"<p style=\"font-size: 50px; margin: 0; text-align: center;\">+</p>","response":null,"trial_type":"html-keyboard-response","trial_index":15,"plugin_version":"2.1.0","time_elapsed":52666,"subject_id":"89034","group":"Group1","full_date":"2025-11-12T18:31:12.926Z","date":"2025-11-12","time":"18:31:12"},{"task":"memory_phase","broad_category":"M","image_png":"M_Marble_16.png","image_id":240,"category_name":"Marble","category":15,"distinct_rating":2.57,"distinct_type":"Bottom","rt":null,"stimulus":"Stimuli_Rocks480/M_Marble_16.png","response":null,"trial_type":"image-keyboard-response","trial_index":16,"plugin_version":"2.1.0","time_elapsed":55169,"subject_id":"89034","group":"Group1","full_date":"2025-11-12T18:31:12.926Z","date":"2025-11-12","time":"18:31:12"},{"rt":null,"stimulus":"<p style=\"font-size: 50px; margin: 0; text-align: center;\">+</p>","response":null,"trial_type":"html-keyboard-response","trial_index":17,"plugin_version":"2.1.0","time_elapsed":56172,"subject_id":"89034","group":"Group1","full_date":"2025-11-12T18:31:12.926Z","date":"2025-11-12","time":"18:31:12"},{"task":"memory_phase","broad_category":"I","image_png":"I_Rhyolite_16.png","image_id":160,"category_name":"Rhyolite","category":10,"distinct_rating":2.19,"distinct_type":"Bottom","rt":null,"stimulus":"Stimuli_Rocks480/I_Rhyolite_16.png","response":null,"trial_type":"image-keyboard-response","trial_index":18,"plugin_version":"2.1.0","time_elapsed":58675,"subject_id":"89034","group":"Group1","full_date":"2025-11-12T18:31:12.926Z","date":"2025-11-12","time":"18:31:12"},{"rt":null,"stimulus":"<p style=\"font-size: 50px; margin: 0; text-align: center;\">+</p>","response":null,"trial_type":"html-keyboard-response","trial_index":19,"plugin_version":"2.1.0","time_elapsed":59678,"subject_id":"89034","group":"Group1","full_date":"2025-11-12T18:31:12.926Z","date":"2025-11-12","time":"18:31:12"},{"task":"memory_phase","broad_category":"I","image_png":"I_Basalt_09.png","image_id":25,"category_name":"Basalt","category":2,"distinct_rating":1.89,"distinct_type":"Bottom","rt":null,"stimulus":"Stimuli_Rocks480/I_Basalt_09.png","response":null,"trial_type":"image-keyboard-response","trial_index":20,"plugin_version":"2.1.0","time_elapsed":62181,"subject_id":"89034","group":"Group1","full_date":"2025-11-12T18:31:12.926Z","date":"2025-11-12","time":"18:31:12"},{"rt":null,"stimulus":"<p style=\"font-size: 50px; margin: 0; text-align: center;\">+</p>","response":null,"trial_type":"html-keyboard-response","trial_index":21,"plugin_version":"2.1.0","time_elapsed":63184,"subject_id":"89034","group":"Group1","full_date":"2025-11-12T18:31:12.926Z","date":"2025-11-12","time":"18:31:12"},{"task":"memory_phase","broad_category":"I","image_png":"I_Andesite_06.png","image_id":6,"category_name":"Andesite","category":1,"distinct_rating":3.17,"distinct_type":"Bottom","rt":null,"stimulus":"Stimuli_Rocks480/I_Andesite_06.png","response":null,"trial_type":"image-keyboard-response","trial_index":22,"plugin_version":"2.1.0","time_elapsed":65687,"subject_id":"89034","group":"Group1","full_date":"2025-11-12T18:31:12.926Z","date":"2025-11-12","time":"18:31:12"},{"rt":null,"stimulus":"<p style=\"font-size: 50px; margin: 0; text-align: center;\">+</p>","response":null,"trial_type":"html-keyboard-response","trial_index":23,"plugin_version":"2.1.0","time_elapsed":66690,"subject_id":"89034","group":"Group1","full_date":"2025-11-12T18:31:12.926Z","date":"2025-11-12","time":"18:31:12"},{"task":"memory_phase","broad_category":"I","image_png":"I_Pumice_08.png","image_id":136,"category_name":"Pumice","category":9,"distinct_rating":3.1,"distinct_type":"Bottom","rt":null,"stimulus":"Stimuli_Rocks480/I_Pumice_08.png","response":null,"trial_type":"image-keyboard-response","trial_index":24,"plugin_version":"2.1.0","time_elapsed":69193,"subject_id":"89034","group":"Group1","full_date":"2025-11-12T18:31:12.926Z","date":"2025-11-12","time":"18:31:12"},{"rt":null,"stimulus":"<p style=\"font-size: 50px; margin: 0; text-align: center;\">+</p>","response":null,"trial_type":"html-keyboard-response","trial_index":25,"plugin_version":"2.1.0","time_elapsed":70195,"subject_id":"89034","group":"Group1","full_date":"2025-11-12T18:31:12.926Z","date":"2025-11-12","time":"18:31:12"},{"task":"memory_phase","broad_category":"S","image_png":"S_Shale_12.png","image_id":476,"category_name":"Shale","category":30,"distinct_rating":2.48,"distinct_type":"Bottom","rt":null,"stimulus":"Stimuli_Rocks480/S_Shale_12.png","response":null,"trial_type":"image-keyboard-response","trial_index":26,"plugin_version":"2.1.0","time_elapsed":72699,"subject_id":"89034","group":"Group1","full_date":"2025-11-12T18:31:12.926Z","date":"2025-11-12","time":"18:31:12"},{"rt":null,"stimulus":"<p style=\"font-size: 50px; margin: 0; text-align: center;\">+</p>","response":null,"trial_type":"html-keyboard-response","trial_index":27,"plugin_version":"2.1.0","time_elapsed":73701,"subject_id":"89034","group":"Group1","full_date":"2025-11-12T18:31:12.926Z","date":"2025-11-12","time":"18:31:12"},{"task":"memory_phase","broad_category":"M","image_png":"M_Quartzite_13.png","image_id":285,"category_name":"Quartzite","category":18,"distinct_rating":2.27,"distinct_type":"Bottom","rt":null,"stimulus":"Stimuli_Rocks480/M_Quartzite_13.png","response":null,"trial_type":"image-keyboard-response","trial_index":28,"plugin_version":"2.1.0","time_elapsed":76204,"subject_id":"89034","group":"Group1","full_date":"2025-11-12T18:31:12.926Z","date":"2025-11-12","time":"18:31:12"},{"rt":null,"stimulus":"<p style=\"font-size: 50px; margin: 0; text-align: center;\">+</p>","response":null,"trial_type":"html-keyboard-response","trial_index":29,"plugin_version":"2.1.0","time_elapsed":77207,"subject_id":"89034","group":"Group1","full_date":"2025-11-12T18:31:12.926Z","date":"2025-11-12","time":"18:31:12"},{"task":"memory_phase","broad_category":"S","image_png":"S_Sandstone_15.png","image_id":463,"category_name":"Sandstone","category":29,"distinct_rating":2,"distinct_type":"Bottom","rt":null,"stimulus":"Stimuli_Rocks480/S_Sandstone_15.png","response":null,"trial_type":"image-keyboard-response","trial_index":30,"plugin_version":"2.1.0","time_elapsed":79716,"subject_id":"89034","group":"Group1","full_date":"2025-11-12T18:31:12.926Z","date":"2025-11-12","time":"18:31:12"},{"rt":null,"stimulus":"<p style=\"font-size: 50px; margin: 0; text-align: center;\">+</p>","response":null,"trial_type":"html-keyboard-response","trial_index":31,"plugin_version":"2.1.0","time_elapsed":80718,"subject_id":"89034","group":"Group1","full_date":"2025-11-12T18:31:12.926Z","date":"2025-11-12","time":"18:31:12"},{"task":"memory_phase","broad_category":"I","image_png":"I_Pegmatite_10.png","image_id":106,"category_name":"Pegmatite","category":7,"distinct_rating":7.66,"distinct_type":"Top","rt":null,"stimulus":"Stimuli_Rocks480/I_Pegmatite_10.png","response":null,"trial_type":"image-keyboard-response","trial_index":32,"plugin_version":"2.1.0","time_elapsed":83221,"subject_id":"89034","group":"Group1","full_date":"2025-11-12T18:31:12.926Z","date":"2025-11-12","time":"18:31:12"},{"rt":null,"stimulus":"<p style=\"font-size: 50px; margin: 0; text-align: center;\">+</p>","response":null,"trial_type":"html-keyboard-response","trial_index":33,"plugin_version":"2.1.0","time_elapsed":84224,"subject_id":"89034","group":"Group1","full_date":"2025-11-12T18:31:12.926Z","date":"2025-11-12","time":"18:31:12"},{"task":"memory_phase","broad_category":"M","image_png":"M_Quartzite_08.png","image_id":280,"category_name":"Quartzite","category":18,"distinct_rating":2.15,"distinct_type":"Bottom","rt":null,"stimulus":"Stimuli_Rocks480/M_Quartzite_08.png","response":null,"trial_type":"image-keyboard-response","trial_index":34,"plugin_version":"2.1.0","time_elapsed":86726,"subject_id":"89034","group":"Group1","full_date":"2025-11-12T18:31:12.926Z","date":"2025-11-12","time":"18:31:12"},{"rt":null,"stimulus":"<p style=\"font-size: 50px; margin: 0; text-align: center;\">+</p>","response":null,"trial_type":"html-keyboard-response","trial_index":35,"plugin_version":"2.1.0","time_elapsed":87729,"subject_id":"89034","group":"Group1","full_date":"2025-11-12T18:31:12.926Z","date":"2025-11-12","time":"18:31:12"},{"task":"memory_phase","broad_category":"I","image_png":"I_Rhyolite_14.png","image_id":158,"category_name":"Rhyolite","category":10,"distinct_rating":2.59,"distinct_type":"Bottom","rt":null,"stimulus":"Stimuli_Rocks480/I_Rhyolite_14.png","response":null,"trial_type":"image-keyboard-response","trial_index":36,"plugin_version":"2.1.0","time_elapsed":90231,"subject_id":"89034","group":"Group1","full_date":"2025-11-12T18:31:12.926Z","date":"2025-11-12","time":"18:31:12"},{"rt":null,"stimulus":"<p style=\"font-size: 50px; margin: 0; text-align: center;\">+</p>","response":null,"trial_type":"html-keyboard-response","trial_index":37,"plugin_version":"2.1.0","time_elapsed":91234,"subject_id":"89034","group":"Group1","full_date":"2025-11-12T18:31:12.926Z","date":"2025-11-12","time":"18:31:12"},{"task":"memory_phase","broad_category":"I","image_png":"I_Pumice_12.png","image_id":140,"category_name":"Pumice","category":9,"distinct_rating":2.97,"distinct_type":"Bottom","rt":null,"stimulus":"Stimuli_Rocks480/I_Pumice_12.png","response":null,"trial_type":"image-keyboard-response","trial_index":38,"plugin_version":"2.1.0","time_elapsed":93737,"subject_id":"89034","group":"Group1","full_date":"2025-11-12T18:31:12.926Z","date":"2025-11-12","time":"18:31:12"},{"rt":null,"stimulus":"<p style=\"font-size: 50px; margin: 0; text-align: center;\">+</p>","response":null,"trial_type":"html-keyboard-response","trial_index":39,"plugin_version":"2.1.0","time_elapsed":94739,"subject_id":"89034","group":"Group1","full_date":"2025-11-12T18:31:12.926Z","date":"2025-11-12","time":"18:31:12"},{"task":"memory_phase","broad_category":"M","image_png":"M_Marble_04.png","image_id":228,"category_name":"Marble","category":15,"distinct_rating":3.15,"distinct_type":"Bottom","rt":null,"stimulus":"Stimuli_Rocks480/M_Marble_04.png","response":null,"trial_type":"image-keyboard-response","trial_index":40,"plugin_version":"2.1.0","time_elapsed":97242,"subject_id":"89034","group":"Group1","full_date":"2025-11-12T18:31:12.926Z","date":"2025-11-12","time":"18:31:12"},{"rt":null,"stimulus":"<p style=\"font-size: 50px; margin: 0; text-align: center;\">+</p>","response":null,"trial_type":"html-keyboard-response","trial_index":41,"plugin_version":"2.1.0","time_elapsed":98244,"subject_id":"89034","group":"Group1","full_date":"2025-11-12T18:31:12.926Z","date":"2025-11-12","time":"18:31:12"},{"task":"memory_phase","broad_category":"M","image_png":"M_Slate_03.png","image_id":307,"category_name":"Slate","category":20,"distinct_rating":1.87,"distinct_type":"Bottom","rt":null,"stimulus":"Stimuli_Rocks480/M_Slate_03.png","response":null,"trial_type":"image-keyboard-response","trial_index":42,"plugin_version":"2.1.0","time_elapsed":100747,"subject_id":"89034","group":"Group1","full_date":"2025-11-12T18:31:12.926Z","date":"2025-11-12","time":"18:31:12"},{"rt":null,"stimulus":"<p style=\"font-size: 50px; margin: 0; text-align: center;\">+</p>","response":null,"trial_type":"html-keyboard-response","trial_index":43,"plugin_version":"2.1.0","time_elapsed":101750,"subject_id":"89034","group":"Group1","full_date":"2025-11-12T18:31:12.926Z","date":"2025-11-12","time":"18:31:12"},{"task":"memory_phase","broad_category":"M","image_png":"M_Slate_11.png","image_id":315,"category_name":"Slate","category":20,"distinct_rating":2.75,"distinct_type":"Bottom","rt":null,"stimulus":"Stimuli_Rocks480/M_Slate_11.png","response":null,"trial_type":"image-keyboard-response","trial_index":44,"plugin_version":"2.1.0","time_elapsed":104252,"subject_id":"89034","group":"Group1","full_date":"2025-11-12T18:31:12.926Z","date":"2025-11-12","time":"18:31:12"},{"rt":null,"stimulus":"<p style=\"font-size: 50px; margin: 0; text-align: center;\">+</p>","response":null,"trial_type":"html-keyboard-response","trial_index":45,"plugin_version":"2.1.0","time_elapsed":105255,"subject_id":"89034","group":"Group1","full_date":"2025-11-12T18:31:12.926Z","date":"2025-11-12","time":"18:31:12"},{"task":"memory_phase","broad_category":"M","image_png":"M_Gneiss_06.png","image_id":198,"category_name":"Gneiss","category":13,"distinct_rating":2.65,"distinct_type":"Bottom","rt":null,"stimulus":"Stimuli_Rocks480/M_Gneiss_06.png","response":null,"trial_type":"image-keyboard-response","trial_index":46,"plugin_version":"2.1.0","time_elapsed":107758,"subject_id":"89034","group":"Group1","full_date":"2025-11-12T18:31:12.926Z","date":"2025-11-12","time":"18:31:12"},{"rt":null,"stimulus":"<p style=\"font-size: 50px; margin: 0; text-align: center;\">+</p>","response":null,"trial_type":"html-keyboard-response","trial_index":47,"plugin_version":"2.1.0","time_elapsed":108760,"subject_id":"89034","group":"Group1","full_date":"2025-11-12T18:31:12.926Z","date":"2025-11-12","time":"18:31:12"},{"task":"memory_phase","broad_category":"M","image_png":"M_Quartzite_05.png","image_id":277,"category_name":"Quartzite","category":18,"distinct_rating":2.23,"distinct_type":"Bottom","rt":null,"stimulus":"Stimuli_Rocks480/M_Quartzite_05.png","response":null,"trial_type":"image-keyboard-response","trial_index":48,"plugin_version":"2.1.0","time_elapsed":111264,"subject_id":"89034","group":"Group1","full_date":"2025-11-12T18:31:12.926Z","date":"2025-11-12","time":"18:31:12"},{"rt":null,"stimulus":"<p style=\"font-size: 50px; margin: 0; text-align: center;\">+</p>","response":null,"trial_type":"html-keyboard-response","trial_index":49,"plugin_version":"2.1.0","time_elapsed":112266,"subject_id":"89034","group":"Group1","full_date":"2025-11-12T18:31:12.926Z","date":"2025-11-12","time":"18:31:12"},{"task":"memory_phase","broad_category":"I","image_png":"I_Basalt_01.png","image_id":17,"category_name":"Basalt","category":2,"distinct_rating":1.92,"distinct_type":"Bottom","rt":null,"stimulus":"Stimuli_Rocks480/I_Basalt_01.png","response":null,"trial_type":"image-keyboard-response","trial_index":50,"plugin_version":"2.1.0","time_elapsed":114769,"subject_id":"89034","group":"Group1","full_date":"2025-11-12T18:31:12.926Z","date":"2025-11-12","time":"18:31:12"},{"rt":null,"stimulus":"<p style=\"font-size: 50px; margin: 0; text-align: center;\">+</p>","response":null,"trial_type":"html-keyboard-response","trial_index":51,"plugin_version":"2.1.0","time_elapsed":115772,"subject_id":"89034","group":"Group1","full_date":"2025-11-12T18:31:12.926Z","date":"2025-11-12","time":"18:31:12"},{"task":"memory_phase","broad_category":"S","image_png":"S_Conglomerate_05.png","image_id":373,"category_name":"Conglomerate","category":24,"distinct_rating":7.32,"distinct_type":"Top","rt":null,"stimulus":"Stimuli_Rocks480/S_Conglomerate_05.png","response":null,"trial_type":"image-keyboard-response","trial_index":52,"plugin_version":"2.1.0","time_elapsed":118275,"subject_id":"89034","group":"Group1","full_date":"2025-11-12T18:31:12.926Z","date":"2025-11-12","time":"18:31:12"},{"rt":null,"stimulus":"<p style=\"font-size: 50px; margin: 0; text-align: center;\">+</p>","response":null,"trial_type":"html-keyboard-response","trial_index":53,"plugin_version":"2.1.0","time_elapsed":119278,"subject_id":"89034","group":"Group1","full_date":"2025-11-12T18:31:12.926Z","date":"2025-11-12","time":"18:31:12"},{"task":"memory_phase","broad_category":"I","image_png":"I_Pegmatite_16.png","image_id":112,"category_name":"Pegmatite","category":7,"distinct_rating":7.03,"distinct_type":"Top","rt":null,"stimulus":"Stimuli_Rocks480/I_Pegmatite_16.png","response":null,"trial_type":"image-keyboard-response","trial_index":54,"plugin_version":"2.1.0","time_elapsed":121780,"subject_id":"89034","group":"Group1","full_date":"2025-11-12T18:31:12.926Z","date":"2025-11-12","time":"18:31:12"},{"rt":1667,"stimulus":"<p style=\"font-size: 35px;\">Press SPACE to continue study phase</p>","response":" ","trial_type":"html-keyboard-response","trial_index":55,"plugin_version":"2.1.0","time_elapsed":123449,"subject_id":"89034","group":"Group1","full_date":"2025-11-12T18:31:12.926Z","date":"2025-11-12","time":"18:31:12"},{"rt":null,"stimulus":"<p style=\"font-size: 50px; margin: 0; text-align: center;\">+</p>","response":null,"trial_type":"html-keyboard-response","trial_index":56,"plugin_version":"2.1.0","time_elapsed":124451,"subject_id":"89034","group":"Group1","full_date":"2025-11-12T18:31:12.926Z","date":"2025-11-12","time":"18:31:12"},{"task":"memory_phase","broad_category":"S","image_png":"S_Rock Salt_01.png","image_id":433,"category_name":"Rock Salt","category":28,"distinct_rating":7.18,"distinct_type":"Top","rt":null,"stimulus":"Stimuli_Rocks480/S_Rock Salt_01.png","response":null,"trial_type":"image-keyboard-response","trial_index":57,"plugin_version":"2.1.0","time_elapsed":126955,"subject_id":"89034","group":"Group1","full_date":"2025-11-12T18:31:12.926Z","date":"2025-11-12","time":"18:31:12"},{"rt":null,"stimulus":"<p style=\"font-size: 50px; margin: 0; text-align: center;\">+</p>","response":null,"trial_type":"html-keyboard-response","trial_index":58,"plugin_version":"2.1.0","time_elapsed":127957,"subject_id":"89034","group":"Group1","full_date":"2025-11-12T18:31:12.926Z","date":"2025-11-12","time":"18:31:12"},{"task":"memory_phase","broad_category":"S","image_png":"S_Dolomite_13.png","image_id":397,"category_name":"Dolomite","category":25,"distinct_rating":1.77,"distinct_type":"Bottom","rt":null,"stimulus":"Stimuli_Rocks480/S_Dolomite_13.png","response":null,"trial_type":"image-keyboard-response","trial_index":59,"plugin_version":"2.1.0","time_elapsed":130460,"subject_id":"89034","group":"Group1","full_date":"2025-11-12T18:31:12.926Z","date":"2025-11-12","time":"18:31:12"},{"rt":null,"stimulus":"<p style=\"font-size: 50px; margin: 0; text-align: center;\">+</p>","response":null,"trial_type":"html-keyboard-response","trial_index":60,"plugin_version":"2.1.0","time_elapsed":131462,"subject_id":"89034","group":"Group1","full_date":"2025-11-12T18:31:12.926Z","date":"2025-11-12","time":"18:31:12"},{"task":"memory_phase","broad_category":"I","image_png":"I_Diorite_05.png","image_id":37,"category_name":"Diorite","category":3,"distinct_rating":3.08,"distinct_type":"Bottom","rt":null,"stimulus":"Stimuli_Rocks480/I_Diorite_05.png","response":null,"trial_type":"image-keyboard-response","trial_index":61,"plugin_version":"2.1.0","time_elapsed":133966,"subject_id":"89034","group":"Group1","full_date":"2025-11-12T18:31:12.926Z","date":"2025-11-12","time":"18:31:12"},{"rt":null,"stimulus":"<p style=\"font-size: 50px; margin: 0; text-align: center;\">+</p>","response":null,"trial_type":"html-keyboard-response","trial_index":62,"plugin_version":"2.1.0","time_elapsed":134968,"subject_id":"89034","group":"Group1","full_date":"2025-11-12T18:31:12.926Z","date":"2025-11-12","time":"18:31:12"},{"task":"memory_phase","broad_category":"I","image_png":"I_Gabbro_11.png","image_id":59,"category_name":"Gabbro","category":4,"distinct_rating":1.99,"distinct_type":"Bottom","rt":null,"stimulus":"Stimuli_Rocks480/I_Gabbro_11.png","response":null,"trial_type":"image-keyboard-response","trial_index":63,"plugin_version":"2.1.0","time_elapsed":137471,"subject_id":"89034","group":"Group1","full_date":"2025-11-12T18:31:12.926Z","date":"2025-11-12","time":"18:31:12"},{"rt":null,"stimulus":"<p style=\"font-size: 50px; margin: 0; text-align: center;\">+</p>","response":null,"trial_type":"html-keyboard-response","trial_index":64,"plugin_version":"2.1.0","time_elapsed":138474,"subject_id":"89034","group":"Group1","full_date":"2025-11-12T18:31:12.926Z","date":"2025-11-12","time":"18:31:12"},{"task":"memory_phase","broad_category":"I","image_png":"I_Andesite_10.png","image_id":10,"category_name":"Andesite","category":1,"distinct_rating":3.15,"distinct_type":"Bottom","rt":null,"stimulus":"Stimuli_Rocks480/I_Andesite_10.png","response":null,"trial_type":"image-keyboard-response","trial_index":65,"plugin_version":"2.1.0","time_elapsed":140978,"subject_id":"89034","group":"Group1","full_date":"2025-11-12T18:31:12.926Z","date":"2025-11-12","time":"18:31:12"},{"rt":null,"stimulus":"<p style=\"font-size: 50px; margin: 0; text-align: center;\">+</p>","response":null,"trial_type":"html-keyboard-response","trial_index":66,"plugin_version":"2.1.0","time_elapsed":141980,"subject_id":"89034","group":"Group1","full_date":"2025-11-12T18:31:12.926Z","date":"2025-11-12","time":"18:31:12"},{"task":"memory_phase","broad_category":"M","image_png":"M_Gneiss_13.png","image_id":205,"category_name":"Gneiss","category":13,"distinct_rating":3.26,"distinct_type":"Bottom","rt":null,"stimulus":"Stimuli_Rocks480/M_Gneiss_13.png","response":null,"trial_type":"image-keyboard-response","trial_index":67,"plugin_version":"2.1.0","time_elapsed":144483,"subject_id":"89034","group":"Group1","full_date":"2025-11-12T18:31:12.926Z","date":"2025-11-12","time":"18:31:12"},{"rt":null,"stimulus":"<p style=\"font-size: 50px; margin: 0; text-align: center;\">+</p>","response":null,"trial_type":"html-keyboard-response","trial_index":68,"plugin_version":"2.1.0","time_elapsed":145485,"subject_id":"89034","group":"Group1","full_date":"2025-11-12T18:31:12.926Z","date":"2025-11-12","time":"18:31:12"},{"task":"memory_phase","broad_category":"S","image_png":"S_Chert_10.png","image_id":362,"category_name":"Chert","category":23,"distinct_rating":7.17,"distinct_type":"Top","rt":null,"stimulus":"Stimuli_Rocks480/S_Chert_10.png","response":null,"trial_type":"image-keyboard-response","trial_index":69,"plugin_version":"2.1.0","time_elapsed":147989,"subject_id":"89034","group":"Group1","full_date":"2025-11-12T18:31:12.926Z","date":"2025-11-12","time":"18:31:12"},{"rt":null,"stimulus":"<p style=\"font-size: 50px; margin: 0; text-align: center;\">+</p>","response":null,"trial_type":"html-keyboard-response","trial_index":70,"plugin_version":"2.1.0","time_elapsed":148991,"subject_id":"89034","group":"Group1","full_date":"2025-11-12T18:31:12.926Z","date":"2025-11-12","time":"18:31:12"},{"task":"memory_phase","broad_category":"S","image_png":"S_Sandstone_03.png","image_id":451,"category_name":"Sandstone","category":29,"distinct_rating":1.86,"distinct_type":"Bottom","rt":null,"stimulus":"Stimuli_Rocks480/S_Sandstone_03.png","response":null,"trial_type":"image-keyboard-response","trial_index":71,"plugin_version":"2.1.0","time_elapsed":151494,"subject_id":"89034","group":"Group1","full_date":"2025-11-12T18:31:12.926Z","date":"2025-11-12","time":"18:31:12"},{"rt":null,"stimulus":"<p style=\"font-size: 50px; margin: 0; text-align: center;\">+</p>","response":null,"trial_type":"html-keyboard-response","trial_index":72,"plugin_version":"2.1.0","time_elapsed":152496,"subject_id":"89034","group":"Group1","full_date":"2025-11-12T18:31:12.926Z","date":"2025-11-12","time":"18:31:12"},{"task":"memory_phase","broad_category":"S","image_png":"S_Dolomite_14.png","image_id":398,"category_name":"Dolomite","category":25,"distinct_rating":1.43,"distinct_type":"Bottom","rt":null,"stimulus":"Stimuli_Rocks480/S_Dolomite_14.png","response":null,"trial_type":"image-keyboard-response","trial_index":73,"plugin_version":"2.1.0","time_elapsed":155000,"subject_id":"89034","group":"Group1","full_date":"2025-11-12T18:31:12.926Z","date":"2025-11-12","time":"18:31:12"},{"rt":null,"stimulus":"<p style=\"font-size: 50px; margin: 0; text-align: center;\">+</p>","response":null,"trial_type":"html-keyboard-response","trial_index":74,"plugin_version":"2.1.0","time_elapsed":156002,"subject_id":"89034","group":"Group1","full_date":"2025-11-12T18:31:12.926Z","date":"2025-11-12","time":"18:31:12"},{"task":"memory_phase","broad_category":"M","image_png":"M_Phyllite_03.png","image_id":259,"category_name":"Phyllite","category":17,"distinct_rating":2.5,"distinct_type":"Bottom","rt":null,"stimulus":"Stimuli_Rocks480/M_Phyllite_03.png","response":null,"trial_type":"image-keyboard-response","trial_index":75,"plugin_version":"2.1.0","time_elapsed":158506,"subject_id":"89034","group":"Group1","full_date":"2025-11-12T18:31:12.926Z","date":"2025-11-12","time":"18:31:12"},{"rt":null,"stimulus":"<p style=\"font-size: 50px; margin: 0; text-align: center;\">+</p>","response":null,"trial_type":"html-keyboard-response","trial_index":76,"plugin_version":"2.1.0","time_elapsed":159508,"subject_id":"89034","group":"Group1","full_date":"2025-11-12T18:31:12.926Z","date":"2025-11-12","time":"18:31:12"},{"task":"memory_phase","broad_category":"S","image_png":"S_Breccia_11.png","image_id":347,"category_name":"Breccia","category":22,"distinct_rating":6.7,"distinct_type":"Top","rt":null,"stimulus":"Stimuli_Rocks480/S_Breccia_11.png","response":null,"trial_type":"image-keyboard-response","trial_index":77,"plugin_version":"2.1.0","time_elapsed":162011,"subject_id":"89034","group":"Group1","full_date":"2025-11-12T18:31:12.926Z","date":"2025-11-12","time":"18:31:12"},{"rt":null,"stimulus":"<p style=\"font-size: 50px; margin: 0; text-align: center;\">+</p>","response":null,"trial_type":"html-keyboard-response","trial_index":78,"plugin_version":"2.1.0","time_elapsed":163013,"subject_id":"89034","group":"Group1","full_date":"2025-11-12T18:31:12.926Z","date":"2025-11-12","time":"18:31:12"},{"task":"memory_phase","broad_category":"S","image_png":"S_Dolomite_12.png","image_id":396,"category_name":"Dolomite","category":25,"distinct_rating":1.85,"distinct_type":"Bottom","rt":null,"stimulus":"Stimuli_Rocks480/S_Dolomite_12.png","response":null,"trial_type":"image-keyboard-response","trial_index":79,"plugin_version":"2.1.0","time_elapsed":165516,"subject_id":"89034","group":"Group1","full_date":"2025-11-12T18:31:12.926Z","date":"2025-11-12","time":"18:31:12"},{"rt":null,"stimulus":"<p style=\"font-size: 50px; margin: 0; text-align: center;\">+</p>","response":null,"trial_type":"html-keyboard-response","trial_index":80,"plugin_version":"2.1.0","time_elapsed":166518,"subject_id":"89034","group":"Group1","full_date":"2025-11-12T18:31:12.926Z","date":"2025-11-12","time":"18:31:12"},{"task":"memory_phase","broad_category":"I","image_png":"I_Andesite_08.png","image_id":8,"category_name":"Andesite","category":1,"distinct_rating":1.95,"distinct_type":"Bottom","rt":null,"stimulus":"Stimuli_Rocks480/I_Andesite_08.png","response":null,"trial_type":"image-keyboard-response","trial_index":81,"plugin_version":"2.1.0","time_elapsed":169021,"subject_id":"89034","group":"Group1","full_date":"2025-11-12T18:31:12.926Z","date":"2025-11-12","time":"18:31:12"},{"rt":null,"stimulus":"<p style=\"font-size: 50px; margin: 0; text-align: center;\">+</p>","response":null,"trial_type":"html-keyboard-response","trial_index":82,"plugin_version":"2.1.0","time_elapsed":170024,"subject_id":"89034","group":"Group1","full_date":"2025-11-12T18:31:12.926Z","date":"2025-11-12","time":"18:31:12"},{"task":"memory_phase","broad_category":"I","image_png":"I_Diorite_04.png","image_id":36,"category_name":"Diorite","category":3,"distinct_rating":2.98,"distinct_type":"Bottom","rt":null,"stimulus":"Stimuli_Rocks480/I_Diorite_04.png","response":null,"trial_type":"image-keyboard-response","trial_index":83,"plugin_version":"2.1.0","time_elapsed":172527,"subject_id":"89034","group":"Group1","full_date":"2025-11-12T18:31:12.926Z","date":"2025-11-12","time":"18:31:12"},{"rt":null,"stimulus":"<p style=\"font-size: 50px; margin: 0; text-align: center;\">+</p>","response":null,"trial_type":"html-keyboard-response","trial_index":84,"plugin_version":"2.1.0","time_elapsed":173529,"subject_id":"89034","group":"Group1","full_date":"2025-11-12T18:31:12.926Z","date":"2025-11-12","time":"18:31:12"},{"task":"memory_phase","broad_category":"I","image_png":"I_Basalt_02.png","image_id":18,"category_name":"Basalt","category":2,"distinct_rating":1.84,"distinct_type":"Bottom","rt":null,"stimulus":"Stimuli_Rocks480/I_Basalt_02.png","response":null,"trial_type":"image-keyboard-response","trial_index":85,"plugin_version":"2.1.0","time_elapsed":176032,"subject_id":"89034","group":"Group1","full_date":"2025-11-12T18:31:12.926Z","date":"2025-11-12","time":"18:31:12"},{"rt":null,"stimulus":"<p style=\"font-size: 50px; margin: 0; text-align: center;\">+</p>","response":null,"trial_type":"html-keyboard-response","trial_index":86,"plugin_version":"2.1.0","time_elapsed":177035,"subject_id":"89034","group":"Group1","full_date":"2025-11-12T18:31:12.926Z","date":"2025-11-12","time":"18:31:12"},{"task":"memory_phase","broad_category":"M","image_png":"M_Phyllite_07.png","image_id":263,"category_name":"Phyllite","category":17,"distinct_rating":2.59,"distinct_type":"Bottom","rt":null,"stimulus":"Stimuli_Rocks480/M_Phyllite_07.png","response":null,"trial_type":"image-keyboard-response","trial_index":87,"plugin_version":"2.1.0","time_elapsed":179537,"subject_id":"89034","group":"Group1","full_date":"2025-11-12T18:31:12.926Z","date":"2025-11-12","time":"18:31:12"},{"rt":null,"stimulus":"<p style=\"font-size: 50px; margin: 0; text-align: center;\">+</p>","response":null,"trial_type":"html-keyboard-response","trial_index":88,"plugin_version":"2.1.0","time_elapsed":180540,"subject_id":"89034","group":"Group1","full_date":"2025-11-12T18:31:12.926Z","date":"2025-11-12","time":"18:31:12"},{"task":"memory_phase","broad_category":"S","image_png":"S_Sandstone_16.png","image_id":464,"category_name":"Sandstone","category":29,"distinct_rating":1.93,"distinct_type":"Bottom","rt":null,"stimulus":"Stimuli_Rocks480/S_Sandstone_16.png","response":null,"trial_type":"image-keyboard-response","trial_index":89,"plugin_version":"2.1.0","time_elapsed":183044,"subject_id":"89034","group":"Group1","full_date":"2025-11-12T18:31:12.926Z","date":"2025-11-12","time":"18:31:12"},{"rt":null,"stimulus":"<p style=\"font-size: 50px; margin: 0; text-align: center;\">+</p>","response":null,"trial_type":"html-keyboard-response","trial_index":90,"plugin_version":"2.1.0","time_elapsed":184046,"subject_id":"89034","group":"Group1","full_date":"2025-11-12T18:31:12.926Z","date":"2025-11-12","time":"18:31:12"},{"task":"memory_phase","broad_category":"S","image_png":"S_Rock Gypsum_04.png","image_id":420,"category_name":"Rock Gypsum","category":27,"distinct_rating":7.61,"distinct_type":"Top","rt":null,"stimulus":"Stimuli_Rocks480/S_Rock Gypsum_04.png","response":null,"trial_type":"image-keyboard-response","trial_index":91,"plugin_version":"2.1.0","time_elapsed":186549,"subject_id":"89034","group":"Group1","full_date":"2025-11-12T18:31:12.926Z","date":"2025-11-12","time":"18:31:12"},{"rt":null,"stimulus":"<p style=\"font-size: 50px; margin: 0; text-align: center;\">+</p>","response":null,"trial_type":"html-keyboard-response","trial_index":92,"plugin_version":"2.1.0","time_elapsed":187551,"subject_id":"89034","group":"Group1","full_date":"2025-11-12T18:31:12.926Z","date":"2025-11-12","time":"18:31:12"},{"task":"memory_phase","broad_category":"I","image_png":"I_Obsidian_05.png","image_id":85,"category_name":"Obsidian","category":6,"distinct_rating":7.32,"distinct_type":"Top","rt":null,"stimulus":"Stimuli_Rocks480/I_Obsidian_05.png","response":null,"trial_type":"image-keyboard-response","trial_index":93,"plugin_version":"2.1.0","time_elapsed":190055,"subject_id":"89034","group":"Group1","full_date":"2025-11-12T18:31:12.926Z","date":"2025-11-12","time":"18:31:12"},{"rt":null,"stimulus":"<p style=\"font-size: 50px; margin: 0; text-align: center;\">+</p>","response":null,"trial_type":"html-keyboard-response","trial_index":94,"plugin_version":"2.1.0","time_elapsed":191058,"subject_id":"89034","group":"Group1","full_date":"2025-11-12T18:31:12.926Z","date":"2025-11-12","time":"18:31:12"},{"task":"memory_phase","broad_category":"I","image_png":"I_Gabbro_08.png","image_id":56,"category_name":"Gabbro","category":4,"distinct_rating":3.02,"distinct_type":"Bottom","rt":null,"stimulus":"Stimuli_Rocks480/I_Gabbro_08.png","response":null,"trial_type":"image-keyboard-response","trial_index":95,"plugin_version":"2.1.0","time_elapsed":193561,"subject_id":"89034","group":"Group1","full_date":"2025-11-12T18:31:12.926Z","date":"2025-11-12","time":"18:31:12"},{"rt":null,"stimulus":"<p style=\"font-size: 50px; margin: 0; text-align: center;\">+</p>","response":null,"trial_type":"html-keyboard-response","trial_index":96,"plugin_version":"2.1.0","time_elapsed":194564,"subject_id":"89034","group":"Group1","full_date":"2025-11-12T18:31:12.926Z","date":"2025-11-12","time":"18:31:12"},{"task":"memory_phase","broad_category":"I","image_png":"I_Diorite_03.png","image_id":35,"category_name":"Diorite","category":3,"distinct_rating":3.14,"distinct_type":"Bottom","rt":null,"stimulus":"Stimuli_Rocks480/I_Diorite_03.png","response":null,"trial_type":"image-keyboard-response","trial_index":97,"plugin_version":"2.1.0","time_elapsed":197066,"subject_id":"89034","group":"Group1","full_date":"2025-11-12T18:31:12.926Z","date":"2025-11-12","time":"18:31:12"},{"rt":null,"stimulus":"<p style=\"font-size: 50px; margin: 0; text-align: center;\">+</p>","response":null,"trial_type":"html-keyboard-response","trial_index":98,"plugin_version":"2.1.0","time_elapsed":198069,"subject_id":"89034","group":"Group1","full_date":"2025-11-12T18:31:12.926Z","date":"2025-11-12","time":"18:31:12"},{"task":"memory_phase","broad_category":"S","image_png":"S_Shale_01.png","image_id":465,"category_name":"Shale","category":30,"distinct_rating":2.7,"distinct_type":"Bottom","rt":null,"stimulus":"Stimuli_Rocks480/S_Shale_01.png","response":null,"trial_type":"image-keyboard-response","trial_index":99,"plugin_version":"2.1.0","time_elapsed":200572,"subject_id":"89034","group":"Group1","full_date":"2025-11-12T18:31:12.926Z","date":"2025-11-12","time":"18:31:12"},{"rt":null,"stimulus":"<p style=\"font-size: 50px; margin: 0; text-align: center;\">+</p>","response":null,"trial_type":"html-keyboard-response","trial_index":100,"plugin_version":"2.1.0","time_elapsed":201574,"subject_id":"89034","group":"Group1","full_date":"2025-11-12T18:31:12.926Z","date":"2025-11-12","time":"18:31:12"},{"task":"memory_phase","broad_category":"M","image_png":"M_Gneiss_05.png","image_id":197,"category_name":"Gneiss","category":13,"distinct_rating":2.97,"distinct_type":"Bottom","rt":null,"stimulus":"Stimuli_Rocks480/M_Gneiss_05.png","response":null,"trial_type":"image-keyboard-response","trial_index":101,"plugin_version":"2.1.0","time_elapsed":204078,"subject_id":"89034","group":"Group1","full_date":"2025-11-12T18:31:12.926Z","date":"2025-11-12","time":"18:31:12"},{"rt":null,"stimulus":"<p style=\"font-size: 50px; margin: 0; text-align: center;\">+</p>","response":null,"trial_type":"html-keyboard-response","trial_index":102,"plugin_version":"2.1.0","time_elapsed":205081,"subject_id":"89034","group":"Group1","full_date":"2025-11-12T18:31:12.926Z","date":"2025-11-12","time":"18:31:12"},{"task":"memory_phase","broad_category":"M","image_png":"M_Phyllite_10.png","image_id":266,"category_name":"Phyllite","category":17,"distinct_rating":2.6,"distinct_type":"Bottom","rt":null,"stimulus":"Stimuli_Rocks480/M_Phyllite_10.png","response":null,"trial_type":"image-keyboard-response","trial_index":103,"plugin_version":"2.1.0","time_elapsed":207584,"subject_id":"89034","group":"Group1","full_date":"2025-11-12T18:31:12.926Z","date":"2025-11-12","time":"18:31:12"},{"rt":null,"stimulus":"<p style=\"font-size: 50px; margin: 0; text-align: center;\">+</p>","response":null,"trial_type":"html-keyboard-response","trial_index":104,"plugin_version":"2.1.0","time_elapsed":208586,"subject_id":"89034","group":"Group1","full_date":"2025-11-12T18:31:12.926Z","date":"2025-11-12","time":"18:31:12"},{"task":"memory_phase","broad_category":"I","image_png":"I_Gabbro_16.png","image_id":64,"category_name":"Gabbro","category":4,"distinct_rating":2.52,"distinct_type":"Bottom","rt":null,"stimulus":"Stimuli_Rocks480/I_Gabbro_16.png","response":null,"trial_type":"image-keyboard-response","trial_index":105,"plugin_version":"2.1.0","time_elapsed":211090,"subject_id":"89034","group":"Group1","full_date":"2025-11-12T18:31:12.926Z","date":"2025-11-12","time":"18:31:12"},{"rt":13457,"stimulus":"<div style=\"max-width: 760px; margin: auto; font-size: 20px; line-height: 1.5;\">\n      <h1 style=\"text-align:center; font-size: 30px;\">Instructions for the Test Phase</h1>\n      <p>\n        The study phase is now complete.\n      </p>\n      <p>\n        In the test phase, you will again see a series of rock images. \n        Some will be ones you saw before - during the study phase, while others will be new.  \n        <b>Your task</b> is to decide whether you have seen each image before by pressing the corresponding key on your keyboard:<br><br>\n          <b>A</b> - NO (you did not see this image before)<br>\n          <b>L</b> - YES (you saw this image before)<br><br>\n        The test will proceed at your own pace. You will receive feedback after each response.  \n        Please try to respond <b>as accurately as possible</b>.\n      </p>\n      <p>\n        <b>Reminder:</b> If your computer has multiple language settings (e.g., English and another language),\n        please ensure it is set to English during the test phase.\n      </p>\n      <p>\n        You can track your progress using the <b>completion bar</b> at the top of the screen.  \n        Note that it has been refreshed to reflect your progress during this final phase.\n      </p>\n      <p>\n        Press the button below when you are ready to continue.\n      </p>\n    </div>","response":0,"trial_type":"html-button-response","trial_index":106,"plugin_version":"2.1.0","time_elapsed":224549,"subject_id":"89034","group":"Group1","full_date":"2025-11-12T18:31:12.926Z","date":"2025-11-12","time":"18:31:12"},{"correct_response":"a","task":"test_phase","broad_category":"M","image_png":"M_Quartzite_12.png","image_id":284,"category_name":"Quartzite","category":18,"distinct_rating":1.92,"distinct_type":"Bottom","item_type":"Foil","rt":2615,"stimulus":"Stimuli_Rocks480/M_Quartzite_12.png","response":"l","trial_type":"image-keyboard-response","trial_index":107,"plugin_version":"2.1.0","time_elapsed":227166,"subject_id":"89034","group":"Group1","full_date":"2025-11-12T18:31:12.926Z","date":"2025-11-12","time":"18:31:12","cor_ans":false},{"trial_type":"html-keyboard-response","rt":null,"stimulus":"<p style=\"color: red; font-size: 50px; font-weight: bold;\">Incorrect</p>","response":null,"trial_index":108,"plugin_version":"2.1.0","time_elapsed":227668,"subject_id":"89034","group":"Group1","full_date":"2025-11-12T18:31:12.926Z","date":"2025-11-12","time":"18:31:12"},{"correct_response":"a","task":"test_phase","broad_category":"I","image_png":"I_Obsidian_06.png","image_id":86,"category_name":"Obsidian","category":6,"distinct_rating":8.01,"distinct_type":"Top","item_type":"Foil","rt":2028,"stimulus":"Stimuli_Rocks480/I_Obsidian_06.png","response":"a","trial_type":"image-keyboard-response","trial_index":109,"plugin_version":"2.1.0","time_elapsed":229697,"subject_id":"89034","group":"Group1","full_date":"2025-11-12T18:31:12.926Z","date":"2025-11-12","time":"18:31:12","cor_ans":true},{"trial_type":"html-keyboard-response","rt":null,"stimulus":"<p style=\"color: green; font-size: 50px; font-weight: bold;\">Correct</p>","response":null,"trial_index":110,"plugin_version":"2.1.0","time_elapsed":230199,"subject_id":"89034","group":"Group1","full_date":"2025-11-12T18:31:12.926Z","date":"2025-11-12","time":"18:31:12"},{"correct_response":"l","task":"test_phase","broad_category":"S","image_png":"S_Dolomite_14.png","image_id":398,"category_name":"Dolomite","category":25,"distinct_rating":1.43,"distinct_type":"Bottom","item_type":"Target","rt":1407,"stimulus":"Stimuli_Rocks480/S_Dolomite_14.png","response":"l","trial_type":"image-keyboard-response","trial_index":111,"plugin_version":"2.1.0","time_elapsed":231607,"subject_id":"89034","group":"Group1","full_date":"2025-11-12T18:31:12.926Z","date":"2025-11-12","time":"18:31:12","cor_ans":true},{"trial_type":"html-keyboard-response","rt":null,"stimulus":"<p style=\"color: green; font-size: 50px; font-weight: bold;\">Correct</p>","response":null,"trial_index":112,"plugin_version":"2.1.0","time_elapsed":232108,"subject_id":"89034","group":"Group1","full_date":"2025-11-12T18:31:12.926Z","date":"2025-11-12","time":"18:31:12"},{"correct_response":"l","task":"test_phase","broad_category":"M","image_png":"M_Phyllite_03.png","image_id":259,"category_name":"Phyllite","category":17,"distinct_rating":2.5,"distinct_type":"Bottom","item_type":"Target","rt":2775,"stimulus":"Stimuli_Rocks480/M_Phyllite_03.png","response":"a","trial_type":"image-keyboard-response","trial_index":113,"plugin_version":"2.1.0","time_elapsed":234885,"subject_id":"89034","group":"Group1","full_date":"2025-11-12T18:31:12.926Z","date":"2025-11-12","time":"18:31:12","cor_ans":false},{"trial_type":"html-keyboard-response","rt":null,"stimulus":"<p style=\"color: red; font-size: 50px; font-weight: bold;\">Incorrect</p>","response":null,"trial_index":114,"plugin_version":"2.1.0","time_elapsed":235387,"subject_id":"89034","group":"Group1","full_date":"2025-11-12T18:31:12.926Z","date":"2025-11-12","time":"18:31:12"},{"correct_response":"a","task":"test_phase","broad_category":"I","image_png":"I_Diorite_10.png","image_id":42,"category_name":"Diorite","category":3,"distinct_rating":2.84,"distinct_type":"Bottom","item_type":"Foil","rt":1153,"stimulus":"Stimuli_Rocks480/I_Diorite_10.png","response":"l","trial_type":"image-keyboard-response","trial_index":115,"plugin_version":"2.1.0","time_elapsed":236541,"subject_id":"89034","group":"Group1","full_date":"2025-11-12T18:31:12.926Z","date":"2025-11-12","time":"18:31:12","cor_ans":false},{"trial_type":"html-keyboard-response","rt":null,"stimulus":"<p style=\"color: red; font-size: 50px; font-weight: bold;\">Incorrect</p>","response":null,"trial_index":116,"plugin_version":"2.1.0","time_elapsed":237043,"subject_id":"89034","group":"Group1","full_date":"2025-11-12T18:31:12.926Z","date":"2025-11-12","time":"18:31:12"},{"correct_response":"l","task":"test_phase","broad_category":"M","image_png":"M_Quartzite_05.png","image_id":277,"category_name":"Quartzite","category":18,"distinct_rating":2.23,"distinct_type":"Bottom","item_type":"Target","rt":1381,"stimulus":"Stimuli_Rocks480/M_Quartzite_05.png","response":"l","trial_type":"image-keyboard-response","trial_index":117,"plugin_version":"2.1.0","time_elapsed":238425,"subject_id":"89034","group":"Group1","full_date":"2025-11-12T18:31:12.926Z","date":"2025-11-12","time":"18:31:12","cor_ans":true},{"trial_type":"html-keyboard-response","rt":null,"stimulus":"<p style=\"color: green; font-size: 50px; font-weight: bold;\">Correct</p>","response":null,"trial_index":118,"plugin_version":"2.1.0","time_elapsed":238927,"subject_id":"89034","group":"Group1","full_date":"2025-11-12T18:31:12.926Z","date":"2025-11-12","time":"18:31:12"},{"correct_response":"a","task":"test_phase","broad_category":"S","image_png":"S_Shale_07.png","image_id":471,"category_name":"Shale","category":30,"distinct_rating":2.73,"distinct_type":"Bottom","item_type":"Foil","rt":854,"stimulus":"Stimuli_Rocks480/S_Shale_07.png","response":"l","trial_type":"image-keyboard-response","trial_index":119,"plugin_version":"2.1.0","time_elapsed":239782,"subject_id":"89034","group":"Group1","full_date":"2025-11-12T18:31:12.926Z","date":"2025-11-12","time":"18:31:12","cor_ans":false},{"trial_type":"html-keyboard-response","rt":null,"stimulus":"<p style=\"color: red; font-size: 50px; font-weight: bold;\">Incorrect</p>","response":null,"trial_index":120,"plugin_version":"2.1.0","time_elapsed":240288,"subject_id":"89034","group":"Group1","full_date":"2025-11-12T18:31:12.926Z","date":"2025-11-12","time":"18:31:12"},{"correct_response":"l","task":"test_phase","broad_category":"S","image_png":"S_Sandstone_15.png","image_id":463,"category_name":"Sandstone","category":29,"distinct_rating":2,"distinct_type":"Bottom","item_type":"Target","rt":2184,"stimulus":"Stimuli_Rocks480/S_Sandstone_15.png","response":"a","trial_type":"image-keyboard-response","trial_index":121,"plugin_version":"2.1.0","time_elapsed":242474,"subject_id":"89034","group":"Group1","full_date":"2025-11-12T18:31:12.926Z","date":"2025-11-12","time":"18:31:12","cor_ans":false},{"trial_type":"html-keyboard-response","rt":null,"stimulus":"<p style=\"color: red; font-size: 50px; font-weight: bold;\">Incorrect</p>","response":null,"trial_index":122,"plugin_version":"2.1.0","time_elapsed":242975,"subject_id":"89034","group":"Group1","full_date":"2025-11-12T18:31:12.926Z","date":"2025-11-12","time":"18:31:12"},{"correct_response":"a","task":"test_phase","broad_category":"M","image_png":"M_Quartzite_15.png","image_id":287,"category_name":"Quartzite","category":18,"distinct_rating":2.19,"distinct_type":"Bottom","item_type":"Foil","rt":1880,"stimulus":"Stimuli_Rocks480/M_Quartzite_15.png","response":"l","trial_type":"image-keyboard-response","trial_index":123,"plugin_version":"2.1.0","time_elapsed":244856,"subject_id":"89034","group":"Group1","full_date":"2025-11-12T18:31:12.926Z","date":"2025-11-12","time":"18:31:12","cor_ans":false},{"trial_type":"html-keyboard-response","rt":null,"stimulus":"<p style=\"color: red; font-size: 50px; font-weight: bold;\">Incorrect</p>","response":null,"trial_index":124,"plugin_version":"2.1.0","time_elapsed":245358,"subject_id":"89034","group":"Group1","full_date":"2025-11-12T18:31:12.926Z","date":"2025-11-12","time":"18:31:12"},{"correct_response":"l","task":"test_phase","broad_category":"M","image_png":"M_Phyllite_10.png","image_id":266,"category_name":"Phyllite","category":17,"distinct_rating":2.6,"distinct_type":"Bottom","item_type":"Target","rt":1470,"stimulus":"Stimuli_Rocks480/M_Phyllite_10.png","response":"l","trial_type":"image-keyboard-response","trial_index":125,"plugin_version":"2.1.0","time_elapsed":246830,"subject_id":"89034","group":"Group1","full_date":"2025-11-12T18:31:12.926Z","date":"2025-11-12","time":"18:31:12","cor_ans":true},{"trial_type":"html-keyboard-response","rt":null,"stimulus":"<p style=\"color: green; font-size: 50px; font-weight: bold;\">Correct</p>","response":null,"trial_index":126,"plugin_version":"2.1.0","time_elapsed":247331,"subject_id":"89034","group":"Group1","full_date":"2025-11-12T18:31:12.926Z","date":"2025-11-12","time":"18:31:12"},{"correct_response":"l","task":"test_phase","broad_category":"M","image_png":"M_Marble_06.png","image_id":230,"category_name":"Marble","category":15,"distinct_rating":3.4,"distinct_type":"Bottom","item_type":"Target","rt":1086,"stimulus":"Stimuli_Rocks480/M_Marble_06.png","response":"l","trial_type":"image-keyboard-response","trial_index":127,"plugin_version":"2.1.0","time_elapsed":248419,"subject_id":"89034","group":"Group1","full_date":"2025-11-12T18:31:12.926Z","date":"2025-11-12","time":"18:31:12","cor_ans":true},{"trial_type":"html-keyboard-response","rt":null,"stimulus":"<p style=\"color: green; font-size: 50px; font-weight: bold;\">Correct</p>","response":null,"trial_index":128,"plugin_version":"2.1.0","time_elapsed":248920,"subject_id":"89034","group":"Group1","full_date":"2025-11-12T18:31:12.926Z","date":"2025-11-12","time":"18:31:12"},{"correct_response":"a","task":"test_phase","broad_category":"I","image_png":"I_Andesite_09.png","image_id":9,"category_name":"Andesite","category":1,"distinct_rating":2.49,"distinct_type":"Bottom","item_type":"Foil","rt":1094,"stimulus":"Stimuli_Rocks480/I_Andesite_09.png","response":"l","trial_type":"image-keyboard-response","trial_index":129,"plugin_version":"2.1.0","time_elapsed":250016,"subject_id":"89034","group":"Group1","full_date":"2025-11-12T18:31:12.926Z","date":"2025-11-12","time":"18:31:12","cor_ans":false},{"trial_type":"html-keyboard-response","rt":null,"stimulus":"<p style=\"color: red; font-size: 50px; font-weight: bold;\">Incorrect</p>","response":null,"trial_index":130,"plugin_version":"2.1.0","time_elapsed":250517,"subject_id":"89034","group":"Group1","full_date":"2025-11-12T18:31:12.926Z","date":"2025-11-12","time":"18:31:12"},{"correct_response":"a","task":"test_phase","broad_category":"I","image_png":"I_Basalt_10.png","image_id":26,"category_name":"Basalt","category":2,"distinct_rating":2.76,"distinct_type":"Bottom","item_type":"Foil","rt":1429,"stimulus":"Stimuli_Rocks480/I_Basalt_10.png","response":"l","trial_type":"image-keyboard-response","trial_index":131,"plugin_version":"2.1.0","time_elapsed":251948,"subject_id":"89034","group":"Group1","full_date":"2025-11-12T18:31:12.926Z","date":"2025-11-12","time":"18:31:12","cor_ans":false},{"trial_type":"html-keyboard-response","rt":null,"stimulus":"<p style=\"color: red; font-size: 50px; font-weight: bold;\">Incorrect</p>","response":null,"trial_index":132,"plugin_version":"2.1.0","time_elapsed":252449,"subject_id":"89034","group":"Group1","full_date":"2025-11-12T18:31:12.926Z","date":"2025-11-12","time":"18:31:12"},{"correct_response":"l","task":"test_phase","broad_category":"S","image_png":"S_Sandstone_16.png","image_id":464,"category_name":"Sandstone","category":29,"distinct_rating":1.93,"distinct_type":"Bottom","item_type":"Target","rt":1288,"stimulus":"Stimuli_Rocks480/S_Sandstone_16.png","response":"a","trial_type":"image-keyboard-response","trial_index":133,"plugin_version":"2.1.0","time_elapsed":253738,"subject_id":"89034","group":"Group1","full_date":"2025-11-12T18:31:12.926Z","date":"2025-11-12","time":"18:31:12","cor_ans":false},{"trial_type":"html-keyboard-response","rt":null,"stimulus":"<p style=\"color: red; font-size: 50px; font-weight: bold;\">Incorrect</p>","response":null,"trial_index":134,"plugin_version":"2.1.0","time_elapsed":254240,"subject_id":"89034","group":"Group1","full_date":"2025-11-12T18:31:12.926Z","date":"2025-11-12","time":"18:31:12"},{"correct_response":"a","task":"test_phase","broad_category":"S","image_png":"S_Rock Salt_13.png","image_id":445,"category_name":"Rock Salt","category":28,"distinct_rating":7.58,"distinct_type":"Top","item_type":"Foil","rt":1093,"stimulus":"Stimuli_Rocks480/S_Rock Salt_13.png","response":"l","trial_type":"image-keyboard-response","trial_index":135,"plugin_version":"2.1.0","time_elapsed":255335,"subject_id":"89034","group":"Group1","full_date":"2025-11-12T18:31:12.926Z","date":"2025-11-12","time":"18:31:12","cor_ans":false},{"trial_type":"html-keyboard-response","rt":null,"stimulus":"<p style=\"color: red; font-size: 50px; font-weight: bold;\">Incorrect</p>","response":null,"trial_index":136,"plugin_version":"2.1.0","time_elapsed":255836,"subject_id":"89034","group":"Group1","full_date":"2025-11-12T18:31:12.926Z","date":"2025-11-12","time":"18:31:12"},{"correct_response":"a","task":"test_phase","broad_category":"I","image_png":"I_Gabbro_14.png","image_id":62,"category_name":"Gabbro","category":4,"distinct_rating":2.95,"distinct_type":"Bottom","item_type":"Foil","rt":14932,"stimulus":"Stimuli_Rocks480/I_Gabbro_14.png","response":"l","trial_type":"image-keyboard-response","trial_index":137,"plugin_version":"2.1.0","time_elapsed":270770,"subject_id":"89034","group":"Group1","full_date":"2025-11-12T18:31:12.926Z","date":"2025-11-12","time":"18:31:12","cor_ans":false},{"trial_type":"html-keyboard-response","rt":null,"stimulus":"<p style=\"color: red; font-size: 50px; font-weight: bold;\">Incorrect</p>","response":null,"trial_index":138,"plugin_version":"2.1.0","time_elapsed":271272,"subject_id":"89034","group":"Group1","full_date":"2025-11-12T18:31:12.926Z","date":"2025-11-12","time":"18:31:12"},{"correct_response":"a","task":"test_phase","broad_category":"I","image_png":"I_Diorite_15.png","image_id":47,"category_name":"Diorite","category":3,"distinct_rating":3.05,"distinct_type":"Bottom","item_type":"Foil","rt":990,"stimulus":"Stimuli_Rocks480/I_Diorite_15.png","response":"l","trial_type":"image-keyboard-response","trial_index":139,"plugin_version":"2.1.0","time_elapsed":272263,"subject_id":"89034","group":"Group1","full_date":"2025-11-12T18:31:12.926Z","date":"2025-11-12","time":"18:31:12","cor_ans":false},{"trial_type":"html-keyboard-response","rt":null,"stimulus":"<p style=\"color: red; font-size: 50px; font-weight: bold;\">Incorrect</p>","response":null,"trial_index":140,"plugin_version":"2.1.0","time_elapsed":272764,"subject_id":"89034","group":"Group1","full_date":"2025-11-12T18:31:12.926Z","date":"2025-11-12","time":"18:31:12"},{"correct_response":"l","task":"test_phase","broad_category":"I","image_png":"I_Rhyolite_14.png","image_id":158,"category_name":"Rhyolite","category":10,"distinct_rating":2.59,"distinct_type":"Bottom","item_type":"Target","rt":1553,"stimulus":"Stimuli_Rocks480/I_Rhyolite_14.png","response":"l","trial_type":"image-keyboard-response","trial_index":141,"plugin_version":"2.1.0","time_elapsed":274318,"subject_id":"89034","group":"Group1","full_date":"2025-11-12T18:31:12.926Z","date":"2025-11-12","time":"18:31:12","cor_ans":true},{"trial_type":"html-keyboard-response","rt":null,"stimulus":"<p style=\"color: green; font-size: 50px; font-weight: bold;\">Correct</p>","response":null,"trial_index":142,"plugin_version":"2.1.0","time_elapsed":274820,"subject_id":"89034","group":"Group1","full_date":"2025-11-12T18:31:12.926Z","date":"2025-11-12","time":"18:31:12"},{"correct_response":"l","task":"test_phase","broad_category":"S","image_png":"S_Dolomite_12.png","image_id":396,"category_name":"Dolomite","category":25,"distinct_rating":1.85,"distinct_type":"Bottom","item_type":"Target","rt":1908,"stimulus":"Stimuli_Rocks480/S_Dolomite_12.png","response":"l","trial_type":"image-keyboard-response","trial_index":143,"plugin_version":"2.1.0","time_elapsed":276729,"subject_id":"89034","group":"Group1","full_date":"2025-11-12T18:31:12.926Z","date":"2025-11-12","time":"18:31:12","cor_ans":true},{"trial_type":"html-keyboard-response","rt":null,"stimulus":"<p style=\"color: green; font-size: 50px; font-weight: bold;\">Correct</p>","response":null,"trial_index":144,"plugin_version":"2.1.0","time_elapsed":277231,"subject_id":"89034","group":"Group1","full_date":"2025-11-12T18:31:12.926Z","date":"2025-11-12","time":"18:31:12"},{"correct_response":"l","task":"test_phase","broad_category":"M","image_png":"M_Quartzite_08.png","image_id":280,"category_name":"Quartzite","category":18,"distinct_rating":2.15,"distinct_type":"Bottom","item_type":"Target","rt":2171,"stimulus":"Stimuli_Rocks480/M_Quartzite_08.png","response":"l","trial_type":"image-keyboard-response","trial_index":145,"plugin_version":"2.1.0","time_elapsed":279403,"subject_id":"89034","group":"Group1","full_date":"2025-11-12T18:31:12.926Z","date":"2025-11-12","time":"18:31:12","cor_ans":true},{"trial_type":"html-keyboard-response","rt":null,"stimulus":"<p style=\"color: green; font-size: 50px; font-weight: bold;\">Correct</p>","response":null,"trial_index":146,"plugin_version":"2.1.0","time_elapsed":279905,"subject_id":"89034","group":"Group1","full_date":"2025-11-12T18:31:12.926Z","date":"2025-11-12","time":"18:31:12"},{"correct_response":"l","task":"test_phase","broad_category":"S","image_png":"S_Shale_08.png","image_id":472,"category_name":"Shale","category":30,"distinct_rating":2.55,"distinct_type":"Bottom","item_type":"Target","rt":5098,"stimulus":"Stimuli_Rocks480/S_Shale_08.png","response":"a","trial_type":"image-keyboard-response","trial_index":147,"plugin_version":"2.1.0","time_elapsed":285004,"subject_id":"89034","group":"Group1","full_date":"2025-11-12T18:31:12.926Z","date":"2025-11-12","time":"18:31:12","cor_ans":false},{"trial_type":"html-keyboard-response","rt":null,"stimulus":"<p style=\"color: red; font-size: 50px; font-weight: bold;\">Incorrect</p>","response":null,"trial_index":148,"plugin_version":"2.1.0","time_elapsed":285505,"subject_id":"89034","group":"Group1","full_date":"2025-11-12T18:31:12.926Z","date":"2025-11-12","time":"18:31:12"},{"correct_response":"l","task":"test_phase","broad_category":"M","image_png":"M_Slate_15.png","image_id":319,"category_name":"Slate","category":20,"distinct_rating":2.13,"distinct_type":"Bottom","item_type":"Target","rt":739,"stimulus":"Stimuli_Rocks480/M_Slate_15.png","response":"l","trial_type":"image-keyboard-response","trial_index":149,"plugin_version":"2.1.0","time_elapsed":286246,"subject_id":"89034","group":"Group1","full_date":"2025-11-12T18:31:12.926Z","date":"2025-11-12","time":"18:31:12","cor_ans":true},{"trial_type":"html-keyboard-response","rt":null,"stimulus":"<p style=\"color: green; font-size: 50px; font-weight: bold;\">Correct</p>","response":null,"trial_index":150,"plugin_version":"2.1.0","time_elapsed":286747,"subject_id":"89034","group":"Group1","full_date":"2025-11-12T18:31:12.926Z","date":"2025-11-12","time":"18:31:12"},{"correct_response":"l","task":"test_phase","broad_category":"I","image_png":"I_Andesite_10.png","image_id":10,"category_name":"Andesite","category":1,"distinct_rating":3.15,"distinct_type":"Bottom","item_type":"Target","rt":992,"stimulus":"Stimuli_Rocks480/I_Andesite_10.png","response":"a","trial_type":"image-keyboard-response","trial_index":151,"plugin_version":"2.1.0","time_elapsed":287741,"subject_id":"89034","group":"Group1","full_date":"2025-11-12T18:31:12.926Z","date":"2025-11-12","time":"18:31:12","cor_ans":false},{"trial_type":"html-keyboard-response","rt":null,"stimulus":"<p style=\"color: red; font-size: 50px; font-weight: bold;\">Incorrect</p>","response":null,"trial_index":152,"plugin_version":"2.1.0","time_elapsed":288242,"subject_id":"89034","group":"Group1","full_date":"2025-11-12T18:31:12.926Z","date":"2025-11-12","time":"18:31:12"},{"correct_response":"l","task":"test_phase","broad_category":"I","image_png":"I_Basalt_09.png","image_id":25,"category_name":"Basalt","category":2,"distinct_rating":1.89,"distinct_type":"Bottom","item_type":"Target","rt":719,"stimulus":"Stimuli_Rocks480/I_Basalt_09.png","response":"l","trial_type":"image-keyboard-response","trial_index":153,"plugin_version":"2.1.0","time_elapsed":288963,"subject_id":"89034","group":"Group1","full_date":"2025-11-12T18:31:12.926Z","date":"2025-11-12","time":"18:31:12","cor_ans":true},{"trial_type":"html-keyboard-response","rt":null,"stimulus":"<p style=\"color: green; font-size: 50px; font-weight: bold;\">Correct</p>","response":null,"trial_index":154,"plugin_version":"2.1.0","time_elapsed":289465,"subject_id":"89034","group":"Group1","full_date":"2025-11-12T18:31:12.926Z","date":"2025-11-12","time":"18:31:12"},{"correct_response":"l","task":"test_phase","broad_category":"S","image_png":"S_Shale_12.png","image_id":476,"category_name":"Shale","category":30,"distinct_rating":2.48,"distinct_type":"Bottom","item_type":"Target","rt":1049,"stimulus":"Stimuli_Rocks480/S_Shale_12.png","response":"l","trial_type":"image-keyboard-response","trial_index":155,"plugin_version":"2.1.0","time_elapsed":290516,"subject_id":"89034","group":"Group1","full_date":"2025-11-12T18:31:12.926Z","date":"2025-11-12","time":"18:31:12","cor_ans":true},{"trial_type":"html-keyboard-response","rt":null,"stimulus":"<p style=\"color: green; font-size: 50px; font-weight: bold;\">Correct</p>","response":null,"trial_index":156,"plugin_version":"2.1.0","time_elapsed":291017,"subject_id":"89034","group":"Group1","full_date":"2025-11-12T18:31:12.926Z","date":"2025-11-12","time":"18:31:12"},{"correct_response":"l","task":"test_phase","broad_category":"I","image_png":"I_Pumice_11.png","image_id":139,"category_name":"Pumice","category":9,"distinct_rating":1.74,"distinct_type":"Bottom","item_type":"Target","rt":1432,"stimulus":"Stimuli_Rocks480/I_Pumice_11.png","response":"l","trial_type":"image-keyboard-response","trial_index":157,"plugin_version":"2.1.0","time_elapsed":292450,"subject_id":"89034","group":"Group1","full_date":"2025-11-12T18:31:12.926Z","date":"2025-11-12","time":"18:31:12","cor_ans":true},{"trial_type":"html-keyboard-response","rt":null,"stimulus":"<p style=\"color: green; font-size: 50px; font-weight: bold;\">Correct</p>","response":null,"trial_index":158,"plugin_version":"2.1.0","time_elapsed":292952,"subject_id":"89034","group":"Group1","full_date":"2025-11-12T18:31:12.926Z","date":"2025-11-12","time":"18:31:12"},{"correct_response":"l","task":"test_phase","broad_category":"M","image_png":"M_Gneiss_05.png","image_id":197,"category_name":"Gneiss","category":13,"distinct_rating":2.97,"distinct_type":"Bottom","item_type":"Target","rt":865,"stimulus":"Stimuli_Rocks480/M_Gneiss_05.png","response":"l","trial_type":"image-keyboard-response","trial_index":159,"plugin_version":"2.1.0","time_elapsed":293818,"subject_id":"89034","group":"Group1","full_date":"2025-11-12T18:31:12.926Z","date":"2025-11-12","time":"18:31:12","cor_ans":true},{"trial_type":"html-keyboard-response","rt":null,"stimulus":"<p style=\"color: green; font-size: 50px; font-weight: bold;\">Correct</p>","response":null,"trial_index":160,"plugin_version":"2.1.0","time_elapsed":294320,"subject_id":"89034","group":"Group1","full_date":"2025-11-12T18:31:12.926Z","date":"2025-11-12","time":"18:31:12"},{"correct_response":"a","task":"test_phase","broad_category":"S","image_png":"S_Shale_02.png","image_id":466,"category_name":"Shale","category":30,"distinct_rating":2.9,"distinct_type":"Bottom","item_type":"Foil","rt":1733,"stimulus":"Stimuli_Rocks480/S_Shale_02.png","response":"l","trial_type":"image-keyboard-response","trial_index":161,"plugin_version":"2.1.0","time_elapsed":296055,"subject_id":"89034","group":"Group1","full_date":"2025-11-12T18:31:12.926Z","date":"2025-11-12","time":"18:31:12","cor_ans":false},{"trial_type":"html-keyboard-response","rt":null,"stimulus":"<p style=\"color: red; font-size: 50px; font-weight: bold;\">Incorrect</p>","response":null,"trial_index":162,"plugin_version":"2.1.0","time_elapsed":296555,"subject_id":"89034","group":"Group1","full_date":"2025-11-12T18:31:12.926Z","date":"2025-11-12","time":"18:31:12"},{"correct_response":"a","task":"test_phase","broad_category":"M","image_png":"M_Quartzite_07.png","image_id":279,"category_name":"Quartzite","category":18,"distinct_rating":1.97,"distinct_type":"Bottom","item_type":"Foil","rt":2214,"stimulus":"Stimuli_Rocks480/M_Quartzite_07.png","response":"l","trial_type":"image-keyboard-response","trial_index":163,"plugin_version":"2.1.0","time_elapsed":298771,"subject_id":"89034","group":"Group1","full_date":"2025-11-12T18:31:12.926Z","date":"2025-11-12","time":"18:31:12","cor_ans":false},{"trial_type":"html-keyboard-response","rt":null,"stimulus":"<p style=\"color: red; font-size: 50px; font-weight: bold;\">Incorrect</p>","response":null,"trial_index":164,"plugin_version":"2.1.0","time_elapsed":299272,"subject_id":"89034","group":"Group1","full_date":"2025-11-12T18:31:12.926Z","date":"2025-11-12","time":"18:31:12"},{"correct_response":"a","task":"test_phase","broad_category":"S","image_png":"S_Shale_03.png","image_id":467,"category_name":"Shale","category":30,"distinct_rating":1.95,"distinct_type":"Bottom","item_type":"Foil","rt":974,"stimulus":"Stimuli_Rocks480/S_Shale_03.png","response":"l","trial_type":"image-keyboard-response","trial_index":165,"plugin_version":"2.1.0","time_elapsed":300248,"subject_id":"89034","group":"Group1","full_date":"2025-11-12T18:31:12.926Z","date":"2025-11-12","time":"18:31:12","cor_ans":false},{"trial_type":"html-keyboard-response","rt":null,"stimulus":"<p style=\"color: red; font-size: 50px; font-weight: bold;\">Incorrect</p>","response":null,"trial_index":166,"plugin_version":"2.1.0","time_elapsed":300749,"subject_id":"89034","group":"Group1","full_date":"2025-11-12T18:31:12.926Z","date":"2025-11-12","time":"18:31:12"},{"correct_response":"l","task":"test_phase","broad_category":"S","image_png":"S_Rock Gypsum_04.png","image_id":420,"category_name":"Rock Gypsum","category":27,"distinct_rating":7.61,"distinct_type":"Top","item_type":"Target","rt":901,"stimulus":"Stimuli_Rocks480/S_Rock Gypsum_04.png","response":"a","trial_type":"image-keyboard-response","trial_index":167,"plugin_version":"2.1.0","time_elapsed":301652,"subject_id":"89034","group":"Group1","full_date":"2025-11-12T18:31:12.926Z","date":"2025-11-12","time":"18:31:12","cor_ans":false},{"trial_type":"html-keyboard-response","rt":null,"stimulus":"<p style=\"color: red; font-size: 50px; font-weight: bold;\">Incorrect</p>","response":null,"trial_index":168,"plugin_version":"2.1.0","time_elapsed":302153,"subject_id":"89034","group":"Group1","full_date":"2025-11-12T18:31:12.926Z","date":"2025-11-12","time":"18:31:12"},{"correct_response":"a","task":"test_phase","broad_category":"I","image_png":"I_Pegmatite_03.png","image_id":99,"category_name":"Pegmatite","category":7,"distinct_rating":7.24,"distinct_type":"Top","item_type":"Foil","rt":1073,"stimulus":"Stimuli_Rocks480/I_Pegmatite_03.png","response":"a","trial_type":"image-keyboard-response","trial_index":169,"plugin_version":"2.1.0","time_elapsed":303228,"subject_id":"89034","group":"Group1","full_date":"2025-11-12T18:31:12.926Z","date":"2025-11-12","time":"18:31:12","cor_ans":true},{"trial_type":"html-keyboard-response","rt":null,"stimulus":"<p style=\"color: green; font-size: 50px; font-weight: bold;\">Correct</p>","response":null,"trial_index":170,"plugin_version":"2.1.0","time_elapsed":303730,"subject_id":"89034","group":"Group1","full_date":"2025-11-12T18:31:12.926Z","date":"2025-11-12","time":"18:31:12"},{"correct_response":"a","task":"test_phase","broad_category":"I","image_png":"I_Andesite_04.png","image_id":4,"category_name":"Andesite","category":1,"distinct_rating":3.18,"distinct_type":"Bottom","item_type":"Foil","rt":1304,"stimulus":"Stimuli_Rocks480/I_Andesite_04.png","response":"l","trial_type":"image-keyboard-response","trial_index":171,"plugin_version":"2.1.0","time_elapsed":305036,"subject_id":"89034","group":"Group1","full_date":"2025-11-12T18:31:12.926Z","date":"2025-11-12","time":"18:31:12","cor_ans":false},{"trial_type":"html-keyboard-response","rt":null,"stimulus":"<p style=\"color: red; font-size: 50px; font-weight: bold;\">Incorrect</p>","response":null,"trial_index":172,"plugin_version":"2.1.0","time_elapsed":305537,"subject_id":"89034","group":"Group1","full_date":"2025-11-12T18:31:12.926Z","date":"2025-11-12","time":"18:31:12"},{"correct_response":"a","task":"test_phase","broad_category":"I","image_png":"I_Rhyolite_08.png","image_id":152,"category_name":"Rhyolite","category":10,"distinct_rating":1.38,"distinct_type":"Bottom","item_type":"Foil","rt":918,"stimulus":"Stimuli_Rocks480/I_Rhyolite_08.png","response":"l","trial_type":"image-keyboard-response","trial_index":173,"plugin_version":"2.1.0","time_elapsed":306457,"subject_id":"89034","group":"Group1","full_date":"2025-11-12T18:31:12.926Z","date":"2025-11-12","time":"18:31:12","cor_ans":false},{"trial_type":"html-keyboard-response","rt":null,"stimulus":"<p style=\"color: red; font-size: 50px; font-weight: bold;\">Incorrect</p>","response":null,"trial_index":174,"plugin_version":"2.1.0","time_elapsed":306959,"subject_id":"89034","group":"Group1","full_date":"2025-11-12T18:31:12.926Z","date":"2025-11-12","time":"18:31:12"},{"correct_response":"l","task":"test_phase","broad_category":"I","image_png":"I_Rhyolite_16.png","image_id":160,"category_name":"Rhyolite","category":10,"distinct_rating":2.19,"distinct_type":"Bottom","item_type":"Target","rt":1186,"stimulus":"Stimuli_Rocks480/I_Rhyolite_16.png","response":"l","trial_type":"image-keyboard-response","trial_index":175,"plugin_version":"2.1.0","time_elapsed":308146,"subject_id":"89034","group":"Group1","full_date":"2025-11-12T18:31:12.926Z","date":"2025-11-12","time":"18:31:12","cor_ans":true},{"trial_type":"html-keyboard-response","rt":null,"stimulus":"<p style=\"color: green; font-size: 50px; font-weight: bold;\">Correct</p>","response":null,"trial_index":176,"plugin_version":"2.1.0","time_elapsed":308648,"subject_id":"89034","group":"Group1","full_date":"2025-11-12T18:31:12.926Z","date":"2025-11-12","time":"18:31:12"},{"correct_response":"a","task":"test_phase","broad_category":"S","image_png":"S_Dolomite_16.png","image_id":400,"category_name":"Dolomite","category":25,"distinct_rating":1.71,"distinct_type":"Bottom","item_type":"Foil","rt":1011,"stimulus":"Stimuli_Rocks480/S_Dolomite_16.png","response":"a","trial_type":"image-keyboard-response","trial_index":177,"plugin_version":"2.1.0","time_elapsed":309661,"subject_id":"89034","group":"Group1","full_date":"2025-11-12T18:31:12.926Z","date":"2025-11-12","time":"18:31:12","cor_ans":true},{"trial_type":"html-keyboard-response","rt":null,"stimulus":"<p style=\"color: green; font-size: 50px; font-weight: bold;\">Correct</p>","response":null,"trial_index":178,"plugin_version":"2.1.0","time_elapsed":310163,"subject_id":"89034","group":"Group1","full_date":"2025-11-12T18:31:12.926Z","date":"2025-11-12","time":"18:31:12"},{"correct_response":"l","task":"test_phase","broad_category":"S","image_png":"S_Chert_10.png","image_id":362,"category_name":"Chert","category":23,"distinct_rating":7.17,"distinct_type":"Top","item_type":"Target","rt":834,"stimulus":"Stimuli_Rocks480/S_Chert_10.png","response":"a","trial_type":"image-keyboard-response","trial_index":179,"plugin_version":"2.1.0","time_elapsed":310998,"subject_id":"89034","group":"Group1","full_date":"2025-11-12T18:31:12.926Z","date":"2025-11-12","time":"18:31:12","cor_ans":false},{"trial_type":"html-keyboard-response","rt":null,"stimulus":"<p style=\"color: red; font-size: 50px; font-weight: bold;\">Incorrect</p>","response":null,"trial_index":180,"plugin_version":"2.1.0","time_elapsed":311499,"subject_id":"89034","group":"Group1","full_date":"2025-11-12T18:31:12.926Z","date":"2025-11-12","time":"18:31:12"},{"correct_response":"a","task":"test_phase","broad_category":"M","image_png":"M_Slate_04.png","image_id":308,"category_name":"Slate","category":20,"distinct_rating":2.2,"distinct_type":"Bottom","item_type":"Foil","rt":2533,"stimulus":"Stimuli_Rocks480/M_Slate_04.png","response":"l","trial_type":"image-keyboard-response","trial_index":181,"plugin_version":"2.1.0","time_elapsed":314033,"subject_id":"89034","group":"Group1","full_date":"2025-11-12T18:31:12.926Z","date":"2025-11-12","time":"18:31:12","cor_ans":false},{"trial_type":"html-keyboard-response","rt":null,"stimulus":"<p style=\"color: red; font-size: 50px; font-weight: bold;\">Incorrect</p>","response":null,"trial_index":182,"plugin_version":"2.1.0","time_elapsed":314535,"subject_id":"89034","group":"Group1","full_date":"2025-11-12T18:31:12.926Z","date":"2025-11-12","time":"18:31:12"},{"correct_response":"a","task":"test_phase","broad_category":"M","image_png":"M_Gneiss_14.png","image_id":206,"category_name":"Gneiss","category":13,"distinct_rating":3.41,"distinct_type":"Bottom","item_type":"Foil","rt":1545,"stimulus":"Stimuli_Rocks480/M_Gneiss_14.png","response":"l","trial_type":"image-keyboard-response","trial_index":183,"plugin_version":"2.1.0","time_elapsed":316082,"subject_id":"89034","group":"Group1","full_date":"2025-11-12T18:31:12.926Z","date":"2025-11-12","time":"18:31:12","cor_ans":false},{"trial_type":"html-keyboard-response","rt":null,"stimulus":"<p style=\"color: red; font-size: 50px; font-weight: bold;\">Incorrect</p>","response":null,"trial_index":184,"plugin_version":"2.1.0","time_elapsed":316583,"subject_id":"89034","group":"Group1","full_date":"2025-11-12T18:31:12.926Z","date":"2025-11-12","time":"18:31:12"},{"correct_response":"a","task":"test_phase","broad_category":"S","image_png":"S_Dolomite_07.png","image_id":391,"category_name":"Dolomite","category":25,"distinct_rating":1.73,"distinct_type":"Bottom","item_type":"Foil","rt":1328,"stimulus":"Stimuli_Rocks480/S_Dolomite_07.png","response":"a","trial_type":"image-keyboard-response","trial_index":185,"plugin_version":"2.1.0","time_elapsed":317912,"subject_id":"89034","group":"Group1","full_date":"2025-11-12T18:31:12.926Z","date":"2025-11-12","time":"18:31:12","cor_ans":true},{"trial_type":"html-keyboard-response","rt":null,"stimulus":"<p style=\"color: green; font-size: 50px; font-weight: bold;\">Correct</p>","response":null,"trial_index":186,"plugin_version":"2.1.0","time_elapsed":318414,"subject_id":"89034","group":"Group1","full_date":"2025-11-12T18:31:12.926Z","date":"2025-11-12","time":"18:31:12"},{"correct_response":"a","task":"test_phase","broad_category":"I","image_png":"I_Pumice_14.png","image_id":142,"category_name":"Pumice","category":9,"distinct_rating":3.22,"distinct_type":"Bottom","item_type":"Foil","rt":1102,"stimulus":"Stimuli_Rocks480/I_Pumice_14.png","response":"l","trial_type":"image-keyboard-response","trial_index":187,"plugin_version":"2.1.0","time_elapsed":319517,"subject_id":"89034","group":"Group1","full_date":"2025-11-12T18:31:12.926Z","date":"2025-11-12","time":"18:31:12","cor_ans":false},{"trial_type":"html-keyboard-response","rt":null,"stimulus":"<p style=\"color: red; font-size: 50px; font-weight: bold;\">Incorrect</p>","response":null,"trial_index":188,"plugin_version":"2.1.0","time_elapsed":320018,"subject_id":"89034","group":"Group1","full_date":"2025-11-12T18:31:12.926Z","date":"2025-11-12","time":"18:31:12"},{"correct_response":"l","task":"test_phase","broad_category":"S","image_png":"S_Sandstone_03.png","image_id":451,"category_name":"Sandstone","category":29,"distinct_rating":1.86,"distinct_type":"Bottom","item_type":"Target","rt":1615,"stimulus":"Stimuli_Rocks480/S_Sandstone_03.png","response":"l","trial_type":"image-keyboard-response","trial_index":189,"plugin_version":"2.1.0","time_elapsed":321635,"subject_id":"89034","group":"Group1","full_date":"2025-11-12T18:31:12.926Z","date":"2025-11-12","time":"18:31:12","cor_ans":true},{"trial_type":"html-keyboard-response","rt":null,"stimulus":"<p style=\"color: green; font-size: 50px; font-weight: bold;\">Correct</p>","response":null,"trial_index":190,"plugin_version":"2.1.0","time_elapsed":322136,"subject_id":"89034","group":"Group1","full_date":"2025-11-12T18:31:12.926Z","date":"2025-11-12","time":"18:31:12"},{"correct_response":"l","task":"test_phase","broad_category":"S","image_png":"S_Conglomerate_05.png","image_id":373,"category_name":"Conglomerate","category":24,"distinct_rating":7.32,"distinct_type":"Top","item_type":"Target","rt":999,"stimulus":"Stimuli_Rocks480/S_Conglomerate_05.png","response":"a","trial_type":"image-keyboard-response","trial_index":191,"plugin_version":"2.1.0","time_elapsed":323136,"subject_id":"89034","group":"Group1","full_date":"2025-11-12T18:31:12.926Z","date":"2025-11-12","time":"18:31:12","cor_ans":false},{"trial_type":"html-keyboard-response","rt":null,"stimulus":"<p style=\"color: red; font-size: 50px; font-weight: bold;\">Incorrect</p>","response":null,"trial_index":192,"plugin_version":"2.1.0","time_elapsed":323638,"subject_id":"89034","group":"Group1","full_date":"2025-11-12T18:31:12.926Z","date":"2025-11-12","time":"18:31:12"},{"correct_response":"l","task":"test_phase","broad_category":"M","image_png":"M_Gneiss_06.png","image_id":198,"category_name":"Gneiss","category":13,"distinct_rating":2.65,"distinct_type":"Bottom","item_type":"Target","rt":1388,"stimulus":"Stimuli_Rocks480/M_Gneiss_06.png","response":"l","trial_type":"image-keyboard-response","trial_index":193,"plugin_version":"2.1.0","time_elapsed":325027,"subject_id":"89034","group":"Group1","full_date":"2025-11-12T18:31:12.926Z","date":"2025-11-12","time":"18:31:12","cor_ans":true},{"trial_type":"html-keyboard-response","rt":null,"stimulus":"<p style=\"color: green; font-size: 50px; font-weight: bold;\">Correct</p>","response":null,"trial_index":194,"plugin_version":"2.1.0","time_elapsed":325529,"subject_id":"89034","group":"Group1","full_date":"2025-11-12T18:31:12.926Z","date":"2025-11-12","time":"18:31:12"},{"correct_response":"a","task":"test_phase","broad_category":"S","image_png":"S_Sandstone_04.png","image_id":452,"category_name":"Sandstone","category":29,"distinct_rating":1.8,"distinct_type":"Bottom","item_type":"Foil","rt":1973,"stimulus":"Stimuli_Rocks480/S_Sandstone_04.png","response":"l","trial_type":"image-keyboard-response","trial_index":195,"plugin_version":"2.1.0","time_elapsed":327504,"subject_id":"89034","group":"Group1","full_date":"2025-11-12T18:31:12.926Z","date":"2025-11-12","time":"18:31:12","cor_ans":false},{"trial_type":"html-keyboard-response","rt":null,"stimulus":"<p style=\"color: red; font-size: 50px; font-weight: bold;\">Incorrect</p>","response":null,"trial_index":196,"plugin_version":"2.1.0","time_elapsed":328006,"subject_id":"89034","group":"Group1","full_date":"2025-11-12T18:31:12.926Z","date":"2025-11-12","time":"18:31:12"},{"correct_response":"a","task":"test_phase","broad_category":"I","image_png":"I_Pumice_13.png","image_id":141,"category_name":"Pumice","category":9,"distinct_rating":3.12,"distinct_type":"Bottom","item_type":"Foil","rt":776,"stimulus":"Stimuli_Rocks480/I_Pumice_13.png","response":"a","trial_type":"image-keyboard-response","trial_index":197,"plugin_version":"2.1.0","time_elapsed":328783,"subject_id":"89034","group":"Group1","full_date":"2025-11-12T18:31:12.926Z","date":"2025-11-12","time":"18:31:12","cor_ans":true},{"trial_type":"html-keyboard-response","rt":null,"stimulus":"<p style=\"color: green; font-size: 50px; font-weight: bold;\">Correct</p>","response":null,"trial_index":198,"plugin_version":"2.1.0","time_elapsed":329285,"subject_id":"89034","group":"Group1","full_date":"2025-11-12T18:31:12.926Z","date":"2025-11-12","time":"18:31:12"},{"correct_response":"a","task":"test_phase","broad_category":"M","image_png":"M_Slate_10.png","image_id":314,"category_name":"Slate","category":20,"distinct_rating":1.94,"distinct_type":"Bottom","item_type":"Foil","rt":1186,"stimulus":"Stimuli_Rocks480/M_Slate_10.png","response":"a","trial_type":"image-keyboard-response","trial_index":199,"plugin_version":"2.1.0","time_elapsed":330472,"subject_id":"89034","group":"Group1","full_date":"2025-11-12T18:31:12.926Z","date":"2025-11-12","time":"18:31:12","cor_ans":true},{"trial_type":"html-keyboard-response","rt":null,"stimulus":"<p style=\"color: green; font-size: 50px; font-weight: bold;\">Correct</p>","response":null,"trial_index":200,"plugin_version":"2.1.0","time_elapsed":330974,"subject_id":"89034","group":"Group1","full_date":"2025-11-12T18:31:12.926Z","date":"2025-11-12","time":"18:31:12"},{"correct_response":"l","task":"test_phase","broad_category":"I","image_png":"I_Pegmatite_10.png","image_id":106,"category_name":"Pegmatite","category":7,"distinct_rating":7.66,"distinct_type":"Top","item_type":"Target","rt":840,"stimulus":"Stimuli_Rocks480/I_Pegmatite_10.png","response":"a","trial_type":"image-keyboard-response","trial_index":201,"plugin_version":"2.1.0","time_elapsed":331815,"subject_id":"89034","group":"Group1","full_date":"2025-11-12T18:31:12.926Z","date":"2025-11-12","time":"18:31:12","cor_ans":false},{"trial_type":"html-keyboard-response","rt":null,"stimulus":"<p style=\"color: red; font-size: 50px; font-weight: bold;\">Incorrect</p>","response":null,"trial_index":202,"plugin_version":"2.1.0","time_elapsed":332316,"subject_id":"89034","group":"Group1","full_date":"2025-11-12T18:31:12.926Z","date":"2025-11-12","time":"18:31:12"},{"correct_response":"l","task":"test_phase","broad_category":"M","image_png":"M_Slate_11.png","image_id":315,"category_name":"Slate","category":20,"distinct_rating":2.75,"distinct_type":"Bottom","item_type":"Target","rt":1335,"stimulus":"Stimuli_Rocks480/M_Slate_11.png","response":"l","trial_type":"image-keyboard-response","trial_index":203,"plugin_version":"2.1.0","time_elapsed":333653,"subject_id":"89034","group":"Group1","full_date":"2025-11-12T18:31:12.926Z","date":"2025-11-12","time":"18:31:12","cor_ans":true},{"trial_type":"html-keyboard-response","rt":null,"stimulus":"<p style=\"color: green; font-size: 50px; font-weight: bold;\">Correct</p>","response":null,"trial_index":204,"plugin_version":"2.1.0","time_elapsed":334154,"subject_id":"89034","group":"Group1","full_date":"2025-11-12T18:31:12.926Z","date":"2025-11-12","time":"18:31:12"},{"correct_response":"l","task":"test_phase","broad_category":"M","image_png":"M_Gneiss_13.png","image_id":205,"category_name":"Gneiss","category":13,"distinct_rating":3.26,"distinct_type":"Bottom","item_type":"Target","rt":1841,"stimulus":"Stimuli_Rocks480/M_Gneiss_13.png","response":"l","trial_type":"image-keyboard-response","trial_index":205,"plugin_version":"2.1.0","time_elapsed":335997,"subject_id":"89034","group":"Group1","full_date":"2025-11-12T18:31:12.926Z","date":"2025-11-12","time":"18:31:12","cor_ans":true},{"trial_type":"html-keyboard-response","rt":null,"stimulus":"<p style=\"color: green; font-size: 50px; font-weight: bold;\">Correct</p>","response":null,"trial_index":206,"plugin_version":"2.1.0","time_elapsed":336499,"subject_id":"89034","group":"Group1","full_date":"2025-11-12T18:31:12.926Z","date":"2025-11-12","time":"18:31:12"},{"correct_response":"a","task":"test_phase","broad_category":"S","image_png":"S_Rock Salt_15.png","image_id":447,"category_name":"Rock Salt","category":28,"distinct_rating":7.79,"distinct_type":"Top","item_type":"Foil","rt":958,"stimulus":"Stimuli_Rocks480/S_Rock Salt_15.png","response":"a","trial_type":"image-keyboard-response","trial_index":207,"plugin_version":"2.1.0","time_elapsed":337459,"subject_id":"89034","group":"Group1","full_date":"2025-11-12T18:31:12.926Z","date":"2025-11-12","time":"18:31:12","cor_ans":true},{"trial_type":"html-keyboard-response","rt":null,"stimulus":"<p style=\"color: green; font-size: 50px; font-weight: bold;\">Correct</p>","response":null,"trial_index":208,"plugin_version":"2.1.0","time_elapsed":337960,"subject_id":"89034","group":"Group1","full_date":"2025-11-12T18:31:12.926Z","date":"2025-11-12","time":"18:31:12"},{"correct_response":"l","task":"test_phase","broad_category":"M","image_png":"M_Slate_03.png","image_id":307,"category_name":"Slate","category":20,"distinct_rating":1.87,"distinct_type":"Bottom","item_type":"Target","rt":1939,"stimulus":"Stimuli_Rocks480/M_Slate_03.png","response":"l","trial_type":"image-keyboard-response","trial_index":209,"plugin_version":"2.1.0","time_elapsed":339901,"subject_id":"89034","group":"Group1","full_date":"2025-11-12T18:31:12.926Z","date":"2025-11-12","time":"18:31:12","cor_ans":true},{"trial_type":"html-keyboard-response","rt":null,"stimulus":"<p style=\"color: green; font-size: 50px; font-weight: bold;\">Correct</p>","response":null,"trial_index":210,"plugin_version":"2.1.0","time_elapsed":340402,"subject_id":"89034","group":"Group1","full_date":"2025-11-12T18:31:12.926Z","date":"2025-11-12","time":"18:31:12"},{"correct_response":"a","task":"test_phase","broad_category":"M","image_png":"M_Phyllite_02.png","image_id":258,"category_name":"Phyllite","category":17,"distinct_rating":2.89,"distinct_type":"Bottom","item_type":"Foil","rt":1315,"stimulus":"Stimuli_Rocks480/M_Phyllite_02.png","response":"a","trial_type":"image-keyboard-response","trial_index":211,"plugin_version":"2.1.0","time_elapsed":341723,"subject_id":"89034","group":"Group1","full_date":"2025-11-12T18:31:12.926Z","date":"2025-11-12","time":"18:31:12","cor_ans":true},{"trial_type":"html-keyboard-response","rt":null,"stimulus":"<p style=\"color: green; font-size: 50px; font-weight: bold;\">Correct</p>","response":null,"trial_index":212,"plugin_version":"2.1.0","time_elapsed":342224,"subject_id":"89034","group":"Group1","full_date":"2025-11-12T18:31:12.926Z","date":"2025-11-12","time":"18:31:12"},{"correct_response":"l","task":"test_phase","broad_category":"I","image_png":"I_Gabbro_11.png","image_id":59,"category_name":"Gabbro","category":4,"distinct_rating":1.99,"distinct_type":"Bottom","item_type":"Target","rt":1266,"stimulus":"Stimuli_Rocks480/I_Gabbro_11.png","response":"a","trial_type":"image-keyboard-response","trial_index":213,"plugin_version":"2.1.0","time_elapsed":343492,"subject_id":"89034","group":"Group1","full_date":"2025-11-12T18:31:12.926Z","date":"2025-11-12","time":"18:31:12","cor_ans":false},{"trial_type":"html-keyboard-response","rt":null,"stimulus":"<p style=\"color: red; font-size: 50px; font-weight: bold;\">Incorrect</p>","response":null,"trial_index":214,"plugin_version":"2.1.0","time_elapsed":343993,"subject_id":"89034","group":"Group1","full_date":"2025-11-12T18:31:12.926Z","date":"2025-11-12","time":"18:31:12"},{"correct_response":"a","task":"test_phase","broad_category":"I","image_png":"I_Gabbro_12.png","image_id":60,"category_name":"Gabbro","category":4,"distinct_rating":2.6,"distinct_type":"Bottom","item_type":"Foil","rt":1579,"stimulus":"Stimuli_Rocks480/I_Gabbro_12.png","response":"l","trial_type":"image-keyboard-response","trial_index":215,"plugin_version":"2.1.0","time_elapsed":345574,"subject_id":"89034","group":"Group1","full_date":"2025-11-12T18:31:12.926Z","date":"2025-11-12","time":"18:31:12","cor_ans":false},{"trial_type":"html-keyboard-response","rt":null,"stimulus":"<p style=\"color: red; font-size: 50px; font-weight: bold;\">Incorrect</p>","response":null,"trial_index":216,"plugin_version":"2.1.0","time_elapsed":346075,"subject_id":"89034","group":"Group1","full_date":"2025-11-12T18:31:12.926Z","date":"2025-11-12","time":"18:31:12"},{"correct_response":"l","task":"test_phase","broad_category":"M","image_png":"M_Quartzite_13.png","image_id":285,"category_name":"Quartzite","category":18,"distinct_rating":2.27,"distinct_type":"Bottom","item_type":"Target","rt":1058,"stimulus":"Stimuli_Rocks480/M_Quartzite_13.png","response":"a","trial_type":"image-keyboard-response","trial_index":217,"plugin_version":"2.1.0","time_elapsed":347134,"subject_id":"89034","group":"Group1","full_date":"2025-11-12T18:31:12.926Z","date":"2025-11-12","time":"18:31:12","cor_ans":false},{"trial_type":"html-keyboard-response","rt":null,"stimulus":"<p style=\"color: red; font-size: 50px; font-weight: bold;\">Incorrect</p>","response":null,"trial_index":218,"plugin_version":"2.1.0","time_elapsed":347636,"subject_id":"89034","group":"Group1","full_date":"2025-11-12T18:31:12.926Z","date":"2025-11-12","time":"18:31:12"},{"correct_response":"l","task":"test_phase","broad_category":"I","image_png":"I_Diorite_04.png","image_id":36,"category_name":"Diorite","category":3,"distinct_rating":2.98,"distinct_type":"Bottom","item_type":"Target","rt":1581,"stimulus":"Stimuli_Rocks480/I_Diorite_04.png","response":"l","trial_type":"image-keyboard-response","trial_index":219,"plugin_version":"2.1.0","time_elapsed":349218,"subject_id":"89034","group":"Group1","full_date":"2025-11-12T18:31:12.926Z","date":"2025-11-12","time":"18:31:12","cor_ans":true},{"trial_type":"html-keyboard-response","rt":null,"stimulus":"<p style=\"color: green; font-size: 50px; font-weight: bold;\">Correct</p>","response":null,"trial_index":220,"plugin_version":"2.1.0","time_elapsed":349720,"subject_id":"89034","group":"Group1","full_date":"2025-11-12T18:31:12.926Z","date":"2025-11-12","time":"18:31:12"},{"correct_response":"l","task":"test_phase","broad_category":"I","image_png":"I_Basalt_01.png","image_id":17,"category_name":"Basalt","category":2,"distinct_rating":1.92,"distinct_type":"Bottom","item_type":"Target","rt":1209,"stimulus":"Stimuli_Rocks480/I_Basalt_01.png","response":"a","trial_type":"image-keyboard-response","trial_index":221,"plugin_version":"2.1.0","time_elapsed":350931,"subject_id":"89034","group":"Group1","full_date":"2025-11-12T18:31:12.926Z","date":"2025-11-12","time":"18:31:12","cor_ans":false},{"trial_type":"html-keyboard-response","rt":null,"stimulus":"<p style=\"color: red; font-size: 50px; font-weight: bold;\">Incorrect</p>","response":null,"trial_index":222,"plugin_version":"2.1.0","time_elapsed":351432,"subject_id":"89034","group":"Group1","full_date":"2025-11-12T18:31:12.926Z","date":"2025-11-12","time":"18:31:12"},{"correct_response":"l","task":"test_phase","broad_category":"S","image_png":"S_Shale_01.png","image_id":465,"category_name":"Shale","category":30,"distinct_rating":2.7,"distinct_type":"Bottom","item_type":"Target","rt":1046,"stimulus":"Stimuli_Rocks480/S_Shale_01.png","response":"a","trial_type":"image-keyboard-response","trial_index":223,"plugin_version":"2.1.0","time_elapsed":352480,"subject_id":"89034","group":"Group1","full_date":"2025-11-12T18:31:12.926Z","date":"2025-11-12","time":"18:31:12","cor_ans":false},{"trial_type":"html-keyboard-response","rt":null,"stimulus":"<p style=\"color: red; font-size: 50px; font-weight: bold;\">Incorrect</p>","response":null,"trial_index":224,"plugin_version":"2.1.0","time_elapsed":352981,"subject_id":"89034","group":"Group1","full_date":"2025-11-12T18:31:12.926Z","date":"2025-11-12","time":"18:31:12"},{"correct_response":"l","task":"test_phase","broad_category":"I","image_png":"I_Pegmatite_16.png","image_id":112,"category_name":"Pegmatite","category":7,"distinct_rating":7.03,"distinct_type":"Top","item_type":"Target","rt":1089,"stimulus":"Stimuli_Rocks480/I_Pegmatite_16.png","response":"l","trial_type":"image-keyboard-response","trial_index":225,"plugin_version":"2.1.0","time_elapsed":354072,"subject_id":"89034","group":"Group1","full_date":"2025-11-12T18:31:12.926Z","date":"2025-11-12","time":"18:31:12","cor_ans":true},{"trial_type":"html-keyboard-response","rt":null,"stimulus":"<p style=\"color: green; font-size: 50px; font-weight: bold;\">Correct</p>","response":null,"trial_index":226,"plugin_version":"2.1.0","time_elapsed":354573,"subject_id":"89034","group":"Group1","full_date":"2025-11-12T18:31:12.926Z","date":"2025-11-12","time":"18:31:12"},{"correct_response":"a","task":"test_phase","broad_category":"M","image_png":"M_Marble_03.png","image_id":227,"category_name":"Marble","category":15,"distinct_rating":2.67,"distinct_type":"Bottom","item_type":"Foil","rt":1095,"stimulus":"Stimuli_Rocks480/M_Marble_03.png","response":"l","trial_type":"image-keyboard-response","trial_index":227,"plugin_version":"2.1.0","time_elapsed":355670,"subject_id":"89034","group":"Group1","full_date":"2025-11-12T18:31:12.926Z","date":"2025-11-12","time":"18:31:12","cor_ans":false},{"trial_type":"html-keyboard-response","rt":null,"stimulus":"<p style=\"color: red; font-size: 50px; font-weight: bold;\">Incorrect</p>","response":null,"trial_index":228,"plugin_version":"2.1.0","time_elapsed":356172,"subject_id":"89034","group":"Group1","full_date":"2025-11-12T18:31:12.926Z","date":"2025-11-12","time":"18:31:12"},{"correct_response":"a","task":"test_phase","broad_category":"I","image_png":"I_Andesite_03.png","image_id":3,"category_name":"Andesite","category":1,"distinct_rating":3.17,"distinct_type":"Bottom","item_type":"Foil","rt":2202,"stimulus":"Stimuli_Rocks480/I_Andesite_03.png","response":"a","trial_type":"image-keyboard-response","trial_index":229,"plugin_version":"2.1.0","time_elapsed":358375,"subject_id":"89034","group":"Group1","full_date":"2025-11-12T18:31:12.926Z","date":"2025-11-12","time":"18:31:12","cor_ans":true},{"trial_type":"html-keyboard-response","rt":null,"stimulus":"<p style=\"color: green; font-size: 50px; font-weight: bold;\">Correct</p>","response":null,"trial_index":230,"plugin_version":"2.1.0","time_elapsed":358876,"subject_id":"89034","group":"Group1","full_date":"2025-11-12T18:31:12.926Z","date":"2025-11-12","time":"18:31:12"},{"correct_response":"l","task":"test_phase","broad_category":"I","image_png":"I_Gabbro_16.png","image_id":64,"category_name":"Gabbro","category":4,"distinct_rating":2.52,"distinct_type":"Bottom","item_type":"Target","rt":1246,"stimulus":"Stimuli_Rocks480/I_Gabbro_16.png","response":"a","trial_type":"image-keyboard-response","trial_index":231,"plugin_version":"2.1.0","time_elapsed":360124,"subject_id":"89034","group":"Group1","full_date":"2025-11-12T18:31:12.926Z","date":"2025-11-12","time":"18:31:12","cor_ans":false},{"trial_type":"html-keyboard-response","rt":null,"stimulus":"<p style=\"color: red; font-size: 50px; font-weight: bold;\">Incorrect</p>","response":null,"trial_index":232,"plugin_version":"2.1.0","time_elapsed":360625,"subject_id":"89034","group":"Group1","full_date":"2025-11-12T18:31:12.926Z","date":"2025-11-12","time":"18:31:12"},{"correct_response":"a","task":"test_phase","broad_category":"M","image_png":"M_Phyllite_05.png","image_id":261,"category_name":"Phyllite","category":17,"distinct_rating":2.14,"distinct_type":"Bottom","item_type":"Foil","rt":1091,"stimulus":"Stimuli_Rocks480/M_Phyllite_05.png","response":"l","trial_type":"image-keyboard-response","trial_index":233,"plugin_version":"2.1.0","time_elapsed":361718,"subject_id":"89034","group":"Group1","full_date":"2025-11-12T18:31:12.926Z","date":"2025-11-12","time":"18:31:12","cor_ans":false},{"trial_type":"html-keyboard-response","rt":null,"stimulus":"<p style=\"color: red; font-size: 50px; font-weight: bold;\">Incorrect</p>","response":null,"trial_index":234,"plugin_version":"2.1.0","time_elapsed":362220,"subject_id":"89034","group":"Group1","full_date":"2025-11-12T18:31:12.926Z","date":"2025-11-12","time":"18:31:12"},{"correct_response":"a","task":"test_phase","broad_category":"S","image_png":"S_Sandstone_08.png","image_id":456,"category_name":"Sandstone","category":29,"distinct_rating":1.5,"distinct_type":"Bottom","item_type":"Foil","rt":1670,"stimulus":"Stimuli_Rocks480/S_Sandstone_08.png","response":"a","trial_type":"image-keyboard-response","trial_index":235,"plugin_version":"2.1.0","time_elapsed":363891,"subject_id":"89034","group":"Group1","full_date":"2025-11-12T18:31:12.926Z","date":"2025-11-12","time":"18:31:12","cor_ans