[{"width":1272,"height":674,"webaudio":true,"browser":"edge-chromium","browser_version":"141.0.0","mobile":false,"os":"Windows 10","fullscreen":true,"vsync_rate":58.47,"webcam":true,"microphone":true,"trial_type":"browser-check","trial_index":0,"plugin_version":"2.1.0","time_elapsed":1038,"subject_id":"87490","group":"Group1","full_date":"2025-11-09T17:22:01.649Z","date":"2025-11-09","time":"17:22:01"},{"success":true,"timeout":false,"failed_images":[],"failed_audio":[],"failed_video":[],"trial_type":"preload","trial_index":1,"plugin_version":"2.1.0","time_elapsed":25319,"subject_id":"87490","group":"Group1","full_date":"2025-11-09T17:22:01.649Z","date":"2025-11-09","time":"17:22:01"},{"rt":7820,"url":"SONA_consent_memorability.html","trial_type":"external-html","trial_index":2,"plugin_version":"2.1.0","time_elapsed":33202,"subject_id":"87490","group":"Group1","full_date":"2025-11-09T17:22:01.649Z","date":"2025-11-09","time":"17:22:01"},{"success":true,"rt":1461,"trial_type":"fullscreen","trial_index":3,"plugin_version":"2.1.0","time_elapsed":35680,"subject_id":"87490","group":"Group1","full_date":"2025-11-09T17:22:01.649Z","date":"2025-11-09","time":"17:22:01"},{"rt":3237,"stimulus":"<div style=\"max-width: 760px; margin: auto; font-size: 20px; line-height: 1.5;\">\n      <h1 style=\"text-align:center; font-size: 30px;\">Instructions</h1>\n      <p>\n        Welcome to the study on <b>visual memory</b>. This experiment consists of <b>two phases</b>: \n        a <b>study phase</b> and a <b>test phase</b>.\n      </p>\n      <p>\n        In the study phase, you will see a series of rock images along with their category labels.\n        The images will appear one at a time.\n        <b>Your task</b> is to learn the categories to which the rock images belong \n        and to remember each image as accurately as possible.\n      </p> \n      <p>\n        After the study phase, <b>your memory will be tested</b>. \n        Additional instructions for the test phase will be provided at that time.\n      </p>\n      <p>\n        If your computer has multiple <b>language settings</b> (e.g., English and another language),\n        please make sure it is set to English before starting.\n      </p>\n      <p>\n        You can track your progress using the <b>completion bar</b> at the top of the screen. \n        Please note that the bar will refresh when the test phase begins \n        to give you an accurate sense of your progress in both phases.\n      </p> \n      <p>\n        Press the button below when you are ready to begin.\n      </p>\n    </div>","response":0,"trial_type":"html-button-response","trial_index":4,"plugin_version":"2.1.0","time_elapsed":38920,"subject_id":"87490","group":"Group1","full_date":"2025-11-09T17:22:01.649Z","date":"2025-11-09","time":"17:22:01"},{"rt":null,"stimulus":"<p style=\"font-size: 50px; margin: 0; text-align: center;\">+</p>","response":null,"trial_type":"html-keyboard-response","trial_index":5,"plugin_version":"2.1.0","time_elapsed":39928,"subject_id":"87490","group":"Group1","full_date":"2025-11-09T17:22:01.649Z","date":"2025-11-09","time":"17:22:01"},{"task":"memory_phase","broad_category":"S","image_png":"S_Shale_08.png","image_id":472,"category_name":"Shale","category":30,"distinct_rating":2.55,"distinct_type":"Bottom","rt":null,"stimulus":"Stimuli_Rocks480/S_Shale_08.png","response":null,"trial_type":"image-keyboard-response","trial_index":6,"plugin_version":"2.1.0","time_elapsed":42447,"subject_id":"87490","group":"Group1","full_date":"2025-11-09T17:22:01.649Z","date":"2025-11-09","time":"17:22:01"},{"rt":null,"stimulus":"<p style=\"font-size: 50px; margin: 0; text-align: center;\">+</p>","response":null,"trial_type":"html-keyboard-response","trial_index":7,"plugin_version":"2.1.0","time_elapsed":43464,"subject_id":"87490","group":"Group1","full_date":"2025-11-09T17:22:01.649Z","date":"2025-11-09","time":"17:22:01"},{"task":"memory_phase","broad_category":"I","image_png":"I_Basalt_02.png","image_id":18,"category_name":"Basalt","category":2,"distinct_rating":1.84,"distinct_type":"Bottom","rt":null,"stimulus":"Stimuli_Rocks480/I_Basalt_02.png","response":null,"trial_type":"image-keyboard-response","trial_index":8,"plugin_version":"2.1.0","time_elapsed":45977,"subject_id":"87490","group":"Group1","full_date":"2025-11-09T17:22:01.649Z","date":"2025-11-09","time":"17:22:01"},{"rt":null,"stimulus":"<p style=\"font-size: 50px; margin: 0; text-align: center;\">+</p>","response":null,"trial_type":"html-keyboard-response","trial_index":9,"plugin_version":"2.1.0","time_elapsed":46990,"subject_id":"87490","group":"Group1","full_date":"2025-11-09T17:22:01.649Z","date":"2025-11-09","time":"17:22:01"},{"task":"memory_phase","broad_category":"M","image_png":"M_Slate_11.png","image_id":315,"category_name":"Slate","category":20,"distinct_rating":2.75,"distinct_type":"Bottom","rt":null,"stimulus":"Stimuli_Rocks480/M_Slate_11.png","response":null,"trial_type":"image-keyboard-response","trial_index":10,"plugin_version":"2.1.0","time_elapsed":49508,"subject_id":"87490","group":"Group1","full_date":"2025-11-09T17:22:01.649Z","date":"2025-11-09","time":"17:22:01"},{"rt":null,"stimulus":"<p style=\"font-size: 50px; margin: 0; text-align: center;\">+</p>","response":null,"trial_type":"html-keyboard-response","trial_index":11,"plugin_version":"2.1.0","time_elapsed":50516,"subject_id":"87490","group":"Group1","full_date":"2025-11-09T17:22:01.649Z","date":"2025-11-09","time":"17:22:01"},{"task":"memory_phase","broad_category":"M","image_png":"M_Gneiss_13.png","image_id":205,"category_name":"Gneiss","category":13,"distinct_rating":3.26,"distinct_type":"Bottom","rt":null,"stimulus":"Stimuli_Rocks480/M_Gneiss_13.png","response":null,"trial_type":"image-keyboard-response","trial_index":12,"plugin_version":"2.1.0","time_elapsed":53031,"subject_id":"87490","group":"Group1","full_date":"2025-11-09T17:22:01.649Z","date":"2025-11-09","time":"17:22:01"},{"rt":null,"stimulus":"<p style=\"font-size: 50px; margin: 0; text-align: center;\">+</p>","response":null,"trial_type":"html-keyboard-response","trial_index":13,"plugin_version":"2.1.0","time_elapsed":54042,"subject_id":"87490","group":"Group1","full_date":"2025-11-09T17:22:01.649Z","date":"2025-11-09","time":"17:22:01"},{"task":"memory_phase","broad_category":"I","image_png":"I_Pegmatite_10.png","image_id":106,"category_name":"Pegmatite","category":7,"distinct_rating":7.66,"distinct_type":"Top","rt":null,"stimulus":"Stimuli_Rocks480/I_Pegmatite_10.png","response":null,"trial_type":"image-keyboard-response","trial_index":14,"plugin_version":"2.1.0","time_elapsed":56551,"subject_id":"87490","group":"Group1","full_date":"2025-11-09T17:22:01.649Z","date":"2025-11-09","time":"17:22:01"},{"rt":null,"stimulus":"<p style=\"font-size: 50px; margin: 0; text-align: center;\">+</p>","response":null,"trial_type":"html-keyboard-response","trial_index":15,"plugin_version":"2.1.0","time_elapsed":57560,"subject_id":"87490","group":"Group1","full_date":"2025-11-09T17:22:01.649Z","date":"2025-11-09","time":"17:22:01"},{"task":"memory_phase","broad_category":"I","image_png":"I_Pumice_11.png","image_id":139,"category_name":"Pumice","category":9,"distinct_rating":1.74,"distinct_type":"Bottom","rt":null,"stimulus":"Stimuli_Rocks480/I_Pumice_11.png","response":null,"trial_type":"image-keyboard-response","trial_index":16,"plugin_version":"2.1.0","time_elapsed":60070,"subject_id":"87490","group":"Group1","full_date":"2025-11-09T17:22:01.649Z","date":"2025-11-09","time":"17:22:01"},{"rt":null,"stimulus":"<p style=\"font-size: 50px; margin: 0; text-align: center;\">+</p>","response":null,"trial_type":"html-keyboard-response","trial_index":17,"plugin_version":"2.1.0","time_elapsed":61085,"subject_id":"87490","group":"Group1","full_date":"2025-11-09T17:22:01.649Z","date":"2025-11-09","time":"17:22:01"},{"task":"memory_phase","broad_category":"M","image_png":"M_Phyllite_03.png","image_id":259,"category_name":"Phyllite","category":17,"distinct_rating":2.5,"distinct_type":"Bottom","rt":null,"stimulus":"Stimuli_Rocks480/M_Phyllite_03.png","response":null,"trial_type":"image-keyboard-response","trial_index":18,"plugin_version":"2.1.0","time_elapsed":63590,"subject_id":"87490","group":"Group1","full_date":"2025-11-09T17:22:01.649Z","date":"2025-11-09","time":"17:22:01"},{"rt":null,"stimulus":"<p style=\"font-size: 50px; margin: 0; text-align: center;\">+</p>","response":null,"trial_type":"html-keyboard-response","trial_index":19,"plugin_version":"2.1.0","time_elapsed":64595,"subject_id":"87490","group":"Group1","full_date":"2025-11-09T17:22:01.649Z","date":"2025-11-09","time":"17:22:01"},{"task":"memory_phase","broad_category":"S","image_png":"S_Dolomite_13.png","image_id":397,"category_name":"Dolomite","category":25,"distinct_rating":1.77,"distinct_type":"Bottom","rt":null,"stimulus":"Stimuli_Rocks480/S_Dolomite_13.png","response":null,"trial_type":"image-keyboard-response","trial_index":20,"plugin_version":"2.1.0","time_elapsed":67099,"subject_id":"87490","group":"Group1","full_date":"2025-11-09T17:22:01.649Z","date":"2025-11-09","time":"17:22:01"},{"rt":null,"stimulus":"<p style=\"font-size: 50px; margin: 0; text-align: center;\">+</p>","response":null,"trial_type":"html-keyboard-response","trial_index":21,"plugin_version":"2.1.0","time_elapsed":68106,"subject_id":"87490","group":"Group1","full_date":"2025-11-09T17:22:01.649Z","date":"2025-11-09","time":"17:22:01"},{"task":"memory_phase","broad_category":"S","image_png":"S_Shale_01.png","image_id":465,"category_name":"Shale","category":30,"distinct_rating":2.7,"distinct_type":"Bottom","rt":null,"stimulus":"Stimuli_Rocks480/S_Shale_01.png","response":null,"trial_type":"image-keyboard-response","trial_index":22,"plugin_version":"2.1.0","time_elapsed":70621,"subject_id":"87490","group":"Group1","full_date":"2025-11-09T17:22:01.649Z","date":"2025-11-09","time":"17:22:01"},{"rt":null,"stimulus":"<p style=\"font-size: 50px; margin: 0; text-align: center;\">+</p>","response":null,"trial_type":"html-keyboard-response","trial_index":23,"plugin_version":"2.1.0","time_elapsed":71625,"subject_id":"87490","group":"Group1","full_date":"2025-11-09T17:22:01.649Z","date":"2025-11-09","time":"17:22:01"},{"task":"memory_phase","broad_category":"M","image_png":"M_Quartzite_13.png","image_id":285,"category_name":"Quartzite","category":18,"distinct_rating":2.27,"distinct_type":"Bottom","rt":null,"stimulus":"Stimuli_Rocks480/M_Quartzite_13.png","response":null,"trial_type":"image-keyboard-response","trial_index":24,"plugin_version":"2.1.0","time_elapsed":74142,"subject_id":"87490","group":"Group1","full_date":"2025-11-09T17:22:01.649Z","date":"2025-11-09","time":"17:22:01"},{"rt":null,"stimulus":"<p style=\"font-size: 50px; margin: 0; text-align: center;\">+</p>","response":null,"trial_type":"html-keyboard-response","trial_index":25,"plugin_version":"2.1.0","time_elapsed":75156,"subject_id":"87490","group":"Group1","full_date":"2025-11-09T17:22:01.649Z","date":"2025-11-09","time":"17:22:01"},{"task":"memory_phase","broad_category":"S","image_png":"S_Sandstone_15.png","image_id":463,"category_name":"Sandstone","category":29,"distinct_rating":2,"distinct_type":"Bottom","rt":null,"stimulus":"Stimuli_Rocks480/S_Sandstone_15.png","response":null,"trial_type":"image-keyboard-response","trial_index":26,"plugin_version":"2.1.0","time_elapsed":77672,"subject_id":"87490","group":"Group1","full_date":"2025-11-09T17:22:01.649Z","date":"2025-11-09","time":"17:22:01"},{"rt":null,"stimulus":"<p style=\"font-size: 50px; margin: 0; text-align: center;\">+</p>","response":null,"trial_type":"html-keyboard-response","trial_index":27,"plugin_version":"2.1.0","time_elapsed":78678,"subject_id":"87490","group":"Group1","full_date":"2025-11-09T17:22:01.649Z","date":"2025-11-09","time":"17:22:01"},{"task":"memory_phase","broad_category":"S","image_png":"S_Sandstone_16.png","image_id":464,"category_name":"Sandstone","category":29,"distinct_rating":1.93,"distinct_type":"Bottom","rt":null,"stimulus":"Stimuli_Rocks480/S_Sandstone_16.png","response":null,"trial_type":"image-keyboard-response","trial_index":28,"plugin_version":"2.1.0","time_elapsed":81193,"subject_id":"87490","group":"Group1","full_date":"2025-11-09T17:22:01.649Z","date":"2025-11-09","time":"17:22:01"},{"rt":null,"stimulus":"<p style=\"font-size: 50px; margin: 0; text-align: center;\">+</p>","response":null,"trial_type":"html-keyboard-response","trial_index":29,"plugin_version":"2.1.0","time_elapsed":82206,"subject_id":"87490","group":"Group1","full_date":"2025-11-09T17:22:01.649Z","date":"2025-11-09","time":"17:22:01"},{"task":"memory_phase","broad_category":"M","image_png":"M_Gneiss_05.png","image_id":197,"category_name":"Gneiss","category":13,"distinct_rating":2.97,"distinct_type":"Bottom","rt":null,"stimulus":"Stimuli_Rocks480/M_Gneiss_05.png","response":null,"trial_type":"image-keyboard-response","trial_index":30,"plugin_version":"2.1.0","time_elapsed":84711,"subject_id":"87490","group":"Group1","full_date":"2025-11-09T17:22:01.649Z","date":"2025-11-09","time":"17:22:01"},{"rt":null,"stimulus":"<p style=\"font-size: 50px; margin: 0; text-align: center;\">+</p>","response":null,"trial_type":"html-keyboard-response","trial_index":31,"plugin_version":"2.1.0","time_elapsed":85719,"subject_id":"87490","group":"Group1","full_date":"2025-11-09T17:22:01.649Z","date":"2025-11-09","time":"17:22:01"},{"task":"memory_phase","broad_category":"I","image_png":"I_Diorite_03.png","image_id":35,"category_name":"Diorite","category":3,"distinct_rating":3.14,"distinct_type":"Bottom","rt":null,"stimulus":"Stimuli_Rocks480/I_Diorite_03.png","response":null,"trial_type":"image-keyboard-response","trial_index":32,"plugin_version":"2.1.0","time_elapsed":88238,"subject_id":"87490","group":"Group1","full_date":"2025-11-09T17:22:01.649Z","date":"2025-11-09","time":"17:22:01"},{"rt":null,"stimulus":"<p style=\"font-size: 50px; margin: 0; text-align: center;\">+</p>","response":null,"trial_type":"html-keyboard-response","trial_index":33,"plugin_version":"2.1.0","time_elapsed":89254,"subject_id":"87490","group":"Group1","full_date":"2025-11-09T17:22:01.649Z","date":"2025-11-09","time":"17:22:01"},{"task":"memory_phase","broad_category":"S","image_png":"S_Shale_12.png","image_id":476,"category_name":"Shale","category":30,"distinct_rating":2.48,"distinct_type":"Bottom","rt":null,"stimulus":"Stimuli_Rocks480/S_Shale_12.png","response":null,"trial_type":"image-keyboard-response","trial_index":34,"plugin_version":"2.1.0","time_elapsed":91757,"subject_id":"87490","group":"Group1","full_date":"2025-11-09T17:22:01.649Z","date":"2025-11-09","time":"17:22:01"},{"rt":null,"stimulus":"<p style=\"font-size: 50px; margin: 0; text-align: center;\">+</p>","response":null,"trial_type":"html-keyboard-response","trial_index":35,"plugin_version":"2.1.0","time_elapsed":92764,"subject_id":"87490","group":"Group1","full_date":"2025-11-09T17:22:01.649Z","date":"2025-11-09","time":"17:22:01"},{"task":"memory_phase","broad_category":"M","image_png":"M_Slate_15.png","image_id":319,"category_name":"Slate","category":20,"distinct_rating":2.13,"distinct_type":"Bottom","rt":null,"stimulus":"Stimuli_Rocks480/M_Slate_15.png","response":null,"trial_type":"image-keyboard-response","trial_index":36,"plugin_version":"2.1.0","time_elapsed":95283,"subject_id":"87490","group":"Group1","full_date":"2025-11-09T17:22:01.649Z","date":"2025-11-09","time":"17:22:01"},{"rt":null,"stimulus":"<p style=\"font-size: 50px; margin: 0; text-align: center;\">+</p>","response":null,"trial_type":"html-keyboard-response","trial_index":37,"plugin_version":"2.1.0","time_elapsed":96296,"subject_id":"87490","group":"Group1","full_date":"2025-11-09T17:22:01.649Z","date":"2025-11-09","time":"17:22:01"},{"task":"memory_phase","broad_category":"M","image_png":"M_Quartzite_05.png","image_id":277,"category_name":"Quartzite","category":18,"distinct_rating":2.23,"distinct_type":"Bottom","rt":null,"stimulus":"Stimuli_Rocks480/M_Quartzite_05.png","response":null,"trial_type":"image-keyboard-response","trial_index":38,"plugin_version":"2.1.0","time_elapsed":98814,"subject_id":"87490","group":"Group1","full_date":"2025-11-09T17:22:01.649Z","date":"2025-11-09","time":"17:22:01"},{"rt":null,"stimulus":"<p style=\"font-size: 50px; margin: 0; text-align: center;\">+</p>","response":null,"trial_type":"html-keyboard-response","trial_index":39,"plugin_version":"2.1.0","time_elapsed":99819,"subject_id":"87490","group":"Group1","full_date":"2025-11-09T17:22:01.649Z","date":"2025-11-09","time":"17:22:01"},{"task":"memory_phase","broad_category":"M","image_png":"M_Phyllite_07.png","image_id":263,"category_name":"Phyllite","category":17,"distinct_rating":2.59,"distinct_type":"Bottom","rt":null,"stimulus":"Stimuli_Rocks480/M_Phyllite_07.png","response":null,"trial_type":"image-keyboard-response","trial_index":40,"plugin_version":"2.1.0","time_elapsed":102335,"subject_id":"87490","group":"Group1","full_date":"2025-11-09T17:22:01.649Z","date":"2025-11-09","time":"17:22:01"},{"rt":null,"stimulus":"<p style=\"font-size: 50px; margin: 0; text-align: center;\">+</p>","response":null,"trial_type":"html-keyboard-response","trial_index":41,"plugin_version":"2.1.0","time_elapsed":103345,"subject_id":"87490","group":"Group1","full_date":"2025-11-09T17:22:01.649Z","date":"2025-11-09","time":"17:22:01"},{"task":"memory_phase","broad_category":"I","image_png":"I_Andesite_06.png","image_id":6,"category_name":"Andesite","category":1,"distinct_rating":3.17,"distinct_type":"Bottom","rt":null,"stimulus":"Stimuli_Rocks480/I_Andesite_06.png","response":null,"trial_type":"image-keyboard-response","trial_index":42,"plugin_version":"2.1.0","time_elapsed":105850,"subject_id":"87490","group":"Group1","full_date":"2025-11-09T17:22:01.649Z","date":"2025-11-09","time":"17:22:01"},{"rt":null,"stimulus":"<p style=\"font-size: 50px; margin: 0; text-align: center;\">+</p>","response":null,"trial_type":"html-keyboard-response","trial_index":43,"plugin_version":"2.1.0","time_elapsed":106854,"subject_id":"87490","group":"Group1","full_date":"2025-11-09T17:22:01.649Z","date":"2025-11-09","time":"17:22:01"},{"task":"memory_phase","broad_category":"I","image_png":"I_Basalt_01.png","image_id":17,"category_name":"Basalt","category":2,"distinct_rating":1.92,"distinct_type":"Bottom","rt":null,"stimulus":"Stimuli_Rocks480/I_Basalt_01.png","response":null,"trial_type":"image-keyboard-response","trial_index":44,"plugin_version":"2.1.0","time_elapsed":109361,"subject_id":"87490","group":"Group1","full_date":"2025-11-09T17:22:01.649Z","date":"2025-11-09","time":"17:22:01"},{"rt":null,"stimulus":"<p style=\"font-size: 50px; margin: 0; text-align: center;\">+</p>","response":null,"trial_type":"html-keyboard-response","trial_index":45,"plugin_version":"2.1.0","time_elapsed":110369,"subject_id":"87490","group":"Group1","full_date":"2025-11-09T17:22:01.649Z","date":"2025-11-09","time":"17:22:01"},{"task":"memory_phase","broad_category":"I","image_png":"I_Basalt_09.png","image_id":25,"category_name":"Basalt","category":2,"distinct_rating":1.89,"distinct_type":"Bottom","rt":null,"stimulus":"Stimuli_Rocks480/I_Basalt_09.png","response":null,"trial_type":"image-keyboard-response","trial_index":46,"plugin_version":"2.1.0","time_elapsed":112885,"subject_id":"87490","group":"Group1","full_date":"2025-11-09T17:22:01.649Z","date":"2025-11-09","time":"17:22:01"},{"rt":null,"stimulus":"<p style=\"font-size: 50px; margin: 0; text-align: center;\">+</p>","response":null,"trial_type":"html-keyboard-response","trial_index":47,"plugin_version":"2.1.0","time_elapsed":113902,"subject_id":"87490","group":"Group1","full_date":"2025-11-09T17:22:01.649Z","date":"2025-11-09","time":"17:22:01"},{"task":"memory_phase","broad_category":"I","image_png":"I_Andesite_08.png","image_id":8,"category_name":"Andesite","category":1,"distinct_rating":1.95,"distinct_type":"Bottom","rt":null,"stimulus":"Stimuli_Rocks480/I_Andesite_08.png","response":null,"trial_type":"image-keyboard-response","trial_index":48,"plugin_version":"2.1.0","time_elapsed":116408,"subject_id":"87490","group":"Group1","full_date":"2025-11-09T17:22:01.649Z","date":"2025-11-09","time":"17:22:01"},{"rt":null,"stimulus":"<p style=\"font-size: 50px; margin: 0; text-align: center;\">+</p>","response":null,"trial_type":"html-keyboard-response","trial_index":49,"plugin_version":"2.1.0","time_elapsed":117421,"subject_id":"87490","group":"Group1","full_date":"2025-11-09T17:22:01.649Z","date":"2025-11-09","time":"17:22:01"},{"task":"memory_phase","broad_category":"S","image_png":"S_Sandstone_03.png","image_id":451,"category_name":"Sandstone","category":29,"distinct_rating":1.86,"distinct_type":"Bottom","rt":null,"stimulus":"Stimuli_Rocks480/S_Sandstone_03.png","response":null,"trial_type":"image-keyboard-response","trial_index":50,"plugin_version":"2.1.0","time_elapsed":119924,"subject_id":"87490","group":"Group1","full_date":"2025-11-09T17:22:01.649Z","date":"2025-11-09","time":"17:22:01"},{"rt":null,"stimulus":"<p style=\"font-size: 50px; margin: 0; text-align: center;\">+</p>","response":null,"trial_type":"html-keyboard-response","trial_index":51,"plugin_version":"2.1.0","time_elapsed":120929,"subject_id":"87490","group":"Group1","full_date":"2025-11-09T17:22:01.649Z","date":"2025-11-09","time":"17:22:01"},{"task":"memory_phase","broad_category":"S","image_png":"S_Rock Gypsum_04.png","image_id":420,"category_name":"Rock Gypsum","category":27,"distinct_rating":7.61,"distinct_type":"Top","rt":null,"stimulus":"Stimuli_Rocks480/S_Rock Gypsum_04.png","response":null,"trial_type":"image-keyboard-response","trial_index":52,"plugin_version":"2.1.0","time_elapsed":123434,"subject_id":"87490","group":"Group1","full_date":"2025-11-09T17:22:01.649Z","date":"2025-11-09","time":"17:22:01"},{"rt":null,"stimulus":"<p style=\"font-size: 50px; margin: 0; text-align: center;\">+</p>","response":null,"trial_type":"html-keyboard-response","trial_index":53,"plugin_version":"2.1.0","time_elapsed":124442,"subject_id":"87490","group":"Group1","full_date":"2025-11-09T17:22:01.649Z","date":"2025-11-09","time":"17:22:01"},{"task":"memory_phase","broad_category":"M","image_png":"M_Slate_03.png","image_id":307,"category_name":"Slate","category":20,"distinct_rating":1.87,"distinct_type":"Bottom","rt":null,"stimulus":"Stimuli_Rocks480/M_Slate_03.png","response":null,"trial_type":"image-keyboard-response","trial_index":54,"plugin_version":"2.1.0","time_elapsed":126958,"subject_id":"87490","group":"Group1","full_date":"2025-11-09T17:22:01.649Z","date":"2025-11-09","time":"17:22:01"},{"rt":7595,"stimulus":"<p style=\"font-size: 35px;\">Press SPACE to continue study phase</p>","response":" ","trial_type":"html-keyboard-response","trial_index":55,"plugin_version":"2.1.0","time_elapsed":134556,"subject_id":"87490","group":"Group1","full_date":"2025-11-09T17:22:01.649Z","date":"2025-11-09","time":"17:22:01"},{"rt":null,"stimulus":"<p style=\"font-size: 50px; margin: 0; text-align: center;\">+</p>","response":null,"trial_type":"html-keyboard-response","trial_index":56,"plugin_version":"2.1.0","time_elapsed":135558,"subject_id":"87490","group":"Group1","full_date":"2025-11-09T17:22:01.649Z","date":"2025-11-09","time":"17:22:01"},{"task":"memory_phase","broad_category":"I","image_png":"I_Gabbro_16.png","image_id":64,"category_name":"Gabbro","category":4,"distinct_rating":2.52,"distinct_type":"Bottom","rt":null,"stimulus":"Stimuli_Rocks480/I_Gabbro_16.png","response":null,"trial_type":"image-keyboard-response","trial_index":57,"plugin_version":"2.1.0","time_elapsed":138072,"subject_id":"87490","group":"Group1","full_date":"2025-11-09T17:22:01.649Z","date":"2025-11-09","time":"17:22:01"},{"rt":null,"stimulus":"<p style=\"font-size: 50px; margin: 0; text-align: center;\">+</p>","response":null,"trial_type":"html-keyboard-response","trial_index":58,"plugin_version":"2.1.0","time_elapsed":139076,"subject_id":"87490","group":"Group1","full_date":"2025-11-09T17:22:01.649Z","date":"2025-11-09","time":"17:22:01"},{"task":"memory_phase","broad_category":"I","image_png":"I_Rhyolite_14.png","image_id":158,"category_name":"Rhyolite","category":10,"distinct_rating":2.59,"distinct_type":"Bottom","rt":null,"stimulus":"Stimuli_Rocks480/I_Rhyolite_14.png","response":null,"trial_type":"image-keyboard-response","trial_index":59,"plugin_version":"2.1.0","time_elapsed":141587,"subject_id":"87490","group":"Group1","full_date":"2025-11-09T17:22:01.649Z","date":"2025-11-09","time":"17:22:01"},{"rt":null,"stimulus":"<p style=\"font-size: 50px; margin: 0; text-align: center;\">+</p>","response":null,"trial_type":"html-keyboard-response","trial_index":60,"plugin_version":"2.1.0","time_elapsed":142600,"subject_id":"87490","group":"Group1","full_date":"2025-11-09T17:22:01.649Z","date":"2025-11-09","time":"17:22:01"},{"task":"memory_phase","broad_category":"M","image_png":"M_Marble_06.png","image_id":230,"category_name":"Marble","category":15,"distinct_rating":3.4,"distinct_type":"Bottom","rt":null,"stimulus":"Stimuli_Rocks480/M_Marble_06.png","response":null,"trial_type":"image-keyboard-response","trial_index":61,"plugin_version":"2.1.0","time_elapsed":145114,"subject_id":"87490","group":"Group1","full_date":"2025-11-09T17:22:01.649Z","date":"2025-11-09","time":"17:22:01"},{"rt":null,"stimulus":"<p style=\"font-size: 50px; margin: 0; text-align: center;\">+</p>","response":null,"trial_type":"html-keyboard-response","trial_index":62,"plugin_version":"2.1.0","time_elapsed":146131,"subject_id":"87490","group":"Group1","full_date":"2025-11-09T17:22:01.649Z","date":"2025-11-09","time":"17:22:01"},{"task":"memory_phase","broad_category":"M","image_png":"M_Marble_04.png","image_id":228,"category_name":"Marble","category":15,"distinct_rating":3.15,"distinct_type":"Bottom","rt":null,"stimulus":"Stimuli_Rocks480/M_Marble_04.png","response":null,"trial_type":"image-keyboard-response","trial_index":63,"plugin_version":"2.1.0","time_elapsed":148645,"subject_id":"87490","group":"Group1","full_date":"2025-11-09T17:22:01.649Z","date":"2025-11-09","time":"17:22:01"},{"rt":null,"stimulus":"<p style=\"font-size: 50px; margin: 0; text-align: center;\">+</p>","response":null,"trial_type":"html-keyboard-response","trial_index":64,"plugin_version":"2.1.0","time_elapsed":149658,"subject_id":"87490","group":"Group1","full_date":"2025-11-09T17:22:01.649Z","date":"2025-11-09","time":"17:22:01"},{"task":"memory_phase","broad_category":"I","image_png":"I_Pumice_08.png","image_id":136,"category_name":"Pumice","category":9,"distinct_rating":3.1,"distinct_type":"Bottom","rt":null,"stimulus":"Stimuli_Rocks480/I_Pumice_08.png","response":null,"trial_type":"image-keyboard-response","trial_index":65,"plugin_version":"2.1.0","time_elapsed":152172,"subject_id":"87490","group":"Group1","full_date":"2025-11-09T17:22:01.649Z","date":"2025-11-09","time":"17:22:01"},{"rt":null,"stimulus":"<p style=\"font-size: 50px; margin: 0; text-align: center;\">+</p>","response":null,"trial_type":"html-keyboard-response","trial_index":66,"plugin_version":"2.1.0","time_elapsed":153183,"subject_id":"87490","group":"Group1","full_date":"2025-11-09T17:22:01.649Z","date":"2025-11-09","time":"17:22:01"},{"task":"memory_phase","broad_category":"M","image_png":"M_Quartzite_08.png","image_id":280,"category_name":"Quartzite","category":18,"distinct_rating":2.15,"distinct_type":"Bottom","rt":null,"stimulus":"Stimuli_Rocks480/M_Quartzite_08.png","response":null,"trial_type":"image-keyboard-response","trial_index":67,"plugin_version":"2.1.0","time_elapsed":155694,"subject_id":"87490","group":"Group1","full_date":"2025-11-09T17:22:01.649Z","date":"2025-11-09","time":"17:22:01"},{"rt":null,"stimulus":"<p style=\"font-size: 50px; margin: 0; text-align: center;\">+</p>","response":null,"trial_type":"html-keyboard-response","trial_index":68,"plugin_version":"2.1.0","time_elapsed":156703,"subject_id":"87490","group":"Group1","full_date":"2025-11-09T17:22:01.649Z","date":"2025-11-09","time":"17:22:01"},{"task":"memory_phase","broad_category":"S","image_png":"S_Dolomite_12.png","image_id":396,"category_name":"Dolomite","category":25,"distinct_rating":1.85,"distinct_type":"Bottom","rt":null,"stimulus":"Stimuli_Rocks480/S_Dolomite_12.png","response":null,"trial_type":"image-keyboard-response","trial_index":69,"plugin_version":"2.1.0","time_elapsed":159221,"subject_id":"87490","group":"Group1","full_date":"2025-11-09T17:22:01.649Z","date":"2025-11-09","time":"17:22:01"},{"rt":null,"stimulus":"<p style=\"font-size: 50px; margin: 0; text-align: center;\">+</p>","response":null,"trial_type":"html-keyboard-response","trial_index":70,"plugin_version":"2.1.0","time_elapsed":160229,"subject_id":"87490","group":"Group1","full_date":"2025-11-09T17:22:01.649Z","date":"2025-11-09","time":"17:22:01"},{"task":"memory_phase","broad_category":"M","image_png":"M_Phyllite_10.png","image_id":266,"category_name":"Phyllite","category":17,"distinct_rating":2.6,"distinct_type":"Bottom","rt":null,"stimulus":"Stimuli_Rocks480/M_Phyllite_10.png","response":null,"trial_type":"image-keyboard-response","trial_index":71,"plugin_version":"2.1.0","time_elapsed":162738,"subject_id":"87490","group":"Group1","full_date":"2025-11-09T17:22:01.649Z","date":"2025-11-09","time":"17:22:01"},{"rt":null,"stimulus":"<p style=\"font-size: 50px; margin: 0; text-align: center;\">+</p>","response":null,"trial_type":"html-keyboard-response","trial_index":72,"plugin_version":"2.1.0","time_elapsed":163749,"subject_id":"87490","group":"Group1","full_date":"2025-11-09T17:22:01.649Z","date":"2025-11-09","time":"17:22:01"},{"task":"memory_phase","broad_category":"I","image_png":"I_Andesite_10.png","image_id":10,"category_name":"Andesite","category":1,"distinct_rating":3.15,"distinct_type":"Bottom","rt":null,"stimulus":"Stimuli_Rocks480/I_Andesite_10.png","response":null,"trial_type":"image-keyboard-response","trial_index":73,"plugin_version":"2.1.0","time_elapsed":166257,"subject_id":"87490","group":"Group1","full_date":"2025-11-09T17:22:01.649Z","date":"2025-11-09","time":"17:22:01"},{"rt":null,"stimulus":"<p style=\"font-size: 50px; margin: 0; text-align: center;\">+</p>","response":null,"trial_type":"html-keyboard-response","trial_index":74,"plugin_version":"2.1.0","time_elapsed":167273,"subject_id":"87490","group":"Group1","full_date":"2025-11-09T17:22:01.649Z","date":"2025-11-09","time":"17:22:01"},{"task":"memory_phase","broad_category":"I","image_png":"I_Diorite_05.png","image_id":37,"category_name":"Diorite","category":3,"distinct_rating":3.08,"distinct_type":"Bottom","rt":null,"stimulus":"Stimuli_Rocks480/I_Diorite_05.png","response":null,"trial_type":"image-keyboard-response","trial_index":75,"plugin_version":"2.1.0","time_elapsed":169787,"subject_id":"87490","group":"Group1","full_date":"2025-11-09T17:22:01.649Z","date":"2025-11-09","time":"17:22:01"},{"rt":null,"stimulus":"<p style=\"font-size: 50px; margin: 0; text-align: center;\">+</p>","response":null,"trial_type":"html-keyboard-response","trial_index":76,"plugin_version":"2.1.0","time_elapsed":170805,"subject_id":"87490","group":"Group1","full_date":"2025-11-09T17:22:01.649Z","date":"2025-11-09","time":"17:22:01"},{"task":"memory_phase","broad_category":"I","image_png":"I_Rhyolite_11.png","image_id":155,"category_name":"Rhyolite","category":10,"distinct_rating":1.73,"distinct_type":"Bottom","rt":null,"stimulus":"Stimuli_Rocks480/I_Rhyolite_11.png","response":null,"trial_type":"image-keyboard-response","trial_index":77,"plugin_version":"2.1.0","time_elapsed":173320,"subject_id":"87490","group":"Group1","full_date":"2025-11-09T17:22:01.649Z","date":"2025-11-09","time":"17:22:01"},{"rt":null,"stimulus":"<p style=\"font-size: 50px; margin: 0; text-align: center;\">+</p>","response":null,"trial_type":"html-keyboard-response","trial_index":78,"plugin_version":"2.1.0","time_elapsed":174332,"subject_id":"87490","group":"Group1","full_date":"2025-11-09T17:22:01.649Z","date":"2025-11-09","time":"17:22:01"},{"task":"memory_phase","broad_category":"S","image_png":"S_Rock Salt_01.png","image_id":433,"category_name":"Rock Salt","category":28,"distinct_rating":7.18,"distinct_type":"Top","rt":null,"stimulus":"Stimuli_Rocks480/S_Rock Salt_01.png","response":null,"trial_type":"image-keyboard-response","trial_index":79,"plugin_version":"2.1.0","time_elapsed":176850,"subject_id":"87490","group":"Group1","full_date":"2025-11-09T17:22:01.649Z","date":"2025-11-09","time":"17:22:01"},{"rt":null,"stimulus":"<p style=\"font-size: 50px; margin: 0; text-align: center;\">+</p>","response":null,"trial_type":"html-keyboard-response","trial_index":80,"plugin_version":"2.1.0","time_elapsed":177861,"subject_id":"87490","group":"Group1","full_date":"2025-11-09T17:22:01.649Z","date":"2025-11-09","time":"17:22:01"},{"task":"memory_phase","broad_category":"M","image_png":"M_Gneiss_06.png","image_id":198,"category_name":"Gneiss","category":13,"distinct_rating":2.65,"distinct_type":"Bottom","rt":null,"stimulus":"Stimuli_Rocks480/M_Gneiss_06.png","response":null,"trial_type":"image-keyboard-response","trial_index":81,"plugin_version":"2.1.0","time_elapsed":180373,"subject_id":"87490","group":"Group1","full_date":"2025-11-09T17:22:01.649Z","date":"2025-11-09","time":"17:22:01"},{"rt":null,"stimulus":"<p style=\"font-size: 50px; margin: 0; text-align: center;\">+</p>","response":null,"trial_type":"html-keyboard-response","trial_index":82,"plugin_version":"2.1.0","time_elapsed":181390,"subject_id":"87490","group":"Group1","full_date":"2025-11-09T17:22:01.649Z","date":"2025-11-09","time":"17:22:01"},{"task":"memory_phase","broad_category":"S","image_png":"S_Dolomite_14.png","image_id":398,"category_name":"Dolomite","category":25,"distinct_rating":1.43,"distinct_type":"Bottom","rt":null,"stimulus":"Stimuli_Rocks480/S_Dolomite_14.png","response":null,"trial_type":"image-keyboard-response","trial_index":83,"plugin_version":"2.1.0","time_elapsed":183902,"subject_id":"87490","group":"Group1","full_date":"2025-11-09T17:22:01.649Z","date":"2025-11-09","time":"17:22:01"},{"rt":null,"stimulus":"<p style=\"font-size: 50px; margin: 0; text-align: center;\">+</p>","response":null,"trial_type":"html-keyboard-response","trial_index":84,"plugin_version":"2.1.0","time_elapsed":184918,"subject_id":"87490","group":"Group1","full_date":"2025-11-09T17:22:01.649Z","date":"2025-11-09","time":"17:22:01"},{"task":"memory_phase","broad_category":"S","image_png":"S_Chert_10.png","image_id":362,"category_name":"Chert","category":23,"distinct_rating":7.17,"distinct_type":"Top","rt":null,"stimulus":"Stimuli_Rocks480/S_Chert_10.png","response":null,"trial_type":"image-keyboard-response","trial_index":85,"plugin_version":"2.1.0","time_elapsed":187427,"subject_id":"87490","group":"Group1","full_date":"2025-11-09T17:22:01.649Z","date":"2025-11-09","time":"17:22:01"},{"rt":null,"stimulus":"<p style=\"font-size: 50px; margin: 0; text-align: center;\">+</p>","response":null,"trial_type":"html-keyboard-response","trial_index":86,"plugin_version":"2.1.0","time_elapsed":188437,"subject_id":"87490","group":"Group1","full_date":"2025-11-09T17:22:01.649Z","date":"2025-11-09","time":"17:22:01"},{"task":"memory_phase","broad_category":"I","image_png":"I_Pumice_12.png","image_id":140,"category_name":"Pumice","category":9,"distinct_rating":2.97,"distinct_type":"Bottom","rt":null,"stimulus":"Stimuli_Rocks480/I_Pumice_12.png","response":null,"trial_type":"image-keyboard-response","trial_index":87,"plugin_version":"2.1.0","time_elapsed":190950,"subject_id":"87490","group":"Group1","full_date":"2025-11-09T17:22:01.649Z","date":"2025-11-09","time":"17:22:01"},{"rt":null,"stimulus":"<p style=\"font-size: 50px; margin: 0; text-align: center;\">+</p>","response":null,"trial_type":"html-keyboard-response","trial_index":88,"plugin_version":"2.1.0","time_elapsed":191965,"subject_id":"87490","group":"Group1","full_date":"2025-11-09T17:22:01.649Z","date":"2025-11-09","time":"17:22:01"},{"task":"memory_phase","broad_category":"I","image_png":"I_Gabbro_11.png","image_id":59,"category_name":"Gabbro","category":4,"distinct_rating":1.99,"distinct_type":"Bottom","rt":null,"stimulus":"Stimuli_Rocks480/I_Gabbro_11.png","response":null,"trial_type":"image-keyboard-response","trial_index":89,"plugin_version":"2.1.0","time_elapsed":194476,"subject_id":"87490","group":"Group1","full_date":"2025-11-09T17:22:01.649Z","date":"2025-11-09","time":"17:22:01"},{"rt":null,"stimulus":"<p style=\"font-size: 50px; margin: 0; text-align: center;\">+</p>","response":null,"trial_type":"html-keyboard-response","trial_index":90,"plugin_version":"2.1.0","time_elapsed":195493,"subject_id":"87490","group":"Group1","full_date":"2025-11-09T17:22:01.649Z","date":"2025-11-09","time":"17:22:01"},{"task":"memory_phase","broad_category":"S","image_png":"S_Conglomerate_05.png","image_id":373,"category_name":"Conglomerate","category":24,"distinct_rating":7.32,"distinct_type":"Top","rt":null,"stimulus":"Stimuli_Rocks480/S_Conglomerate_05.png","response":null,"trial_type":"image-keyboard-response","trial_index":91,"plugin_version":"2.1.0","time_elapsed":198001,"subject_id":"87490","group":"Group1","full_date":"2025-11-09T17:22:01.649Z","date":"2025-11-09","time":"17:22:01"},{"rt":null,"stimulus":"<p style=\"font-size: 50px; margin: 0; text-align: center;\">+</p>","response":null,"trial_type":"html-keyboard-response","trial_index":92,"plugin_version":"2.1.0","time_elapsed":199011,"subject_id":"87490","group":"Group1","full_date":"2025-11-09T17:22:01.649Z","date":"2025-11-09","time":"17:22:01"},{"task":"memory_phase","broad_category":"S","image_png":"S_Breccia_11.png","image_id":347,"category_name":"Breccia","category":22,"distinct_rating":6.7,"distinct_type":"Top","rt":null,"stimulus":"Stimuli_Rocks480/S_Breccia_11.png","response":null,"trial_type":"image-keyboard-response","trial_index":93,"plugin_version":"2.1.0","time_elapsed":201514,"subject_id":"87490","group":"Group1","full_date":"2025-11-09T17:22:01.649Z","date":"2025-11-09","time":"17:22:01"},{"rt":null,"stimulus":"<p style=\"font-size: 50px; margin: 0; text-align: center;\">+</p>","response":null,"trial_type":"html-keyboard-response","trial_index":94,"plugin_version":"2.1.0","time_elapsed":202526,"subject_id":"87490","group":"Group1","full_date":"2025-11-09T17:22:01.649Z","date":"2025-11-09","time":"17:22:01"},{"task":"memory_phase","broad_category":"I","image_png":"I_Diorite_04.png","image_id":36,"category_name":"Diorite","category":3,"distinct_rating":2.98,"distinct_type":"Bottom","rt":null,"stimulus":"Stimuli_Rocks480/I_Diorite_04.png","response":null,"trial_type":"image-keyboard-response","trial_index":95,"plugin_version":"2.1.0","time_elapsed":205044,"subject_id":"87490","group":"Group1","full_date":"2025-11-09T17:22:01.649Z","date":"2025-11-09","time":"17:22:01"},{"rt":null,"stimulus":"<p style=\"font-size: 50px; margin: 0; text-align: center;\">+</p>","response":null,"trial_type":"html-keyboard-response","trial_index":96,"plugin_version":"2.1.0","time_elapsed":206048,"subject_id":"87490","group":"Group1","full_date":"2025-11-09T17:22:01.649Z","date":"2025-11-09","time":"17:22:01"},{"task":"memory_phase","broad_category":"I","image_png":"I_Gabbro_08.png","image_id":56,"category_name":"Gabbro","category":4,"distinct_rating":3.02,"distinct_type":"Bottom","rt":null,"stimulus":"Stimuli_Rocks480/I_Gabbro_08.png","response":null,"trial_type":"image-keyboard-response","trial_index":97,"plugin_version":"2.1.0","time_elapsed":208563,"subject_id":"87490","group":"Group1","full_date":"2025-11-09T17:22:01.649Z","date":"2025-11-09","time":"17:22:01"},{"rt":null,"stimulus":"<p style=\"font-size: 50px; margin: 0; text-align: center;\">+</p>","response":null,"trial_type":"html-keyboard-response","trial_index":98,"plugin_version":"2.1.0","time_elapsed":209575,"subject_id":"87490","group":"Group1","full_date":"2025-11-09T17:22:01.649Z","date":"2025-11-09","time":"17:22:01"},{"task":"memory_phase","broad_category":"I","image_png":"I_Pegmatite_16.png","image_id":112,"category_name":"Pegmatite","category":7,"distinct_rating":7.03,"distinct_type":"Top","rt":null,"stimulus":"Stimuli_Rocks480/I_Pegmatite_16.png","response":null,"trial_type":"image-keyboard-response","trial_index":99,"plugin_version":"2.1.0","time_elapsed":212084,"subject_id":"87490","group":"Group1","full_date":"2025-11-09T17:22:01.649Z","date":"2025-11-09","time":"17:22:01"},{"rt":null,"stimulus":"<p style=\"font-size: 50px; margin: 0; text-align: center;\">+</p>","response":null,"trial_type":"html-keyboard-response","trial_index":100,"plugin_version":"2.1.0","time_elapsed":213099,"subject_id":"87490","group":"Group1","full_date":"2025-11-09T17:22:01.649Z","date":"2025-11-09","time":"17:22:01"},{"task":"memory_phase","broad_category":"I","image_png":"I_Rhyolite_16.png","image_id":160,"category_name":"Rhyolite","category":10,"distinct_rating":2.19,"distinct_type":"Bottom","rt":null,"stimulus":"Stimuli_Rocks480/I_Rhyolite_16.png","response":null,"trial_type":"image-keyboard-response","trial_index":101,"plugin_version":"2.1.0","time_elapsed":215602,"subject_id":"87490","group":"Group1","full_date":"2025-11-09T17:22:01.649Z","date":"2025-11-09","time":"17:22:01"},{"rt":null,"stimulus":"<p style=\"font-size: 50px; margin: 0; text-align: center;\">+</p>","response":null,"trial_type":"html-keyboard-response","trial_index":102,"plugin_version":"2.1.0","time_elapsed":216616,"subject_id":"87490","group":"Group1","full_date":"2025-11-09T17:22:01.649Z","date":"2025-11-09","time":"17:22:01"},{"task":"memory_phase","broad_category":"I","image_png":"I_Obsidian_05.png","image_id":85,"category_name":"Obsidian","category":6,"distinct_rating":7.32,"distinct_type":"Top","rt":null,"stimulus":"Stimuli_Rocks480/I_Obsidian_05.png","response":null,"trial_type":"image-keyboard-response","trial_index":103,"plugin_version":"2.1.0","time_elapsed":219134,"subject_id":"87490","group":"Group1","full_date":"2025-11-09T17:22:01.649Z","date":"2025-11-09","time":"17:22:01"},{"rt":null,"stimulus":"<p style=\"font-size: 50px; margin: 0; text-align: center;\">+</p>","response":null,"trial_type":"html-keyboard-response","trial_index":104,"plugin_version":"2.1.0","time_elapsed":220150,"subject_id":"87490","group":"Group1","full_date":"2025-11-09T17:22:01.649Z","date":"2025-11-09","time":"17:22:01"},{"task":"memory_phase","broad_category":"M","image_png":"M_Marble_16.png","image_id":240,"category_name":"Marble","category":15,"distinct_rating":2.57,"distinct_type":"Bottom","rt":null,"stimulus":"Stimuli_Rocks480/M_Marble_16.png","response":null,"trial_type":"image-keyboard-response","trial_index":105,"plugin_version":"2.1.0","time_elapsed":222660,"subject_id":"87490","group":"Group1","full_date":"2025-11-09T17:22:01.649Z","date":"2025-11-09","time":"17:22:01"},{"rt":31922,"stimulus":"<div style=\"max-width: 760px; margin: auto; font-size: 20px; line-height: 1.5;\">\n      <h1 style=\"text-align:center; font-size: 30px;\">Instructions for the Test Phase</h1>\n      <p>\n        The study phase is now complete.\n      </p>\n      <p>\n        In the test phase, you will again see a series of rock images. \n        Some will be ones you saw before - during the study phase, while others will be new.  \n        <b>Your task</b> is to decide whether you have seen each image before by pressing the corresponding key on your keyboard:<br><br>\n          <b>A</b> - NO (you did not see this image before)<br>\n          <b>L</b> - YES (you saw this image before)<br><br>\n        The test will proceed at your own pace. You will receive feedback after each response.  \n        Please try to respond <b>as accurately as possible</b>.\n      </p>\n      <p>\n        <b>Reminder:</b> If your computer has multiple language settings (e.g., English and another language),\n        please ensure it is set to English during the test phase.\n      </p>\n      <p>\n        You can track your progress using the <b>completion bar</b> at the top of the screen.  \n        Note that it has been refreshed to reflect your progress during this final phase.\n      </p>\n      <p>\n        Press the button below when you are ready to continue.\n      </p>\n    </div>","response":0,"trial_type":"html-button-response","trial_index":106,"plugin_version":"2.1.0","time_elapsed":254587,"subject_id":"87490","group":"Group1","full_date":"2025-11-09T17:22:01.649Z","date":"2025-11-09","time":"17:22:01"},{"correct_response":"a","task":"test_phase","broad_category":"I","image_png":"I_Pumice_13.png","image_id":141,"category_name":"Pumice","category":9,"distinct_rating":3.12,"distinct_type":"Bottom","item_type":"Foil","rt":3261,"stimulus":"Stimuli_Rocks480/I_Pumice_13.png","response":"a","trial_type":"image-keyboard-response","trial_index":107,"plugin_version":"2.1.0","time_elapsed":257851,"subject_id":"87490","group":"Group1","full_date":"2025-11-09T17:22:01.649Z","date":"2025-11-09","time":"17:22:01","cor_ans":true},{"trial_type":"html-keyboard-response","rt":null,"stimulus":"<p style=\"color: green; font-size: 50px; font-weight: bold;\">Correct</p>","response":null,"trial_index":108,"plugin_version":"2.1.0","time_elapsed":258364,"subject_id":"87490","group":"Group1","full_date":"2025-11-09T17:22:01.649Z","date":"2025-11-09","time":"17:22:01"},{"correct_response":"l","task":"test_phase","broad_category":"I","image_png":"I_Gabbro_16.png","image_id":64,"category_name":"Gabbro","category":4,"distinct_rating":2.52,"distinct_type":"Bottom","item_type":"Target","rt":1090,"stimulus":"Stimuli_Rocks480/I_Gabbro_16.png","response":"l","trial_type":"image-keyboard-response","trial_index":109,"plugin_version":"2.1.0","time_elapsed":259456,"subject_id":"87490","group":"Group1","full_date":"2025-11-09T17:22:01.649Z","date":"2025-11-09","time":"17:22:01","cor_ans":true},{"trial_type":"html-keyboard-response","rt":null,"stimulus":"<p style=\"color: green; font-size: 50px; font-weight: bold;\">Correct</p>","response":null,"trial_index":110,"plugin_version":"2.1.0","time_elapsed":259974,"subject_id":"87490","group":"Group1","full_date":"2025-11-09T17:22:01.649Z","date":"2025-11-09","time":"17:22:01"},{"correct_response":"a","task":"test_phase","broad_category":"I","image_png":"I_Basalt_10.png","image_id":26,"category_name":"Basalt","category":2,"distinct_rating":2.76,"distinct_type":"Bottom","item_type":"Foil","rt":933,"stimulus":"Stimuli_Rocks480/I_Basalt_10.png","response":"l","trial_type":"image-keyboard-response","trial_index":111,"plugin_version":"2.1.0","time_elapsed":260911,"subject_id":"87490","group":"Group1","full_date":"2025-11-09T17:22:01.649Z","date":"2025-11-09","time":"17:22:01","cor_ans":false},{"trial_type":"html-keyboard-response","rt":null,"stimulus":"<p style=\"color: red; font-size: 50px; font-weight: bold;\">Incorrect</p>","response":null,"trial_index":112,"plugin_version":"2.1.0","time_elapsed":261422,"subject_id":"87490","group":"Group1","full_date":"2025-11-09T17:22:01.649Z","date":"2025-11-09","time":"17:22:01"},{"correct_response":"l","task":"test_phase","broad_category":"I","image_png":"I_Rhyolite_14.png","image_id":158,"category_name":"Rhyolite","category":10,"distinct_rating":2.59,"distinct_type":"Bottom","item_type":"Target","rt":902,"stimulus":"Stimuli_Rocks480/I_Rhyolite_14.png","response":"l","trial_type":"image-keyboard-response","trial_index":113,"plugin_version":"2.1.0","time_elapsed":262327,"subject_id":"87490","group":"Group1","full_date":"2025-11-09T17:22:01.649Z","date":"2025-11-09","time":"17:22:01","cor_ans":true},{"trial_type":"html-keyboard-response","rt":null,"stimulus":"<p style=\"color: green; font-size: 50px; font-weight: bold;\">Correct</p>","response":null,"trial_index":114,"plugin_version":"2.1.0","time_elapsed":262831,"subject_id":"87490","group":"Group1","full_date":"2025-11-09T17:22:01.649Z","date":"2025-11-09","time":"17:22:01"},{"correct_response":"a","task":"test_phase","broad_category":"M","image_png":"M_Phyllite_13.png","image_id":269,"category_name":"Phyllite","category":17,"distinct_rating":2.8,"distinct_type":"Bottom","item_type":"Foil","rt":972,"stimulus":"Stimuli_Rocks480/M_Phyllite_13.png","response":"l","trial_type":"image-keyboard-response","trial_index":115,"plugin_version":"2.1.0","time_elapsed":263807,"subject_id":"87490","group":"Group1","full_date":"2025-11-09T17:22:01.649Z","date":"2025-11-09","time":"17:22:01","cor_ans":false},{"trial_type":"html-keyboard-response","rt":null,"stimulus":"<p style=\"color: red; font-size: 50px; font-weight: bold;\">Incorrect</p>","response":null,"trial_index":116,"plugin_version":"2.1.0","time_elapsed":264324,"subject_id":"87490","group":"Group1","full_date":"2025-11-09T17:22:01.649Z","date":"2025-11-09","time":"17:22:01"},{"correct_response":"a","task":"test_phase","broad_category":"I","image_png":"I_Pumice_01.png","image_id":129,"category_name":"Pumice","category":9,"distinct_rating":3.25,"distinct_type":"Bottom","item_type":"Foil","rt":1125,"stimulus":"Stimuli_Rocks480/I_Pumice_01.png","response":"l","trial_type":"image-keyboard-response","trial_index":117,"plugin_version":"2.1.0","time_elapsed":265452,"subject_id":"87490","group":"Group1","full_date":"2025-11-09T17:22:01.649Z","date":"2025-11-09","time":"17:22:01","cor_ans":false},{"trial_type":"html-keyboard-response","rt":null,"stimulus":"<p style=\"color: red; font-size: 50px; font-weight: bold;\">Incorrect</p>","response":null,"trial_index":118,"plugin_version":"2.1.0","time_elapsed":265966,"subject_id":"87490","group":"Group1","full_date":"2025-11-09T17:22:01.649Z","date":"2025-11-09","time":"17:22:01"},{"correct_response":"l","task":"test_phase","broad_category":"S","image_png":"S_Chert_10.png","image_id":362,"category_name":"Chert","category":23,"distinct_rating":7.17,"distinct_type":"Top","item_type":"Target","rt":960,"stimulus":"Stimuli_Rocks480/S_Chert_10.png","response":"l","trial_type":"image-keyboard-response","trial_index":119,"plugin_version":"2.1.0","time_elapsed":266929,"subject_id":"87490","group":"Group1","full_date":"2025-11-09T17:22:01.649Z","date":"2025-11-09","time":"17:22:01","cor_ans":true},{"trial_type":"html-keyboard-response","rt":null,"stimulus":"<p style=\"color: green; font-size: 50px; font-weight: bold;\">Correct</p>","response":null,"trial_index":120,"plugin_version":"2.1.0","time_elapsed":267444,"subject_id":"87490","group":"Group1","full_date":"2025-11-09T17:22:01.649Z","date":"2025-11-09","time":"17:22:01"},{"correct_response":"l","task":"test_phase","broad_category":"M","image_png":"M_Phyllite_07.png","image_id":263,"category_name":"Phyllite","category":17,"distinct_rating":2.59,"distinct_type":"Bottom","item_type":"Target","rt":896,"stimulus":"Stimuli_Rocks480/M_Phyllite_07.png","response":"l","trial_type":"image-keyboard-response","trial_index":121,"plugin_version":"2.1.0","time_elapsed":268343,"subject_id":"87490","group":"Group1","full_date":"2025-11-09T17:22:01.649Z","date":"2025-11-09","time":"17:22:01","cor_ans":true},{"trial_type":"html-keyboard-response","rt":null,"stimulus":"<p style=\"color: green; font-size: 50px; font-weight: bold;\">Correct</p>","response":null,"trial_index":122,"plugin_version":"2.1.0","time_elapsed":268844,"subject_id":"87490","group":"Group1","full_date":"2025-11-09T17:22:01.649Z","date":"2025-11-09","time":"17:22:01"},{"correct_response":"a","task":"test_phase","broad_category":"M","image_png":"M_Marble_03.png","image_id":227,"category_name":"Marble","category":15,"distinct_rating":2.67,"distinct_type":"Bottom","item_type":"Foil","rt":835,"stimulus":"Stimuli_Rocks480/M_Marble_03.png","response":"a","trial_type":"image-keyboard-response","trial_index":123,"plugin_version":"2.1.0","time_elapsed":269682,"subject_id":"87490","group":"Group1","full_date":"2025-11-09T17:22:01.649Z","date":"2025-11-09","time":"17:22:01","cor_ans":true},{"trial_type":"html-keyboard-response","rt":null,"stimulus":"<p style=\"color: green; font-size: 50px; font-weight: bold;\">Correct</p>","response":null,"trial_index":124,"plugin_version":"2.1.0","time_elapsed":270186,"subject_id":"87490","group":"Group1","full_date":"2025-11-09T17:22:01.649Z","date":"2025-11-09","time":"17:22:01"},{"correct_response":"l","task":"test_phase","broad_category":"I","image_png":"I_Basalt_02.png","image_id":18,"category_name":"Basalt","category":2,"distinct_rating":1.84,"distinct_type":"Bottom","item_type":"Target","rt":877,"stimulus":"Stimuli_Rocks480/I_Basalt_02.png","response":"l","trial_type":"image-keyboard-response","trial_index":125,"plugin_version":"2.1.0","time_elapsed":271065,"subject_id":"87490","group":"Group1","full_date":"2025-11-09T17:22:01.649Z","date":"2025-11-09","time":"17:22:01","cor_ans":true},{"trial_type":"html-keyboard-response","rt":null,"stimulus":"<p style=\"color: green; font-size: 50px; font-weight: bold;\">Correct</p>","response":null,"trial_index":126,"plugin_version":"2.1.0","time_elapsed":271573,"subject_id":"87490","group":"Group1","full_date":"2025-11-09T17:22:01.649Z","date":"2025-11-09","time":"17:22:01"},{"correct_response":"l","task":"test_phase","broad_category":"M","image_png":"M_Slate_11.png","image_id":315,"category_name":"Slate","category":20,"distinct_rating":2.75,"distinct_type":"Bottom","item_type":"Target","rt":1179,"stimulus":"Stimuli_Rocks480/M_Slate_11.png","response":"l","trial_type":"image-keyboard-response","trial_index":127,"plugin_version":"2.1.0","time_elapsed":272754,"subject_id":"87490","group":"Group1","full_date":"2025-11-09T17:22:01.649Z","date":"2025-11-09","time":"17:22:01","cor_ans":true},{"trial_type":"html-keyboard-response","rt":null,"stimulus":"<p style=\"color: green; font-size: 50px; font-weight: bold;\">Correct</p>","response":null,"trial_index":128,"plugin_version":"2.1.0","time_elapsed":273259,"subject_id":"87490","group":"Group1","full_date":"2025-11-09T17:22:01.649Z","date":"2025-11-09","time":"17:22:01"},{"correct_response":"l","task":"test_phase","broad_category":"I","image_png":"I_Andesite_08.png","image_id":8,"category_name":"Andesite","category":1,"distinct_rating":1.95,"distinct_type":"Bottom","item_type":"Target","rt":926,"stimulus":"Stimuli_Rocks480/I_Andesite_08.png","response":"l","trial_type":"image-keyboard-response","trial_index":129,"plugin_version":"2.1.0","time_elapsed":274188,"subject_id":"87490","group":"Group1","full_date":"2025-11-09T17:22:01.649Z","date":"2025-11-09","time":"17:22:01","cor_ans":true},{"trial_type":"html-keyboard-response","rt":null,"stimulus":"<p style=\"color: green; font-size: 50px; font-weight: bold;\">Correct</p>","response":null,"trial_index":130,"plugin_version":"2.1.0","time_elapsed":274706,"subject_id":"87490","group":"Group1","full_date":"2025-11-09T17:22:01.649Z","date":"2025-11-09","time":"17:22:01"},{"correct_response":"l","task":"test_phase","broad_category":"M","image_png":"M_Phyllite_10.png","image_id":266,"category_name":"Phyllite","category":17,"distinct_rating":2.6,"distinct_type":"Bottom","item_type":"Target","rt":953,"stimulus":"Stimuli_Rocks480/M_Phyllite_10.png","response":"l","trial_type":"image-keyboard-response","trial_index":131,"plugin_version":"2.1.0","time_elapsed":275662,"subject_id":"87490","group":"Group1","full_date":"2025-11-09T17:22:01.649Z","date":"2025-11-09","time":"17:22:01","cor_ans":true},{"trial_type":"html-keyboard-response","rt":null,"stimulus":"<p style=\"color: green; font-size: 50px; font-weight: bold;\">Correct</p>","response":null,"trial_index":132,"plugin_version":"2.1.0","time_elapsed":276170,"subject_id":"87490","group":"Group1","full_date":"2025-11-09T17:22:01.649Z","date":"2025-11-09","time":"17:22:01"},{"correct_response":"l","task":"test_phase","broad_category":"I","image_png":"I_Pumice_08.png","image_id":136,"category_name":"Pumice","category":9,"distinct_rating":3.1,"distinct_type":"Bottom","item_type":"Target","rt":966,"stimulus":"Stimuli_Rocks480/I_Pumice_08.png","response":"l","trial_type":"image-keyboard-response","trial_index":133,"plugin_version":"2.1.0","time_elapsed":277138,"subject_id":"87490","group":"Group1","full_date":"2025-11-09T17:22:01.649Z","date":"2025-11-09","time":"17:22:01","cor_ans":true},{"trial_type":"html-keyboard-response","rt":null,"stimulus":"<p style=\"color: green; font-size: 50px; font-weight: bold;\">Correct</p>","response":null,"trial_index":134,"plugin_version":"2.1.0","time_elapsed":277658,"subject_id":"87490","group":"Group1","full_date":"2025-11-09T17:22:01.649Z","date":"2025-11-09","time":"17:22:01"},{"correct_response":"l","task":"test_phase","broad_category":"I","image_png":"I_Andesite_10.png","image_id":10,"category_name":"Andesite","category":1,"distinct_rating":3.15,"distinct_type":"Bottom","item_type":"Target","rt":911,"stimulus":"Stimuli_Rocks480/I_Andesite_10.png","response":"l","trial_type":"image-keyboard-response","trial_index":135,"plugin_version":"2.1.0","time_elapsed":278573,"subject_id":"87490","group":"Group1","full_date":"2025-11-09T17:22:01.649Z","date":"2025-11-09","time":"17:22:01","cor_ans":true},{"trial_type":"html-keyboard-response","rt":null,"stimulus":"<p style=\"color: green; font-size: 50px; font-weight: bold;\">Correct</p>","response":null,"trial_index":136,"plugin_version":"2.1.0","time_elapsed":279075,"subject_id":"87490","group":"Group1","full_date":"2025-11-09T17:22:01.649Z","date":"2025-11-09","time":"17:22:01"},{"correct_response":"a","task":"test_phase","broad_category":"I","image_png":"I_Rhyolite_05.png","image_id":149,"category_name":"Rhyolite","category":10,"distinct_rating":3.02,"distinct_type":"Bottom","item_type":"Foil","rt":941,"stimulus":"Stimuli_Rocks480/I_Rhyolite_05.png","response":"a","trial_type":"image-keyboard-response","trial_index":137,"plugin_version":"2.1.0","time_elapsed":280019,"subject_id":"87490","group":"Group1","full_date":"2025-11-09T17:22:01.649Z","date":"2025-11-09","time":"17:22:01","cor_ans":true},{"trial_type":"html-keyboard-response","rt":null,"stimulus":"<p style=\"color: green; font-size: 50px; font-weight: bold;\">Correct</p>","response":null,"trial_index":138,"plugin_version":"2.1.0","time_elapsed":280523,"subject_id":"87490","group":"Group1","full_date":"2025-11-09T17:22:01.649Z","date":"2025-11-09","time":"17:22:01"},{"correct_response":"a","task":"test_phase","broad_category":"I","image_png":"I_Diorite_01.png","image_id":33,"category_name":"Diorite","category":3,"distinct_rating":2.97,"distinct_type":"Bottom","item_type":"Foil","rt":1081,"stimulus":"Stimuli_Rocks480/I_Diorite_01.png","response":"l","trial_type":"image-keyboard-response","trial_index":139,"plugin_version":"2.1.0","time_elapsed":281607,"subject_id":"87490","group":"Group1","full_date":"2025-11-09T17:22:01.649Z","date":"2025-11-09","time":"17:22:01","cor_ans":false},{"trial_type":"html-keyboard-response","rt":null,"stimulus":"<p style=\"color: red; font-size: 50px; font-weight: bold;\">Incorrect</p>","response":null,"trial_index":140,"plugin_version":"2.1.0","time_elapsed":282124,"subject_id":"87490","group":"Group1","full_date":"2025-11-09T17:22:01.649Z","date":"2025-11-09","time":"17:22:01"},{"correct_response":"a","task":"test_phase","broad_category":"S","image_png":"S_Shale_03.png","image_id":467,"category_name":"Shale","category":30,"distinct_rating":1.95,"distinct_type":"Bottom","item_type":"Foil","rt":841,"stimulus":"Stimuli_Rocks480/S_Shale_03.png","response":"l","trial_type":"image-keyboard-response","trial_index":141,"plugin_version":"2.1.0","time_elapsed":282966,"subject_id":"87490","group":"Group1","full_date":"2025-11-09T17:22:01.649Z","date":"2025-11-09","time":"17:22:01","cor_ans":false},{"trial_type":"html-keyboard-response","rt":null,"stimulus":"<p style=\"color: red; font-size: 50px; font-weight: bold;\">Incorrect</p>","response":null,"trial_index":142,"plugin_version":"2.1.0","time_elapsed":283471,"subject_id":"87490","group":"Group1","full_date":"2025-11-09T17:22:01.649Z","date":"2025-11-09","time":"17:22:01"},{"correct_response":"l","task":"test_phase","broad_category":"I","image_png":"I_Pegmatite_16.png","image_id":112,"category_name":"Pegmatite","category":7,"distinct_rating":7.03,"distinct_type":"Top","item_type":"Target","rt":922,"stimulus":"Stimuli_Rocks480/I_Pegmatite_16.png","response":"l","trial_type":"image-keyboard-response","trial_index":143,"plugin_version":"2.1.0","time_elapsed":284395,"subject_id":"87490","group":"Group1","full_date":"2025-11-09T17:22:01.649Z","date":"2025-11-09","time":"17:22:01","cor_ans":true},{"trial_type":"html-keyboard-response","rt":null,"stimulus":"<p style=\"color: green; font-size: 50px; font-weight: bold;\">Correct</p>","response":null,"trial_index":144,"plugin_version":"2.1.0","time_elapsed":284898,"subject_id":"87490","group":"Group1","full_date":"2025-11-09T17:22:01.649Z","date":"2025-11-09","time":"17:22:01"},{"correct_response":"a","task":"test_phase","broad_category":"I","image_png":"I_Basalt_13.png","image_id":29,"category_name":"Basalt","category":2,"distinct_rating":2.68,"distinct_type":"Bottom","item_type":"Foil","rt":1346,"stimulus":"Stimuli_Rocks480/I_Basalt_13.png","response":"l","trial_type":"image-keyboard-response","trial_index":145,"plugin_version":"2.1.0","time_elapsed":286247,"subject_id":"87490","group":"Group1","full_date":"2025-11-09T17:22:01.649Z","date":"2025-11-09","time":"17:22:01","cor_ans":false},{"trial_type":"html-keyboard-response","rt":null,"stimulus":"<p style=\"color: red; font-size: 50px; font-weight: bold;\">Incorrect</p>","response":null,"trial_index":146,"plugin_version":"2.1.0","time_elapsed":286750,"subject_id":"87490","group":"Group1","full_date":"2025-11-09T17:22:01.649Z","date":"2025-11-09","time":"17:22:01"},{"correct_response":"a","task":"test_phase","broad_category":"I","image_png":"I_Diorite_10.png","image_id":42,"category_name":"Diorite","category":3,"distinct_rating":2.84,"distinct_type":"Bottom","item_type":"Foil","rt":1268,"stimulus":"Stimuli_Rocks480/I_Diorite_10.png","response":"l","trial_type":"image-keyboard-response","trial_index":147,"plugin_version":"2.1.0","time_elapsed":288021,"subject_id":"87490","group":"Group1","full_date":"2025-11-09T17:22:01.649Z","date":"2025-11-09","time":"17:22:01","cor_ans":false},{"trial_type":"html-keyboard-response","rt":null,"stimulus":"<p style=\"color: red; font-size: 50px; font-weight: bold;\">Incorrect</p>","response":null,"trial_index":148,"plugin_version":"2.1.0","time_elapsed":288529,"subject_id":"87490","group":"Group1","full_date":"2025-11-09T17:22:01.649Z","date":"2025-11-09","time":"17:22:01"},{"correct_response":"l","task":"test_phase","broad_category":"I","image_png":"I_Rhyolite_16.png","image_id":160,"category_name":"Rhyolite","category":10,"distinct_rating":2.19,"distinct_type":"Bottom","item_type":"Target","rt":1903,"stimulus":"Stimuli_Rocks480/I_Rhyolite_16.png","response":"l","trial_type":"image-keyboard-response","trial_index":149,"plugin_version":"2.1.0","time_elapsed":290435,"subject_id":"87490","group":"Group1","full_date":"2025-11-09T17:22:01.649Z","date":"2025-11-09","time":"17:22:01","cor_ans":true},{"trial_type":"html-keyboard-response","rt":null,"stimulus":"<p style=\"color: green; font-size: 50px; font-weight: bold;\">Correct</p>","response":null,"trial_index":150,"plugin_version":"2.1.0","time_elapsed":290952,"subject_id":"87490","group":"Group1","full_date":"2025-11-09T17:22:01.649Z","date":"2025-11-09","time":"17:22:01"},{"correct_response":"a","task":"test_phase","broad_category":"S","image_png":"S_Sandstone_11.png","image_id":459,"category_name":"Sandstone","category":29,"distinct_rating":1.82,"distinct_type":"Bottom","item_type":"Foil","rt":902,"stimulus":"Stimuli_Rocks480/S_Sandstone_11.png","response":"l","trial_type":"image-keyboard-response","trial_index":151,"plugin_version":"2.1.0","time_elapsed":291856,"subject_id":"87490","group":"Group1","full_date":"2025-11-09T17:22:01.649Z","date":"2025-11-09","time":"17:22:01","cor_ans":false},{"trial_type":"html-keyboard-response","rt":null,"stimulus":"<p style=\"color: red; font-size: 50px; font-weight: bold;\">Incorrect</p>","response":null,"trial_index":152,"plugin_version":"2.1.0","time_elapsed":292372,"subject_id":"87490","group":"Group1","full_date":"2025-11-09T17:22:01.649Z","date":"2025-11-09","time":"17:22:01"},{"correct_response":"a","task":"test_phase","broad_category":"M","image_png":"M_Quartzite_15.png","image_id":287,"category_name":"Quartzite","category":18,"distinct_rating":2.19,"distinct_type":"Bottom","item_type":"Foil","rt":1057,"stimulus":"Stimuli_Rocks480/M_Quartzite_15.png","response":"l","trial_type":"image-keyboard-response","trial_index":153,"plugin_version":"2.1.0","time_elapsed":293431,"subject_id":"87490","group":"Group1","full_date":"2025-11-09T17:22:01.649Z","date":"2025-11-09","time":"17:22:01","cor_ans":false},{"trial_type":"html-keyboard-response","rt":null,"stimulus":"<p style=\"color: red; font-size: 50px; font-weight: bold;\">Incorrect</p>","response":null,"trial_index":154,"plugin_version":"2.1.0","time_elapsed":293939,"subject_id":"87490","group":"Group1","full_date":"2025-11-09T17:22:01.649Z","date":"2025-11-09","time":"17:22:01"},{"correct_response":"l","task":"test_phase","broad_category":"S","image_png":"S_Dolomite_13.png","image_id":397,"category_name":"Dolomite","category":25,"distinct_rating":1.77,"distinct_type":"Bottom","item_type":"Target","rt":961,"stimulus":"Stimuli_Rocks480/S_Dolomite_13.png","response":"l","trial_type":"image-keyboard-response","trial_index":155,"plugin_version":"2.1.0","time_elapsed":294901,"subject_id":"87490","group":"Group1","full_date":"2025-11-09T17:22:01.649Z","date":"2025-11-09","time":"17:22:01","cor_ans":true},{"trial_type":"html-keyboard-response","rt":null,"stimulus":"<p style=\"color: green; font-size: 50px; font-weight: bold;\">Correct</p>","response":null,"trial_index":156,"plugin_version":"2.1.0","time_elapsed":295407,"subject_id":"87490","group":"Group1","full_date":"2025-11-09T17:22:01.649Z","date":"2025-11-09","time":"17:22:01"},{"correct_response":"l","task":"test_phase","broad_category":"M","image_png":"M_Gneiss_05.png","image_id":197,"category_name":"Gneiss","category":13,"distinct_rating":2.97,"distinct_type":"Bottom","item_type":"Target","rt":860,"stimulus":"Stimuli_Rocks480/M_Gneiss_05.png","response":"a","trial_type":"image-keyboard-response","trial_index":157,"plugin_version":"2.1.0","time_elapsed":296269,"subject_id":"87490","group":"Group1","full_date":"2025-11-09T17:22:01.649Z","date":"2025-11-09","time":"17:22:01","cor_ans":false},{"trial_type":"html-keyboard-response","rt":null,"stimulus":"<p style=\"color: red; font-size: 50px; font-weight: bold;\">Incorrect</p>","response":null,"trial_index":158,"plugin_version":"2.1.0","time_elapsed":296775,"subject_id":"87490","group":"Group1","full_date":"2025-11-09T17:22:01.649Z","date":"2025-11-09","time":"17:22:01"},{"correct_response":"a","task":"test_phase","broad_category":"S","image_png":"S_Dolomite_07.png","image_id":391,"category_name":"Dolomite","category":25,"distinct_rating":1.73,"distinct_type":"Bottom","item_type":"Foil","rt":730,"stimulus":"Stimuli_Rocks480/S_Dolomite_07.png","response":"l","trial_type":"image-keyboard-response","trial_index":159,"plugin_version":"2.1.0","time_elapsed":297507,"subject_id":"87490","group":"Group1","full_date":"2025-11-09T17:22:01.649Z","date":"2025-11-09","time":"17:22:01","cor_ans":false},{"trial_type":"html-keyboard-response","rt":null,"stimulus":"<p style=\"color: red; font-size: 50px; font-weight: bold;\">Incorrect</p>","response":null,"trial_index":160,"plugin_version":"2.1.0","time_elapsed":298011,"subject_id":"87490","group":"Group1","full_date":"2025-11-09T17:22:01.649Z","date":"2025-11-09","time":"17:22:01"},{"correct_response":"l","task":"test_phase","broad_category":"I","image_png":"I_Diorite_03.png","image_id":35,"category_name":"Diorite","category":3,"distinct_rating":3.14,"distinct_type":"Bottom","item_type":"Target","rt":736,"stimulus":"Stimuli_Rocks480/I_Diorite_03.png","response":"l","trial_type":"image-keyboard-response","trial_index":161,"plugin_version":"2.1.0","time_elapsed":298750,"subject_id":"87490","group":"Group1","full_date":"2025-11-09T17:22:01.649Z","date":"2025-11-09","time":"17:22:01","cor_ans":true},{"trial_type":"html-keyboard-response","rt":null,"stimulus":"<p style=\"color: green; font-size: 50px; font-weight: bold;\">Correct</p>","response":null,"trial_index":162,"plugin_version":"2.1.0","time_elapsed":299257,"subject_id":"87490","group":"Group1","full_date":"2025-11-09T17:22:01.649Z","date":"2025-11-09","time":"17:22:01"},{"correct_response":"l","task":"test_phase","broad_category":"M","image_png":"M_Quartzite_13.png","image_id":285,"category_name":"Quartzite","category":18,"distinct_rating":2.27,"distinct_type":"Bottom","item_type":"Target","rt":758,"stimulus":"Stimuli_Rocks480/M_Quartzite_13.png","response":"l","trial_type":"image-keyboard-response","trial_index":163,"plugin_version":"2.1.0","time_elapsed":300017,"subject_id":"87490","group":"Group1","full_date":"2025-11-09T17:22:01.649Z","date":"2025-11-09","time":"17:22:01","cor_ans":true},{"trial_type":"html-keyboard-response","rt":null,"stimulus":"<p style=\"color: green; font-size: 50px; font-weight: bold;\">Correct</p>","response":null,"trial_index":164,"plugin_version":"2.1.0","time_elapsed":300519,"subject_id":"87490","group":"Group1","full_date":"2025-11-09T17:22:01.649Z","date":"2025-11-09","time":"17:22:01"},{"correct_response":"l","task":"test_phase","broad_category":"I","image_png":"I_Obsidian_05.png","image_id":85,"category_name":"Obsidian","category":6,"distinct_rating":7.32,"distinct_type":"Top","item_type":"Target","rt":814,"stimulus":"Stimuli_Rocks480/I_Obsidian_05.png","response":"l","trial_type":"image-keyboard-response","trial_index":165,"plugin_version":"2.1.0","time_elapsed":301335,"subject_id":"87490","group":"Group1","full_date":"2025-11-09T17:22:01.649Z","date":"2025-11-09","time":"17:22:01","cor_ans":true},{"trial_type":"html-keyboard-response","rt":null,"stimulus":"<p style=\"color: green; font-size: 50px; font-weight: bold;\">Correct</p>","response":null,"trial_index":166,"plugin_version":"2.1.0","time_elapsed":301846,"subject_id":"87490","group":"Group1","full_date":"2025-11-09T17:22:01.649Z","date":"2025-11-09","time":"17:22:01"},{"correct_response":"l","task":"test_phase","broad_category":"S","image_png":"S_Dolomite_12.png","image_id":396,"category_name":"Dolomite","category":25,"distinct_rating":1.85,"distinct_type":"Bottom","item_type":"Target","rt":1127,"stimulus":"Stimuli_Rocks480/S_Dolomite_12.png","response":"a","trial_type":"image-keyboard-response","trial_index":167,"plugin_version":"2.1.0","time_elapsed":302976,"subject_id":"87490","group":"Group1","full_date":"2025-11-09T17:22:01.649Z","date":"2025-11-09","time":"17:22:01","cor_ans":false},{"trial_type":"html-keyboard-response","rt":null,"stimulus":"<p style=\"color: red; font-size: 50px; font-weight: bold;\">Incorrect</p>","response":null,"trial_index":168,"plugin_version":"2.1.0","time_elapsed":303487,"subject_id":"87490","group":"Group1","full_date":"2025-11-09T17:22:01.649Z","date":"2025-11-09","time":"17:22:01"},{"correct_response":"l","task":"test_phase","broad_category":"S","image_png":"S_Sandstone_15.png","image_id":463,"category_name":"Sandstone","category":29,"distinct_rating":2,"distinct_type":"Bottom","item_type":"Target","rt":1458,"stimulus":"Stimuli_Rocks480/S_Sandstone_15.png","response":"l","trial_type":"image-keyboard-response","trial_index":169,"plugin_version":"2.1.0","time_elapsed":304948,"subject_id":"87490","group":"Group1","full_date":"2025-11-09T17:22:01.649Z","date":"2025-11-09","time":"17:22:01","cor_ans":true},{"trial_type":"html-keyboard-response","rt":null,"stimulus":"<p style=\"color: green; font-size: 50px; font-weight: bold;\">Correct</p>","response":null,"trial_index":170,"plugin_version":"2.1.0","time_elapsed":305453,"subject_id":"87490","group":"Group1","full_date":"2025-11-09T17:22:01.649Z","date":"2025-11-09","time":"17:22:01"},{"correct_response":"a","task":"test_phase","broad_category":"S","image_png":"S_Chert_13.png","image_id":365,"category_name":"Chert","category":23,"distinct_rating":6.57,"distinct_type":"Top","item_type":"Foil","rt":1098,"stimulus":"Stimuli_Rocks480/S_Chert_13.png","response":"a","trial_type":"image-keyboard-response","trial_index":171,"plugin_version":"2.1.0","time_elapsed":306554,"subject_id":"87490","group":"Group1","full_date":"2025-11-09T17:22:01.649Z","date":"2025-11-09","time":"17:22:01","cor_ans":true},{"trial_type":"html-keyboard-response","rt":null,"stimulus":"<p style=\"color: green; font-size: 50px; font-weight: bold;\">Correct</p>","response":null,"trial_index":172,"plugin_version":"2.1.0","time_elapsed":307070,"subject_id":"87490","group":"Group1","full_date":"2025-11-09T17:22:01.649Z","date":"2025-11-09","time":"17:22:01"},{"correct_response":"a","task":"test_phase","broad_category":"M","image_png":"M_Quartzite_07.png","image_id":279,"category_name":"Quartzite","category":18,"distinct_rating":1.97,"distinct_type":"Bottom","item_type":"Foil","rt":1796,"stimulus":"Stimuli_Rocks480/M_Quartzite_07.png","response":"a","trial_type":"image-keyboard-response","trial_index":173,"plugin_version":"2.1.0","time_elapsed":308872,"subject_id":"87490","group":"Group1","full_date":"2025-11-09T17:22:01.649Z","date":"2025-11-09","time":"17:22:01","cor_ans":true},{"trial_type":"html-keyboard-response","rt":null,"stimulus":"<p style=\"color: green; font-size: 50px; font-weight: bold;\">Correct</p>","response":null,"trial_index":174,"plugin_version":"2.1.0","time_elapsed":309376,"subject_id":"87490","group":"Group1","full_date":"2025-11-09T17:22:01.649Z","date":"2025-11-09","time":"17:22:01"},{"correct_response":"l","task":"test_phase","broad_category":"S","image_png":"S_Rock Salt_01.png","image_id":433,"category_name":"Rock Salt","category":28,"distinct_rating":7.18,"distinct_type":"Top","item_type":"Target","rt":1201,"stimulus":"Stimuli_Rocks480/S_Rock Salt_01.png","response":"l","trial_type":"image-keyboard-response","trial_index":175,"plugin_version":"2.1.0","time_elapsed":310581,"subject_id":"87490","group":"Group1","full_date":"2025-11-09T17:22:01.649Z","date":"2025-11-09","time":"17:22:01","cor_ans":true},{"trial_type":"html-keyboard-response","rt":null,"stimulus":"<p style=\"color: green; font-size: 50px; font-weight: bold;\">Correct</p>","response":null,"trial_index":176,"plugin_version":"2.1.0","time_elapsed":311086,"subject_id":"87490","group":"Group1","full_date":"2025-11-09T17:22:01.649Z","date":"2025-11-09","time":"17:22:01"},{"correct_response":"l","task":"test_phase","broad_category":"I","image_png":"I_Gabbro_11.png","image_id":59,"category_name":"Gabbro","category":4,"distinct_rating":1.99,"distinct_type":"Bottom","item_type":"Target","rt":767,"stimulus":"Stimuli_Rocks480/I_Gabbro_11.png","response":"l","trial_type":"image-keyboard-response","trial_index":177,"plugin_version":"2.1.0","time_elapsed":311855,"subject_id":"87490","group":"Group1","full_date":"2025-11-09T17:22:01.649Z","date":"2025-11-09","time":"17:22:01","cor_ans":true},{"trial_type":"html-keyboard-response","rt":null,"stimulus":"<p style=\"color: green; font-size: 50px; font-weight: bold;\">Correct</p>","response":null,"trial_index":178,"plugin_version":"2.1.0","time_elapsed":312365,"subject_id":"87490","group":"Group1","full_date":"2025-11-09T17:22:01.649Z","date":"2025-11-09","time":"17:22:01"},{"correct_response":"l","task":"test_phase","broad_category":"M","image_png":"M_Quartzite_05.png","image_id":277,"category_name":"Quartzite","category":18,"distinct_rating":2.23,"distinct_type":"Bottom","item_type":"Target","rt":1206,"stimulus":"Stimuli_Rocks480/M_Quartzite_05.png","response":"l","trial_type":"image-keyboard-response","trial_index":179,"plugin_version":"2.1.0","time_elapsed":313573,"subject_id":"87490","group":"Group1","full_date":"2025-11-09T17:22:01.649Z","date":"2025-11-09","time":"17:22:01","cor_ans":true},{"trial_type":"html-keyboard-response","rt":null,"stimulus":"<p style=\"color: green; font-size: 50px; font-weight: bold;\">Correct</p>","response":null,"trial_index":180,"plugin_version":"2.1.0","time_elapsed":314088,"subject_id":"87490","group":"Group1","full_date":"2025-11-09T17:22:01.649Z","date":"2025-11-09","time":"17:22:01"},{"correct_response":"l","task":"test_phase","broad_category":"I","image_png":"I_Diorite_05.png","image_id":37,"category_name":"Diorite","category":3,"distinct_rating":3.08,"distinct_type":"Bottom","item_type":"Target","rt":1111,"stimulus":"Stimuli_Rocks480/I_Diorite_05.png","response":"l","trial_type":"image-keyboard-response","trial_index":181,"plugin_version":"2.1.0","time_elapsed":315201,"subject_id":"87490","group":"Group1","full_date":"2025-11-09T17:22:01.649Z","date":"2025-11-09","time":"17:22:01","cor_ans":true},{"trial_type":"html-keyboard-response","rt":null,"stimulus":"<p style=\"color: green; font-size: 50px; font-weight: bold;\">Correct</p>","response":null,"trial_index":182,"plugin_version":"2.1.0","time_elapsed":315705,"subject_id":"87490","group":"Group1","full_date":"2025-11-09T17:22:01.649Z","date":"2025-11-09","time":"17:22:01"},{"correct_response":"l","task":"test_phase","broad_category":"M","image_png":"M_Gneiss_13.png","image_id":205,"category_name":"Gneiss","category":13,"distinct_rating":3.26,"distinct_type":"Bottom","item_type":"Target","rt":767,"stimulus":"Stimuli_Rocks480/M_Gneiss_13.png","response":"a","trial_type":"image-keyboard-response","trial_index":183,"plugin_version":"2.1.0","time_elapsed":316476,"subject_id":"87490","group":"Group1","full_date":"2025-11-09T17:22:01.649Z","date":"2025-11-09","time":"17:22:01","cor_ans":false},{"trial_type":"html-keyboard-response","rt":null,"stimulus":"<p style=\"color: red; font-size: 50px; font-weight: bold;\">Incorrect</p>","response":null,"trial_index":184,"plugin_version":"2.1.0","time_elapsed":316986,"subject_id":"87490","group":"Group1","full_date":"2025-11-09T17:22:01.649Z","date":"2025-11-09","time":"17:22:01"},{"correct_response":"a","task":"test_phase","broad_category":"M","image_png":"M_Slate_14.png","image_id":318,"category_name":"Slate","category":20,"distinct_rating":2.58,"distinct_type":"Bottom","item_type":"Foil","rt":849,"stimulus":"Stimuli_Rocks480/M_Slate_14.png","response":"l","trial_type":"image-keyboard-response","trial_index":185,"plugin_version":"2.1.0","time_elapsed":317839,"subject_id":"87490","group":"Group1","full_date":"2025-11-09T17:22:01.649Z","date":"2025-11-09","time":"17:22:01","cor_ans":false},{"trial_type":"html-keyboard-response","rt":null,"stimulus":"<p style=\"color: red; font-size: 50px; font-weight: bold;\">Incorrect</p>","response":null,"trial_index":186,"plugin_version":"2.1.0","time_elapsed":318346,"subject_id":"87490","group":"Group1","full_date":"2025-11-09T17:22:01.649Z","date":"2025-11-09","time":"17:22:01"},{"correct_response":"a","task":"test_phase","broad_category":"I","image_png":"I_Peridotite_13.png","image_id":125,"category_name":"Peridotite","category":8,"distinct_rating":7.28,"distinct_type":"Top","item_type":"Foil","rt":1113,"stimulus":"Stimuli_Rocks480/I_Peridotite_13.png","response":"a","trial_type":"image-keyboard-response","trial_index":187,"plugin_version":"2.1.0","time_elapsed":319462,"subject_id":"87490","group":"Group1","full_date":"2025-11-09T17:22:01.649Z","date":"2025-11-09","time":"17:22:01","cor_ans":true},{"trial_type":"html-keyboard-response","rt":null,"stimulus":"<p style=\"color: green; font-size: 50px; font-weight: bold;\">Correct</p>","response":null,"trial_index":188,"plugin_version":"2.1.0","time_elapsed":319975,"subject_id":"87490","group":"Group1","full_date":"2025-11-09T17:22:01.649Z","date":"2025-11-09","time":"17:22:01"},{"correct_response":"l","task":"test_phase","broad_category":"I","image_png":"I_Andesite_06.png","image_id":6,"category_name":"Andesite","category":1,"distinct_rating":3.17,"distinct_type":"Bottom","item_type":"Target","rt":899,"stimulus":"Stimuli_Rocks480/I_Andesite_06.png","response":"l","trial_type":"image-keyboard-response","trial_index":189,"plugin_version":"2.1.0","time_elapsed":320877,"subject_id":"87490","group":"Group1","full_date":"2025-11-09T17:22:01.649Z","date":"2025-11-09","time":"17:22:01","cor_ans":true},{"trial_type":"html-keyboard-response","rt":null,"stimulus":"<p style=\"color: green; font-size: 50px; font-weight: bold;\">Correct</p>","response":null,"trial_index":190,"plugin_version":"2.1.0","time_elapsed":321388,"subject_id":"87490","group":"Group1","full_date":"2025-11-09T17:22:01.649Z","date":"2025-11-09","time":"17:22:01"},{"correct_response":"a","task":"test_phase","broad_category":"I","image_png":"I_Rhyolite_08.png","image_id":152,"category_name":"Rhyolite","category":10,"distinct_rating":1.38,"distinct_type":"Bottom","item_type":"Foil","rt":1036,"stimulus":"Stimuli_Rocks480/I_Rhyolite_08.png","response":"l","trial_type":"image-keyboard-response","trial_index":191,"plugin_version":"2.1.0","time_elapsed":322426,"subject_id":"87490","group":"Group1","full_date":"2025-11-09T17:22:01.649Z","date":"2025-11-09","time":"17:22:01","cor_ans":false},{"trial_type":"html-keyboard-response","rt":null,"stimulus":"<p style=\"color: red; font-size: 50px; font-weight: bold;\">Incorrect</p>","response":null,"trial_index":192,"plugin_version":"2.1.0","time_elapsed":322938,"subject_id":"87490","group":"Group1","full_date":"2025-11-09T17:22:01.649Z","date":"2025-11-09","time":"17:22:01"},{"correct_response":"l","task":"test_phase","broad_category":"S","image_png":"S_Shale_01.png","image_id":465,"category_name":"Shale","category":30,"distinct_rating":2.7,"distinct_type":"Bottom","item_type":"Target","rt":2609,"stimulus":"Stimuli_Rocks480/S_Shale_01.png","response":"l","trial_type":"image-keyboard-response","trial_index":193,"plugin_version":"2.1.0","time_elapsed":325549,"subject_id":"87490","group":"Group1","full_date":"2025-11-09T17:22:01.649Z","date":"2025-11-09","time":"17:22:01","cor_ans":true},{"trial_type":"html-keyboard-response","rt":null,"stimulus":"<p style=\"color: green; font-size: 50px; font-weight: bold;\">Correct</p>","response":null,"trial_index":194,"plugin_version":"2.1.0","time_elapsed":326054,"subject_id":"87490","group":"Group1","full_date":"2025-11-09T17:22:01.649Z","date":"2025-11-09","time":"17:22:01"},{"correct_response":"l","task":"test_phase","broad_category":"I","image_png":"I_Rhyolite_11.png","image_id":155,"category_name":"Rhyolite","category":10,"distinct_rating":1.73,"distinct_type":"Bottom","item_type":"Target","rt":945,"stimulus":"Stimuli_Rocks480/I_Rhyolite_11.png","response":"l","trial_type":"image-keyboard-response","trial_index":195,"plugin_version":"2.1.0","time_elapsed":327002,"subject_id":"87490","group":"Group1","full_date":"2025-11-09T17:22:01.649Z","date":"2025-11-09","time":"17:22:01","cor_ans":true},{"trial_type":"html-keyboard-response","rt":null,"stimulus":"<p style=\"color: green; font-size: 50px; font-weight: bold;\">Correct</p>","response":null,"trial_index":196,"plugin_version":"2.1.0","time_elapsed":327517,"subject_id":"87490","group":"Group1","full_date":"2025-11-09T17:22:01.649Z","date":"2025-11-09","time":"17:22:01"},{"correct_response":"l","task":"test_phase","broad_category":"S","image_png":"S_Conglomerate_05.png","image_id":373,"category_name":"Conglomerate","category":24,"distinct_rating":7.32,"distinct_type":"Top","item_type":"Target","rt":775,"stimulus":"Stimuli_Rocks480/S_Conglomerate_05.png","response":"l","trial_type":"image-keyboard-response","trial_index":197,"plugin_version":"2.1.0","time_elapsed":328298,"subject_id":"87490","group":"Group1","full_date":"2025-11-09T17:22:01.649Z","date":"2025-11-09","time":"17:22:01","cor_ans":true},{"trial_type":"html-keyboard-response","rt":null,"stimulus":"<p style=\"color: green; font-size: 50px; font-weight: bold;\">Correct</p>","response":null,"trial_index":198,"plugin_version":"2.1.0","time_elapsed":328811,"subject_id":"87490","group":"Group1","full_date":"2025-11-09T17:22:01.649Z","date":"2025-11-09","time":"17:22:01"},{"correct_response":"l","task":"test_phase","broad_category":"S","image_png":"S_Sandstone_16.png","image_id":464,"category_name":"Sandstone","category":29,"distinct_rating":1.93,"distinct_type":"Bottom","item_type":"Target","rt":1113,"stimulus":"Stimuli_Rocks480/S_Sandstone_16.png","response":"a","trial_type":"image-keyboard-response","trial_index":199,"plugin_version":"2.1.0","time_elapsed":329926,"subject_id":"87490","group":"Group1","full_date":"2025-11-09T17:22:01.649Z","date":"2025-11-09","time":"17:22:01","cor_ans":false},{"trial_type":"html-keyboard-response","rt":null,"stimulus":"<p style=\"color: red; font-size: 50px; font-weight: bold;\">Incorrect</p>","response":null,"trial_index":200,"plugin_version":"2.1.0","time_elapsed":330435,"subject_id":"87490","group":"Group1","full_date":"2025-11-09T17:22:01.649Z","date":"2025-11-09","time":"17:22:01"},{"correct_response":"l","task":"test_phase","broad_category":"S","image_png":"S_Sandstone_03.png","image_id":451,"category_name":"Sandstone","category":29,"distinct_rating":1.86,"distinct_type":"Bottom","item_type":"Target","rt":1705,"stimulus":"Stimuli_Rocks480/S_Sandstone_03.png","response":"l","trial_type":"image-keyboard-response","trial_index":201,"plugin_version":"2.1.0","time_elapsed":332143,"subject_id":"87490","group":"Group1","full_date":"2025-11-09T17:22:01.649Z","date":"2025-11-09","time":"17:22:01","cor_ans":true},{"trial_type":"html-keyboard-response","rt":null,"stimulus":"<p style=\"color: green; font-size: 50px; font-weight: bold;\">Correct</p>","response":null,"trial_index":202,"plugin_version":"2.1.0","time_elapsed":332646,"subject_id":"87490","group":"Group1","full_date":"2025-11-09T17:22:01.649Z","date":"2025-11-09","time":"17:22:01"},{"correct_response":"a","task":"test_phase","broad_category":"I","image_png":"I_Gabbro_02.png","image_id":50,"category_name":"Gabbro","category":4,"distinct_rating":2.73,"distinct_type":"Bottom","item_type":"Foil","rt":2214,"stimulus":"Stimuli_Rocks480/I_Gabbro_02.png","response":"a","trial_type":"image-keyboard-response","trial_index":203,"plugin_version":"2.1.0","time_elapsed":334863,"subject_id":"87490","group":"Group1","full_date":"2025-11-09T17:22:01.649Z","date":"2025-11-09","time":"17:22:01","cor_ans":true},{"trial_type":"html-keyboard-response","rt":null,"stimulus":"<p style=\"color: green; font-size: 50px; font-weight: bold;\">Correct</p>","response":null,"trial_index":204,"plugin_version":"2.1.0","time_elapsed":335369,"subject_id":"87490","group":"Group1","full_date":"2025-11-09T17:22:01.649Z","date":"2025-11-09","time":"17:22:01"},{"correct_response":"l","task":"test_phase","broad_category":"M","image_png":"M_Marble_06.png","image_id":230,"category_name":"Marble","category":15,"distinct_rating":3.4,"distinct_type":"Bottom","item_type":"Target","rt":802,"stimulus":"Stimuli_Rocks480/M_Marble_06.png","response":"a","trial_type":"image-keyboard-response","trial_index":205,"plugin_version":"2.1.0","time_elapsed":336174,"subject_id":"87490","group":"Group1","full_date":"2025-11-09T17:22:01.649Z","date":"2025-11-09","time":"17:22:01","cor_ans":false},{"trial_type":"html-keyboard-response","rt":null,"stimulus":"<p style=\"color: red; font-size: 50px; font-weight: bold;\">Incorrect</p>","response":null,"trial_index":206,"plugin_version":"2.1.0","time_elapsed":336691,"subject_id":"87490","group":"Group1","full_date":"2025-11-09T17:22:01.649Z","date":"2025-11-09","time":"17:22:01"},{"correct_response":"l","task":"test_phase","broad_category":"I","image_png":"I_Basalt_01.png","image_id":17,"category_name":"Basalt","category":2,"distinct_rating":1.92,"distinct_type":"Bottom","item_type":"Target","rt":928,"stimulus":"Stimuli_Rocks480/I_Basalt_01.png","response":"l","trial_type":"image-keyboard-response","trial_index":207,"plugin_version":"2.1.0","time_elapsed":337622,"subject_id":"87490","group":"Group1","full_date":"2025-11-09T17:22:01.649Z","date":"2025-11-09","time":"17:22:01","cor_ans":true},{"trial_type":"html-keyboard-response","rt":null,"stimulus":"<p style=\"color: green; font-size: 50px; font-weight: bold;\">Correct</p>","response":null,"trial_index":208,"plugin_version":"2.1.0","time_elapsed":338125,"subject_id":"87490","group":"Group1","full_date":"2025-11-09T17:22:01.649Z","date":"2025-11-09","time":"17:22:01"},{"correct_response":"l","task":"test_phase","broad_category":"M","image_png":"M_Marble_16.png","image_id":240,"category_name":"Marble","category":15,"distinct_rating":2.57,"distinct_type":"Bottom","item_type":"Target","rt":864,"stimulus":"Stimuli_Rocks480/M_Marble_16.png","response":"l","trial_type":"image-keyboard-response","trial_index":209,"plugin_version":"2.1.0","time_elapsed":338991,"subject_id":"87490","group":"Group1","full_date":"2025-11-09T17:22:01.649Z","date":"2025-11-09","time":"17:22:01","cor_ans":true},{"trial_type":"html-keyboard-response","rt":null,"stimulus":"<p style=\"color: green; font-size: 50px; font-weight: bold;\">Correct</p>","response":null,"trial_index":210,"plugin_version":"2.1.0","time_elapsed":339502,"subject_id":"87490","group":"Group1","full_date":"2025-11-09T17:22:01.649Z","date":"2025-11-09","time":"17:22:01"},{"correct_response":"a","task":"test_phase","broad_category":"I","image_png":"I_Andesite_04.png","image_id":4,"category_name":"Andesite","category":1,"distinct_rating":3.18,"distinct_type":"Bottom","item_type":"Foil","rt":907,"stimulus":"Stimuli_Rocks480/I_Andesite_04.png","response":"l","trial_type":"image-keyboard-response","trial_index":211,"plugin_version":"2.1.0","time_elapsed":340410,"subject_id":"87490","group":"Group1","full_date":"2025-11-09T17:22:01.649Z","date":"2025-11-09","time":"17:22:01","cor_ans":false},{"trial_type":"html-keyboard-response","rt":null,"stimulus":"<p style=\"color: red; font-size: 50px; font-weight: bold;\">Incorrect</p>","response":null,"trial_index":212,"plugin_version":"2.1.0","time_elapsed":340922,"subject_id":"87490","group":"Group1","full_date":"2025-11-09T17:22:01.649Z","date":"2025-11-09","time":"17:22:01"},{"correct_response":"l","task":"test_phase","broad_category":"I","image_png":"I_Gabbro_08.png","image_id":56,"category_name":"Gabbro","category":4,"distinct_rating":3.02,"distinct_type":"Bottom","item_type":"Target","rt":1163,"stimulus":"Stimuli_Rocks480/I_Gabbro_08.png","response":"l","trial_type":"image-keyboard-response","trial_index":213,"plugin_version":"2.1.0","time_elapsed":342087,"subject_id":"87490","group":"Group1","full_date":"2025-11-09T17:22:01.649Z","date":"2025-11-09","time":"17:22:01","cor_ans":true},{"trial_type":"html-keyboard-response","rt":null,"stimulus":"<p style=\"color: green; font-size: 50px; font-weight: bold;\">Correct</p>","response":null,"trial_index":214,"plugin_version":"2.1.0","time_elapsed":342603,"subject_id":"87490","group":"Group1","full_date":"2025-11-09T17:22:01.649Z","date":"2025-11-09","time":"17:22:01"},{"correct_response":"a","task":"test_phase","broad_category":"M","image_png":"M_Slate_10.png","image_id":314,"category_name":"Slate","category":20,"distinct_rating":1.94,"distinct_type":"Bottom","item_type":"Foil","rt":797,"stimulus":"Stimuli_Rocks480/M_Slate_10.png","response":"l","trial_type":"image-keyboard-response","trial_index":215,"plugin_version":"2.1.0","time_elapsed":343403,"subject_id":"87490","group":"Group1","full_date":"2025-11-09T17:22:01.649Z","date":"2025-11-09","time":"17:22:01","cor_ans":false},{"trial_type":"html-keyboard-response","rt":null,"stimulus":"<p style=\"color: red; font-size: 50px; font-weight: bold;\">Incorrect</p>","response":null,"trial_index":216,"plugin_version":"2.1.0","time_elapsed":343918,"subject_id":"87490","group":"Group1","full_date":"2025-11-09T17:22:01.649Z","date":"2025-11-09","time":"17:22:01"},{"correct_response":"a","task":"test_phase","broad_category":"M","image_png":"M_Gneiss_15.png","image_id":207,"category_name":"Gneiss","category":13,"distinct_rating":3.11,"distinct_type":"Bottom","item_type":"Foil","rt":1068,"stimulus":"Stimuli_Rocks480/M_Gneiss_15.png","response":"a","trial_type":"image-keyboard-response","trial_index":217,"plugin_version":"2.1.0","time_elapsed":344988,"subject_id":"87490","group":"Group1","full_date":"2025-11-09T17:22:01.649Z","date":"2025-11-09","time":"17:22:01","cor_ans":true},{"trial_type":"html-keyboard-response","rt":null,"stimulus":"<p style=\"color: green; font-size: 50px; font-weight: bold;\">Correct</p>","response":null,"trial_index":218,"plugin_version":"2.1.0","time_elapsed":345505,"subject_id":"87490","group":"Group1","full_date":"2025-11-09T17:22:01.649Z","date":"2025-11-09","time":"17:22:01"},{"correct_response":"a","task":"test_phase","broad_category":"I","image_png":"I_Andesite_09.png","image_id":9,"category_name":"Andesite","category":1,"distinct_rating":2.49,"distinct_type":"Bottom","item_type":"Foil","rt":1425,"stimulus":"Stimuli_Rocks480/I_Andesite_09.png","response":"a","trial_type":"image-keyboard-response","trial_index":219,"plugin_version":"2.1.0","time_elapsed":346932,"subject_id":"87490","group":"Group1","full_date":"2025-11-09T17:22:01.649Z","date":"2025-11-09","time":"17:22:01","cor_ans":true},{"trial_type":"html-keyboard-response","rt":null,"stimulus":"<p style=\"color: green; font-size: 50px; font-weight: bold;\">Correct</p>","response":null,"trial_index":220,"plugin_version":"2.1.0","time_elapsed":347439,"subject_id":"87490","group":"Group1","full_date":"2025-11-09T17:22:01.649Z","date":"2025-11-09","time":"17:22:01"},{"correct_response":"a","task":"test_phase","broad_category":"S","image_png":"S_Dolomite_16.png","image_id":400,"category_name":"Dolomite","category":25,"distinct_rating":1.71,"distinct_type":"Bottom","item_type":"Foil","rt":1013,"stimulus":"Stimuli_Rocks480/S_Dolomite_16.png","response":"a","trial_type":"image-keyboard-response","trial_index":221,"plugin_version":"2.1.0","time_elapsed":348455,"subject_id":"87490","group":"Group1","full_date":"2025-11-09T17:22:01.649Z","date":"2025-11-09","time":"17:22:01","cor_ans":true},{"trial_type":"html-keyboard-response","rt":null,"stimulus":"<p style=\"color: green; font-size: 50px; font-weight: bold;\">Correct</p>","response":null,"trial_index":222,"plugin_version":"2.1.0","time_elapsed":348971,"subject_id":"87490","group":"Group1","full_date":"2025-11-09T17:22:01.649Z","date":"2025-11-09","time":"17:22:01"},{"correct_response":"a","task":"test_phase","broad_category":"M","image_png":"M_Marble_02.png","image_id":226,"category_name":"Marble","category":15,"distinct_rating":3.2,"distinct_type":"Bottom","item_type":"Foil","rt":949,"stimulus":"Stimuli_Rocks480/M_Marble_02.png","response":"a","trial_type":"image-keyboard-response","trial_index":223,"plugin_version":"2.1.0","time_elapsed":349922,"subject_id":"87490","group":"Group1","full_date":"2025-11-09T17:22:01.649Z","date":"2025-11-09","time":"17:22:01","cor_ans":true},{"trial_type":"html-keyboard-response","rt":null,"stimulus":"<p style=\"color: green; font-size: 50px; font-weight: bold;\">Correct</p>","response":null,"trial_index":224,"plugin_version":"2.1.0","time_elapsed":350436,"subject_id":"87490","group":"Group1","full_date":"2025-11-09T17:22:01.649Z","date":"2025-11-09","time":"17:22:01"},{"correct_response":"a","task":"test_phase","broad_category":"M","image_png":"M_Phyllite_02.png","image_id":258,"category_name":"Phyllite","category":17,"distinct_rating":2.89,"distinct_type":"Bottom","item_type":"Foil","rt":871,"stimulus":"Stimuli_Rocks480/M_Phyllite_02.png","response":"a","trial_type":"image-keyboard-response","trial_index":225,"plugin_version":"2.1.0","time_elapsed":351308,"subject_id":"87490","group":"Group1","full_date":"2025-11-09T17:22:01.649Z","date":"2025-11-09","time":"17:22:01","cor_ans":true},{"trial_type":"html-keyboard-response","rt":null,"stimulus":"<p style=\"color: green; font-size: 50px; font-weight: bold;\">Correct</p>","response":null,"trial_index":226,"plugin_version":"2.1.0","time_elapsed":351818,"subject_id":"87490","group":"Group1","full_date":"2025-11-09T17:22:01.649Z","date":"2025-11-09","time":"17:22:01"},{"correct_response":"a","task":"test_phase","broad_category":"M","image_png":"M_Gneiss_14.png","image_id":206,"category_name":"Gneiss","category":13,"distinct_rating":3.41,"distinct_type":"Bottom","item_type":"Foil","rt":890,"stimulus":"Stimuli_Rocks480/M_Gneiss_14.png","response":"a","trial_type":"image-keyboard-response","trial_index":227,"plugin_version":"2.1.0","time_elapsed":352713,"subject_id":"87490","group":"Group1","full_date":"2025-11-09T17:22:01.649Z","date":"2025-11-09","time":"17:22:01","cor_ans":true},{"trial_type":"html-keyboard-response","rt":null,"stimulus":"<p style=\"color: green; font-size: 50px; font-weight: bold;\">Correct</p>","response":null,"trial_index":228,"plugin_version":"2.1.0","time_elapsed":353217,"subject_id":"87490","group":"Group1","full_date":"2025-11-09T17:22:01.649Z","date":"2025-11-09","time":"17:22:01"},{"correct_response":"a","task":"test_phase","broad_category":"I","image_png":"I_Pumice_14.png","image_id":142,"category_name":"Pumice","category":9,"distinct_rating":3.22,"distinct_type":"Bottom","item_type":"Foil","rt":952,"stimulus":"Stimuli_Rocks480/I_Pumice_14.png","response":"l","trial_type":"image-keyboard-response","trial_index":229,"plugin_version":"2.1.0","time_elapsed":354174,"subject_id":"87490","group":"Group1","full_date":"2025-11-09T17:22:01.649Z","date":"2025-11-09","time":"17:22:01","cor_ans":false},{"trial_type":"html-keyboard-response","rt":null,"stimulus":"<p style=\"color: red; font-size: 50px; font-weight: bold;\">Incorrect</p>","response":null,"trial_index":230,"plugin_version":"2.1.0","time_elapsed":354690,"subject_id":"87490","group":"Group1","full_date":"2025-11-09T17:22:01.649Z","date":"2025-11-09","time":"17:22:01"},{"correct_response":"a","task":"test_phase","broad_category":"S","image_png":"S_Sandstone_04.png","image_id":452,"category_name":"Sandstone","category":29,"distinct_rating":1.8,"distinct_type":"Bottom","item_type":"Foil","rt":1247,"stimulus":"Stimuli_Rocks480/S_Sandstone_04.png","response":"a","trial_type":"image-keyboard-response","trial_index":231,"plugin_version":"2.1.0","time_elapsed":355940,"subject_id":"87490","group":"Group1","full_date":"2025-11-09T17:22:01.649Z","date":"2025-11-09","time":"17:22:01","cor_ans":true},{"trial_type":"html-keyboard-response","rt":null,"stimulus":"<p style=\"color: green; font-size: 50px; font-weight: bold;\">Correct</p>","response":null,"trial_index":232,"plugin_version":"2.1.0","time_elapsed":356458,"subject_id":"87490","group":"Group1","full_date":"2025-11-09T17:22:01.649Z","date":"2025-11-09","time":"17:22:01"},{"correct_response":"a","task":"test_phase","broad_category":"M","image_png":"M_Marble_14.png","image_id":238,"category_name":"Marble","category":15,"distinct_rating":3.31,"distinct_type":"Bottom","item_type":"Foil","rt":891,"stimulus":"Stimuli_Rocks480/M_Marble_14.png","response":"a","trial_type":"image-keyboard-response","trial_index":233,"plugin_version":"2.1.0","time_elapsed":357353,"subject_id":"87490","group":"Group1","full_date":"2025-11-09T17:22:01.649Z","date":"2025-11-09","time":"17:22:01","cor_ans":true},{"trial_type":"html-keyboard-response","rt":null,"stimulus":"<p style=\"color: green; font-size: 50px; font-weight: bold;\">Correct</p>","response":null,"trial_index":234,"plugin_version":"2.1.0","time_elapsed":357867,"subject_id":"87490","group":"Group1","full_date":"2025-11-09T17:22:01.649Z","date":"2025-11-09","time":"17:22:01"},{"correct_response":"l","task":"test_phase","broad_category":"M","image_png":"M_Phyllite_03.png","image_id":259,"category_name":"Phyllite","category":17,"distinct_rating":2.5,"distinct_type":"Bottom","item_type":"Target","rt":1194,"stimulus":"Stimuli_Rocks480/M_Phyllite_03.png","response":"a","trial_type":"image-keyboard-response","trial_index":235,"plugin_version":"2.1.0","time_elapsed":359064,"subject_id":"87490","group":"Group1","full_date":"2025-11-09T17:22:01.649Z","date":"2025-11-09","time":"17:22:01","cor_ans":false},{"trial_type":"html-k