[{"width":1470,"height":797,"webaudio":true,"browser":"chrome","browser_version":"142.0.0","mobile":false,"os":"Mac OS","fullscreen":true,"vsync_rate":60.56,"webcam":true,"microphone":true,"trial_type":"browser-check","trial_index":0,"plugin_version":"2.1.0","time_elapsed":1001,"subject_id":"90235","group":"Group1","full_date":"2025-11-09T20:36:02.042Z","date":"2025-11-09","time":"20:36:02"},{"success":true,"timeout":false,"failed_images":[],"failed_audio":[],"failed_video":[],"trial_type":"preload","trial_index":1,"plugin_version":"2.1.0","time_elapsed":76651,"subject_id":"90235","group":"Group1","full_date":"2025-11-09T20:36:02.042Z","date":"2025-11-09","time":"20:36:02"},{"rt":63399,"url":"SONA_consent_memorability.html","trial_type":"external-html","trial_index":2,"plugin_version":"2.1.0","time_elapsed":140114,"subject_id":"90235","group":"Group1","full_date":"2025-11-09T20:36:02.042Z","date":"2025-11-09","time":"20:36:02"},{"success":true,"rt":1131,"trial_type":"fullscreen","trial_index":3,"plugin_version":"2.1.0","time_elapsed":142248,"subject_id":"90235","group":"Group1","full_date":"2025-11-09T20:36:02.042Z","date":"2025-11-09","time":"20:36:02"},{"rt":2079,"stimulus":"<div style=\"max-width: 760px; margin: auto; font-size: 20px; line-height: 1.5;\">\n      <h1 style=\"text-align:center; font-size: 30px;\">Instructions</h1>\n      <p>\n        Welcome to the study on <b>visual memory</b>. This experiment consists of <b>two phases</b>: \n        a <b>study phase</b> and a <b>test phase</b>.\n      </p>\n      <p>\n        In the study phase, you will see a series of rock images along with their category labels.\n        The images will appear one at a time.\n        <b>Your task</b> is to learn the categories to which the rock images belong \n        and to remember each image as accurately as possible.\n      </p> \n      <p>\n        After the study phase, <b>your memory will be tested</b>. \n        Additional instructions for the test phase will be provided at that time.\n      </p>\n      <p>\n        If your computer has multiple <b>language settings</b> (e.g., English and another language),\n        please make sure it is set to English before starting.\n      </p>\n      <p>\n        You can track your progress using the <b>completion bar</b> at the top of the screen. \n        Please note that the bar will refresh when the test phase begins \n        to give you an accurate sense of your progress in both phases.\n      </p> \n      <p>\n        Press the button below when you are ready to begin.\n      </p>\n    </div>","response":0,"trial_type":"html-button-response","trial_index":4,"plugin_version":"2.1.0","time_elapsed":144330,"subject_id":"90235","group":"Group1","full_date":"2025-11-09T20:36:02.042Z","date":"2025-11-09","time":"20:36:02"},{"rt":null,"stimulus":"<p style=\"font-size: 50px; margin: 0; text-align: center;\">+</p>","response":null,"trial_type":"html-keyboard-response","trial_index":5,"plugin_version":"2.1.0","time_elapsed":145333,"subject_id":"90235","group":"Group1","full_date":"2025-11-09T20:36:02.042Z","date":"2025-11-09","time":"20:36:02"},{"task":"memory_phase","broad_category":"M","image_png":"M_Gneiss_05.png","image_id":197,"category_name":"Gneiss","category":13,"distinct_rating":2.97,"distinct_type":"Bottom","rt":null,"stimulus":"Stimuli_Rocks480/M_Gneiss_05.png","response":null,"trial_type":"image-keyboard-response","trial_index":6,"plugin_version":"2.1.0","time_elapsed":147838,"subject_id":"90235","group":"Group1","full_date":"2025-11-09T20:36:02.042Z","date":"2025-11-09","time":"20:36:02"},{"rt":null,"stimulus":"<p style=\"font-size: 50px; margin: 0; text-align: center;\">+</p>","response":null,"trial_type":"html-keyboard-response","trial_index":7,"plugin_version":"2.1.0","time_elapsed":148841,"subject_id":"90235","group":"Group1","full_date":"2025-11-09T20:36:02.042Z","date":"2025-11-09","time":"20:36:02"},{"task":"memory_phase","broad_category":"I","image_png":"I_Basalt_02.png","image_id":18,"category_name":"Basalt","category":2,"distinct_rating":1.84,"distinct_type":"Bottom","rt":null,"stimulus":"Stimuli_Rocks480/I_Basalt_02.png","response":null,"trial_type":"image-keyboard-response","trial_index":8,"plugin_version":"2.1.0","time_elapsed":151344,"subject_id":"90235","group":"Group1","full_date":"2025-11-09T20:36:02.042Z","date":"2025-11-09","time":"20:36:02"},{"rt":null,"stimulus":"<p style=\"font-size: 50px; margin: 0; text-align: center;\">+</p>","response":null,"trial_type":"html-keyboard-response","trial_index":9,"plugin_version":"2.1.0","time_elapsed":152347,"subject_id":"90235","group":"Group1","full_date":"2025-11-09T20:36:02.042Z","date":"2025-11-09","time":"20:36:02"},{"task":"memory_phase","broad_category":"M","image_png":"M_Marble_06.png","image_id":230,"category_name":"Marble","category":15,"distinct_rating":3.4,"distinct_type":"Bottom","rt":null,"stimulus":"Stimuli_Rocks480/M_Marble_06.png","response":null,"trial_type":"image-keyboard-response","trial_index":10,"plugin_version":"2.1.0","time_elapsed":154849,"subject_id":"90235","group":"Group1","full_date":"2025-11-09T20:36:02.042Z","date":"2025-11-09","time":"20:36:02"},{"rt":null,"stimulus":"<p style=\"font-size: 50px; margin: 0; text-align: center;\">+</p>","response":null,"trial_type":"html-keyboard-response","trial_index":11,"plugin_version":"2.1.0","time_elapsed":155852,"subject_id":"90235","group":"Group1","full_date":"2025-11-09T20:36:02.042Z","date":"2025-11-09","time":"20:36:02"},{"task":"memory_phase","broad_category":"I","image_png":"I_Pegmatite_16.png","image_id":112,"category_name":"Pegmatite","category":7,"distinct_rating":7.03,"distinct_type":"Top","rt":null,"stimulus":"Stimuli_Rocks480/I_Pegmatite_16.png","response":null,"trial_type":"image-keyboard-response","trial_index":12,"plugin_version":"2.1.0","time_elapsed":158355,"subject_id":"90235","group":"Group1","full_date":"2025-11-09T20:36:02.042Z","date":"2025-11-09","time":"20:36:02"},{"rt":null,"stimulus":"<p style=\"font-size: 50px; margin: 0; text-align: center;\">+</p>","response":null,"trial_type":"html-keyboard-response","trial_index":13,"plugin_version":"2.1.0","time_elapsed":159358,"subject_id":"90235","group":"Group1","full_date":"2025-11-09T20:36:02.042Z","date":"2025-11-09","time":"20:36:02"},{"task":"memory_phase","broad_category":"I","image_png":"I_Diorite_03.png","image_id":35,"category_name":"Diorite","category":3,"distinct_rating":3.14,"distinct_type":"Bottom","rt":null,"stimulus":"Stimuli_Rocks480/I_Diorite_03.png","response":null,"trial_type":"image-keyboard-response","trial_index":14,"plugin_version":"2.1.0","time_elapsed":161862,"subject_id":"90235","group":"Group1","full_date":"2025-11-09T20:36:02.042Z","date":"2025-11-09","time":"20:36:02"},{"rt":null,"stimulus":"<p style=\"font-size: 50px; margin: 0; text-align: center;\">+</p>","response":null,"trial_type":"html-keyboard-response","trial_index":15,"plugin_version":"2.1.0","time_elapsed":162865,"subject_id":"90235","group":"Group1","full_date":"2025-11-09T20:36:02.042Z","date":"2025-11-09","time":"20:36:02"},{"task":"memory_phase","broad_category":"M","image_png":"M_Slate_15.png","image_id":319,"category_name":"Slate","category":20,"distinct_rating":2.13,"distinct_type":"Bottom","rt":null,"stimulus":"Stimuli_Rocks480/M_Slate_15.png","response":null,"trial_type":"image-keyboard-response","trial_index":16,"plugin_version":"2.1.0","time_elapsed":165370,"subject_id":"90235","group":"Group1","full_date":"2025-11-09T20:36:02.042Z","date":"2025-11-09","time":"20:36:02"},{"rt":null,"stimulus":"<p style=\"font-size: 50px; margin: 0; text-align: center;\">+</p>","response":null,"trial_type":"html-keyboard-response","trial_index":17,"plugin_version":"2.1.0","time_elapsed":166373,"subject_id":"90235","group":"Group1","full_date":"2025-11-09T20:36:02.042Z","date":"2025-11-09","time":"20:36:02"},{"task":"memory_phase","broad_category":"M","image_png":"M_Slate_03.png","image_id":307,"category_name":"Slate","category":20,"distinct_rating":1.87,"distinct_type":"Bottom","rt":null,"stimulus":"Stimuli_Rocks480/M_Slate_03.png","response":null,"trial_type":"image-keyboard-response","trial_index":18,"plugin_version":"2.1.0","time_elapsed":168877,"subject_id":"90235","group":"Group1","full_date":"2025-11-09T20:36:02.042Z","date":"2025-11-09","time":"20:36:02"},{"rt":null,"stimulus":"<p style=\"font-size: 50px; margin: 0; text-align: center;\">+</p>","response":null,"trial_type":"html-keyboard-response","trial_index":19,"plugin_version":"2.1.0","time_elapsed":169879,"subject_id":"90235","group":"Group1","full_date":"2025-11-09T20:36:02.042Z","date":"2025-11-09","time":"20:36:02"},{"task":"memory_phase","broad_category":"I","image_png":"I_Rhyolite_11.png","image_id":155,"category_name":"Rhyolite","category":10,"distinct_rating":1.73,"distinct_type":"Bottom","rt":null,"stimulus":"Stimuli_Rocks480/I_Rhyolite_11.png","response":null,"trial_type":"image-keyboard-response","trial_index":20,"plugin_version":"2.1.0","time_elapsed":172384,"subject_id":"90235","group":"Group1","full_date":"2025-11-09T20:36:02.042Z","date":"2025-11-09","time":"20:36:02"},{"rt":null,"stimulus":"<p style=\"font-size: 50px; margin: 0; text-align: center;\">+</p>","response":null,"trial_type":"html-keyboard-response","trial_index":21,"plugin_version":"2.1.0","time_elapsed":173385,"subject_id":"90235","group":"Group1","full_date":"2025-11-09T20:36:02.042Z","date":"2025-11-09","time":"20:36:02"},{"task":"memory_phase","broad_category":"I","image_png":"I_Gabbro_08.png","image_id":56,"category_name":"Gabbro","category":4,"distinct_rating":3.02,"distinct_type":"Bottom","rt":null,"stimulus":"Stimuli_Rocks480/I_Gabbro_08.png","response":null,"trial_type":"image-keyboard-response","trial_index":22,"plugin_version":"2.1.0","time_elapsed":175889,"subject_id":"90235","group":"Group1","full_date":"2025-11-09T20:36:02.042Z","date":"2025-11-09","time":"20:36:02"},{"rt":null,"stimulus":"<p style=\"font-size: 50px; margin: 0; text-align: center;\">+</p>","response":null,"trial_type":"html-keyboard-response","trial_index":23,"plugin_version":"2.1.0","time_elapsed":176892,"subject_id":"90235","group":"Group1","full_date":"2025-11-09T20:36:02.042Z","date":"2025-11-09","time":"20:36:02"},{"task":"memory_phase","broad_category":"S","image_png":"S_Shale_01.png","image_id":465,"category_name":"Shale","category":30,"distinct_rating":2.7,"distinct_type":"Bottom","rt":null,"stimulus":"Stimuli_Rocks480/S_Shale_01.png","response":null,"trial_type":"image-keyboard-response","trial_index":24,"plugin_version":"2.1.0","time_elapsed":179395,"subject_id":"90235","group":"Group1","full_date":"2025-11-09T20:36:02.042Z","date":"2025-11-09","time":"20:36:02"},{"rt":null,"stimulus":"<p style=\"font-size: 50px; margin: 0; text-align: center;\">+</p>","response":null,"trial_type":"html-keyboard-response","trial_index":25,"plugin_version":"2.1.0","time_elapsed":180397,"subject_id":"90235","group":"Group1","full_date":"2025-11-09T20:36:02.042Z","date":"2025-11-09","time":"20:36:02"},{"task":"memory_phase","broad_category":"I","image_png":"I_Pumice_11.png","image_id":139,"category_name":"Pumice","category":9,"distinct_rating":1.74,"distinct_type":"Bottom","rt":null,"stimulus":"Stimuli_Rocks480/I_Pumice_11.png","response":null,"trial_type":"image-keyboard-response","trial_index":26,"plugin_version":"2.1.0","time_elapsed":182901,"subject_id":"90235","group":"Group1","full_date":"2025-11-09T20:36:02.042Z","date":"2025-11-09","time":"20:36:02"},{"rt":null,"stimulus":"<p style=\"font-size: 50px; margin: 0; text-align: center;\">+</p>","response":null,"trial_type":"html-keyboard-response","trial_index":27,"plugin_version":"2.1.0","time_elapsed":183904,"subject_id":"90235","group":"Group1","full_date":"2025-11-09T20:36:02.042Z","date":"2025-11-09","time":"20:36:02"},{"task":"memory_phase","broad_category":"S","image_png":"S_Sandstone_15.png","image_id":463,"category_name":"Sandstone","category":29,"distinct_rating":2,"distinct_type":"Bottom","rt":null,"stimulus":"Stimuli_Rocks480/S_Sandstone_15.png","response":null,"trial_type":"image-keyboard-response","trial_index":28,"plugin_version":"2.1.0","time_elapsed":186408,"subject_id":"90235","group":"Group1","full_date":"2025-11-09T20:36:02.042Z","date":"2025-11-09","time":"20:36:02"},{"rt":null,"stimulus":"<p style=\"font-size: 50px; margin: 0; text-align: center;\">+</p>","response":null,"trial_type":"html-keyboard-response","trial_index":29,"plugin_version":"2.1.0","time_elapsed":187411,"subject_id":"90235","group":"Group1","full_date":"2025-11-09T20:36:02.042Z","date":"2025-11-09","time":"20:36:02"},{"task":"memory_phase","broad_category":"S","image_png":"S_Sandstone_03.png","image_id":451,"category_name":"Sandstone","category":29,"distinct_rating":1.86,"distinct_type":"Bottom","rt":null,"stimulus":"Stimuli_Rocks480/S_Sandstone_03.png","response":null,"trial_type":"image-keyboard-response","trial_index":30,"plugin_version":"2.1.0","time_elapsed":189914,"subject_id":"90235","group":"Group1","full_date":"2025-11-09T20:36:02.042Z","date":"2025-11-09","time":"20:36:02"},{"rt":null,"stimulus":"<p style=\"font-size: 50px; margin: 0; text-align: center;\">+</p>","response":null,"trial_type":"html-keyboard-response","trial_index":31,"plugin_version":"2.1.0","time_elapsed":190916,"subject_id":"90235","group":"Group1","full_date":"2025-11-09T20:36:02.042Z","date":"2025-11-09","time":"20:36:02"},{"task":"memory_phase","broad_category":"I","image_png":"I_Diorite_04.png","image_id":36,"category_name":"Diorite","category":3,"distinct_rating":2.98,"distinct_type":"Bottom","rt":null,"stimulus":"Stimuli_Rocks480/I_Diorite_04.png","response":null,"trial_type":"image-keyboard-response","trial_index":32,"plugin_version":"2.1.0","time_elapsed":193420,"subject_id":"90235","group":"Group1","full_date":"2025-11-09T20:36:02.042Z","date":"2025-11-09","time":"20:36:02"},{"rt":null,"stimulus":"<p style=\"font-size: 50px; margin: 0; text-align: center;\">+</p>","response":null,"trial_type":"html-keyboard-response","trial_index":33,"plugin_version":"2.1.0","time_elapsed":194423,"subject_id":"90235","group":"Group1","full_date":"2025-11-09T20:36:02.042Z","date":"2025-11-09","time":"20:36:02"},{"task":"memory_phase","broad_category":"I","image_png":"I_Andesite_06.png","image_id":6,"category_name":"Andesite","category":1,"distinct_rating":3.17,"distinct_type":"Bottom","rt":null,"stimulus":"Stimuli_Rocks480/I_Andesite_06.png","response":null,"trial_type":"image-keyboard-response","trial_index":34,"plugin_version":"2.1.0","time_elapsed":196926,"subject_id":"90235","group":"Group1","full_date":"2025-11-09T20:36:02.042Z","date":"2025-11-09","time":"20:36:02"},{"rt":null,"stimulus":"<p style=\"font-size: 50px; margin: 0; text-align: center;\">+</p>","response":null,"trial_type":"html-keyboard-response","trial_index":35,"plugin_version":"2.1.0","time_elapsed":197929,"subject_id":"90235","group":"Group1","full_date":"2025-11-09T20:36:02.042Z","date":"2025-11-09","time":"20:36:02"},{"task":"memory_phase","broad_category":"I","image_png":"I_Rhyolite_14.png","image_id":158,"category_name":"Rhyolite","category":10,"distinct_rating":2.59,"distinct_type":"Bottom","rt":null,"stimulus":"Stimuli_Rocks480/I_Rhyolite_14.png","response":null,"trial_type":"image-keyboard-response","trial_index":36,"plugin_version":"2.1.0","time_elapsed":200432,"subject_id":"90235","group":"Group1","full_date":"2025-11-09T20:36:02.042Z","date":"2025-11-09","time":"20:36:02"},{"rt":null,"stimulus":"<p style=\"font-size: 50px; margin: 0; text-align: center;\">+</p>","response":null,"trial_type":"html-keyboard-response","trial_index":37,"plugin_version":"2.1.0","time_elapsed":201434,"subject_id":"90235","group":"Group1","full_date":"2025-11-09T20:36:02.042Z","date":"2025-11-09","time":"20:36:02"},{"task":"memory_phase","broad_category":"I","image_png":"I_Gabbro_16.png","image_id":64,"category_name":"Gabbro","category":4,"distinct_rating":2.52,"distinct_type":"Bottom","rt":null,"stimulus":"Stimuli_Rocks480/I_Gabbro_16.png","response":null,"trial_type":"image-keyboard-response","trial_index":38,"plugin_version":"2.1.0","time_elapsed":203937,"subject_id":"90235","group":"Group1","full_date":"2025-11-09T20:36:02.042Z","date":"2025-11-09","time":"20:36:02"},{"rt":null,"stimulus":"<p style=\"font-size: 50px; margin: 0; text-align: center;\">+</p>","response":null,"trial_type":"html-keyboard-response","trial_index":39,"plugin_version":"2.1.0","time_elapsed":204940,"subject_id":"90235","group":"Group1","full_date":"2025-11-09T20:36:02.042Z","date":"2025-11-09","time":"20:36:02"},{"task":"memory_phase","broad_category":"I","image_png":"I_Rhyolite_16.png","image_id":160,"category_name":"Rhyolite","category":10,"distinct_rating":2.19,"distinct_type":"Bottom","rt":null,"stimulus":"Stimuli_Rocks480/I_Rhyolite_16.png","response":null,"trial_type":"image-keyboard-response","trial_index":40,"plugin_version":"2.1.0","time_elapsed":207443,"subject_id":"90235","group":"Group1","full_date":"2025-11-09T20:36:02.042Z","date":"2025-11-09","time":"20:36:02"},{"rt":null,"stimulus":"<p style=\"font-size: 50px; margin: 0; text-align: center;\">+</p>","response":null,"trial_type":"html-keyboard-response","trial_index":41,"plugin_version":"2.1.0","time_elapsed":208446,"subject_id":"90235","group":"Group1","full_date":"2025-11-09T20:36:02.042Z","date":"2025-11-09","time":"20:36:02"},{"task":"memory_phase","broad_category":"M","image_png":"M_Marble_16.png","image_id":240,"category_name":"Marble","category":15,"distinct_rating":2.57,"distinct_type":"Bottom","rt":null,"stimulus":"Stimuli_Rocks480/M_Marble_16.png","response":null,"trial_type":"image-keyboard-response","trial_index":42,"plugin_version":"2.1.0","time_elapsed":210950,"subject_id":"90235","group":"Group1","full_date":"2025-11-09T20:36:02.042Z","date":"2025-11-09","time":"20:36:02"},{"rt":null,"stimulus":"<p style=\"font-size: 50px; margin: 0; text-align: center;\">+</p>","response":null,"trial_type":"html-keyboard-response","trial_index":43,"plugin_version":"2.1.0","time_elapsed":211953,"subject_id":"90235","group":"Group1","full_date":"2025-11-09T20:36:02.042Z","date":"2025-11-09","time":"20:36:02"},{"task":"memory_phase","broad_category":"M","image_png":"M_Marble_04.png","image_id":228,"category_name":"Marble","category":15,"distinct_rating":3.15,"distinct_type":"Bottom","rt":null,"stimulus":"Stimuli_Rocks480/M_Marble_04.png","response":null,"trial_type":"image-keyboard-response","trial_index":44,"plugin_version":"2.1.0","time_elapsed":214456,"subject_id":"90235","group":"Group1","full_date":"2025-11-09T20:36:02.042Z","date":"2025-11-09","time":"20:36:02"},{"rt":null,"stimulus":"<p style=\"font-size: 50px; margin: 0; text-align: center;\">+</p>","response":null,"trial_type":"html-keyboard-response","trial_index":45,"plugin_version":"2.1.0","time_elapsed":215458,"subject_id":"90235","group":"Group1","full_date":"2025-11-09T20:36:02.042Z","date":"2025-11-09","time":"20:36:02"},{"task":"memory_phase","broad_category":"I","image_png":"I_Pumice_08.png","image_id":136,"category_name":"Pumice","category":9,"distinct_rating":3.1,"distinct_type":"Bottom","rt":null,"stimulus":"Stimuli_Rocks480/I_Pumice_08.png","response":null,"trial_type":"image-keyboard-response","trial_index":46,"plugin_version":"2.1.0","time_elapsed":217961,"subject_id":"90235","group":"Group1","full_date":"2025-11-09T20:36:02.042Z","date":"2025-11-09","time":"20:36:02"},{"rt":null,"stimulus":"<p style=\"font-size: 50px; margin: 0; text-align: center;\">+</p>","response":null,"trial_type":"html-keyboard-response","trial_index":47,"plugin_version":"2.1.0","time_elapsed":218963,"subject_id":"90235","group":"Group1","full_date":"2025-11-09T20:36:02.042Z","date":"2025-11-09","time":"20:36:02"},{"task":"memory_phase","broad_category":"S","image_png":"S_Dolomite_12.png","image_id":396,"category_name":"Dolomite","category":25,"distinct_rating":1.85,"distinct_type":"Bottom","rt":null,"stimulus":"Stimuli_Rocks480/S_Dolomite_12.png","response":null,"trial_type":"image-keyboard-response","trial_index":48,"plugin_version":"2.1.0","time_elapsed":221466,"subject_id":"90235","group":"Group1","full_date":"2025-11-09T20:36:02.042Z","date":"2025-11-09","time":"20:36:02"},{"rt":null,"stimulus":"<p style=\"font-size: 50px; margin: 0; text-align: center;\">+</p>","response":null,"trial_type":"html-keyboard-response","trial_index":49,"plugin_version":"2.1.0","time_elapsed":222469,"subject_id":"90235","group":"Group1","full_date":"2025-11-09T20:36:02.042Z","date":"2025-11-09","time":"20:36:02"},{"task":"memory_phase","broad_category":"M","image_png":"M_Quartzite_05.png","image_id":277,"category_name":"Quartzite","category":18,"distinct_rating":2.23,"distinct_type":"Bottom","rt":null,"stimulus":"Stimuli_Rocks480/M_Quartzite_05.png","response":null,"trial_type":"image-keyboard-response","trial_index":50,"plugin_version":"2.1.0","time_elapsed":224972,"subject_id":"90235","group":"Group1","full_date":"2025-11-09T20:36:02.042Z","date":"2025-11-09","time":"20:36:02"},{"rt":null,"stimulus":"<p style=\"font-size: 50px; margin: 0; text-align: center;\">+</p>","response":null,"trial_type":"html-keyboard-response","trial_index":51,"plugin_version":"2.1.0","time_elapsed":225974,"subject_id":"90235","group":"Group1","full_date":"2025-11-09T20:36:02.042Z","date":"2025-11-09","time":"20:36:02"},{"task":"memory_phase","broad_category":"S","image_png":"S_Shale_08.png","image_id":472,"category_name":"Shale","category":30,"distinct_rating":2.55,"distinct_type":"Bottom","rt":null,"stimulus":"Stimuli_Rocks480/S_Shale_08.png","response":null,"trial_type":"image-keyboard-response","trial_index":52,"plugin_version":"2.1.0","time_elapsed":228477,"subject_id":"90235","group":"Group1","full_date":"2025-11-09T20:36:02.042Z","date":"2025-11-09","time":"20:36:02"},{"rt":null,"stimulus":"<p style=\"font-size: 50px; margin: 0; text-align: center;\">+</p>","response":null,"trial_type":"html-keyboard-response","trial_index":53,"plugin_version":"2.1.0","time_elapsed":229479,"subject_id":"90235","group":"Group1","full_date":"2025-11-09T20:36:02.042Z","date":"2025-11-09","time":"20:36:02"},{"task":"memory_phase","broad_category":"S","image_png":"S_Shale_12.png","image_id":476,"category_name":"Shale","category":30,"distinct_rating":2.48,"distinct_type":"Bottom","rt":null,"stimulus":"Stimuli_Rocks480/S_Shale_12.png","response":null,"trial_type":"image-keyboard-response","trial_index":54,"plugin_version":"2.1.0","time_elapsed":231982,"subject_id":"90235","group":"Group1","full_date":"2025-11-09T20:36:02.042Z","date":"2025-11-09","time":"20:36:02"},{"rt":2116,"stimulus":"<p style=\"font-size: 35px;\">Press SPACE to continue study phase</p>","response":" ","trial_type":"html-keyboard-response","trial_index":55,"plugin_version":"2.1.0","time_elapsed":234099,"subject_id":"90235","group":"Group1","full_date":"2025-11-09T20:36:02.042Z","date":"2025-11-09","time":"20:36:02"},{"rt":null,"stimulus":"<p style=\"font-size: 50px; margin: 0; text-align: center;\">+</p>","response":null,"trial_type":"html-keyboard-response","trial_index":56,"plugin_version":"2.1.0","time_elapsed":235102,"subject_id":"90235","group":"Group1","full_date":"2025-11-09T20:36:02.042Z","date":"2025-11-09","time":"20:36:02"},{"task":"memory_phase","broad_category":"M","image_png":"M_Phyllite_03.png","image_id":259,"category_name":"Phyllite","category":17,"distinct_rating":2.5,"distinct_type":"Bottom","rt":null,"stimulus":"Stimuli_Rocks480/M_Phyllite_03.png","response":null,"trial_type":"image-keyboard-response","trial_index":57,"plugin_version":"2.1.0","time_elapsed":237605,"subject_id":"90235","group":"Group1","full_date":"2025-11-09T20:36:02.042Z","date":"2025-11-09","time":"20:36:02"},{"rt":null,"stimulus":"<p style=\"font-size: 50px; margin: 0; text-align: center;\">+</p>","response":null,"trial_type":"html-keyboard-response","trial_index":58,"plugin_version":"2.1.0","time_elapsed":238608,"subject_id":"90235","group":"Group1","full_date":"2025-11-09T20:36:02.042Z","date":"2025-11-09","time":"20:36:02"},{"task":"memory_phase","broad_category":"M","image_png":"M_Gneiss_13.png","image_id":205,"category_name":"Gneiss","category":13,"distinct_rating":3.26,"distinct_type":"Bottom","rt":null,"stimulus":"Stimuli_Rocks480/M_Gneiss_13.png","response":null,"trial_type":"image-keyboard-response","trial_index":59,"plugin_version":"2.1.0","time_elapsed":241111,"subject_id":"90235","group":"Group1","full_date":"2025-11-09T20:36:02.042Z","date":"2025-11-09","time":"20:36:02"},{"rt":null,"stimulus":"<p style=\"font-size: 50px; margin: 0; text-align: center;\">+</p>","response":null,"trial_type":"html-keyboard-response","trial_index":60,"plugin_version":"2.1.0","time_elapsed":242113,"subject_id":"90235","group":"Group1","full_date":"2025-11-09T20:36:02.042Z","date":"2025-11-09","time":"20:36:02"},{"task":"memory_phase","broad_category":"S","image_png":"S_Rock Gypsum_04.png","image_id":420,"category_name":"Rock Gypsum","category":27,"distinct_rating":7.61,"distinct_type":"Top","rt":null,"stimulus":"Stimuli_Rocks480/S_Rock Gypsum_04.png","response":null,"trial_type":"image-keyboard-response","trial_index":61,"plugin_version":"2.1.0","time_elapsed":244617,"subject_id":"90235","group":"Group1","full_date":"2025-11-09T20:36:02.042Z","date":"2025-11-09","time":"20:36:02"},{"rt":null,"stimulus":"<p style=\"font-size: 50px; margin: 0; text-align: center;\">+</p>","response":null,"trial_type":"html-keyboard-response","trial_index":62,"plugin_version":"2.1.0","time_elapsed":245619,"subject_id":"90235","group":"Group1","full_date":"2025-11-09T20:36:02.042Z","date":"2025-11-09","time":"20:36:02"},{"task":"memory_phase","broad_category":"S","image_png":"S_Conglomerate_05.png","image_id":373,"category_name":"Conglomerate","category":24,"distinct_rating":7.32,"distinct_type":"Top","rt":null,"stimulus":"Stimuli_Rocks480/S_Conglomerate_05.png","response":null,"trial_type":"image-keyboard-response","trial_index":63,"plugin_version":"2.1.0","time_elapsed":248122,"subject_id":"90235","group":"Group1","full_date":"2025-11-09T20:36:02.042Z","date":"2025-11-09","time":"20:36:02"},{"rt":null,"stimulus":"<p style=\"font-size: 50px; margin: 0; text-align: center;\">+</p>","response":null,"trial_type":"html-keyboard-response","trial_index":64,"plugin_version":"2.1.0","time_elapsed":249124,"subject_id":"90235","group":"Group1","full_date":"2025-11-09T20:36:02.042Z","date":"2025-11-09","time":"20:36:02"},{"task":"memory_phase","broad_category":"I","image_png":"I_Gabbro_11.png","image_id":59,"category_name":"Gabbro","category":4,"distinct_rating":1.99,"distinct_type":"Bottom","rt":null,"stimulus":"Stimuli_Rocks480/I_Gabbro_11.png","response":null,"trial_type":"image-keyboard-response","trial_index":65,"plugin_version":"2.1.0","time_elapsed":251627,"subject_id":"90235","group":"Group1","full_date":"2025-11-09T20:36:02.042Z","date":"2025-11-09","time":"20:36:02"},{"rt":null,"stimulus":"<p style=\"font-size: 50px; margin: 0; text-align: center;\">+</p>","response":null,"trial_type":"html-keyboard-response","trial_index":66,"plugin_version":"2.1.0","time_elapsed":252630,"subject_id":"90235","group":"Group1","full_date":"2025-11-09T20:36:02.042Z","date":"2025-11-09","time":"20:36:02"},{"task":"memory_phase","broad_category":"I","image_png":"I_Diorite_05.png","image_id":37,"category_name":"Diorite","category":3,"distinct_rating":3.08,"distinct_type":"Bottom","rt":null,"stimulus":"Stimuli_Rocks480/I_Diorite_05.png","response":null,"trial_type":"image-keyboard-response","trial_index":67,"plugin_version":"2.1.0","time_elapsed":255133,"subject_id":"90235","group":"Group1","full_date":"2025-11-09T20:36:02.042Z","date":"2025-11-09","time":"20:36:02"},{"rt":null,"stimulus":"<p style=\"font-size: 50px; margin: 0; text-align: center;\">+</p>","response":null,"trial_type":"html-keyboard-response","trial_index":68,"plugin_version":"2.1.0","time_elapsed":256136,"subject_id":"90235","group":"Group1","full_date":"2025-11-09T20:36:02.042Z","date":"2025-11-09","time":"20:36:02"},{"task":"memory_phase","broad_category":"I","image_png":"I_Basalt_01.png","image_id":17,"category_name":"Basalt","category":2,"distinct_rating":1.92,"distinct_type":"Bottom","rt":null,"stimulus":"Stimuli_Rocks480/I_Basalt_01.png","response":null,"trial_type":"image-keyboard-response","trial_index":69,"plugin_version":"2.1.0","time_elapsed":258640,"subject_id":"90235","group":"Group1","full_date":"2025-11-09T20:36:02.042Z","date":"2025-11-09","time":"20:36:02"},{"rt":null,"stimulus":"<p style=\"font-size: 50px; margin: 0; text-align: center;\">+</p>","response":null,"trial_type":"html-keyboard-response","trial_index":70,"plugin_version":"2.1.0","time_elapsed":259642,"subject_id":"90235","group":"Group1","full_date":"2025-11-09T20:36:02.042Z","date":"2025-11-09","time":"20:36:02"},{"task":"memory_phase","broad_category":"S","image_png":"S_Sandstone_16.png","image_id":464,"category_name":"Sandstone","category":29,"distinct_rating":1.93,"distinct_type":"Bottom","rt":null,"stimulus":"Stimuli_Rocks480/S_Sandstone_16.png","response":null,"trial_type":"image-keyboard-response","trial_index":71,"plugin_version":"2.1.0","time_elapsed":262146,"subject_id":"90235","group":"Group1","full_date":"2025-11-09T20:36:02.042Z","date":"2025-11-09","time":"20:36:02"},{"rt":null,"stimulus":"<p style=\"font-size: 50px; margin: 0; text-align: center;\">+</p>","response":null,"trial_type":"html-keyboard-response","trial_index":72,"plugin_version":"2.1.0","time_elapsed":263148,"subject_id":"90235","group":"Group1","full_date":"2025-11-09T20:36:02.042Z","date":"2025-11-09","time":"20:36:02"},{"task":"memory_phase","broad_category":"S","image_png":"S_Breccia_11.png","image_id":347,"category_name":"Breccia","category":22,"distinct_rating":6.7,"distinct_type":"Top","rt":null,"stimulus":"Stimuli_Rocks480/S_Breccia_11.png","response":null,"trial_type":"image-keyboard-response","trial_index":73,"plugin_version":"2.1.0","time_elapsed":265652,"subject_id":"90235","group":"Group1","full_date":"2025-11-09T20:36:02.042Z","date":"2025-11-09","time":"20:36:02"},{"rt":null,"stimulus":"<p style=\"font-size: 50px; margin: 0; text-align: center;\">+</p>","response":null,"trial_type":"html-keyboard-response","trial_index":74,"plugin_version":"2.1.0","time_elapsed":266655,"subject_id":"90235","group":"Group1","full_date":"2025-11-09T20:36:02.042Z","date":"2025-11-09","time":"20:36:02"},{"task":"memory_phase","broad_category":"M","image_png":"M_Gneiss_06.png","image_id":198,"category_name":"Gneiss","category":13,"distinct_rating":2.65,"distinct_type":"Bottom","rt":null,"stimulus":"Stimuli_Rocks480/M_Gneiss_06.png","response":null,"trial_type":"image-keyboard-response","trial_index":75,"plugin_version":"2.1.0","time_elapsed":269159,"subject_id":"90235","group":"Group1","full_date":"2025-11-09T20:36:02.042Z","date":"2025-11-09","time":"20:36:02"},{"rt":null,"stimulus":"<p style=\"font-size: 50px; margin: 0; text-align: center;\">+</p>","response":null,"trial_type":"html-keyboard-response","trial_index":76,"plugin_version":"2.1.0","time_elapsed":270161,"subject_id":"90235","group":"Group1","full_date":"2025-11-09T20:36:02.042Z","date":"2025-11-09","time":"20:36:02"},{"task":"memory_phase","broad_category":"I","image_png":"I_Pumice_12.png","image_id":140,"category_name":"Pumice","category":9,"distinct_rating":2.97,"distinct_type":"Bottom","rt":null,"stimulus":"Stimuli_Rocks480/I_Pumice_12.png","response":null,"trial_type":"image-keyboard-response","trial_index":77,"plugin_version":"2.1.0","time_elapsed":272663,"subject_id":"90235","group":"Group1","full_date":"2025-11-09T20:36:02.042Z","date":"2025-11-09","time":"20:36:02"},{"rt":null,"stimulus":"<p style=\"font-size: 50px; margin: 0; text-align: center;\">+</p>","response":null,"trial_type":"html-keyboard-response","trial_index":78,"plugin_version":"2.1.0","time_elapsed":273666,"subject_id":"90235","group":"Group1","full_date":"2025-11-09T20:36:02.042Z","date":"2025-11-09","time":"20:36:02"},{"task":"memory_phase","broad_category":"I","image_png":"I_Andesite_08.png","image_id":8,"category_name":"Andesite","category":1,"distinct_rating":1.95,"distinct_type":"Bottom","rt":null,"stimulus":"Stimuli_Rocks480/I_Andesite_08.png","response":null,"trial_type":"image-keyboard-response","trial_index":79,"plugin_version":"2.1.0","time_elapsed":276169,"subject_id":"90235","group":"Group1","full_date":"2025-11-09T20:36:02.042Z","date":"2025-11-09","time":"20:36:02"},{"rt":null,"stimulus":"<p style=\"font-size: 50px; margin: 0; text-align: center;\">+</p>","response":null,"trial_type":"html-keyboard-response","trial_index":80,"plugin_version":"2.1.0","time_elapsed":277171,"subject_id":"90235","group":"Group1","full_date":"2025-11-09T20:36:02.042Z","date":"2025-11-09","time":"20:36:02"},{"task":"memory_phase","broad_category":"S","image_png":"S_Dolomite_14.png","image_id":398,"category_name":"Dolomite","category":25,"distinct_rating":1.43,"distinct_type":"Bottom","rt":null,"stimulus":"Stimuli_Rocks480/S_Dolomite_14.png","response":null,"trial_type":"image-keyboard-response","trial_index":81,"plugin_version":"2.1.0","time_elapsed":279675,"subject_id":"90235","group":"Group1","full_date":"2025-11-09T20:36:02.042Z","date":"2025-11-09","time":"20:36:02"},{"rt":null,"stimulus":"<p style=\"font-size: 50px; margin: 0; text-align: center;\">+</p>","response":null,"trial_type":"html-keyboard-response","trial_index":82,"plugin_version":"2.1.0","time_elapsed":280677,"subject_id":"90235","group":"Group1","full_date":"2025-11-09T20:36:02.042Z","date":"2025-11-09","time":"20:36:02"},{"task":"memory_phase","broad_category":"S","image_png":"S_Chert_10.png","image_id":362,"category_name":"Chert","category":23,"distinct_rating":7.17,"distinct_type":"Top","rt":null,"stimulus":"Stimuli_Rocks480/S_Chert_10.png","response":null,"trial_type":"image-keyboard-response","trial_index":83,"plugin_version":"2.1.0","time_elapsed":283180,"subject_id":"90235","group":"Group1","full_date":"2025-11-09T20:36:02.042Z","date":"2025-11-09","time":"20:36:02"},{"rt":null,"stimulus":"<p style=\"font-size: 50px; margin: 0; text-align: center;\">+</p>","response":null,"trial_type":"html-keyboard-response","trial_index":84,"plugin_version":"2.1.0","time_elapsed":284183,"subject_id":"90235","group":"Group1","full_date":"2025-11-09T20:36:02.042Z","date":"2025-11-09","time":"20:36:02"},{"task":"memory_phase","broad_category":"I","image_png":"I_Pegmatite_10.png","image_id":106,"category_name":"Pegmatite","category":7,"distinct_rating":7.66,"distinct_type":"Top","rt":null,"stimulus":"Stimuli_Rocks480/I_Pegmatite_10.png","response":null,"trial_type":"image-keyboard-response","trial_index":85,"plugin_version":"2.1.0","time_elapsed":286686,"subject_id":"90235","group":"Group1","full_date":"2025-11-09T20:36:02.042Z","date":"2025-11-09","time":"20:36:02"},{"rt":null,"stimulus":"<p style=\"font-size: 50px; margin: 0; text-align: center;\">+</p>","response":null,"trial_type":"html-keyboard-response","trial_index":86,"plugin_version":"2.1.0","time_elapsed":287688,"subject_id":"90235","group":"Group1","full_date":"2025-11-09T20:36:02.042Z","date":"2025-11-09","time":"20:36:02"},{"task":"memory_phase","broad_category":"I","image_png":"I_Andesite_10.png","image_id":10,"category_name":"Andesite","category":1,"distinct_rating":3.15,"distinct_type":"Bottom","rt":null,"stimulus":"Stimuli_Rocks480/I_Andesite_10.png","response":null,"trial_type":"image-keyboard-response","trial_index":87,"plugin_version":"2.1.0","time_elapsed":290191,"subject_id":"90235","group":"Group1","full_date":"2025-11-09T20:36:02.042Z","date":"2025-11-09","time":"20:36:02"},{"rt":null,"stimulus":"<p style=\"font-size: 50px; margin: 0; text-align: center;\">+</p>","response":null,"trial_type":"html-keyboard-response","trial_index":88,"plugin_version":"2.1.0","time_elapsed":291194,"subject_id":"90235","group":"Group1","full_date":"2025-11-09T20:36:02.042Z","date":"2025-11-09","time":"20:36:02"},{"task":"memory_phase","broad_category":"M","image_png":"M_Slate_11.png","image_id":315,"category_name":"Slate","category":20,"distinct_rating":2.75,"distinct_type":"Bottom","rt":null,"stimulus":"Stimuli_Rocks480/M_Slate_11.png","response":null,"trial_type":"image-keyboard-response","trial_index":89,"plugin_version":"2.1.0","time_elapsed":293697,"subject_id":"90235","group":"Group1","full_date":"2025-11-09T20:36:02.042Z","date":"2025-11-09","time":"20:36:02"},{"rt":null,"stimulus":"<p style=\"font-size: 50px; margin: 0; text-align: center;\">+</p>","response":null,"trial_type":"html-keyboard-response","trial_index":90,"plugin_version":"2.1.0","time_elapsed":294700,"subject_id":"90235","group":"Group1","full_date":"2025-11-09T20:36:02.042Z","date":"2025-11-09","time":"20:36:02"},{"task":"memory_phase","broad_category":"S","image_png":"S_Rock Salt_01.png","image_id":433,"category_name":"Rock Salt","category":28,"distinct_rating":7.18,"distinct_type":"Top","rt":null,"stimulus":"Stimuli_Rocks480/S_Rock Salt_01.png","response":null,"trial_type":"image-keyboard-response","trial_index":91,"plugin_version":"2.1.0","time_elapsed":297204,"subject_id":"90235","group":"Group1","full_date":"2025-11-09T20:36:02.042Z","date":"2025-11-09","time":"20:36:02"},{"rt":null,"stimulus":"<p style=\"font-size: 50px; margin: 0; text-align: center;\">+</p>","response":null,"trial_type":"html-keyboard-response","trial_index":92,"plugin_version":"2.1.0","time_elapsed":298206,"subject_id":"90235","group":"Group1","full_date":"2025-11-09T20:36:02.042Z","date":"2025-11-09","time":"20:36:02"},{"task":"memory_phase","broad_category":"M","image_png":"M_Phyllite_10.png","image_id":266,"category_name":"Phyllite","category":17,"distinct_rating":2.6,"distinct_type":"Bottom","rt":null,"stimulus":"Stimuli_Rocks480/M_Phyllite_10.png","response":null,"trial_type":"image-keyboard-response","trial_index":93,"plugin_version":"2.1.0","time_elapsed":300709,"subject_id":"90235","group":"Group1","full_date":"2025-11-09T20:36:02.042Z","date":"2025-11-09","time":"20:36:02"},{"rt":null,"stimulus":"<p style=\"font-size: 50px; margin: 0; text-align: center;\">+</p>","response":null,"trial_type":"html-keyboard-response","trial_index":94,"plugin_version":"2.1.0","time_elapsed":301712,"subject_id":"90235","group":"Group1","full_date":"2025-11-09T20:36:02.042Z","date":"2025-11-09","time":"20:36:02"},{"task":"memory_phase","broad_category":"S","image_png":"S_Dolomite_13.png","image_id":397,"category_name":"Dolomite","category":25,"distinct_rating":1.77,"distinct_type":"Bottom","rt":null,"stimulus":"Stimuli_Rocks480/S_Dolomite_13.png","response":null,"trial_type":"image-keyboard-response","trial_index":95,"plugin_version":"2.1.0","time_elapsed":304215,"subject_id":"90235","group":"Group1","full_date":"2025-11-09T20:36:02.042Z","date":"2025-11-09","time":"20:36:02"},{"rt":null,"stimulus":"<p style=\"font-size: 50px; margin: 0; text-align: center;\">+</p>","response":null,"trial_type":"html-keyboard-response","trial_index":96,"plugin_version":"2.1.0","time_elapsed":305218,"subject_id":"90235","group":"Group1","full_date":"2025-11-09T20:36:02.042Z","date":"2025-11-09","time":"20:36:02"},{"task":"memory_phase","broad_category":"I","image_png":"I_Basalt_09.png","image_id":25,"category_name":"Basalt","category":2,"distinct_rating":1.89,"distinct_type":"Bottom","rt":null,"stimulus":"Stimuli_Rocks480/I_Basalt_09.png","response":null,"trial_type":"image-keyboard-response","trial_index":97,"plugin_version":"2.1.0","time_elapsed":307721,"subject_id":"90235","group":"Group1","full_date":"2025-11-09T20:36:02.042Z","date":"2025-11-09","time":"20:36:02"},{"rt":null,"stimulus":"<p style=\"font-size: 50px; margin: 0; text-align: center;\">+</p>","response":null,"trial_type":"html-keyboard-response","trial_index":98,"plugin_version":"2.1.0","time_elapsed":308724,"subject_id":"90235","group":"Group1","full_date":"2025-11-09T20:36:02.042Z","date":"2025-11-09","time":"20:36:02"},{"task":"memory_phase","broad_category":"M","image_png":"M_Phyllite_07.png","image_id":263,"category_name":"Phyllite","category":17,"distinct_rating":2.59,"distinct_type":"Bottom","rt":null,"stimulus":"Stimuli_Rocks480/M_Phyllite_07.png","response":null,"trial_type":"image-keyboard-response","trial_index":99,"plugin_version":"2.1.0","time_elapsed":311227,"subject_id":"90235","group":"Group1","full_date":"2025-11-09T20:36:02.042Z","date":"2025-11-09","time":"20:36:02"},{"rt":null,"stimulus":"<p style=\"font-size: 50px; margin: 0; text-align: center;\">+</p>","response":null,"trial_type":"html-keyboard-response","trial_index":100,"plugin_version":"2.1.0","time_elapsed":312230,"subject_id":"90235","group":"Group1","full_date":"2025-11-09T20:36:02.042Z","date":"2025-11-09","time":"20:36:02"},{"task":"memory_phase","broad_category":"M","image_png":"M_Quartzite_08.png","image_id":280,"category_name":"Quartzite","category":18,"distinct_rating":2.15,"distinct_type":"Bottom","rt":null,"stimulus":"Stimuli_Rocks480/M_Quartzite_08.png","response":null,"trial_type":"image-keyboard-response","trial_index":101,"plugin_version":"2.1.0","time_elapsed":314733,"subject_id":"90235","group":"Group1","full_date":"2025-11-09T20:36:02.042Z","date":"2025-11-09","time":"20:36:02"},{"rt":null,"stimulus":"<p style=\"font-size: 50px; margin: 0; text-align: center;\">+</p>","response":null,"trial_type":"html-keyboard-response","trial_index":102,"plugin_version":"2.1.0","time_elapsed":315736,"subject_id":"90235","group":"Group1","full_date":"2025-11-09T20:36:02.042Z","date":"2025-11-09","time":"20:36:02"},{"task":"memory_phase","broad_category":"I","image_png":"I_Obsidian_05.png","image_id":85,"category_name":"Obsidian","category":6,"distinct_rating":7.32,"distinct_type":"Top","rt":null,"stimulus":"Stimuli_Rocks480/I_Obsidian_05.png","response":null,"trial_type":"image-keyboard-response","trial_index":103,"plugin_version":"2.1.0","time_elapsed":318239,"subject_id":"90235","group":"Group1","full_date":"2025-11-09T20:36:02.042Z","date":"2025-11-09","time":"20:36:02"},{"rt":null,"stimulus":"<p style=\"font-size: 50px; margin: 0; text-align: center;\">+</p>","response":null,"trial_type":"html-keyboard-response","trial_index":104,"plugin_version":"2.1.0","time_elapsed":319242,"subject_id":"90235","group":"Group1","full_date":"2025-11-09T20:36:02.042Z","date":"2025-11-09","time":"20:36:02"},{"task":"memory_phase","broad_category":"M","image_png":"M_Quartzite_13.png","image_id":285,"category_name":"Quartzite","category":18,"distinct_rating":2.27,"distinct_type":"Bottom","rt":null,"stimulus":"Stimuli_Rocks480/M_Quartzite_13.png","response":null,"trial_type":"image-keyboard-response","trial_index":105,"plugin_version":"2.1.0","time_elapsed":321745,"subject_id":"90235","group":"Group1","full_date":"2025-11-09T20:36:02.042Z","date":"2025-11-09","time":"20:36:02"},{"rt":8233,"stimulus":"<div style=\"max-width: 760px; margin: auto; font-size: 20px; line-height: 1.5;\">\n      <h1 style=\"text-align:center; font-size: 30px;\">Instructions for the Test Phase</h1>\n      <p>\n        The study phase is now complete.\n      </p>\n      <p>\n        In the test phase, you will again see a series of rock images. \n        Some will be ones you saw before - during the study phase, while others will be new.  \n        <b>Your task</b> is to decide whether you have seen each image before by pressing the corresponding key on your keyboard:<br><br>\n          <b>A</b> - NO (you did not see this image before)<br>\n          <b>L</b> - YES (you saw this image before)<br><br>\n        The test will proceed at your own pace. You will receive feedback after each response.  \n        Please try to respond <b>as accurately as possible</b>.\n      </p>\n      <p>\n        <b>Reminder:</b> If your computer has multiple language settings (e.g., English and another language),\n        please ensure it is set to English during the test phase.\n      </p>\n      <p>\n        You can track your progress using the <b>completion bar</b> at the top of the screen.  \n        Note that it has been refreshed to reflect your progress during this final phase.\n      </p>\n      <p>\n        Press the button below when you are ready to continue.\n      </p>\n    </div>","response":0,"trial_type":"html-button-response","trial_index":106,"plugin_version":"2.1.0","time_elapsed":329979,"subject_id":"90235","group":"Group1","full_date":"2025-11-09T20:36:02.042Z","date":"2025-11-09","time":"20:36:02"},{"correct_response":"l","task":"test_phase","broad_category":"M","image_png":"M_Gneiss_05.png","image_id":197,"category_name":"Gneiss","category":13,"distinct_rating":2.97,"distinct_type":"Bottom","item_type":"Target","rt":3463,"stimulus":"Stimuli_Rocks480/M_Gneiss_05.png","response":"l","trial_type":"image-keyboard-response","trial_index":107,"plugin_version":"2.1.0","time_elapsed":333446,"subject_id":"90235","group":"Group1","full_date":"2025-11-09T20:36:02.042Z","date":"2025-11-09","time":"20:36:02","cor_ans":true},{"trial_type":"html-keyboard-response","rt":null,"stimulus":"<p style=\"color: green; font-size: 50px; font-weight: bold;\">Correct</p>","response":null,"trial_index":108,"plugin_version":"2.1.0","time_elapsed":333948,"subject_id":"90235","group":"Group1","full_date":"2025-11-09T20:36:02.042Z","date":"2025-11-09","time":"20:36:02"},{"correct_response":"l","task":"test_phase","broad_category":"M","image_png":"M_Quartzite_05.png","image_id":277,"category_name":"Quartzite","category":18,"distinct_rating":2.23,"distinct_type":"Bottom","item_type":"Target","rt":1284,"stimulus":"Stimuli_Rocks480/M_Quartzite_05.png","response":"l","trial_type":"image-keyboard-response","trial_index":109,"plugin_version":"2.1.0","time_elapsed":335234,"subject_id":"90235","group":"Group1","full_date":"2025-11-09T20:36:02.042Z","date":"2025-11-09","time":"20:36:02","cor_ans":true},{"trial_type":"html-keyboard-response","rt":null,"stimulus":"<p style=\"color: green; font-size: 50px; font-weight: bold;\">Correct</p>","response":null,"trial_index":110,"plugin_version":"2.1.0","time_elapsed":335736,"subject_id":"90235","group":"Group1","full_date":"2025-11-09T20:36:02.042Z","date":"2025-11-09","time":"20:36:02"},{"correct_response":"l","task":"test_phase","broad_category":"M","image_png":"M_Marble_06.png","image_id":230,"category_name":"Marble","category":15,"distinct_rating":3.4,"distinct_type":"Bottom","item_type":"Target","rt":679,"stimulus":"Stimuli_Rocks480/M_Marble_06.png","response":"l","trial_type":"image-keyboard-response","trial_index":111,"plugin_version":"2.1.0","time_elapsed":336416,"subject_id":"90235","group":"Group1","full_date":"2025-11-09T20:36:02.042Z","date":"2025-11-09","time":"20:36:02","cor_ans":true},{"trial_type":"html-keyboard-response","rt":null,"stimulus":"<p style=\"color: green; font-size: 50px; font-weight: bold;\">Correct</p>","response":null,"trial_index":112,"plugin_version":"2.1.0","time_elapsed":336918,"subject_id":"90235","group":"Group1","full_date":"2025-11-09T20:36:02.042Z","date":"2025-11-09","time":"20:36:02"},{"correct_response":"a","task":"test_phase","broad_category":"I","image_png":"I_Pumice_01.png","image_id":129,"category_name":"Pumice","category":9,"distinct_rating":3.25,"distinct_type":"Bottom","item_type":"Foil","rt":1339,"stimulus":"Stimuli_Rocks480/I_Pumice_01.png","response":"a","trial_type":"image-keyboard-response","trial_index":113,"plugin_version":"2.1.0","time_elapsed":338259,"subject_id":"90235","group":"Group1","full_date":"2025-11-09T20:36:02.042Z","date":"2025-11-09","time":"20:36:02","cor_ans":true},{"trial_type":"html-keyboard-response","rt":null,"stimulus":"<p style=\"color: green; font-size: 50px; font-weight: bold;\">Correct</p>","response":null,"trial_index":114,"plugin_version":"2.1.0","time_elapsed":338760,"subject_id":"90235","group":"Group1","full_date":"2025-11-09T20:36:02.042Z","date":"2025-11-09","time":"20:36:02"},{"correct_response":"l","task":"test_phase","broad_category":"S","image_png":"S_Sandstone_15.png","image_id":463,"category_name":"Sandstone","category":29,"distinct_rating":2,"distinct_type":"Bottom","item_type":"Target","rt":842,"stimulus":"Stimuli_Rocks480/S_Sandstone_15.png","response":"a","trial_type":"image-keyboard-response","trial_index":115,"plugin_version":"2.1.0","time_elapsed":339605,"subject_id":"90235","group":"Group1","full_date":"2025-11-09T20:36:02.042Z","date":"2025-11-09","time":"20:36:02","cor_ans":false},{"trial_type":"html-keyboard-response","rt":null,"stimulus":"<p style=\"color: red; font-size: 50px; font-weight: bold;\">Incorrect</p>","response":null,"trial_index":116,"plugin_version":"2.1.0","time_elapsed":340106,"subject_id":"90235","group":"Group1","full_date":"2025-11-09T20:36:02.042Z","date":"2025-11-09","time":"20:36:02"},{"correct_response":"a","task":"test_phase","broad_category":"M","image_png":"M_Gneiss_14.png","image_id":206,"category_name":"Gneiss","category":13,"distinct_rating":3.41,"distinct_type":"Bottom","item_type":"Foil","rt":602,"stimulus":"Stimuli_Rocks480/M_Gneiss_14.png","response":"l","trial_type":"image-keyboard-response","trial_index":117,"plugin_version":"2.1.0","time_elapsed":340710,"subject_id":"90235","group":"Group1","full_date":"2025-11-09T20:36:02.042Z","date":"2025-11-09","time":"20:36:02","cor_ans":false},{"trial_type":"html-keyboard-response","rt":null,"stimulus":"<p style=\"color: red; font-size: 50px; font-weight: bold;\">Incorrect</p>","response":null,"trial_index":118,"plugin_version":"2.1.0","time_elapsed":341212,"subject_id":"90235","group":"Group1","full_date":"2025-11-09T20:36:02.042Z","date":"2025-11-09","time":"20:36:02"},{"correct_response":"a","task":"test_phase","broad_category":"I","image_png":"I_Basalt_08.png","image_id":24,"category_name":"Basalt","category":2,"distinct_rating":2.31,"distinct_type":"Bottom","item_type":"Foil","rt":791,"stimulus":"Stimuli_Rocks480/I_Basalt_08.png","response":"a","trial_type":"image-keyboard-response","trial_index":119,"plugin_version":"2.1.0","time_elapsed":342005,"subject_id":"90235","group":"Group1","full_date":"2025-11-09T20:36:02.042Z","date":"2025-11-09","time":"20:36:02","cor_ans":true},{"trial_type":"html-keyboard-response","rt":null,"stimulus":"<p style=\"color: green; font-size: 50px; font-weight: bold;\">Correct</p>","response":null,"trial_index":120,"plugin_version":"2.1.0","time_elapsed":342506,"subject_id":"90235","group":"Group1","full_date":"2025-11-09T20:36:02.042Z","date":"2025-11-09","time":"20:36:02"},{"correct_response":"a","task":"test_phase","broad_category":"S","image_png":"S_Rock Salt_15.png","image_id":447,"category_name":"Rock Salt","category":28,"distinct_rating":7.79,"distinct_type":"Top","item_type":"Foil","rt":845,"stimulus":"Stimuli_Rocks480/S_Rock Salt_15.png","response":"a","trial_type":"image-keyboard-response","trial_index":121,"plugin_version":"2.1.0","time_elapsed":343353,"subject_id":"90235","group":"Group1","full_date":"2025-11-09T20:36:02.042Z","date":"2025-11-09","time":"20:36:02","cor_ans":true},{"trial_type":"html-keyboard-response","rt":null,"stimulus":"<p style=\"color: green; font-size: 50px; font-weight: bold;\">Correct</p>","response":null,"trial_index":122,"plugin_version":"2.1.0","time_elapsed":343855,"subject_id":"90235","group":"Group1","full_date":"2025-11-09T20:36:02.042Z","date":"2025-11-09","time":"20:36:02"},{"correct_response":"l","task":"test_phase","broad_category":"S","image_png":"S_Dolomite_13.png","image_id":397,"category_name":"Dolomite","category":25,"distinct_rating":1.77,"distinct_type":"Bottom","item_type":"Target","rt":909,"stimulus":"Stimuli_Rocks480/S_Dolomite_13.png","response":"l","trial_type":"image-keyboard-response","trial_index":123,"plugin_version":"2.1.0","time_elapsed":344766,"subject_id":"90235","group":"Group1","full_date":"2025-11-09T20:36:02.042Z","date":"2025-11-09","time":"20:36:02","cor_ans":true},{"trial_type":"html-keyboard-response","rt":null,"stimulus":"<p style=\"color: green; font-size: 50px; font-weight: bold;\">Correct</p>","response":null,"trial_index":124,"plugin_version":"2.1.0","time_elapsed":345269,"subject_id":"90235","group":"Group1","full_date":"2025-11-09T20:36:02.042Z","date":"2025-11-09","time":"20:36:02"},{"correct_response":"a","task":"test_phase","broad_category":"I","image_png":"I_Rhyolite_05.png","image_id":149,"category_name":"Rhyolite","category":10,"distinct_rating":3.02,"distinct_type":"Bottom","item_type":"Foil","rt":935,"stimulus":"Stimuli_Rocks480/I_Rhyolite_05.png","response":"l","trial_type":"image-keyboard-response","trial_index":125,"plugin_version":"2.1.0","time_elapsed":346205,"subject_id":"90235","group":"Group1","full_date":"2025-11-09T20:36:02.042Z","date":"2025-11-09","time":"20:36:02","cor_ans":false},{"trial_type":"html-keyboard-response","rt":null,"stimulus":"<p style=\"color: red; font-size: 50px; font-weight: bold;\">Incorrect</p>","response":null,"trial_index":126,"plugin_version":"2.1.0","time_elapsed":346707,"subject_id":"90235","group":"Group1","full_date":"2025-11-09T20:36:02.042Z","date":"2025-11-09","time":"20:36:02"},{"correct_response":"a","task":"test_phase","broad_category":"S","image_png":"S_Chert_13.png","image_id":365,"category_name":"Chert","category":23,"distinct_rating":6.57,"distinct_type":"Top","item_type":"Foil","rt":574,"stimulus":"Stimuli_Rocks480/S_Chert_13.png","response":"a","trial_type":"image-keyboard-response","trial_index":127,"plugin_version":"2.1.0","time_elapsed":347283,"subject_id":"90235","group":"Group1","full_date":"2025-11-09T20:36:02.042Z","date":"2025-11-09","time":"20:36:02","cor_ans":true},{"trial_type":"html-keyboard-response","rt":null,"stimulus":"<p style=\"color: green; font-size: 50px; font-weight: bold;\">Correct</p>","response":null,"trial_index":128,"plugin_version":"2.1.0","time_elapsed":347784,"subject_id":"90235","group":"Group1","full_date":"2025-11-09T20:36:02.042Z","date":"2025-11-09","time":"20:36:02"},{"correct_response":"l","task":"test_phase","broad_category":"I","image_png":"I_Andesite_10.png","image_id":10,"category_name":"Andesite","category":1,"distinct_rating":3.15,"distinct_type":"Bottom","item_type":"Target","rt":1006,"stimulus":"Stimuli_Rocks480/I_Andesite_10.png","response":"l","trial_type":"image-keyboard-response","trial_index":129,"plugin_version":"2.1.0","time_elapsed":348791,"subject_id":"90235","group":"Group1","full_date":"2025-11-09T20:36:02.042Z","date":"2025-11-09","time":"20:36:02","cor_ans":true},{"trial_type":"html-keyboard-response","rt":null,"stimulus":"<p style=\"color: green; font-size: 50px; font-weight: bold;\">Correct</p>","response":null,"trial_index":130,"plugin_version":"2.1.0","time_elapsed":349292,"subject_id":"90235","group":"Group1","full_date":"2025-11-09T20:36:02.042Z","date":"2025-11-09","time":"20:36:02"},{"correct_response":"a","task":"test_phase","broad_category":"I","image_png":"I_Pegmatite_11.png","image_id":107,"category_name":"Pegmatite","category":7,"distinct_rating":7.11,"distinct_type":"Top","item_type":"Foil","rt":627,"stimulus":"Stimuli_Rocks480/I_Pegmatite_11.png","response":"a","trial_type":"image-keyboard-response","trial_index":131,"plugin_version":"2.1.0","time_elapsed":349921,"subject_id":"90235","group":"Group1","full_date":"2025-11-09T20:36:02.042Z","date":"2025-11-09","time":"20:36:02","cor_ans":true},{"trial_type":"html-keyboard-response","rt":null,"stimulus":"<p style=\"color: green; font-size: 50px; font-weight: bold;\">Correct</p>","response":null,"trial_index":132,"plugin_version":"2.1.0","time_elapsed":350423,"subject_id":"90235","group":"Group1","full_date":"2025-11-09T20:36:02.042Z","date":"2025-11-09","time":"20:36:02"},{"correct_response":"a","task":"test_phase","broad_category":"S","image_png":"S_Conglomerate_14.png","image_id":382,"category_name":"Conglomerate","category":24,"distinct_rating":6.86,"distinct_type":"Top","item_type":"Foil","rt":523,"stimulus":"Stimuli_Rocks480/S_Conglomerate_14.png","response":"a","trial_type":"image-keyboard-response","trial_index":133,"plugin_version":"2.1.0","time_elapsed":350948,"subject_id":"90235","group":"Group1","full_date":"2025-11-09T20:36:02.042Z","date":"2025-11-09","time":"20:36:02","cor_ans":true},{"trial_type":"html-keyboard-response","rt":null,"stimulus":"<p style=\"color: green; font-size: 50px; font-weight: bold;\">Correct</p>","response":null,"trial_index":134,"plugin_version":"2.1.0","time_elapsed":351449,"subject_id":"90235","group":"Group1","full_date":"2025-11-09T20:36:02.042Z","date":"2025-11-09","time":"20:36:02"},{"correct_response":"a","task":"test_phase","broad_category":"I","image_png":"I_Pumice_13.png","image_id":141,"category_name":"Pumice","category":9,"distinct_rating":3.12,"distinct_type":"Bottom","item_type":"Foil","rt":637,"stimulus":"Stimuli_Rocks480/I_Pumice_13.png","response":"l","trial_type":"image-keyboard-response","trial_index":135,"plugin_version":"2.1.0","time_elapsed":352088,"subject_id":"90235","group":"Group1","full_date":"2025-11-09T20:36:02.042Z","date":"2025-11-09","time":"20:36:02","cor_ans":false},{"trial_type":"html-keyboard-response","rt":null,"stimulus":"<p style=\"color: red; font-size: 50px; font-weight: bold;\">Incorrect</p>","response":null,"trial_index":136,"plugin_version":"2.1.0","time_elapsed":352588,"subject_id":"90235","group":"Group1","full_date":"2025-11-09T20:36:02.042Z","date":"2025-11-09","time":"20:36:02"},{"correct_response":"l","task":"test_phase","broad_category":"M","image_png":"M_Quartzite_13.png","image_id":285,"category_name":"Quartzite","category":18,"distinct_rating":2.27,"distinct_type":"Bottom","item_type":"Target","rt":666,"stimulus":"Stimuli_Rocks480/M_Quartzite_13.png","response":"l","trial_type":"image-keyboard-response","trial_index":137,"plugin_version":"2.1.0","time_elapsed":353257,"subject_id":"90235","group":"Group1","full_date":"2025-11-09T20:36:02.042Z","date":"2025-11-09","time":"20:36:02","cor_ans":true},{"trial_type":"html-keyboard-response","rt":null,"stimulus":"<p style=\"color: green; font-size: 50px; font-weight: bold;\">Correct</p>","response":null,"trial_index":138,"plugin_version":"2.1.0","time_elapsed":353758,"subject_id":"90235","group":"Group1","full_date":"2025-11-09T20:36:02.042Z","date":"2025-11-09","time":"20:36:02"},{"correct_response":"l","task":"test_phase","broad_category":"S","image_png":"S_Dolomite_12.png","image_id":396,"category_name":"Dolomite","category":25,"distinct_rating":1.85,"distinct_type":"Bottom","item_type":"Target","rt":553,"stimulus":"Stimuli_Rocks480/S_Dolomite_12.png","response":"l","trial_type":"image-keyboard-response","trial_index":139,"plugin_version":"2.1.0","time_elapsed":354313,"subject_id":"90235","group":"Group1","full_date":"2025-11-09T20:36:02.042Z","date":"2025-11-09","time":"20:36:02","cor_ans":true},{"trial_type":"html-keyboard-response","rt":null,"stimulus":"<p style=\"color: green; font-size: 50px; font-weight: bold;\">Correct</p>","response":null,"trial_index":140,"plugin_version":"2.1.0","time_elapsed":354815,"subject_id":"90235","group":"Group1","full_date":"2025-11-09T20:36:02.042Z","date":"2025-11-09","time":"20:36:02"},{"correct_response":"l","task":"test_phase","broad_category":"S","image_png":"S_Sandstone_16.png","image_id":464,"category_name":"Sandstone","category":29,"distinct_rating":1.93,"distinct_type":"Bottom","item_type":"Target","rt":573,"stimulus":"Stimuli_Rocks480/S_Sandstone_16.png","response":"a","trial_type":"image-keyboard-response","trial_index":141,"plugin_version":"2.1.0","time_elapsed":355390,"subject_id":"90235","group":"Group1","full_date":"2025-11-09T20:36:02.042Z","date":"2025-11-09","time":"20:36:02","cor_ans":false},{"trial_type":"html-keyboard-response","rt":null,"stimulus":"<p style=\"color: red; font-size: 50px; font-weight: bold;\">Incorrect</p>","response":null,"trial_index":142,"plugin_version":"2.1.0","time_elapsed":355891,"subject_id":"90235","group":"Group1","full_date":"2025-11-09T20:36:02.042Z","date":"2025-11-09","time":"20:36:02"},{"correct_response":"l","task":"test_phase","broad_category":"I","image_png":"I_Basalt_09.png","image_id":25,"category_name":"Basalt","category":2,"distinct_rating":1.89,"distinct_type":"Bottom","item_type":"Target","rt":572,"stimulus":"Stimuli_Rocks480/I_Basalt_09.png","response":"l","trial_type":"image-keyboard-response","trial_index":143,"plugin_version":"2.1.0","time_elapsed":356465,"subject_id":"90235","group":"Group1","full_date":"2025-11-09T20:36:02.042Z","date":"2025-11-09","time":"20:36:02","cor_ans":true},{"trial_type":"html-keyboard-response","rt":null,"stimulus":"<p style=\"color: green; font-size: 50px; font-weight: bold;\">Correct</p>","response":null,"trial_index":144,"plugin_version":"2.1.0","time_elapsed":356967,"subject_id":"90235","group":"Group1","full_date":"2025-11-09T20:36:02.042Z","date":"2025-11-09","time":"20:36:02"},{"correct_response":"a","task":"test_phase","broad_category":"I","image_png":"I_Gabbro_12.png","image_id":60,"category_name":"Gabbro","category":4,"distinct_rating":2.6,"distinct_type":"Bottom","item_type":"Foil","rt":673,"stimulus":"Stimuli_Rocks480/I_Gabbro_12.png","response":"l","trial_type":"image-keyboard-response","trial_index":145,"plugin_version":"2.1.0","time_elapsed":357641,"subject_id":"90235","group":"Group1","full_date":"2025-11-09T20:36:02.042Z","date":"2025-11-09","time":"20:36:02","cor_ans":false},{"trial_type":"html-keyboard-response","rt":null,"stimulus":"<p style=\"color: red; font-size: 50px; font-weight: bold;\">Incorrect</p>","response":null,"trial_index":146,"plugin_version":"2.1.0","time_elapsed":358143,"subject_id":"90235","group":"Group1","full_date":"2025-11-09T20:36:02.042Z","date":"2025-11-09","time":"20:36:02"},{"correct_response":"a","task":"test_phase","broad_category":"M","image_png":"M_Quartzite_07.png","image_id":279,"category_name":"Quartzite","category":18,"distinct_rating":1.97,"distinct_type":"Bottom","item_type":"Foil","rt":665,"stimulus":"Stimuli_Rocks480/M_Quartzite_07.png","response":"a","trial_type":"image-keyboard-response","trial_index":147,"plugin_version":"2.1.0","time_elapsed":358810,"subject_id":"90235","group":"Group1","full_date":"2025-11-09T20:36:02.042Z","date":"2025-11-09","time":"20:36:02","cor_ans":true},{"trial_type":"html-keyboard-response","rt":null,"stimulus":"<p style=\"color: green; font-size: 50px; font-weight: bold;\">Correct</p>","response":null,"trial_index":148,"plugin_version":"2.1.0","time_elapsed":359311,"subject_id":"90235","group":"Group1","full_date":"2025-11-09T20:36:02.042Z","date":"2025-11-09","time":"20:36:02"},{"correct_response":"l","task":"test_phase","broad_category":"I","image_png":"I_Pumice_08.png","image_id":136,"category_name":"Pumice","category":9,"distinct_rating":3.1,"distinct_type":"Bottom","item_type":"Target","rt":598,"stimulus":"Stimuli_Rocks480/I_Pumice_08.png","response":"l","trial_type":"image-keyboard-response","trial_index":149,"plugin_version":"2.1.0","time_elapsed":359911,"subject_id":"90235","group":"Group1","full_date":"2025-11-09T20:36:02.042Z","date":"2025-11-09","time":"20:36:02","cor_ans":true},{"trial_type":"html-keyboard-response","rt":null,"stimulus":"<p style=\"color: green; font-size: 50px; font-weight: bold;\">Correct</p>","response":null,"trial_index":150,"plugin_version":"2.1.0","time_elapsed":360412,"subject_id":"90235","group":"Group1","full_date":"2025-11-09T20:36:02.042Z","date":"2025-11-09","time":"20:36:02"},{"correct_response":"l","task":"test_phase","broad_category":"S","image_png":"S_Sandstone_03.png","image_id":451,"category_name":"Sandstone","category":29,"distinct_rating":1.86,"distinct_type":"Bottom","item_type":"Target","rt":1642,"stimulus":"Stimuli_Rocks480/S_Sandstone_03.png","response":"l","trial_type":"image-keyboard-response","trial_index":151,"plugin_version":"2.1.0","time_elapsed":362055,"subject_id":"90235","group":"Group1","full_date":"2025-11-09T20:36:02.042Z","date":"2025-11-09","time":"20:36:02","cor_ans":true},{"trial_type":"html-keyboard-response","rt":null,"stimulus":"<p style=\"color: green; font-size: 50px; font-weight: bold;\">Correct</p>","response":null,"trial_index":152,"plugin_version":"2.1.0","time_elapsed":362557,"subject_id":"90235","group":"Group1","full_date":"2025-11-09T20:36:02.042Z","date":"2025-11-09","time":"20:36:02"},{"correct_response":"a","task":"test_phase","broad_category":"S","image_png":"S_Sandstone_04.png","image_id":452,"category_name":"Sandstone","category":29,"distinct_rating":1.8,"distinct_type":"Bottom","item_type":"Foil","rt":582,"stimulus":"Stimuli_Rocks480/S_Sandstone_04.png","response":"l","trial_type":"image-keyboard-response","trial_index":153,"plugin_version":"2.1.0","time_elapsed":363141,"subject_id":"90235","group":"Group1","full_date":"2025-11-09T20:36:02.042Z","date":"2025-11-09","time":"20:36:02","cor_ans":false},{"trial_type":"html-keyboard-response","rt":null,"stimulus":"<p style=\"color: red; font-size: 50px; font-weight: bold;\">Incorrect</p>","response":null,"trial_index":154,"plugin_version":"2.1.0","time_elapsed":363643,"subject_id":"90235","group":"Group1","full_date":"2025-11-09T20:36:02.042Z","date":"2025-11-09","time":"20:36:02"},{"correct_response":"a","task":"test_phase","broad_category":"M","image_png":"M_Slate_14.png","image_id":318,"category_name":"Slate","category":20,"distinct_rating":2.58,"distinct_type":"Bottom","item_type":"Foil","rt":1101,"stimulus":"Stimuli_Rocks480/M_Slate_14.png","response":"a","trial_type":"image-keyboard-response","trial_index":155,"plugin_version":"2.1.0","time_elapsed":364747,"subject_id":"90235","group":"Group1","full_date":"2025-11-09T20:36:02.042Z","date":"2025-11-09","time":"20:36:02","cor_ans":true},{"trial_type":"html-keyboard-response","rt":null,"stimulus":"<p style=\"color: green; font-size: 50px; font-weight: bold;\">Correct</p>","response":null,"trial_index":156,"plugin_version":"2.1.0","time_elapsed":365248,"subject_id":"90235","group":"Group1","full_date":"2025-11-09T20:36:02.042Z","date":"2025-11-09","time":"20:36:02"},{"correct_response":"a","task":"test_phase","broad_category":"I","image_png":"I_Pumice_14.png","image_id":142,"category_name":"Pumice","category":9,"distinct_rating":3.22,"distinct_type":"Bottom","item_type":"Foil","rt":622,"stimulus":"Stimuli_Rocks480/I_Pumice_14.png","response":"a","trial_type":"image-keyboard-response","trial_index":157,"plugin_version":"2.1.0","time_elapsed":365872,"subject_id":"90235","group":"Group1","full_date":"2025-11-09T20:36:02.042Z","date":"2025-11-09","time":"20:36:02","cor_ans":true},{"trial_type":"html-keyboard-response","rt":null,"stimulus":"<p style=\"color: green; font-size: 50px; font-weight: bold;\">Correct</p>","response":null,"trial_index":158,"plugin_version":"2.1.0","time_elapsed":366373,"subject_id":"90235","group":"Group1","full_date":"2025-11-09T20:36:02.042Z","date":"2025-11-09","time":"20:36:02"},{"correct_response":"l","task":"test_phase","broad_category":"I","image_png":"I_Gabbro_08.png","image_id":56,"category_name":"Gabbro","category":4,"distinct_rating":3.02,"distinct_type":"Bottom","item_type":"Target","rt":790,"stimulus":"Stimuli_Rocks480/I_Gabbro_08.png","response":"l","trial_type":"image-keyboard-response","trial_index":159,"plugin_version":"2.1.0","time_elapsed":367165,"subject_id":"90235","group":"Group1","full_date":"2025-11-09T20:36:02.042Z","date":"2025-11-09","time":"20:36:02","cor_ans":true},{"trial_type":"html-keyboard-response","rt":null,"stimulus":"<p style=\"color: green; font-size: 50px; font-weight: bold;\">Correct</p>","response":null,"trial_index":160,"plugin_version":"2.1.0","time_elapsed":367667,"subject_id":"90235","group":"Group1","full_date":"2025-11-09T20:36:02.042Z","date":"2025-11-09","time":"20:36:02"},{"correct_response":"a","task":"test_phase","broad_category":"M","image_png":"M_Marble_03.png","image_id":227,"category_name":"Marble","category":15,"distinct_rating":2.67,"distinct_type":"Bottom","item_type":"Foil","rt":876,"stimulus":"Stimuli_Rocks480/M_Marble_03.png","response":"a","trial_type":"image-keyboard-response","trial_index":161,"plugin_version":"2.1.0","time_elapsed":368546,"subject_id":"90235","group":"Group1","full_date":"2025-11-09T20:36:02.042Z","date":"2025-11-09","time":"20:36:02","cor_ans":true},{"trial_type":"html-keyboard-response","rt":null,"stimulus":"<p style=\"color: green; font-size: 50px; font-weight: bold;\">Correct</p>","response":null,"trial_index":162,"plugin_version":"2.1.0","time_elapsed":369047,"subject_id":"90235","group":"Group1","full_date":"2025-11-09T20:36:02.042Z","date":"2025-11-09","time":"20:36:02"},{"correct_response":"a","task":"test_phase","broad_category":"I","image_png":"I_Basalt_10.png","image_id":26,"category_name":"Basalt","category":2,"distinct_rating":2.76,"distinct_type":"Bottom","item_type":"Foil","rt":912,"stimulus":"Stimuli_Rocks480/I_Basalt_10.png","response":"a","trial_type":"image-keyboard-response","trial_index":163,"plugin_version":"2.1.0","time_elapsed":369961,"subject_id":"90235","group":"Group1","full_date":"2025-11-09T20:36:02.042Z","date":"2025-11-09","time":"20:36:02","cor_ans":true},{"trial_type":"html-keyboard-response","rt":null,"stimulus":"<p style=\"color: green; font-size: 50px; font-weight: bold;\">Correct</p>","response":null,"trial_index":164,"plugin_version":"2.1.0","time_elapsed":370463,"subject_id":"90235","group":"Group1","full_date":"2025-11-09T20:36:02.042Z","date":"2025-11-09","time":"20:36:02"},{"correct_response":"a","task":"test_phase","broad_category":"I","image_png":"I_Andesite_04.png","image_id":4,"category_name":"Andesite","category":1,"distinct_rating":3.18,"distinct_type":"Bottom","item_type":"Foil","rt":981,"stimulus":"Stimuli_Rocks480/I_Andesite_04.png","response":"l","trial_type":"image-keyboard-response","trial_index":165,"plugin_version":"2.1.0","time_elapsed":371446,"subject_id":"90235","group":"Group1","full_date":"2025-11-09T20:36:02.042Z","date":"2025-11-09","time":"20:36:02","cor_ans":false},{"trial_type":"html-keyboard-response","rt":null,"stimulus":"<p style=\"color: red; font-size: 50px; font-weight: bold;\">Incorrect</p>","response":null,"trial_index":166,"plugin_version":"2.1.0","time_elapsed":371947,"subject_id":"90235","group":"Group1","full_date":"2025-11-09T20:36:02.042Z","date":"2025-11-09","time":"20:36:02"},{"correct_response":"l","task":"test_phase","broad_category":"I","image_png":"I_Obsidian_05.png","image_id":85,"category_name":"Obsidian","category":6,"distinct_rating":7.32,"distinct_type":"Top","item_type":"Target","rt":557,"stimulus":"Stimuli_Rocks480/I_Obsidian_05.png","response":"a","trial_type":"image-keyboard-response","trial_index":167,"plugin_version":"2.1.0","time_elapsed":372506,"subject_id":"90235","group":"Group1","full_date":"2025-11-09T20:36:02.042Z","date":"2025-11-09","time":"20:36:02","cor_ans":false},{"trial_type":"html-keyboard-response","rt":null,"stimulus":"<p style=\"color: red; font-size: 50px; font-weight: bold;\">Incorrect</p>","response":null,"trial_index":168,"plugin_version":"2.1.0","time_elapsed":373008,"subject_id":"90235","group":"Group1","full_date":"2025-11-09T20:36:02.042Z","date":"2025-11-09","time":"20:36:02"},{"correct_response":"a","task":"test_phase","broad_category":"I","image_png":"I_Gabbro_02.png","image_id":50,"category_name":"Gabbro","category":4,"distinct_rating":2.73,"distinct_type":"Bottom","item_type":"Foil","rt":418,"stimulus":"Stimuli_Rocks480/I_Gabbro_02.png","response":"a","trial_type":"image-keyboard-response","trial_index":169,"plugin_version":"2.1.0","time_elapsed":373428,"subject_id":"90235","group":"Group1","full_date":"2025-11-09T20:36:02.042Z","date":"2025-11-09","time":"20:36:02","cor_ans":true},{"trial_type":"html-keyboard-response","rt":null,"stimulus":"<p style=\"color: green; font-size: 50px; font-weight: bold;\">Correct</p>","response":null,"trial_index":170,"plugin_version":"2.1.0","time_elapsed":373929,"subject_id":"90235","group":"Group1","full_date":"2025-11-09T20:36:02.042Z","date":"2025-11-09","time":"20:36:02"},{"correct_response":"l","task":"test_phase","broad_category":"S","image_png":"S_Dolomite_14.png","image_id":398,"category_name":"Dolomite","category":25,"distinct_rating":1.43,"distinct_type":"Bottom","item_type":"Target","rt":706,"stimulus":"Stimuli_Rocks480/S_Dolomite_14.png","response":"l","trial_type":"image-keyboard-response","trial_index":171,"plugin_version":"2.1.0","time_elapsed":374637,"subject_id":"90235","group":"Group1","full_date":"2025-11-09T20:36:02.042Z","date":"2025-11-09","time":"20:36:02","cor_ans":true},{"trial_type":"html-keyboard-response","rt":null,"stimulus":"<p style=\"color: green; font-size: 50px; font-weight: bold;\">Correct</p>","response":null,"trial_index":172,"plugin_version":"2.1.0","time_elapsed":375138,"subject_id":"90235","group":"Group1","full_date":"2025-11-09T20:36:02.042Z","date":"2025-11-09","time":"20:36:02"},{"correct_response":"l","task":"test_phase","broad_category":"M","image_png":"M_Quartzite_08.png","image_id":280,"category_name":"Quartzite","category":18,"distinct_rating":2.15,"distinct_type":"Bottom","item_type":"Target","rt":766,"stimulus":"Stimuli_Rocks480/M_Quartzite_08.png","response":"l","trial_type":"image-keyboard-response","trial_index":173,"plugin_version":"2.1.0","time_elapsed":375906,"subject_id":"90235","group":"Group1","full_date":"2025-11-09T20:36:02.042Z","date":"2025-11-09","time":"20:36:02","cor_ans":true},{"trial_type":"html-keyboard-response","rt":null,"stimulus":"<p style=\"color: green; font-size: 50px; font-weight: bold;\">Correct</p>","response":null,"trial_index":174,"plugin_version":"2.1.0","time_elapsed":376408,"subject_id":"90235","group":"Group1","full_date":"2025-11-09T20:36:02.042Z","date":"2025-11-09","time":"20:36:02"},{"correct_response":"a","task":"test_phase","broad_category":"M","image_png":"M_Quartzite_12.png","image_id":284,"category_name":"Quartzite","category":18,"distinct_rating":1.92,"distinct_type":"Bottom","item_type":"Foil","rt":645,"stimulus":"Stimuli_Rocks480/M_Quartzite_12.png","response":"l","trial_type":"image-keyboard-response","trial_index":175,"plugin_version":"2.1.0","time_elapsed":377055,"subject_id":"90235","group":"Group1","full_date":"2025-11-09T20:36:02.042Z","date":"2025-11-09","time":"20:36:02","cor_ans":false},{"trial_type":"html-keyboard-response","rt":null,"stimulus":"<p style=\"color: red; font-size: 50px; font-weight: bold;\">Incorrect</p>","response":null,"trial_index":176,"plugin_version":"2.1.0","time_elapsed":377557,"subject_id":"90235","group":"Group1","full_date":"2025-11-09T20:36:02.042Z","date":"2025-11-09","time":"20:36:02"},{"correct_response":"l","task":"test_phase","broad_category":"S","image_png":"S_Conglomerate_05.png","image_id":373,"category_name":"Conglomerate","category":24,"distinct_rating":7.32,"distinct_type":"Top","item_type":"Target","rt":623,"stimulus":"Stimuli_Rocks480/S_Conglomerate_05.png","response":"a","trial_type":"image-keyboard-response","trial_index":177,"plugin_version":"2.1.0","time_elapsed":378182,"subject_id":"90235","group":"Group1","full_date":"2025-11-09T20:36:02.042Z","date":"2025-11-09","time":"20:36:02","cor_ans":false},{"trial_type":"html-keyboard-response","rt":null,"stimulus":"<p style=\"color: red; font-size: 50px; font-weight: bold;\">Incorrect</p>","response":null,"trial_index":178,"plugin_version":"2.1.0","time_elapsed":378684,"subject_id":"90235","group":"Group1","full_date":"2025-11-09T20:36:02.042Z","date":"2025-11-09","time":"20:36:02"},{"correct_response":"l","task":"test_phase","broad_category":"I","image_png":"I_Rhyolite_16.png","image_id":160,"category_name":"Rhyolite","category":10,"distinct_rating":2.19,"distinct_type":"Bottom","item_type":"Target","rt":405,"stimulus":"Stimuli_Rocks480/I_Rhyolite_16.png","response":"l","trial_type":"image-keyboard-response","trial_index":179,"plugin_version":"2.1.0","time_elapsed":379091,"subject_id":"90235","group":"Group1","full_date":"2025-11-09T20:36:02.042Z","date":"2025-11-09","time":"20:36:02","cor_ans":true},{"trial_type":"html-keyboard-response","rt":null,"stimulus":"<p style=\"color: green; font-size: 50px; font-weight: bold;\">Correct</p>","response":null,"trial_index":180,"plugin_version":"2.1.0","time_elapsed":379592,"subject_id":"90235","group":"Group1","full_date":"2025-11-09T20:36:02.042Z","date":"2025-11-09","time":"20:36:02"},{"correct_response":"l","task":"test_phase","broad_category":"I","image_png":"I_Rhyolite_14.png","image_id":158,"category_name":"Rhyolite","category":10,"distinct_rating":2.59,"distinct_type":"Bottom","item_type":"Target","rt":612,"stimulus":"Stimuli_Rocks480/I_Rhyolite_14.png","response":"l","trial_type":"image-keyboard-response","trial_index":181,"plugin_version":"2.1.0","time_elapsed":380206,"subject_id":"90235","group":"Group1","full_date":"2025-11-09T20:36:02.042Z","date":"2025-11-09","time":"20:36:02","cor_ans":true},{"trial_type":"html-keyboard-response","rt":null,"stimulus":"<p style=\"color: green; font-size: 50px; font-weight: bold;\">Correct</p>","response":null,"trial_index":182,"plugin_version":"2.1.0","time_elapsed":380708,"subject_id":"90235","group":"Group1","full_date":"2025-11-09T20:36:02.042Z","date":"2025-11-09","time":"20:36:02"},{"correct_response":"l","task":"test_phase","broad_category":"S","image_png":"S_Shale_12.png","image_id":476,"category_name":"Shale","category":30,"distinct_rating":2.48,"distinct_type":"Bottom","item_type":"Target","rt":862,"stimulus":"Stimuli_Rocks480/S_Shale_12.png","response":"l","trial_type":"image-keyboard-response","trial_index":183,"plugin_version":"2.1.0","time_elapsed":381572,"subject_id":"90235","group":"Group1","full_date":"2025-11-09T20:36:02.042Z","date":"2025-11-09","time":"20:36:02","cor_ans":true},{"trial_type":"html-keyboard-response","rt":null,"stimulus":"<p style=\"color: green; font-size: 50px; font-weight: bold;\">Correct</p>","response":null,"trial_index":184,"plugin_version":"2.1.0","time_elapsed":382073,"subject_id":"90235","group":"Group1","full_date":"2025-11-09T20:36:02.042Z","date":"2025-11-09","time":"20:36:02"},{"correct_response":"l","task":"test_phase","broad_category":"I","image_png":"I_Gabbro_16.png","image_id":64,"category_name":"Gabbro","category":4,"distinct_rating":2.52,"distinct_type":"Bottom","item_type":"Target","rt":608,"stimulus":"Stimuli_Rocks480/I_Gabbro_16.png","response":"a","trial_type":"image-keyboard-response","trial_index":185,"plugin_version":"2.1.0","time_elapsed":382683,"subject_id":"90235","group":"Group1","full_date":"2025-11-09T20:36:02.042Z","date":"2025-11-09","time":"20:36:02","cor_ans":false},{"trial_type":"html-keyboard-response","rt":null,"stimulus":"<p style=\"color: red; font-size: 50px; font-weight: bold;\">Incorrect</p>","response":null,"trial_index":186,"plugin_version":"2.1.0","time_elapsed":383185,"subject_id":"90235","group":"Group1","full_date":"2025-11-09T20:36:02.042Z","date":"2025-11-09","time":"20:36:02"},{"correct_response":"a","task":"test_phase","broad_category":"I","image_png":"I_Obsidian_06.png","image_id":86,"category_name":"Obsidian","category":6,"distinct_rating":8.01,"distinct_type":"Top","item_type":"Foil","rt":888,"stimulus":"Stimuli_Rocks480/I_Obsidian_06.png","response":"a","trial_type":"image-keyboard-response","trial_index":187,"plugin_version":"2.1.0","time_elapsed":384074,"subject_id":"90235","group":"Group1","full_date":"2025-11-09T20:36:02.042Z","date":"2025-11-09","time":"20:36:02","cor_ans":true},{"trial_type":"html-keyboard-response","rt":null,"stimulus":"<p style=\"color: green; font-size: 50px; font-weight: bold;\">Correct</p>","response":null,"trial_index":188,"plugin_version":"2.1.0","time_elapsed":384576,"subject_id":"90235","group":"Group1","full_date":"2025-11-09T20:36:02.042Z","date":"2025-11-09","time":"20:36:02"},{"correct_response":"l","task":"test_phase","broad_category":"I","image_png":"I_Gabbro_11.png","image_id":59,"category_name":"Gabbro","category":4,"distinct_rating":1.99,"distinct_type":"Bottom","item_type":"Target","rt":1054,"stimulus":"Stimuli_Rocks480/I_Gabbro_11.png","response":"l","trial_type":"image-keyboard-response","trial_index":189,"plugin_version":"2.1.0","time_elapsed":385631,"subject_id":"90235","group":"Group1","full_date":"2025-11-09T20:36:02.042Z","date":"2025-11-09","time":"20:36:02","cor_ans":true},{"trial_type":"html-keyboard-response","rt":null,"stimulus":"<p style=\"color: green; font-size: 50px; font-weight: bold;\">Correct</p>","response":null,"trial_index":190,"plugin_version":"2.1.0","time_elapsed":386133,"subject_id":"90235","group":"Group1","full_date":"2025-11-09T20:36:02.042Z","date":"2025-11-09","time":"20:36:02"},{"correct_response":"l","task":"test_phase","broad_category":"I","image_png":"I_Diorite_05.png","image_id":37,"category_name":"Diorite","category":3,"distinct_rating":3.08,"distinct_type":"Bottom","item_type":"Target","rt":507,"stimulus":"Stimuli_Rocks480/I_Diorite_05.png","response":"l","trial_type":"image-keyboard-response","trial_index":191,"plugin_version":"2.1.0","time_elapsed":386641,"subject_id":"90235","group":"Group1","full_date":"2025-11-09T20:36:02.042Z","date":"2025-11-09","time":"20:36:02","cor_ans":true},{"trial_type":"html-keyboard-response","rt":null,"stimulus":"<p style=\"color: green; font-size: 50px; font-weight: bold;\">Correct</p>","response":null,"trial_index":192,"plugin_version":"2.1.0","time_elapsed":387142,"subject_id":"90235","group":"Group1","full_date":"2025-11-09T20:36:02.042Z","date":"2025-11-09","time":"20:36:02"},{"correct_response":"a","task":"test_phase","broad_category":"S","image_png":"S_Sandstone_08.png","image_id":456,"category_name":"Sandstone","category":29,"distinct_rating":1.5,"distinct_type":"Bottom","item_type":"Foil","rt":619,"stimulus":"Stimuli_Rocks480/S_Sandstone_08.png","response":"l","trial_type":"image-keyboard-response","trial_index":193,"plugin_version":"2.1.0","time_elapsed":387764,"subject_id":"90235","group":"Group1","full_date":"2025-11-09T20:36:02.042Z","date":"2025-11-09","time":"20:36:02","cor_ans":false},{"trial_type":"html-keyboard-response","rt":null,"stimulus":"<p style=\"color: red; font-size: 50px; font-weight: bold;\">Incorrect</p>","response":null,"trial_index":194,"plugin_version":"2.1.0","time_elapsed":388265,"subject_id":"90235","group":"Group1","full_date":"2025-11-09T20:36:02.042Z","date":"2025-11-09","time":"20:36:02"},{"correct_response":"l","task":"test_phase","broad_category":"I","image_png":"I_Basalt_02.png","image_id":18,"category_name":"Basalt","category":2,"distinct_rating":1.84,"distinct_type":"Bottom","item_type":"Target","rt":841,"stimulus":"Stimuli_Rocks480/I_Basalt_02.png","response":"l","trial_type":"image-keyboard-response","trial_index":195,"plugin_version":"2.1.0","time_elapsed":389108,"subject_id":"90235","group":"Group1","full_date":"2025-11-09T20:36:02.042Z","date":"2025-11-09","time":"20:36:02","cor_ans":true},{"trial_type":"html-keyboard-response","rt":null,"stimulus":"<p style=\"color: green; font-size: 50px; font-weight: bold;\">Correct</p>","response":null,"trial_index":196,"plugin_version":"2.1.0","time_elapsed":389609,"subject_id":"90235","group":"Group1","full_date":"2025-11-09T20:36:02.042Z","date":"2025-11-09","time":"20:36:02"},{"correct_response":"l","task":"test_phase","broad_category":"I","image_png":"I_Diorite_03.png","image_id":35,"category_name":"Diorite","category":3,"distinct_rating":3.14,"distinct_type":"Bottom","item_type":"Target","rt":806,"stimulus":"Stimuli_Rocks480/I_Diorite_03.png","response":"l","trial_type":"image-keyboard-response","trial_index":197,"plugin_version":"2.1.0","time_elapsed":390418,"subject_id":"90235","group":"Group1","full_date":"2025-11-09T20:36:02.042Z","date":"2025-11-09","time":"20:36:02","cor_ans":true},{"trial_type":"html-keyboard-response","rt":null,"stimulus":"<p style=\"color: green; font-size: 50px; font-weight: bold;\">Correct</p>","response":null,"trial_index":198,"plugin_version":"2.1.0","time_elapsed":390918,"subject_id":"90235","group":"Group1","full_date":"2025-11-09T20:36:02.042Z","date":"2025-11-09","time":"20:36:02"},{"correct_response":"a","task":"test_phase","broad_category":"I","image_png":"I_Rhyolite_10.png","image_id":154,"category_name":"Rhyolite","category":10,"distinct_rating":2.88,"distinct_type":"Bottom","item_type":"Foil","rt":568,"stimulus":"Stimuli_Rocks480/I_Rhyolite_10.png","response":"l","trial_type":"image-keyboard-response","trial_index":199,"plugin_version":"2.1.0","time_elapsed":391488,"subject_id":"90235","group":"Group1","full_date":"2025-11-09T20:36:02.042Z","date":"2025-11-09","time":"20:36:02","cor_ans":false},{"trial_type":"html-keyboard-response","rt":null,"stimulus":"<p style=\"color: red; font-size: 50px; font-weight: bold;\">Incorrect</p>","response":null,"trial_index":200,"plugin_version":"2.1.0","time_elapsed":391989,"subject_id":"90235","group":"Group1","full_date":"2025-11-09T20:36:02.042Z","date":"2025-11-09","time":"20:36:02"},{"correct_response":"l","task":"test_phase","broad_category":"M","image_png":"M_Marble_04.png","image_id":228,"category_name":"Marble","category":15,"distinct_rating":3.15,"distinct_type":"Bottom","item_type":"Target","rt":697,"stimulus":"Stimuli_Rocks480/M_Marble_04.png","response":"a","trial_type":"image-keyboard-response","trial_index":201,"plugin_version":"2.1.0","time_elapsed":392688,"subject_id":"90235","group":"Group1","full_date":"2025-11-09T20:36:02.042Z","date":"2025-11-09","time":"20:36:02","cor_ans":false},{"trial_type":"html-keyboard-response","rt":null,"stimulus":"<p style=\"color: red; font-size: 50px; font-weight: bold;\">Incorrect</p>","response":null,"trial_index":202,"plugin_version":"2.1.0","time_elapsed":393189,"subject_id":"90235","group":"Group1","full_date":"2025-11-09T20:36:02.042Z","date":"2025-11-09","time":"20:36:02"},{"correct_response":"l","task":"test_phase","broad_category":"I","image_png":"I_Andesite_06.png","image_id":6,"category_name":"Andesite","category":1,"distinct_rating":3.17,"distinct_type":"Bottom","item_type":"Target","rt":382,"stimulus":"Stimuli_Rocks480/I_Andesite_06.png","response":"l","trial_type":"image-keyboard-response","trial_index":203,"plugin_version":"2.1.0","time_elapsed":393572,"subject_id":"90235","group":"Group1","full_date":"2025-11-09T20:36:02.042Z","date":"2025-11-09","time":"20:36:02","cor_ans":true},{"trial_type":"html-keyboard-response","rt":null,"stimulus":"<p style=\"color: green; font-size: 50px; font-weight: bold;\">Correct</p>","response":null,"trial_index":204,"plugin_version":"2.1.0","time_elapsed":394074,"subject_id":"90235","group":"Group1","full_date":"2025-11-09T20:36:02.042Z","date":"2025-11-09","time":"20:36:02"},{"correct_response":"a","task":"test_phase","broad_category":"M","image_png":"M_Gneiss_15.png","image_id":207,"category_name":"Gneiss","category":13,"distinct_rating":3.11,"distinct_type":"Bottom","item_type":"Foil","rt":778,"stimulus":"Stimuli_Rocks480/M_Gneiss_15.png","response":"a","trial_type":"image-keyboard-response","trial_index":205,"plugin_version":"2.1.0","time_elapsed":394853,"subject_id":"90235","group":"Group1","full_date":"2025-11-09T20:36:02.042Z","date":"2025-11-09","time":"20:36:02","cor_ans":true},{"trial_type":"html-keyboard-response","rt":null,"stimulus":"<p style=\"color: green; font-size: 50px; font-weight: bold;\">Correct</p>","response":null,"trial_index":206,"plugin_version":"2.1.0","time_elapsed":395355,"subject_id":"90235","group":"Group1","full_date":"2025-11-09T20:36:02.042Z","date":"2025-11-09","time":"20:36:02"},{"correct_response":"l","task":"test_phase","broad_category":"M","image_png":"M_Slate_11.png","image_id":315,"category_name":"Slate","category":20,"distinct_rating":2.75,"distinct_type":"Bottom","item_type":"Target","rt":580,"stimulus":"Stimuli_Rocks480/M_Slate_11.png","response":"l","trial_type":"image-keyboard-response","trial_index":207,"plugin_version":"2.1.0","time_elapsed":395937,"subject_id":"90235","group":"Group1","full_date":"2025-11-09T20:36:02.042Z","date":"2025-11-09","time":"20:36:02","cor_ans":true},{"trial_type":"html-keyboard-response","rt":null,"stimulus":"<p style=\"color: green; font-size: 50px; font-weight: bold;\">Correct</p>","response":null,"trial_index":208,"plugin_version":"2.1.0","time_elapsed":396438,"subject_id":"90235","group":"Group1","full_date":"2025-11-09T20:36:02.042Z","date":"2025-11-09","time":"20:36:02"},{"correct_response":"a","task":"test_phase","broad_category":"S","image_png":"S_Shale_03.png","image_id":467,"category_name":"Shale","category":30,"distinct_rating":1.95,"distinct_type":"Bottom","item_type":"Foil","rt":934,"stimulus":"Stimuli_Rocks480/S_Shale_03.png","response":"a","trial_type":"image-keyboard-response","trial_index":209,"plugin_version":"2.1.0","time_elapsed":397374,"subject_id":"90235","group":"Group1","full_date":"2025-11-09T20:36:02.042Z","date":"2025-11-09","time":"20:36:02","cor_ans":true},{"trial_type":"html-keyboard-response","rt":null,"stimulus":"<p style=\"color: green; font-size: 50px; font-weight: bold;\">Correct</p>","response":null,"trial_index":210,"plugin_version":"2.1.0","time_elapsed":397875,"subject_id":"90235","group":"Group1","full_date":"2025-11-09T20:36:02.042Z","date":"2025-11-09","time":"20:36:02"},{"correct_response":"a","task":"test_phase","broad_category":"S","image_png":"S_Sandstone_11.png","image_id":459,"category_name":"Sandstone","category":29,"distinct_rating":1.82,"distinct_type":"Bottom","item_type":"Foil","rt":1106,"stimulus":"Stimuli_Rocks480/S_Sandstone_11.png","response":"l","trial_type":"image-keyboard-response","trial_index":211,"plugin_version":"2.1.0","time_elapsed":398983,"subject_id":"90235","group":"Group1","full_date":"2025-11-09T20:36:02.042Z","date":"2025-11-09","time":"20:36:02","cor_ans":false},{"trial_type":"html-keyboard-response","rt":null,"stimulus":"<p style=\"color: red; font-size: 50px; font-weight: bold;\">Incorrect</p>","response":null,"trial_index":212,"plugin_version":"2.1.0","time_elapsed":399484,"subject_id":"90235","group":"Group1","full_date":"2025-11-09T20:36:02.042Z","date":"2025-11-09","time":"20:36:02"},{"correct_response":"l","task":"test_phase","broad_category":"M","image_png":"M_Marble_16.png","image_id":240,"category_name":"Marble","category":15,"distinct_rating":2.57,"distinct_type":"Bottom","item_type":"Target","rt":737,"stimulus":"Stimuli_Rocks480/M_Marble_16.png","response":"l","trial_type":"image-keyboard-response","trial_index":213,"plugin_version":"2.1.0","time_elapsed":400223,"subject_id":"90235","group":"Group1","full_date":"2025-11-09T20:36:02.042Z","date":"2025-11-09","time":"20:36:02","cor_ans":true},{"trial_type":"html-keyboard-response","rt":null,"stimulus":"<p style=\"color: green; font-size: 50px; font-weight: bold;\">Correct</p>","response":null,"trial_index":214,"plugin_version":"2.1.0","time_elapsed":400724,"subject_id":"90235","group":"Group1","full_date":"2025-11-09T20:36:02.042Z","date":"2025-11-09","time":"20:36:02"},{"correct_response":"l","task":"test_phase","broad_category":"I","image_png":"I_Basalt_01.png","image_id":17,"category_name":"Basalt","category":2,"distinct_rating":1.92,"distinct_type":"Bottom","item_type":"Target","rt":759,"stimulus":"Stimuli_Rocks480/I_Basalt_01.png","response":"a","trial_type":"image-keyboard-response","trial_index":215,"plugin_version":"2.1.0","time_elapsed":401485,"subject_id":"90235","group":"Group1","full_date":"2025-11-09T20:36:02.042Z","date":"2025-11-09","time":"20:36:02","cor_ans":false},{"trial_type":"html-keyboard-response","rt":null,"stimulus":"<p style=\"color: red; font-size: 50px; font-weight: bold;\">Incorrect</p>","response":null,"trial_index":216,"plugin_version":"2.1.0","time_elapsed":401986,"subject_id":"90235","group":"Group1","full_date":"2025-11-09T20:36:02.042Z","date":"2025-11-09","time":"20:36:02"},{"correct_response":"a","task":"test_phase","broad_category":"M","image_png":"M_Marble_02.png","image_id":226,"category_name":"Marble","category":15,"distinct_rating":3.2,"distinct_type":"Bottom","item_type":"Foil","rt":374,"stimulus":"Stimuli_Rocks480/M_Marble_02.png","response":"l","trial_type":"image-keyboard-response","trial_index":217,"plugin_version":"2.1.0","time_elapsed":402362,"subject_id":"90235","group":"Group1","full_date":"2025-11-09T20:36:02.042Z","date":"2025-11-09","time":"20:36:02","cor_ans":false},{"trial_type":"html-keyboard-response","rt":null,"stimulus":"<p style=\"color: red; font-size: 50px; font-weight: bold;\">Incorrect</p>","response":null,"trial_index":218,"plugin_version":"2.1.0","time_elapsed":402863,"subject_id":"90235","group":"Group1","full_date":"2025-11-09T20:36:02.042Z","date":"2025-11-09","time":"20:36:02"},{"correct_response":"l","task":"test_phase","broad_category":"M","image_png":"M_Phyllite_10.png","image_id":266,"category_name":"Phyllite","category":17,"distinct_rating":2.6,"distinct_type":"Bottom","item_type":"Target","rt":1038,"stimulus":"Stimuli_Rocks480/M_Phyllite_10.png","response":"l","trial_type":"image-keyboard-response","trial_index":219,"plugin_version":"2.1.0","time_elapsed":403903,"subject_id":"90235","group":"Group1","full_date":"2025-11-09T20:36:02.042Z","date":"2025-11-09","time":"20:36:02","cor_ans":true},{"trial_type":"html-keyboard-response","rt":null,"stimulus":"<p style=\"color: green; font-size: 50px; font-weight: bold;\">Correct</p>","response":null,"trial_index":220,"plugin_version":"2.1.0","time_elapsed":404404,"subject_id":"90235","group":"Group1","full_date":"2025-11-09T20:36:02.042Z","date":"2025-11-09","time":"20:36:02"},{"correct_response":"a","task":"test_phase","broad_category":"I","image_png":"I_Andesite_09.png","image_id":9,"category_name":"Andesite","category":1,"distinct_rating":2.49,"distinct_type":"Bottom","item_type":"Foil","rt":695,"stimulus":"Stimuli_Rocks480/I_Andesite_09.png","response":"l","trial_type":"image-keyboard-response","trial_index":221,"plugin_version":"2.1.0","time_elapsed":405101,"subject_id":"90235","group":"Group1","full_date":"2025-11-09T20:36:02.042Z","date":"2025-11-09","time":"20:36:02","cor_ans":false},{"trial_type":"html-keyboard-response","rt":null,"stimulus":"<p style=\"color: red; font-size: 50px; font-weight: bold;\">Incorrect</p>","response":null,"trial_index":222,"plugin_version":"2.1.0","time_elapsed":405602,"subject_id":"90235","group":"Group1","full_date":"2025-11-09T20:36:02.042Z","date":"2025-11-09","time":"20:36:02"},{"correct_response":"l","task":"test_phase","broad_category":"S","image_png":"S_Chert_10.png","image_id":362,"category_name":"Chert","category":23,"distinct_rating":7.17,"distinct_type":"Top","item_type":"Target","rt":682,"stimulus":"Stimuli_Rocks480/S_Chert_10.png","response":"a","trial_type":"image-keyboard-response","trial_index":223,"plugin_version":"2.1.0","time_elapsed":406285,"subject_id":"90235","group":"Group1","full_date":"2025-11-09T20:36:02.042Z","date":"2025-11-09","time":"20:36:02","cor_ans":false},{"trial_type":"html-keyboard-response","rt":null,"stimulus":"<p style=\"color: red; font-size: 50px; font-weight: bold;\">Incorrect</p>","response":null,"trial_index":224,"plugin_version":"2.1.0","time_elapsed":406786,"subject_id":"90235","group":"Group1","full_date":"2025-11-09T20:36:02.042Z","date":"2025-11-09","time":"20:36:02"},{"correct_response":"a","task":"test_phase","broad_category":"M","image_png":"M_Slate_04.png","image_id":308,"category_name":"Slate","category":20,"distinct_rating":2.2,"distinct_type":"Bottom","item_type":"Foil","rt":381,"stimulus":"Stimuli_Rocks480/M_Slate_04.png","response":"l","trial_type":"image-keyboard-response","trial_index":225,"plugin_version":"2.1.0","time_elapsed":407169,"subject_id":"90235","group":"Group1","full_date":"2025-11-09T20:36:02.042Z","date":"2025-11-09","time":"20:36:02","cor_ans":false},{"trial_type":"html-keyboard-response","rt":null,"stimulus":"<p style=\"color: red; font-size: 50px; font-weight: bold;\">Incorrect</p>","response":null,"trial_index":226,"plugin_version":"2.1.0","time_elapsed":407670,"subject_id":"90235","group":"Group1","full_date":"2025-11-09T20:36:02.042Z","date":"2025-11-09","time":"20:36:02"},{"correct_response":"a","task":"test_phase","broad_category":"M","image_png":"M_Quartzite_15.png","image_id":287,"category_name":"Quartzite","category":18,"distinct_rating":2.19,"distinct_type":"Bottom","item_type":"Foil","rt":581,"stimulus":"Stimuli_Rocks480/M_Quartzite_15.png","response":"a","trial_type":"image-keyboard-response","trial_index":227,"plugin_version":"2.1.0","time_elapsed":408253,"subject_id":"90235","group":"Group1","full_date":"2025-11-09T20:36:02.042Z","date":"2025-11-09","time":"20:36:02","cor_ans":true},{"trial_type":"html-keyboard-response","rt":null,"stimulus":"<p style=\"color: green; font-size: 50px; font-weight: bold;\">Correct</p>","response":null,"trial_index":228,"plugin_version":"2.1.0","time_elapsed":408754,"subject_id":"90235","group":"Group1","full_date":"2025-11-09T20:36:02.042Z","date":"2025-11-09","time":"20:36:02"},{"correct_response":"a","task":"test_phase","broad_category":"S","image_png":"S_Shale_07.png","image_id":471,"category_name":"Shale","category":30,"distinct_rating":2.73,"distinct_type":"Bottom","item_type":"Foil","rt":713,"stimulus":"Stimuli_Rocks480/S_Shale_07.png","response":"a","trial_type":"image-keyboard-response","trial_index":229,"plugin_version":"2.1.0","time_elapsed":409469,"subject_id":"90235","group":"Group1","full_date":"2025-11-09T20:36:02.042Z","date":"2025-11-09","time":"20:36:02","cor_ans":true},{"trial_type":"html-keyboard-response","rt":null,"stimulus":"<p style=\"color: green; font-size: 50px; font-weight: bold;\">Correct</p>","response":null,"trial_index":230,"plugin_version":"2.1.0","time_elapsed":409970,"subject_id":"90235","group":"Group1","full_date":"2025-11-09T20:36:02.042Z","date":"2025-11-09","time":"20:36:02"},{"correct_response":"l","task":"test_phase","broad_category":"I","image_png":"I_Diorite_04.png","image_id":36,"category_name":"Diorite","category":3,"distinct_rating":2.98,"distinct_type":"Bottom","item_type":"Target","rt":590,"stimulus":"Stimuli_Rocks480/I_Diorite_04.png","response":"l","trial_type":"image-keyboard-response","trial_index":231,"plugin_version":"2.1.0","time_elapsed":410562,"subject_id":"90235","group":"Group1","full_date":"2025-11-09T20:36:02.042Z","date":"2025-11-09","time":"20:36:02","cor_ans":true},{"trial_type":"html-keyboard-response","rt":null,"stimulus":"<p style=\"color: green; font-size: 50px; font-weight: bold;\">Correct</p>","response":null,"trial_index":232,"plugin_version":"2.1.0","time_elapsed":411064,"subject_id":"90235","group":"Group1","full_date":"2025-11-09T20:36:02.042Z","date":"2025-11-09","time":"20:36:02"},{"correct_response":"l","task":"test_phase","broad_category":"I","image_png":"I_Pegmatite_10.png","image_id":106,"category_name":"Pegmatite","category":7,"distinct_rating":7.66,"distinct_type":"Top","item_type":"Target","rt":1164,"stimulus":"Stimuli_Rocks480/I_Pegmatite_10.png","response":"a","trial_type":"image-keyboard-response","trial_index":233,"plugin_version":"2.1.0","time_elapsed":412229,"subject_id":"90235","group":"Group1","full_date":"2025-11-09T20:36:02.042Z","date":"2025-11-09","time":"20:36:02","cor_ans":false},{"trial_type":"html-keyboard-response","rt":null,"stimulus":"<p style=\"color: red; font-size: 50px; font-weight: bold;\">Incorrect</p>","response":null,"trial_index":234,"plugin_version":"2.1.0","time_elapsed":412731,"subject_id":"90235","group":"Group1","full_date":"2025-11-09T20:36:02.042Z","date":"2025-11-09","time":"20:36:02"},{"correct_response":"l","task":"test_phase","broad_category":"I","image_png":"I_Pegmatite_16.png","image_id":112,"category_name":"Pegmatite","category":7,"distinct_rating":7.03,"distinct_type":"Top","item_type":"Target","rt":534,"stimulus":"Stimuli_Rocks480/I_Pegmatite_16.png","response":"l","trial_type":"image-keyboard-response","trial_index":235,"plugin_version":"2.1.0","time_elapsed":413267,"subject_id":"90235","group":"Group1","full_date":"2025-11-09T20:36:02.042Z","date":"2025-11-09","time":"20:36:02","cor_ans":true},{"trial_type"