[{"width":1421,"height":767,"webaudio":true,"browser":"safari","browser_version":"17.6.0","mobile":false,"os":"Mac OS","fullscreen":true,"vsync_rate":59.41,"webcam":true,"microphone":true,"trial_type":"browser-check","trial_index":0,"plugin_version":"2.1.0","time_elapsed":1021,"subject_id":"90221","group":"Group2","full_date":"2025-11-10T00:33:26.416Z","date":"2025-11-10","time":"00:33:26"},{"success":true,"timeout":false,"failed_images":[],"failed_audio":[],"failed_video":[],"trial_type":"preload","trial_index":1,"plugin_version":"2.1.0","time_elapsed":9957,"subject_id":"90221","group":"Group2","full_date":"2025-11-10T00:33:26.416Z","date":"2025-11-10","time":"00:33:26"},{"rt":66373,"url":"SONA_consent_memorability.html","trial_type":"external-html","trial_index":2,"plugin_version":"2.1.0","time_elapsed":76390,"subject_id":"90221","group":"Group2","full_date":"2025-11-10T00:33:26.416Z","date":"2025-11-10","time":"00:33:26"},{"success":true,"rt":5116,"trial_type":"fullscreen","trial_index":3,"plugin_version":"2.1.0","time_elapsed":82516,"subject_id":"90221","group":"Group2","full_date":"2025-11-10T00:33:26.416Z","date":"2025-11-10","time":"00:33:26"},{"rt":16412,"stimulus":"<div style=\"max-width: 760px; margin: auto; font-size: 20px; line-height: 1.5;\">\n      <h1 style=\"text-align:center; font-size: 30px;\">Instructions</h1>\n      <p>\n        Welcome to the study on <b>visual memory</b>. This experiment consists of <b>two phases</b>: \n        a <b>study phase</b> and a <b>test phase</b>.\n      </p>\n      <p>\n        In the study phase, you will see a series of rock images along with their category labels.\n        The images will appear one at a time.\n        <b>Your task</b> is to learn the categories to which the rock images belong \n        and to remember each image as accurately as possible.\n      </p> \n      <p>\n        After the study phase, <b>your memory will be tested</b>. \n        Additional instructions for the test phase will be provided at that time.\n      </p>\n      <p>\n        If your computer has multiple <b>language settings</b> (e.g., English and another language),\n        please make sure it is set to English before starting.\n      </p>\n      <p>\n        You can track your progress using the <b>completion bar</b> at the top of the screen. \n        Please note that the bar will refresh when the test phase begins \n        to give you an accurate sense of your progress in both phases.\n      </p> \n      <p>\n        Press the button below when you are ready to begin.\n      </p>\n    </div>","response":0,"trial_type":"html-button-response","trial_index":4,"plugin_version":"2.1.0","time_elapsed":98935,"subject_id":"90221","group":"Group2","full_date":"2025-11-10T00:33:26.416Z","date":"2025-11-10","time":"00:33:26"},{"rt":null,"stimulus":"<p style=\"font-size: 50px; margin: 0; text-align: center;\">+</p>","response":null,"trial_type":"html-keyboard-response","trial_index":5,"plugin_version":"2.1.0","time_elapsed":99941,"subject_id":"90221","group":"Group2","full_date":"2025-11-10T00:33:26.416Z","date":"2025-11-10","time":"00:33:26"},{"task":"memory_phase","broad_category":"I","image_png":"I_Pumice_13.png","image_id":141,"category_name":"Pumice","category":9,"distinct_rating":3.12,"distinct_type":"Bottom","rt":null,"stimulus":"Stimuli_Rocks480/I_Pumice_13.png","response":null,"trial_type":"image-keyboard-response","trial_index":6,"plugin_version":"2.1.0","time_elapsed":102466,"subject_id":"90221","group":"Group2","full_date":"2025-11-10T00:33:26.416Z","date":"2025-11-10","time":"00:33:26"},{"rt":null,"stimulus":"<p style=\"font-size: 50px; margin: 0; text-align: center;\">+</p>","response":null,"trial_type":"html-keyboard-response","trial_index":7,"plugin_version":"2.1.0","time_elapsed":103469,"subject_id":"90221","group":"Group2","full_date":"2025-11-10T00:33:26.416Z","date":"2025-11-10","time":"00:33:26"},{"task":"memory_phase","broad_category":"I","image_png":"I_Rhyolite_08.png","image_id":152,"category_name":"Rhyolite","category":10,"distinct_rating":1.38,"distinct_type":"Bottom","rt":null,"stimulus":"Stimuli_Rocks480/I_Rhyolite_08.png","response":null,"trial_type":"image-keyboard-response","trial_index":8,"plugin_version":"2.1.0","time_elapsed":105983,"subject_id":"90221","group":"Group2","full_date":"2025-11-10T00:33:26.416Z","date":"2025-11-10","time":"00:33:26"},{"rt":null,"stimulus":"<p style=\"font-size: 50px; margin: 0; text-align: center;\">+</p>","response":null,"trial_type":"html-keyboard-response","trial_index":9,"plugin_version":"2.1.0","time_elapsed":106985,"subject_id":"90221","group":"Group2","full_date":"2025-11-10T00:33:26.416Z","date":"2025-11-10","time":"00:33:26"},{"task":"memory_phase","broad_category":"I","image_png":"I_Gabbro_12.png","image_id":60,"category_name":"Gabbro","category":4,"distinct_rating":2.6,"distinct_type":"Bottom","rt":null,"stimulus":"Stimuli_Rocks480/I_Gabbro_12.png","response":null,"trial_type":"image-keyboard-response","trial_index":10,"plugin_version":"2.1.0","time_elapsed":109506,"subject_id":"90221","group":"Group2","full_date":"2025-11-10T00:33:26.416Z","date":"2025-11-10","time":"00:33:26"},{"rt":null,"stimulus":"<p style=\"font-size: 50px; margin: 0; text-align: center;\">+</p>","response":null,"trial_type":"html-keyboard-response","trial_index":11,"plugin_version":"2.1.0","time_elapsed":110508,"subject_id":"90221","group":"Group2","full_date":"2025-11-10T00:33:26.416Z","date":"2025-11-10","time":"00:33:26"},{"task":"memory_phase","broad_category":"I","image_png":"I_Diorite_15.png","image_id":47,"category_name":"Diorite","category":3,"distinct_rating":3.05,"distinct_type":"Bottom","rt":null,"stimulus":"Stimuli_Rocks480/I_Diorite_15.png","response":null,"trial_type":"image-keyboard-response","trial_index":12,"plugin_version":"2.1.0","time_elapsed":113021,"subject_id":"90221","group":"Group2","full_date":"2025-11-10T00:33:26.416Z","date":"2025-11-10","time":"00:33:26"},{"rt":null,"stimulus":"<p style=\"font-size: 50px; margin: 0; text-align: center;\">+</p>","response":null,"trial_type":"html-keyboard-response","trial_index":13,"plugin_version":"2.1.0","time_elapsed":114024,"subject_id":"90221","group":"Group2","full_date":"2025-11-10T00:33:26.416Z","date":"2025-11-10","time":"00:33:26"},{"task":"memory_phase","broad_category":"I","image_png":"I_Rhyolite_10.png","image_id":154,"category_name":"Rhyolite","category":10,"distinct_rating":2.88,"distinct_type":"Bottom","rt":null,"stimulus":"Stimuli_Rocks480/I_Rhyolite_10.png","response":null,"trial_type":"image-keyboard-response","trial_index":14,"plugin_version":"2.1.0","time_elapsed":116549,"subject_id":"90221","group":"Group2","full_date":"2025-11-10T00:33:26.416Z","date":"2025-11-10","time":"00:33:26"},{"rt":null,"stimulus":"<p style=\"font-size: 50px; margin: 0; text-align: center;\">+</p>","response":null,"trial_type":"html-keyboard-response","trial_index":15,"plugin_version":"2.1.0","time_elapsed":117551,"subject_id":"90221","group":"Group2","full_date":"2025-11-10T00:33:26.416Z","date":"2025-11-10","time":"00:33:26"},{"task":"memory_phase","broad_category":"M","image_png":"M_Phyllite_02.png","image_id":258,"category_name":"Phyllite","category":17,"distinct_rating":2.89,"distinct_type":"Bottom","rt":null,"stimulus":"Stimuli_Rocks480/M_Phyllite_02.png","response":null,"trial_type":"image-keyboard-response","trial_index":16,"plugin_version":"2.1.0","time_elapsed":120069,"subject_id":"90221","group":"Group2","full_date":"2025-11-10T00:33:26.416Z","date":"2025-11-10","time":"00:33:26"},{"rt":null,"stimulus":"<p style=\"font-size: 50px; margin: 0; text-align: center;\">+</p>","response":null,"trial_type":"html-keyboard-response","trial_index":17,"plugin_version":"2.1.0","time_elapsed":121072,"subject_id":"90221","group":"Group2","full_date":"2025-11-10T00:33:26.416Z","date":"2025-11-10","time":"00:33:26"},{"task":"memory_phase","broad_category":"I","image_png":"I_Diorite_10.png","image_id":42,"category_name":"Diorite","category":3,"distinct_rating":2.84,"distinct_type":"Bottom","rt":null,"stimulus":"Stimuli_Rocks480/I_Diorite_10.png","response":null,"trial_type":"image-keyboard-response","trial_index":18,"plugin_version":"2.1.0","time_elapsed":123589,"subject_id":"90221","group":"Group2","full_date":"2025-11-10T00:33:26.416Z","date":"2025-11-10","time":"00:33:26"},{"rt":null,"stimulus":"<p style=\"font-size: 50px; margin: 0; text-align: center;\">+</p>","response":null,"trial_type":"html-keyboard-response","trial_index":19,"plugin_version":"2.1.0","time_elapsed":124591,"subject_id":"90221","group":"Group2","full_date":"2025-11-10T00:33:26.416Z","date":"2025-11-10","time":"00:33:26"},{"task":"memory_phase","broad_category":"M","image_png":"M_Marble_14.png","image_id":238,"category_name":"Marble","category":15,"distinct_rating":3.31,"distinct_type":"Bottom","rt":null,"stimulus":"Stimuli_Rocks480/M_Marble_14.png","response":null,"trial_type":"image-keyboard-response","trial_index":20,"plugin_version":"2.1.0","time_elapsed":127107,"subject_id":"90221","group":"Group2","full_date":"2025-11-10T00:33:26.416Z","date":"2025-11-10","time":"00:33:26"},{"rt":null,"stimulus":"<p style=\"font-size: 50px; margin: 0; text-align: center;\">+</p>","response":null,"trial_type":"html-keyboard-response","trial_index":21,"plugin_version":"2.1.0","time_elapsed":128109,"subject_id":"90221","group":"Group2","full_date":"2025-11-10T00:33:26.416Z","date":"2025-11-10","time":"00:33:26"},{"task":"memory_phase","broad_category":"S","image_png":"S_Shale_03.png","image_id":467,"category_name":"Shale","category":30,"distinct_rating":1.95,"distinct_type":"Bottom","rt":null,"stimulus":"Stimuli_Rocks480/S_Shale_03.png","response":null,"trial_type":"image-keyboard-response","trial_index":22,"plugin_version":"2.1.0","time_elapsed":130628,"subject_id":"90221","group":"Group2","full_date":"2025-11-10T00:33:26.416Z","date":"2025-11-10","time":"00:33:26"},{"rt":null,"stimulus":"<p style=\"font-size: 50px; margin: 0; text-align: center;\">+</p>","response":null,"trial_type":"html-keyboard-response","trial_index":23,"plugin_version":"2.1.0","time_elapsed":131630,"subject_id":"90221","group":"Group2","full_date":"2025-11-10T00:33:26.416Z","date":"2025-11-10","time":"00:33:26"},{"task":"memory_phase","broad_category":"I","image_png":"I_Pumice_01.png","image_id":129,"category_name":"Pumice","category":9,"distinct_rating":3.25,"distinct_type":"Bottom","rt":null,"stimulus":"Stimuli_Rocks480/I_Pumice_01.png","response":null,"trial_type":"image-keyboard-response","trial_index":24,"plugin_version":"2.1.0","time_elapsed":134146,"subject_id":"90221","group":"Group2","full_date":"2025-11-10T00:33:26.416Z","date":"2025-11-10","time":"00:33:26"},{"rt":null,"stimulus":"<p style=\"font-size: 50px; margin: 0; text-align: center;\">+</p>","response":null,"trial_type":"html-keyboard-response","trial_index":25,"plugin_version":"2.1.0","time_elapsed":135148,"subject_id":"90221","group":"Group2","full_date":"2025-11-10T00:33:26.416Z","date":"2025-11-10","time":"00:33:26"},{"task":"memory_phase","broad_category":"S","image_png":"S_Conglomerate_14.png","image_id":382,"category_name":"Conglomerate","category":24,"distinct_rating":6.86,"distinct_type":"Top","rt":null,"stimulus":"Stimuli_Rocks480/S_Conglomerate_14.png","response":null,"trial_type":"image-keyboard-response","trial_index":26,"plugin_version":"2.1.0","time_elapsed":137663,"subject_id":"90221","group":"Group2","full_date":"2025-11-10T00:33:26.416Z","date":"2025-11-10","time":"00:33:26"},{"rt":null,"stimulus":"<p style=\"font-size: 50px; margin: 0; text-align: center;\">+</p>","response":null,"trial_type":"html-keyboard-response","trial_index":27,"plugin_version":"2.1.0","time_elapsed":138665,"subject_id":"90221","group":"Group2","full_date":"2025-11-10T00:33:26.416Z","date":"2025-11-10","time":"00:33:26"},{"task":"memory_phase","broad_category":"S","image_png":"S_Sandstone_08.png","image_id":456,"category_name":"Sandstone","category":29,"distinct_rating":1.5,"distinct_type":"Bottom","rt":null,"stimulus":"Stimuli_Rocks480/S_Sandstone_08.png","response":null,"trial_type":"image-keyboard-response","trial_index":28,"plugin_version":"2.1.0","time_elapsed":141180,"subject_id":"90221","group":"Group2","full_date":"2025-11-10T00:33:26.416Z","date":"2025-11-10","time":"00:33:26"},{"rt":null,"stimulus":"<p style=\"font-size: 50px; margin: 0; text-align: center;\">+</p>","response":null,"trial_type":"html-keyboard-response","trial_index":29,"plugin_version":"2.1.0","time_elapsed":142183,"subject_id":"90221","group":"Group2","full_date":"2025-11-10T00:33:26.416Z","date":"2025-11-10","time":"00:33:26"},{"task":"memory_phase","broad_category":"M","image_png":"M_Gneiss_10.png","image_id":202,"category_name":"Gneiss","category":13,"distinct_rating":3.09,"distinct_type":"Bottom","rt":null,"stimulus":"Stimuli_Rocks480/M_Gneiss_10.png","response":null,"trial_type":"image-keyboard-response","trial_index":30,"plugin_version":"2.1.0","time_elapsed":144699,"subject_id":"90221","group":"Group2","full_date":"2025-11-10T00:33:26.416Z","date":"2025-11-10","time":"00:33:26"},{"rt":null,"stimulus":"<p style=\"font-size: 50px; margin: 0; text-align: center;\">+</p>","response":null,"trial_type":"html-keyboard-response","trial_index":31,"plugin_version":"2.1.0","time_elapsed":145702,"subject_id":"90221","group":"Group2","full_date":"2025-11-10T00:33:26.416Z","date":"2025-11-10","time":"00:33:26"},{"task":"memory_phase","broad_category":"I","image_png":"I_Diorite_01.png","image_id":33,"category_name":"Diorite","category":3,"distinct_rating":2.97,"distinct_type":"Bottom","rt":null,"stimulus":"Stimuli_Rocks480/I_Diorite_01.png","response":null,"trial_type":"image-keyboard-response","trial_index":32,"plugin_version":"2.1.0","time_elapsed":148222,"subject_id":"90221","group":"Group2","full_date":"2025-11-10T00:33:26.416Z","date":"2025-11-10","time":"00:33:26"},{"rt":null,"stimulus":"<p style=\"font-size: 50px; margin: 0; text-align: center;\">+</p>","response":null,"trial_type":"html-keyboard-response","trial_index":33,"plugin_version":"2.1.0","time_elapsed":149225,"subject_id":"90221","group":"Group2","full_date":"2025-11-10T00:33:26.416Z","date":"2025-11-10","time":"00:33:26"},{"task":"memory_phase","broad_category":"I","image_png":"I_Rhyolite_05.png","image_id":149,"category_name":"Rhyolite","category":10,"distinct_rating":3.02,"distinct_type":"Bottom","rt":null,"stimulus":"Stimuli_Rocks480/I_Rhyolite_05.png","response":null,"trial_type":"image-keyboard-response","trial_index":34,"plugin_version":"2.1.0","time_elapsed":151747,"subject_id":"90221","group":"Group2","full_date":"2025-11-10T00:33:26.416Z","date":"2025-11-10","time":"00:33:26"},{"rt":null,"stimulus":"<p style=\"font-size: 50px; margin: 0; text-align: center;\">+</p>","response":null,"trial_type":"html-keyboard-response","trial_index":35,"plugin_version":"2.1.0","time_elapsed":152750,"subject_id":"90221","group":"Group2","full_date":"2025-11-10T00:33:26.416Z","date":"2025-11-10","time":"00:33:26"},{"task":"memory_phase","broad_category":"M","image_png":"M_Marble_02.png","image_id":226,"category_name":"Marble","category":15,"distinct_rating":3.2,"distinct_type":"Bottom","rt":null,"stimulus":"Stimuli_Rocks480/M_Marble_02.png","response":null,"trial_type":"image-keyboard-response","trial_index":36,"plugin_version":"2.1.0","time_elapsed":155267,"subject_id":"90221","group":"Group2","full_date":"2025-11-10T00:33:26.416Z","date":"2025-11-10","time":"00:33:26"},{"rt":null,"stimulus":"<p style=\"font-size: 50px; margin: 0; text-align: center;\">+</p>","response":null,"trial_type":"html-keyboard-response","trial_index":37,"plugin_version":"2.1.0","time_elapsed":156269,"subject_id":"90221","group":"Group2","full_date":"2025-11-10T00:33:26.416Z","date":"2025-11-10","time":"00:33:26"},{"task":"memory_phase","broad_category":"I","image_png":"I_Basalt_08.png","image_id":24,"category_name":"Basalt","category":2,"distinct_rating":2.31,"distinct_type":"Bottom","rt":null,"stimulus":"Stimuli_Rocks480/I_Basalt_08.png","response":null,"trial_type":"image-keyboard-response","trial_index":38,"plugin_version":"2.1.0","time_elapsed":158794,"subject_id":"90221","group":"Group2","full_date":"2025-11-10T00:33:26.416Z","date":"2025-11-10","time":"00:33:26"},{"rt":null,"stimulus":"<p style=\"font-size: 50px; margin: 0; text-align: center;\">+</p>","response":null,"trial_type":"html-keyboard-response","trial_index":39,"plugin_version":"2.1.0","time_elapsed":159796,"subject_id":"90221","group":"Group2","full_date":"2025-11-10T00:33:26.416Z","date":"2025-11-10","time":"00:33:26"},{"task":"memory_phase","broad_category":"M","image_png":"M_Gneiss_15.png","image_id":207,"category_name":"Gneiss","category":13,"distinct_rating":3.11,"distinct_type":"Bottom","rt":null,"stimulus":"Stimuli_Rocks480/M_Gneiss_15.png","response":null,"trial_type":"image-keyboard-response","trial_index":40,"plugin_version":"2.1.0","time_elapsed":162309,"subject_id":"90221","group":"Group2","full_date":"2025-11-10T00:33:26.416Z","date":"2025-11-10","time":"00:33:26"},{"rt":null,"stimulus":"<p style=\"font-size: 50px; margin: 0; text-align: center;\">+</p>","response":null,"trial_type":"html-keyboard-response","trial_index":41,"plugin_version":"2.1.0","time_elapsed":163312,"subject_id":"90221","group":"Group2","full_date":"2025-11-10T00:33:26.416Z","date":"2025-11-10","time":"00:33:26"},{"task":"memory_phase","broad_category":"M","image_png":"M_Quartzite_07.png","image_id":279,"category_name":"Quartzite","category":18,"distinct_rating":1.97,"distinct_type":"Bottom","rt":null,"stimulus":"Stimuli_Rocks480/M_Quartzite_07.png","response":null,"trial_type":"image-keyboard-response","trial_index":42,"plugin_version":"2.1.0","time_elapsed":165831,"subject_id":"90221","group":"Group2","full_date":"2025-11-10T00:33:26.416Z","date":"2025-11-10","time":"00:33:26"},{"rt":null,"stimulus":"<p style=\"font-size: 50px; margin: 0; text-align: center;\">+</p>","response":null,"trial_type":"html-keyboard-response","trial_index":43,"plugin_version":"2.1.0","time_elapsed":166833,"subject_id":"90221","group":"Group2","full_date":"2025-11-10T00:33:26.416Z","date":"2025-11-10","time":"00:33:26"},{"task":"memory_phase","broad_category":"S","image_png":"S_Sandstone_04.png","image_id":452,"category_name":"Sandstone","category":29,"distinct_rating":1.8,"distinct_type":"Bottom","rt":null,"stimulus":"Stimuli_Rocks480/S_Sandstone_04.png","response":null,"trial_type":"image-keyboard-response","trial_index":44,"plugin_version":"2.1.0","time_elapsed":169352,"subject_id":"90221","group":"Group2","full_date":"2025-11-10T00:33:26.416Z","date":"2025-11-10","time":"00:33:26"},{"rt":null,"stimulus":"<p style=\"font-size: 50px; margin: 0; text-align: center;\">+</p>","response":null,"trial_type":"html-keyboard-response","trial_index":45,"plugin_version":"2.1.0","time_elapsed":170354,"subject_id":"90221","group":"Group2","full_date":"2025-11-10T00:33:26.416Z","date":"2025-11-10","time":"00:33:26"},{"task":"memory_phase","broad_category":"M","image_png":"M_Phyllite_13.png","image_id":269,"category_name":"Phyllite","category":17,"distinct_rating":2.8,"distinct_type":"Bottom","rt":null,"stimulus":"Stimuli_Rocks480/M_Phyllite_13.png","response":null,"trial_type":"image-keyboard-response","trial_index":46,"plugin_version":"2.1.0","time_elapsed":172871,"subject_id":"90221","group":"Group2","full_date":"2025-11-10T00:33:26.416Z","date":"2025-11-10","time":"00:33:26"},{"rt":null,"stimulus":"<p style=\"font-size: 50px; margin: 0; text-align: center;\">+</p>","response":null,"trial_type":"html-keyboard-response","trial_index":47,"plugin_version":"2.1.0","time_elapsed":173874,"subject_id":"90221","group":"Group2","full_date":"2025-11-10T00:33:26.416Z","date":"2025-11-10","time":"00:33:26"},{"task":"memory_phase","broad_category":"I","image_png":"I_Basalt_13.png","image_id":29,"category_name":"Basalt","category":2,"distinct_rating":2.68,"distinct_type":"Bottom","rt":null,"stimulus":"Stimuli_Rocks480/I_Basalt_13.png","response":null,"trial_type":"image-keyboard-response","trial_index":48,"plugin_version":"2.1.0","time_elapsed":176391,"subject_id":"90221","group":"Group2","full_date":"2025-11-10T00:33:26.416Z","date":"2025-11-10","time":"00:33:26"},{"rt":null,"stimulus":"<p style=\"font-size: 50px; margin: 0; text-align: center;\">+</p>","response":null,"trial_type":"html-keyboard-response","trial_index":49,"plugin_version":"2.1.0","time_elapsed":177393,"subject_id":"90221","group":"Group2","full_date":"2025-11-10T00:33:26.416Z","date":"2025-11-10","time":"00:33:26"},{"task":"memory_phase","broad_category":"S","image_png":"S_Dolomite_16.png","image_id":400,"category_name":"Dolomite","category":25,"distinct_rating":1.71,"distinct_type":"Bottom","rt":null,"stimulus":"Stimuli_Rocks480/S_Dolomite_16.png","response":null,"trial_type":"image-keyboard-response","trial_index":50,"plugin_version":"2.1.0","time_elapsed":179907,"subject_id":"90221","group":"Group2","full_date":"2025-11-10T00:33:26.416Z","date":"2025-11-10","time":"00:33:26"},{"rt":null,"stimulus":"<p style=\"font-size: 50px; margin: 0; text-align: center;\">+</p>","response":null,"trial_type":"html-keyboard-response","trial_index":51,"plugin_version":"2.1.0","time_elapsed":180909,"subject_id":"90221","group":"Group2","full_date":"2025-11-10T00:33:26.416Z","date":"2025-11-10","time":"00:33:26"},{"task":"memory_phase","broad_category":"M","image_png":"M_Gneiss_14.png","image_id":206,"category_name":"Gneiss","category":13,"distinct_rating":3.41,"distinct_type":"Bottom","rt":null,"stimulus":"Stimuli_Rocks480/M_Gneiss_14.png","response":null,"trial_type":"image-keyboard-response","trial_index":52,"plugin_version":"2.1.0","time_elapsed":183428,"subject_id":"90221","group":"Group2","full_date":"2025-11-10T00:33:26.416Z","date":"2025-11-10","time":"00:33:26"},{"rt":null,"stimulus":"<p style=\"font-size: 50px; margin: 0; text-align: center;\">+</p>","response":null,"trial_type":"html-keyboard-response","trial_index":53,"plugin_version":"2.1.0","time_elapsed":184430,"subject_id":"90221","group":"Group2","full_date":"2025-11-10T00:33:26.416Z","date":"2025-11-10","time":"00:33:26"},{"task":"memory_phase","broad_category":"S","image_png":"S_Chert_13.png","image_id":365,"category_name":"Chert","category":23,"distinct_rating":6.57,"distinct_type":"Top","rt":null,"stimulus":"Stimuli_Rocks480/S_Chert_13.png","response":null,"trial_type":"image-keyboard-response","trial_index":54,"plugin_version":"2.1.0","time_elapsed":186940,"subject_id":"90221","group":"Group2","full_date":"2025-11-10T00:33:26.416Z","date":"2025-11-10","time":"00:33:26"},{"rt":1458,"stimulus":"<p style=\"font-size: 35px;\">Press SPACE to continue study phase</p>","response":" ","trial_type":"html-keyboard-response","trial_index":55,"plugin_version":"2.1.0","time_elapsed":188401,"subject_id":"90221","group":"Group2","full_date":"2025-11-10T00:33:26.416Z","date":"2025-11-10","time":"00:33:26"},{"rt":null,"stimulus":"<p style=\"font-size: 50px; margin: 0; text-align: center;\">+</p>","response":null,"trial_type":"html-keyboard-response","trial_index":56,"plugin_version":"2.1.0","time_elapsed":189403,"subject_id":"90221","group":"Group2","full_date":"2025-11-10T00:33:26.416Z","date":"2025-11-10","time":"00:33:26"},{"task":"memory_phase","broad_category":"I","image_png":"I_Gabbro_02.png","image_id":50,"category_name":"Gabbro","category":4,"distinct_rating":2.73,"distinct_type":"Bottom","rt":null,"stimulus":"Stimuli_Rocks480/I_Gabbro_02.png","response":null,"trial_type":"image-keyboard-response","trial_index":57,"plugin_version":"2.1.0","time_elapsed":191920,"subject_id":"90221","group":"Group2","full_date":"2025-11-10T00:33:26.416Z","date":"2025-11-10","time":"00:33:26"},{"rt":null,"stimulus":"<p style=\"font-size: 50px; margin: 0; text-align: center;\">+</p>","response":null,"trial_type":"html-keyboard-response","trial_index":58,"plugin_version":"2.1.0","time_elapsed":192922,"subject_id":"90221","group":"Group2","full_date":"2025-11-10T00:33:26.416Z","date":"2025-11-10","time":"00:33:26"},{"task":"memory_phase","broad_category":"I","image_png":"I_Andesite_09.png","image_id":9,"category_name":"Andesite","category":1,"distinct_rating":2.49,"distinct_type":"Bottom","rt":null,"stimulus":"Stimuli_Rocks480/I_Andesite_09.png","response":null,"trial_type":"image-keyboard-response","trial_index":59,"plugin_version":"2.1.0","time_elapsed":195437,"subject_id":"90221","group":"Group2","full_date":"2025-11-10T00:33:26.416Z","date":"2025-11-10","time":"00:33:26"},{"rt":null,"stimulus":"<p style=\"font-size: 50px; margin: 0; text-align: center;\">+</p>","response":null,"trial_type":"html-keyboard-response","trial_index":60,"plugin_version":"2.1.0","time_elapsed":196440,"subject_id":"90221","group":"Group2","full_date":"2025-11-10T00:33:26.416Z","date":"2025-11-10","time":"00:33:26"},{"task":"memory_phase","broad_category":"I","image_png":"I_Andesite_03.png","image_id":3,"category_name":"Andesite","category":1,"distinct_rating":3.17,"distinct_type":"Bottom","rt":null,"stimulus":"Stimuli_Rocks480/I_Andesite_03.png","response":null,"trial_type":"image-keyboard-response","trial_index":61,"plugin_version":"2.1.0","time_elapsed":198951,"subject_id":"90221","group":"Group2","full_date":"2025-11-10T00:33:26.416Z","date":"2025-11-10","time":"00:33:26"},{"rt":null,"stimulus":"<p style=\"font-size: 50px; margin: 0; text-align: center;\">+</p>","response":null,"trial_type":"html-keyboard-response","trial_index":62,"plugin_version":"2.1.0","time_elapsed":199953,"subject_id":"90221","group":"Group2","full_date":"2025-11-10T00:33:26.416Z","date":"2025-11-10","time":"00:33:26"},{"task":"memory_phase","broad_category":"S","image_png":"S_Sandstone_11.png","image_id":459,"category_name":"Sandstone","category":29,"distinct_rating":1.82,"distinct_type":"Bottom","rt":null,"stimulus":"Stimuli_Rocks480/S_Sandstone_11.png","response":null,"trial_type":"image-keyboard-response","trial_index":63,"plugin_version":"2.1.0","time_elapsed":202473,"subject_id":"90221","group":"Group2","full_date":"2025-11-10T00:33:26.416Z","date":"2025-11-10","time":"00:33:26"},{"rt":null,"stimulus":"<p style=\"font-size: 50px; margin: 0; text-align: center;\">+</p>","response":null,"trial_type":"html-keyboard-response","trial_index":64,"plugin_version":"2.1.0","time_elapsed":203476,"subject_id":"90221","group":"Group2","full_date":"2025-11-10T00:33:26.416Z","date":"2025-11-10","time":"00:33:26"},{"task":"memory_phase","broad_category":"S","image_png":"S_Rock Salt_13.png","image_id":445,"category_name":"Rock Salt","category":28,"distinct_rating":7.58,"distinct_type":"Top","rt":null,"stimulus":"Stimuli_Rocks480/S_Rock Salt_13.png","response":null,"trial_type":"image-keyboard-response","trial_index":65,"plugin_version":"2.1.0","time_elapsed":205993,"subject_id":"90221","group":"Group2","full_date":"2025-11-10T00:33:26.416Z","date":"2025-11-10","time":"00:33:26"},{"rt":null,"stimulus":"<p style=\"font-size: 50px; margin: 0; text-align: center;\">+</p>","response":null,"trial_type":"html-keyboard-response","trial_index":66,"plugin_version":"2.1.0","time_elapsed":206995,"subject_id":"90221","group":"Group2","full_date":"2025-11-10T00:33:26.416Z","date":"2025-11-10","time":"00:33:26"},{"task":"memory_phase","broad_category":"I","image_png":"I_Pegmatite_11.png","image_id":107,"category_name":"Pegmatite","category":7,"distinct_rating":7.11,"distinct_type":"Top","rt":null,"stimulus":"Stimuli_Rocks480/I_Pegmatite_11.png","response":null,"trial_type":"image-keyboard-response","trial_index":67,"plugin_version":"2.1.0","time_elapsed":209516,"subject_id":"90221","group":"Group2","full_date":"2025-11-10T00:33:26.416Z","date":"2025-11-10","time":"00:33:26"},{"rt":null,"stimulus":"<p style=\"font-size: 50px; margin: 0; text-align: center;\">+</p>","response":null,"trial_type":"html-keyboard-response","trial_index":68,"plugin_version":"2.1.0","time_elapsed":210518,"subject_id":"90221","group":"Group2","full_date":"2025-11-10T00:33:26.416Z","date":"2025-11-10","time":"00:33:26"},{"task":"memory_phase","broad_category":"I","image_png":"I_Obsidian_06.png","image_id":86,"category_name":"Obsidian","category":6,"distinct_rating":8.01,"distinct_type":"Top","rt":null,"stimulus":"Stimuli_Rocks480/I_Obsidian_06.png","response":null,"trial_type":"image-keyboard-response","trial_index":69,"plugin_version":"2.1.0","time_elapsed":213038,"subject_id":"90221","group":"Group2","full_date":"2025-11-10T00:33:26.416Z","date":"2025-11-10","time":"00:33:26"},{"rt":null,"stimulus":"<p style=\"font-size: 50px; margin: 0; text-align: center;\">+</p>","response":null,"trial_type":"html-keyboard-response","trial_index":70,"plugin_version":"2.1.0","time_elapsed":214040,"subject_id":"90221","group":"Group2","full_date":"2025-11-10T00:33:26.416Z","date":"2025-11-10","time":"00:33:26"},{"task":"memory_phase","broad_category":"I","image_png":"I_Andesite_04.png","image_id":4,"category_name":"Andesite","category":1,"distinct_rating":3.18,"distinct_type":"Bottom","rt":null,"stimulus":"Stimuli_Rocks480/I_Andesite_04.png","response":null,"trial_type":"image-keyboard-response","trial_index":71,"plugin_version":"2.1.0","time_elapsed":216557,"subject_id":"90221","group":"Group2","full_date":"2025-11-10T00:33:26.416Z","date":"2025-11-10","time":"00:33:26"},{"rt":null,"stimulus":"<p style=\"font-size: 50px; margin: 0; text-align: center;\">+</p>","response":null,"trial_type":"html-keyboard-response","trial_index":72,"plugin_version":"2.1.0","time_elapsed":217560,"subject_id":"90221","group":"Group2","full_date":"2025-11-10T00:33:26.416Z","date":"2025-11-10","time":"00:33:26"},{"task":"memory_phase","broad_category":"M","image_png":"M_Slate_14.png","image_id":318,"category_name":"Slate","category":20,"distinct_rating":2.58,"distinct_type":"Bottom","rt":null,"stimulus":"Stimuli_Rocks480/M_Slate_14.png","response":null,"trial_type":"image-keyboard-response","trial_index":73,"plugin_version":"2.1.0","time_elapsed":220071,"subject_id":"90221","group":"Group2","full_date":"2025-11-10T00:33:26.416Z","date":"2025-11-10","time":"00:33:26"},{"rt":null,"stimulus":"<p style=\"font-size: 50px; margin: 0; text-align: center;\">+</p>","response":null,"trial_type":"html-keyboard-response","trial_index":74,"plugin_version":"2.1.0","time_elapsed":221074,"subject_id":"90221","group":"Group2","full_date":"2025-11-10T00:33:26.416Z","date":"2025-11-10","time":"00:33:26"},{"task":"memory_phase","broad_category":"I","image_png":"I_Gabbro_14.png","image_id":62,"category_name":"Gabbro","category":4,"distinct_rating":2.95,"distinct_type":"Bottom","rt":null,"stimulus":"Stimuli_Rocks480/I_Gabbro_14.png","response":null,"trial_type":"image-keyboard-response","trial_index":75,"plugin_version":"2.1.0","time_elapsed":223592,"subject_id":"90221","group":"Group2","full_date":"2025-11-10T00:33:26.416Z","date":"2025-11-10","time":"00:33:26"},{"rt":null,"stimulus":"<p style=\"font-size: 50px; margin: 0; text-align: center;\">+</p>","response":null,"trial_type":"html-keyboard-response","trial_index":76,"plugin_version":"2.1.0","time_elapsed":224594,"subject_id":"90221","group":"Group2","full_date":"2025-11-10T00:33:26.416Z","date":"2025-11-10","time":"00:33:26"},{"task":"memory_phase","broad_category":"M","image_png":"M_Quartzite_15.png","image_id":287,"category_name":"Quartzite","category":18,"distinct_rating":2.19,"distinct_type":"Bottom","rt":null,"stimulus":"Stimuli_Rocks480/M_Quartzite_15.png","response":null,"trial_type":"image-keyboard-response","trial_index":77,"plugin_version":"2.1.0","time_elapsed":227111,"subject_id":"90221","group":"Group2","full_date":"2025-11-10T00:33:26.416Z","date":"2025-11-10","time":"00:33:26"},{"rt":null,"stimulus":"<p style=\"font-size: 50px; margin: 0; text-align: center;\">+</p>","response":null,"trial_type":"html-keyboard-response","trial_index":78,"plugin_version":"2.1.0","time_elapsed":228113,"subject_id":"90221","group":"Group2","full_date":"2025-11-10T00:33:26.416Z","date":"2025-11-10","time":"00:33:26"},{"task":"memory_phase","broad_category":"M","image_png":"M_Slate_10.png","image_id":314,"category_name":"Slate","category":20,"distinct_rating":1.94,"distinct_type":"Bottom","rt":null,"stimulus":"Stimuli_Rocks480/M_Slate_10.png","response":null,"trial_type":"image-keyboard-response","trial_index":79,"plugin_version":"2.1.0","time_elapsed":230625,"subject_id":"90221","group":"Group2","full_date":"2025-11-10T00:33:26.416Z","date":"2025-11-10","time":"00:33:26"},{"rt":null,"stimulus":"<p style=\"font-size: 50px; margin: 0; text-align: center;\">+</p>","response":null,"trial_type":"html-keyboard-response","trial_index":80,"plugin_version":"2.1.0","time_elapsed":231628,"subject_id":"90221","group":"Group2","full_date":"2025-11-10T00:33:26.416Z","date":"2025-11-10","time":"00:33:26"},{"task":"memory_phase","broad_category":"S","image_png":"S_Dolomite_01.png","image_id":385,"category_name":"Dolomite","category":25,"distinct_rating":1.43,"distinct_type":"Bottom","rt":null,"stimulus":"Stimuli_Rocks480/S_Dolomite_01.png","response":null,"trial_type":"image-keyboard-response","trial_index":81,"plugin_version":"2.1.0","time_elapsed":234147,"subject_id":"90221","group":"Group2","full_date":"2025-11-10T00:33:26.416Z","date":"2025-11-10","time":"00:33:26"},{"rt":null,"stimulus":"<p style=\"font-size: 50px; margin: 0; text-align: center;\">+</p>","response":null,"trial_type":"html-keyboard-response","trial_index":82,"plugin_version":"2.1.0","time_elapsed":235149,"subject_id":"90221","group":"Group2","full_date":"2025-11-10T00:33:26.416Z","date":"2025-11-10","time":"00:33:26"},{"task":"memory_phase","broad_category":"I","image_png":"I_Peridotite_13.png","image_id":125,"category_name":"Peridotite","category":8,"distinct_rating":7.28,"distinct_type":"Top","rt":null,"stimulus":"Stimuli_Rocks480/I_Peridotite_13.png","response":null,"trial_type":"image-keyboard-response","trial_index":83,"plugin_version":"2.1.0","time_elapsed":237669,"subject_id":"90221","group":"Group2","full_date":"2025-11-10T00:33:26.416Z","date":"2025-11-10","time":"00:33:26"},{"rt":null,"stimulus":"<p style=\"font-size: 50px; margin: 0; text-align: center;\">+</p>","response":null,"trial_type":"html-keyboard-response","trial_index":84,"plugin_version":"2.1.0","time_elapsed":238672,"subject_id":"90221","group":"Group2","full_date":"2025-11-10T00:33:26.416Z","date":"2025-11-10","time":"00:33:26"},{"task":"memory_phase","broad_category":"M","image_png":"M_Quartzite_12.png","image_id":284,"category_name":"Quartzite","category":18,"distinct_rating":1.92,"distinct_type":"Bottom","rt":null,"stimulus":"Stimuli_Rocks480/M_Quartzite_12.png","response":null,"trial_type":"image-keyboard-response","trial_index":85,"plugin_version":"2.1.0","time_elapsed":241189,"subject_id":"90221","group":"Group2","full_date":"2025-11-10T00:33:26.416Z","date":"2025-11-10","time":"00:33:26"},{"rt":null,"stimulus":"<p style=\"font-size: 50px; margin: 0; text-align: center;\">+</p>","response":null,"trial_type":"html-keyboard-response","trial_index":86,"plugin_version":"2.1.0","time_elapsed":242192,"subject_id":"90221","group":"Group2","full_date":"2025-11-10T00:33:26.416Z","date":"2025-11-10","time":"00:33:26"},{"task":"memory_phase","broad_category":"I","image_png":"I_Basalt_10.png","image_id":26,"category_name":"Basalt","category":2,"distinct_rating":2.76,"distinct_type":"Bottom","rt":null,"stimulus":"Stimuli_Rocks480/I_Basalt_10.png","response":null,"trial_type":"image-keyboard-response","trial_index":87,"plugin_version":"2.1.0","time_elapsed":244708,"subject_id":"90221","group":"Group2","full_date":"2025-11-10T00:33:26.416Z","date":"2025-11-10","time":"00:33:26"},{"rt":null,"stimulus":"<p style=\"font-size: 50px; margin: 0; text-align: center;\">+</p>","response":null,"trial_type":"html-keyboard-response","trial_index":88,"plugin_version":"2.1.0","time_elapsed":245711,"subject_id":"90221","group":"Group2","full_date":"2025-11-10T00:33:26.416Z","date":"2025-11-10","time":"00:33:26"},{"task":"memory_phase","broad_category":"M","image_png":"M_Marble_03.png","image_id":227,"category_name":"Marble","category":15,"distinct_rating":2.67,"distinct_type":"Bottom","rt":null,"stimulus":"Stimuli_Rocks480/M_Marble_03.png","response":null,"trial_type":"image-keyboard-response","trial_index":89,"plugin_version":"2.1.0","time_elapsed":248226,"subject_id":"90221","group":"Group2","full_date":"2025-11-10T00:33:26.416Z","date":"2025-11-10","time":"00:33:26"},{"rt":null,"stimulus":"<p style=\"font-size: 50px; margin: 0; text-align: center;\">+</p>","response":null,"trial_type":"html-keyboard-response","trial_index":90,"plugin_version":"2.1.0","time_elapsed":249228,"subject_id":"90221","group":"Group2","full_date":"2025-11-10T00:33:26.416Z","date":"2025-11-10","time":"00:33:26"},{"task":"memory_phase","broad_category":"S","image_png":"S_Shale_02.png","image_id":466,"category_name":"Shale","category":30,"distinct_rating":2.9,"distinct_type":"Bottom","rt":null,"stimulus":"Stimuli_Rocks480/S_Shale_02.png","response":null,"trial_type":"image-keyboard-response","trial_index":91,"plugin_version":"2.1.0","time_elapsed":251742,"subject_id":"90221","group":"Group2","full_date":"2025-11-10T00:33:26.416Z","date":"2025-11-10","time":"00:33:26"},{"rt":null,"stimulus":"<p style=\"font-size: 50px; margin: 0; text-align: center;\">+</p>","response":null,"trial_type":"html-keyboard-response","trial_index":92,"plugin_version":"2.1.0","time_elapsed":252745,"subject_id":"90221","group":"Group2","full_date":"2025-11-10T00:33:26.416Z","date":"2025-11-10","time":"00:33:26"},{"task":"memory_phase","broad_category":"I","image_png":"I_Pegmatite_03.png","image_id":99,"category_name":"Pegmatite","category":7,"distinct_rating":7.24,"distinct_type":"Top","rt":null,"stimulus":"Stimuli_Rocks480/I_Pegmatite_03.png","response":null,"trial_type":"image-keyboard-response","trial_index":93,"plugin_version":"2.1.0","time_elapsed":255262,"subject_id":"90221","group":"Group2","full_date":"2025-11-10T00:33:26.416Z","date":"2025-11-10","time":"00:33:26"},{"rt":null,"stimulus":"<p style=\"font-size: 50px; margin: 0; text-align: center;\">+</p>","response":null,"trial_type":"html-keyboard-response","trial_index":94,"plugin_version":"2.1.0","time_elapsed":256264,"subject_id":"90221","group":"Group2","full_date":"2025-11-10T00:33:26.416Z","date":"2025-11-10","time":"00:33:26"},{"task":"memory_phase","broad_category":"S","image_png":"S_Dolomite_07.png","image_id":391,"category_name":"Dolomite","category":25,"distinct_rating":1.73,"distinct_type":"Bottom","rt":null,"stimulus":"Stimuli_Rocks480/S_Dolomite_07.png","response":null,"trial_type":"image-keyboard-response","trial_index":95,"plugin_version":"2.1.0","time_elapsed":258781,"subject_id":"90221","group":"Group2","full_date":"2025-11-10T00:33:26.416Z","date":"2025-11-10","time":"00:33:26"},{"rt":null,"stimulus":"<p style=\"font-size: 50px; margin: 0; text-align: center;\">+</p>","response":null,"trial_type":"html-keyboard-response","trial_index":96,"plugin_version":"2.1.0","time_elapsed":259783,"subject_id":"90221","group":"Group2","full_date":"2025-11-10T00:33:26.416Z","date":"2025-11-10","time":"00:33:26"},{"task":"memory_phase","broad_category":"M","image_png":"M_Phyllite_05.png","image_id":261,"category_name":"Phyllite","category":17,"distinct_rating":2.14,"distinct_type":"Bottom","rt":null,"stimulus":"Stimuli_Rocks480/M_Phyllite_05.png","response":null,"trial_type":"image-keyboard-response","trial_index":97,"plugin_version":"2.1.0","time_elapsed":262299,"subject_id":"90221","group":"Group2","full_date":"2025-11-10T00:33:26.416Z","date":"2025-11-10","time":"00:33:26"},{"rt":null,"stimulus":"<p style=\"font-size: 50px; margin: 0; text-align: center;\">+</p>","response":null,"trial_type":"html-keyboard-response","trial_index":98,"plugin_version":"2.1.0","time_elapsed":263301,"subject_id":"90221","group":"Group2","full_date":"2025-11-10T00:33:26.416Z","date":"2025-11-10","time":"00:33:26"},{"task":"memory_phase","broad_category":"I","image_png":"I_Pumice_14.png","image_id":142,"category_name":"Pumice","category":9,"distinct_rating":3.22,"distinct_type":"Bottom","rt":null,"stimulus":"Stimuli_Rocks480/I_Pumice_14.png","response":null,"trial_type":"image-keyboard-response","trial_index":99,"plugin_version":"2.1.0","time_elapsed":265816,"subject_id":"90221","group":"Group2","full_date":"2025-11-10T00:33:26.416Z","date":"2025-11-10","time":"00:33:26"},{"rt":null,"stimulus":"<p style=\"font-size: 50px; margin: 0; text-align: center;\">+</p>","response":null,"trial_type":"html-keyboard-response","trial_index":100,"plugin_version":"2.1.0","time_elapsed":266819,"subject_id":"90221","group":"Group2","full_date":"2025-11-10T00:33:26.416Z","date":"2025-11-10","time":"00:33:26"},{"task":"memory_phase","broad_category":"M","image_png":"M_Slate_04.png","image_id":308,"category_name":"Slate","category":20,"distinct_rating":2.2,"distinct_type":"Bottom","rt":null,"stimulus":"Stimuli_Rocks480/M_Slate_04.png","response":null,"trial_type":"image-keyboard-response","trial_index":101,"plugin_version":"2.1.0","time_elapsed":269331,"subject_id":"90221","group":"Group2","full_date":"2025-11-10T00:33:26.416Z","date":"2025-11-10","time":"00:33:26"},{"rt":null,"stimulus":"<p style=\"font-size: 50px; margin: 0; text-align: center;\">+</p>","response":null,"trial_type":"html-keyboard-response","trial_index":102,"plugin_version":"2.1.0","time_elapsed":270333,"subject_id":"90221","group":"Group2","full_date":"2025-11-10T00:33:26.416Z","date":"2025-11-10","time":"00:33:26"},{"task":"memory_phase","broad_category":"S","image_png":"S_Shale_07.png","image_id":471,"category_name":"Shale","category":30,"distinct_rating":2.73,"distinct_type":"Bottom","rt":null,"stimulus":"Stimuli_Rocks480/S_Shale_07.png","response":null,"trial_type":"image-keyboard-response","trial_index":103,"plugin_version":"2.1.0","time_elapsed":272850,"subject_id":"90221","group":"Group2","full_date":"2025-11-10T00:33:26.416Z","date":"2025-11-10","time":"00:33:26"},{"rt":null,"stimulus":"<p style=\"font-size: 50px; margin: 0; text-align: center;\">+</p>","response":null,"trial_type":"html-keyboard-response","trial_index":104,"plugin_version":"2.1.0","time_elapsed":273852,"subject_id":"90221","group":"Group2","full_date":"2025-11-10T00:33:26.416Z","date":"2025-11-10","time":"00:33:26"},{"task":"memory_phase","broad_category":"S","image_png":"S_Rock Salt_15.png","image_id":447,"category_name":"Rock Salt","category":28,"distinct_rating":7.79,"distinct_type":"Top","rt":null,"stimulus":"Stimuli_Rocks480/S_Rock Salt_15.png","response":null,"trial_type":"image-keyboard-response","trial_index":105,"plugin_version":"2.1.0","time_elapsed":276369,"subject_id":"90221","group":"Group2","full_date":"2025-11-10T00:33:26.416Z","date":"2025-11-10","time":"00:33:26"},{"rt":25995,"stimulus":"<div style=\"max-width: 760px; margin: auto; font-size: 20px; line-height: 1.5;\">\n      <h1 style=\"text-align:center; font-size: 30px;\">Instructions for the Test Phase</h1>\n      <p>\n        The study phase is now complete.\n      </p>\n      <p>\n        In the test phase, you will again see a series of rock images. \n        Some will be ones you saw before - during the study phase, while others will be new.  \n        <b>Your task</b> is to decide whether you have seen each image before by pressing the corresponding key on your keyboard:<br><br>\n          <b>A</b> - NO (you did not see this image before)<br>\n          <b>L</b> - YES (you saw this image before)<br><br>\n        The test will proceed at your own pace. You will receive feedback after each response.  \n        Please try to respond <b>as accurately as possible</b>.\n      </p>\n      <p>\n        <b>Reminder:</b> If your computer has multiple language settings (e.g., English and another language),\n        please ensure it is set to English during the test phase.\n      </p>\n      <p>\n        You can track your progress using the <b>completion bar</b> at the top of the screen.  \n        Note that it has been refreshed to reflect your progress during this final phase.\n      </p>\n      <p>\n        Press the button below when you are ready to continue.\n      </p>\n    </div>","response":0,"trial_type":"html-button-response","trial_index":106,"plugin_version":"2.1.0","time_elapsed":302367,"subject_id":"90221","group":"Group2","full_date":"2025-11-10T00:33:26.416Z","date":"2025-11-10","time":"00:33:26"},{"correct_response":"l","task":"test_phase","broad_category":"S","image_png":"S_Shale_02.png","image_id":466,"category_name":"Shale","category":30,"distinct_rating":2.9,"distinct_type":"Bottom","item_type":"Target","rt":3726,"stimulus":"Stimuli_Rocks480/S_Shale_02.png","response":"a","trial_type":"image-keyboard-response","trial_index":107,"plugin_version":"2.1.0","time_elapsed":306097,"subject_id":"90221","group":"Group2","full_date":"2025-11-10T00:33:26.416Z","date":"2025-11-10","time":"00:33:26","cor_ans":false},{"trial_type":"html-keyboard-response","rt":null,"stimulus":"<p style=\"color: red; font-size: 50px; font-weight: bold;\">Incorrect</p>","response":null,"trial_index":108,"plugin_version":"2.1.0","time_elapsed":306600,"subject_id":"90221","group":"Group2","full_date":"2025-11-10T00:33:26.416Z","date":"2025-11-10","time":"00:33:26"},{"correct_response":"a","task":"test_phase","broad_category":"M","image_png":"M_Marble_16.png","image_id":240,"category_name":"Marble","category":15,"distinct_rating":2.57,"distinct_type":"Bottom","item_type":"Foil","rt":1101,"stimulus":"Stimuli_Rocks480/M_Marble_16.png","response":"l","trial_type":"image-keyboard-response","trial_index":109,"plugin_version":"2.1.0","time_elapsed":307716,"subject_id":"90221","group":"Group2","full_date":"2025-11-10T00:33:26.416Z","date":"2025-11-10","time":"00:33:26","cor_ans":false},{"trial_type":"html-keyboard-response","rt":null,"stimulus":"<p style=\"color: red; font-size: 50px; font-weight: bold;\">Incorrect</p>","response":null,"trial_index":110,"plugin_version":"2.1.0","time_elapsed":308218,"subject_id":"90221","group":"Group2","full_date":"2025-11-10T00:33:26.416Z","date":"2025-11-10","time":"00:33:26"},{"correct_response":"l","task":"test_phase","broad_category":"S","image_png":"S_Dolomite_07.png","image_id":391,"category_name":"Dolomite","category":25,"distinct_rating":1.73,"distinct_type":"Bottom","item_type":"Target","rt":1362,"stimulus":"Stimuli_Rocks480/S_Dolomite_07.png","response":"l","trial_type":"image-keyboard-response","trial_index":111,"plugin_version":"2.1.0","time_elapsed":309582,"subject_id":"90221","group":"Group2","full_date":"2025-11-10T00:33:26.416Z","date":"2025-11-10","time":"00:33:26","cor_ans":true},{"trial_type":"html-keyboard-response","rt":null,"stimulus":"<p style=\"color: green; font-size: 50px; font-weight: bold;\">Correct</p>","response":null,"trial_index":112,"plugin_version":"2.1.0","time_elapsed":310084,"subject_id":"90221","group":"Group2","full_date":"2025-11-10T00:33:26.416Z","date":"2025-11-10","time":"00:33:26"},{"correct_response":"l","task":"test_phase","broad_category":"I","image_png":"I_Diorite_15.png","image_id":47,"category_name":"Diorite","category":3,"distinct_rating":3.05,"distinct_type":"Bottom","item_type":"Target","rt":1364,"stimulus":"Stimuli_Rocks480/I_Diorite_15.png","response":"a","trial_type":"image-keyboard-response","trial_index":113,"plugin_version":"2.1.0","time_elapsed":311460,"subject_id":"90221","group":"Group2","full_date":"2025-11-10T00:33:26.416Z","date":"2025-11-10","time":"00:33:26","cor_ans":false},{"trial_type":"html-keyboard-response","rt":null,"stimulus":"<p style=\"color: red; font-size: 50px; font-weight: bold;\">Incorrect</p>","response":null,"trial_index":114,"plugin_version":"2.1.0","time_elapsed":311962,"subject_id":"90221","group":"Group2","full_date":"2025-11-10T00:33:26.416Z","date":"2025-11-10","time":"00:33:26"},{"correct_response":"l","task":"test_phase","broad_category":"I","image_png":"I_Gabbro_02.png","image_id":50,"category_name":"Gabbro","category":4,"distinct_rating":2.73,"distinct_type":"Bottom","item_type":"Target","rt":1598,"stimulus":"Stimuli_Rocks480/I_Gabbro_02.png","response":"a","trial_type":"image-keyboard-response","trial_index":115,"plugin_version":"2.1.0","time_elapsed":313573,"subject_id":"90221","group":"Group2","full_date":"2025-11-10T00:33:26.416Z","date":"2025-11-10","time":"00:33:26","cor_ans":false},{"trial_type":"html-keyboard-response","rt":null,"stimulus":"<p style=\"color: red; font-size: 50px; font-weight: bold;\">Incorrect</p>","response":null,"trial_index":116,"plugin_version":"2.1.0","time_elapsed":314075,"subject_id":"90221","group":"Group2","full_date":"2025-11-10T00:33:26.416Z","date":"2025-11-10","time":"00:33:26"},{"correct_response":"l","task":"test_phase","broad_category":"I","image_png":"I_Rhyolite_10.png","image_id":154,"category_name":"Rhyolite","category":10,"distinct_rating":2.88,"distinct_type":"Bottom","item_type":"Target","rt":655,"stimulus":"Stimuli_Rocks480/I_Rhyolite_10.png","response":"l","trial_type":"image-keyboard-response","trial_index":117,"plugin_version":"2.1.0","time_elapsed":314753,"subject_id":"90221","group":"Group2","full_date":"2025-11-10T00:33:26.416Z","date":"2025-11-10","time":"00:33:26","cor_ans":true},{"trial_type":"html-keyboard-response","rt":null,"stimulus":"<p style=\"color: green; font-size: 50px; font-weight: bold;\">Correct</p>","response":null,"trial_index":118,"plugin_version":"2.1.0","time_elapsed":315255,"subject_id":"90221","group":"Group2","full_date":"2025-11-10T00:33:26.416Z","date":"2025-11-10","time":"00:33:26"},{"correct_response":"a","task":"test_phase","broad_category":"S","image_png":"S_Sandstone_15.png","image_id":463,"category_name":"Sandstone","category":29,"distinct_rating":2,"distinct_type":"Bottom","item_type":"Foil","rt":793,"stimulus":"Stimuli_Rocks480/S_Sandstone_15.png","response":"l","trial_type":"image-keyboard-response","trial_index":119,"plugin_version":"2.1.0","time_elapsed":316068,"subject_id":"90221","group":"Group2","full_date":"2025-11-10T00:33:26.416Z","date":"2025-11-10","time":"00:33:26","cor_ans":false},{"trial_type":"html-keyboard-response","rt":null,"stimulus":"<p style=\"color: red; font-size: 50px; font-weight: bold;\">Incorrect</p>","response":null,"trial_index":120,"plugin_version":"2.1.0","time_elapsed":316570,"subject_id":"90221","group":"Group2","full_date":"2025-11-10T00:33:26.416Z","date":"2025-11-10","time":"00:33:26"},{"correct_response":"a","task":"test_phase","broad_category":"S","image_png":"S_Dolomite_14.png","image_id":398,"category_name":"Dolomite","category":25,"distinct_rating":1.43,"distinct_type":"Bottom","item_type":"Foil","rt":1319,"stimulus":"Stimuli_Rocks480/S_Dolomite_14.png","response":"l","trial_type":"image-keyboard-response","trial_index":121,"plugin_version":"2.1.0","time_elapsed":317903,"subject_id":"90221","group":"Group2","full_date":"2025-11-10T00:33:26.416Z","date":"2025-11-10","time":"00:33:26","cor_ans":false},{"trial_type":"html-keyboard-response","rt":null,"stimulus":"<p style=\"color: red; font-size: 50px; font-weight: bold;\">Incorrect</p>","response":null,"trial_index":122,"plugin_version":"2.1.0","time_elapsed":318404,"subject_id":"90221","group":"Group2","full_date":"2025-11-10T00:33:26.416Z","date":"2025-11-10","time":"00:33:26"},{"correct_response":"l","task":"test_phase","broad_category":"S","image_png":"S_Rock Salt_13.png","image_id":445,"category_name":"Rock Salt","category":28,"distinct_rating":7.58,"distinct_type":"Top","item_type":"Target","rt":622,"stimulus":"Stimuli_Rocks480/S_Rock Salt_13.png","response":"l","trial_type":"image-keyboard-response","trial_index":123,"plugin_version":"2.1.0","time_elapsed":319041,"subject_id":"90221","group":"Group2","full_date":"2025-11-10T00:33:26.416Z","date":"2025-11-10","time":"00:33:26","cor_ans":true},{"trial_type":"html-keyboard-response","rt":null,"stimulus":"<p style=\"color: green; font-size: 50px; font-weight: bold;\">Correct</p>","response":null,"trial_index":124,"plugin_version":"2.1.0","time_elapsed":319543,"subject_id":"90221","group":"Group2","full_date":"2025-11-10T00:33:26.416Z","date":"2025-11-10","time":"00:33:26"},{"correct_response":"a","task":"test_phase","broad_category":"I","image_png":"I_Diorite_03.png","image_id":35,"category_name":"Diorite","category":3,"distinct_rating":3.14,"distinct_type":"Bottom","item_type":"Foil","rt":822,"stimulus":"Stimuli_Rocks480/I_Diorite_03.png","response":"l","trial_type":"image-keyboard-response","trial_index":125,"plugin_version":"2.1.0","time_elapsed":320385,"subject_id":"90221","group":"Group2","full_date":"2025-11-10T00:33:26.416Z","date":"2025-11-10","time":"00:33:26","cor_ans":false},{"trial_type":"html-keyboard-response","rt":null,"stimulus":"<p style=\"color: red; font-size: 50px; font-weight: bold;\">Incorrect</p>","response":null,"trial_index":126,"plugin_version":"2.1.0","time_elapsed":320887,"subject_id":"90221","group":"Group2","full_date":"2025-11-10T00:33:26.416Z","date":"2025-11-10","time":"00:33:26"},{"correct_response":"l","task":"test_phase","broad_category":"I","image_png":"I_Pumice_13.png","image_id":141,"category_name":"Pumice","category":9,"distinct_rating":3.12,"distinct_type":"Bottom","item_type":"Target","rt":917,"stimulus":"Stimuli_Rocks480/I_Pumice_13.png","response":"l","trial_type":"image-keyboard-response","trial_index":127,"plugin_version":"2.1.0","time_elapsed":321825,"subject_id":"90221","group":"Group2","full_date":"2025-11-10T00:33:26.416Z","date":"2025-11-10","time":"00:33:26","cor_ans":true},{"trial_type":"html-keyboard-response","rt":null,"stimulus":"<p style=\"color: green; font-size: 50px; font-weight: bold;\">Correct</p>","response":null,"trial_index":128,"plugin_version":"2.1.0","time_elapsed":322327,"subject_id":"90221","group":"Group2","full_date":"2025-11-10T00:33:26.416Z","date":"2025-11-10","time":"00:33:26"},{"correct_response":"l","task":"test_phase","broad_category":"I","image_png":"I_Pumice_14.png","image_id":142,"category_name":"Pumice","category":9,"distinct_rating":3.22,"distinct_type":"Bottom","item_type":"Target","rt":696,"stimulus":"Stimuli_Rocks480/I_Pumice_14.png","response":"l","trial_type":"image-keyboard-response","trial_index":129,"plugin_version":"2.1.0","time_elapsed":323024,"subject_id":"90221","group":"Group2","full_date":"2025-11-10T00:33:26.416Z","date":"2025-11-10","time":"00:33:26","cor_ans":true},{"trial_type":"html-keyboard-response","rt":null,"stimulus":"<p style=\"color: green; font-size: 50px; font-weight: bold;\">Correct</p>","response":null,"trial_index":130,"plugin_version":"2.1.0","time_elapsed":323527,"subject_id":"90221","group":"Group2","full_date":"2025-11-10T00:33:26.416Z","date":"2025-11-10","time":"00:33:26"},{"correct_response":"a","task":"test_phase","broad_category":"I","image_png":"I_Pumice_12.png","image_id":140,"category_name":"Pumice","category":9,"distinct_rating":2.97,"distinct_type":"Bottom","item_type":"Foil","rt":680,"stimulus":"Stimuli_Rocks480/I_Pumice_12.png","response":"a","trial_type":"image-keyboard-response","trial_index":131,"plugin_version":"2.1.0","time_elapsed":324216,"subject_id":"90221","group":"Group2","full_date":"2025-11-10T00:33:26.416Z","date":"2025-11-10","time":"00:33:26","cor_ans":true},{"trial_type":"html-keyboard-response","rt":null,"stimulus":"<p style=\"color: green; font-size: 50px; font-weight: bold;\">Correct</p>","response":null,"trial_index":132,"plugin_version":"2.1.0","time_elapsed":324718,"subject_id":"90221","group":"Group2","full_date":"2025-11-10T00:33:26.416Z","date":"2025-11-10","time":"00:33:26"},{"correct_response":"l","task":"test_phase","broad_category":"I","image_png":"I_Andesite_03.png","image_id":3,"category_name":"Andesite","category":1,"distinct_rating":3.17,"distinct_type":"Bottom","item_type":"Target","rt":1733,"stimulus":"Stimuli_Rocks480/I_Andesite_03.png","response":"a","trial_type":"image-keyboard-response","trial_index":133,"plugin_version":"2.1.0","time_elapsed":326462,"subject_id":"90221","group":"Group2","full_date":"2025-11-10T00:33:26.416Z","date":"2025-11-10","time":"00:33:26","cor_ans":false},{"trial_type":"html-keyboard-response","rt":null,"stimulus":"<p style=\"color: red; font-size: 50px; font-weight: bold;\">Incorrect</p>","response":null,"trial_index":134,"plugin_version":"2.1.0","time_elapsed":326965,"subject_id":"90221","group":"Group2","full_date":"2025-11-10T00:33:26.416Z","date":"2025-11-10","time":"00:33:26"},{"correct_response":"a","task":"test_phase","broad_category":"I","image_png":"I_Rhyolite_14.png","image_id":158,"category_name":"Rhyolite","category":10,"distinct_rating":2.59,"distinct_type":"Bottom","item_type":"Foil","rt":950,"stimulus":"Stimuli_Rocks480/I_Rhyolite_14.png","response":"a","trial_type":"image-keyboard-response","trial_index":135,"plugin_version":"2.1.0","time_elapsed":327929,"subject_id":"90221","group":"Group2","full_date":"2025-11-10T00:33:26.416Z","date":"2025-11-10","time":"00:33:26","cor_ans":true},{"trial_type":"html-keyboard-response","rt":null,"stimulus":"<p style=\"color: green; font-size: 50px; font-weight: bold;\">Correct</p>","response":null,"trial_index":136,"plugin_version":"2.1.0","time_elapsed":328432,"subject_id":"90221","group":"Group2","full_date":"2025-11-10T00:33:26.416Z","date":"2025-11-10","time":"00:33:26"},{"correct_response":"l","task":"test_phase","broad_category":"S","image_png":"S_Chert_13.png","image_id":365,"category_name":"Chert","category":23,"distinct_rating":6.57,"distinct_type":"Top","item_type":"Target","rt":624,"stimulus":"Stimuli_Rocks480/S_Chert_13.png","response":"l","trial_type":"image-keyboard-response","trial_index":137,"plugin_version":"2.1.0","time_elapsed":329069,"subject_id":"90221","group":"Group2","full_date":"2025-11-10T00:33:26.416Z","date":"2025-11-10","time":"00:33:26","cor_ans":true},{"trial_type":"html-keyboard-response","rt":null,"stimulus":"<p style=\"color: green; font-size: 50px; font-weight: bold;\">Correct</p>","response":null,"trial_index":138,"plugin_version":"2.1.0","time_elapsed":329571,"subject_id":"90221","group":"Group2","full_date":"2025-11-10T00:33:26.416Z","date":"2025-11-10","time":"00:33:26"},{"correct_response":"l","task":"test_phase","broad_category":"M","image_png":"M_Slate_10.png","image_id":314,"category_name":"Slate","category":20,"distinct_rating":1.94,"distinct_type":"Bottom","item_type":"Target","rt":1072,"stimulus":"Stimuli_Rocks480/M_Slate_10.png","response":"l","trial_type":"image-keyboard-response","trial_index":139,"plugin_version":"2.1.0","time_elapsed":330657,"subject_id":"90221","group":"Group2","full_date":"2025-11-10T00:33:26.416Z","date":"2025-11-10","time":"00:33:26","cor_ans":true},{"trial_type":"html-keyboard-response","rt":null,"stimulus":"<p style=\"color: green; font-size: 50px; font-weight: bold;\">Correct</p>","response":null,"trial_index":140,"plugin_version":"2.1.0","time_elapsed":331159,"subject_id":"90221","group":"Group2","full_date":"2025-11-10T00:33:26.416Z","date":"2025-11-10","time":"00:33:26"},{"correct_response":"a","task":"test_phase","broad_category":"S","image_png":"S_Dolomite_13.png","image_id":397,"category_name":"Dolomite","category":25,"distinct_rating":1.77,"distinct_type":"Bottom","item_type":"Foil","rt":139181,"stimulus":"Stimuli_Rocks480/S_Dolomite_13.png","response":"l","trial_type":"image-keyboard-response","trial_index":141,"plugin_version":"2.1.0","time_elapsed":485694,"subject_id":"90221","group":"Group2","full_date":"2025-11-10T00:33:26.416Z","date":"2025-11-10","time":"00:33:26","cor_ans":false},{"trial_type":"html-keyboard-response","rt":null,"stimulus":"<p style=\"color: red; font-size: 50px; font-weight: bold;\">Incorrect</p>","response":null,"trial_index":142,"plugin_version":"2.1.0","time_elapsed":486203,"subject_id":"90221","group":"Group2","full_date":"2025-11-10T00:33:26.416Z","date":"2025-11-10","time":"00:33:26"},{"correct_response":"a","task":"test_phase","broad_category":"I","image_png":"I_Basalt_02.png","image_id":18,"category_name":"Basalt","category":2,"distinct_rating":1.84,"distinct_type":"Bottom","item_type":"Foil","rt":1209,"stimulus":"Stimuli_Rocks480/I_Basalt_02.png","response":"l","trial_type":"image-keyboard-response","trial_index":143,"plugin_version":"2.1.0","time_elapsed":487434,"subject_id":"90221","group":"Group2","full_date":"2025-11-10T00:33:26.416Z","date":"2025-11-10","time":"00:33:26","cor_ans":false},{"trial_type":"html-keyboard-response","rt":null,"stimulus":"<p style=\"color: red; font-size: 50px; font-weight: bold;\">Incorrect</p>","response":null,"trial_index":144,"plugin_version":"2.1.0","time_elapsed":487936,"subject_id":"90221","group":"Group2","full_date":"2025-11-10T00:33:26.416Z","date":"2025-11-10","time":"00:33:26"},{"correct_response":"a","task":"test_phase","broad_category":"I","image_png":"I_Diorite_04.png","image_id":36,"category_name":"Diorite","category":3,"distinct_rating":2.98,"distinct_type":"Bottom","item_type":"Foil","rt":1648,"stimulus":"Stimuli_Rocks480/I_Diorite_04.png","response":"l","trial_type":"image-keyboard-response","trial_index":145,"plugin_version":"2.1.0","time_elapsed":489601,"subject_id":"90221","group":"Group2","full_date":"2025-11-10T00:33:26.416Z","date":"2025-11-10","time":"00:33:26","cor_ans":false},{"trial_type":"html-keyboard-response","rt":null,"stimulus":"<p style=\"color: red; font-size: 50px; font-weight: bold;\">Incorrect</p>","response":null,"trial_index":146,"plugin_version":"2.1.0","time_elapsed":490104,"subject_id":"90221","group":"Group2","full_date":"2025-11-10T00:33:26.416Z","date":"2025-11-10","time":"00:33:26"},{"correct_response":"a","task":"test_phase","broad_category":"S","image_png":"S_Sandstone_16.png","image_id":464,"category_name":"Sandstone","category":29,"distinct_rating":1.93,"distinct_type":"Bottom","item_type":"Foil","rt":1086,"stimulus":"Stimuli_Rocks480/S_Sandstone_16.png","response":"a","trial_type":"image-keyboard-response","trial_index":147,"plugin_version":"2.1.0","time_elapsed":491202,"subject_id":"90221","group":"Group2","full_date":"2025-11-10T00:33:26.416Z","date":"2025-11-10","time":"00:33:26","cor_ans":true},{"trial_type":"html-keyboard-response","rt":null,"stimulus":"<p style=\"color: green; font-size: 50px; font-weight: bold;\">Correct</p>","response":null,"trial_index":148,"plugin_version":"2.1.0","time_elapsed":491704,"subject_id":"90221","group":"Group2","full_date":"2025-11-10T00:33:26.416Z","date":"2025-11-10","time":"00:33:26"},{"correct_response":"l","task":"test_phase","broad_category":"S","image_png":"S_Sandstone_04.png","image_id":452,"category_name":"Sandstone","category":29,"distinct_rating":1.8,"distinct_type":"Bottom","item_type":"Target","rt":1204,"stimulus":"Stimuli_Rocks480/S_Sandstone_04.png","response":"l","trial_type":"image-keyboard-response","trial_index":149,"plugin_version":"2.1.0","time_elapsed":492925,"subject_id":"90221","group":"Group2","full_date":"2025-11-10T00:33:26.416Z","date":"2025-11-10","time":"00:33:26","cor_ans":true},{"trial_type":"html-keyboard-response","rt":null,"stimulus":"<p style=\"color: green; font-size: 50px; font-weight: bold;\">Correct</p>","response":null,"trial_index":150,"plugin_version":"2.1.0","time_elapsed":493428,"subject_id":"90221","group":"Group2","full_date":"2025-11-10T00:33:26.416Z","date":"2025-11-10","time":"00:33:26"},{"correct_response":"l","task":"test_phase","broad_category":"I","image_png":"I_Diorite_01.png","image_id":33,"category_name":"Diorite","category":3,"distinct_rating":2.97,"distinct_type":"Bottom","item_type":"Target","rt":1061,"stimulus":"Stimuli_Rocks480/I_Diorite_01.png","response":"a","trial_type":"image-keyboard-response","trial_index":151,"plugin_version":"2.1.0","time_elapsed":494512,"subject_id":"90221","group":"Group2","full_date":"2025-11-10T00:33:26.416Z","date":"2025-11-10","time":"00:33:26","cor_ans":false},{"trial_type":"html-keyboard-response","rt":null,"stimulus":"<p style=\"color: red; font-size: 50px; font-weight: bold;\">Incorrect</p>","response":null,"trial_index":152,"plugin_version":"2.1.0","time_elapsed":495014,"subject_id":"90221","group":"Group2","full_date":"2025-11-10T00:33:26.416Z","date":"2025-11-10","time":"00:33:26"},{"correct_response":"a","task":"test_phase","broad_category":"I","image_png":"I_Rhyolite_16.png","image_id":160,"category_name":"Rhyolite","category":10,"distinct_rating":2.19,"distinct_type":"Bottom","item_type":"Foil","rt":1593,"stimulus":"Stimuli_Rocks480/I_Rhyolite_16.png","response":"a","trial_type":"image-keyboard-response","trial_index":153,"plugin_version":"2.1.0","time_elapsed":496621,"subject_id":"90221","group":"Group2","full_date":"2025-11-10T00:33:26.416Z","date":"2025-11-10","time":"00:33:26","cor_ans":true},{"trial_type":"html-keyboard-response","rt":null,"stimulus":"<p style=\"color: green; font-size: 50px; font-weight: bold;\">Correct</p>","response":null,"trial_index":154,"plugin_version":"2.1.0","time_elapsed":497123,"subject_id":"90221","group":"Group2","full_date":"2025-11-10T00:33:26.416Z","date":"2025-11-10","time":"00:33:26"},{"correct_response":"l","task":"test_phase","broad_category":"M","image_png":"M_Marble_03.png","image_id":227,"category_name":"Marble","category":15,"distinct_rating":2.67,"distinct_type":"Bottom","item_type":"Target","rt":916,"stimulus":"Stimuli_Rocks480/M_Marble_03.png","response":"l","trial_type":"image-keyboard-response","trial_index":155,"plugin_version":"2.1.0","time_elapsed":498055,"subject_id":"90221","group":"Group2","full_date":"2025-11-10T00:33:26.416Z","date":"2025-11-10","time":"00:33:26","cor_ans":true},{"trial_type":"html-keyboard-response","rt":null,"stimulus":"<p style=\"color: green; font-size: 50px; font-weight: bold;\">Correct</p>","response":null,"trial_index":156,"plugin_version":"2.1.0","time_elapsed":498558,"subject_id":"90221","group":"Group2","full_date":"2025-11-10T00:33:26.416Z","date":"2025-11-10","time":"00:33:26"},{"correct_response":"l","task":"test_phase","broad_category":"I","image_png":"I_Rhyolite_05.png","image_id":149,"category_name":"Rhyolite","category":10,"distinct_rating":3.02,"distinct_type":"Bottom","item_type":"Target","rt":1021,"stimulus":"Stimuli_Rocks480/I_Rhyolite_05.png","response":"l","trial_type":"image-keyboard-response","trial_index":157,"plugin_version":"2.1.0","time_elapsed":499595,"subject_id":"90221","group":"Group2","full_date":"2025-11-10T00:33:26.416Z","date":"2025-11-10","time":"00:33:26","cor_ans":true},{"trial_type":"html-keyboard-response","rt":null,"stimulus":"<p style=\"color: green; font-size: 50px; font-weight: bold;\">Correct</p>","response":null,"trial_index":158,"plugin_version":"2.1.0","time_elapsed":500097,"subject_id":"90221","group":"Group2","full_date":"2025-11-10T00:33:26.416Z","date":"2025-11-10","time":"00:33:26"},{"correct_response":"l","task":"test_phase","broad_category":"I","image_png":"I_Pegmatite_03.png","image_id":99,"category_name":"Pegmatite","category":7,"distinct_rating":7.24,"distinct_type":"Top","item_type":"Target","rt":923,"stimulus":"Stimuli_Rocks480/I_Pegmatite_03.png","response":"l","trial_type":"image-keyboard-response","trial_index":159,"plugin_version":"2.1.0","time_elapsed":501035,"subject_id":"90221","group":"Group2","full_date":"2025-11-10T00:33:26.416Z","date":"2025-11-10","time":"00:33:26","cor_ans":true},{"trial_type":"html-keyboard-response","rt":null,"stimulus":"<p style=\"color: green; font-size: 50px; font-weight: bold;\">Correct</p>","response":null,"trial_index":160,"plugin_version":"2.1.0","time_elapsed":501537,"subject_id":"90221","group":"Group2","full_date":"2025-11-10T00:33:26.416Z","date":"2025-11-10","time":"00:33:26"},{"correct_response":"l","task":"test_phase","broad_category":"S","image_png":"S_Sandstone_11.png","image_id":459,"category_name":"Sandstone","category":29,"distinct_rating":1.82,"distinct_type":"Bottom","item_type":"Target","rt":798,"stimulus":"Stimuli_Rocks480/S_Sandstone_11.png","response":"l","trial_type":"image-keyboard-response","trial_index":161,"plugin_version":"2.1.0","time_elapsed":502357,"subject_id":"90221","group":"Group2","full_date":"2025-11-10T00:33:26.416Z","date":"2025-11-10","time":"00:33:26","cor_ans":true},{"trial_type":"html-keyboard-response","rt":null,"stimulus":"<p style=\"color: green; font-size: 50px; font-weight: bold;\">Correct</p>","response":null,"trial_index":162,"plugin_version":"2.1.0","time_elapsed":502858,"subject_id":"90221","group":"Group2","full_date":"2025-11-10T00:33:26.416Z","date":"2025-11-10","time":"00:33:26"},{"correct_response":"a","task":"test_phase","broad_category":"M","image_png":"M_Quartzite_05.png","image_id":277,"category_name":"Quartzite","category":18,"distinct_rating":2.23,"distinct_type":"Bottom","item_type":"Foil","rt":1023,"stimulus":"Stimuli_Rocks480/M_Quartzite_05.png","response":"a","trial_type":"image-keyboard-response","trial_index":163,"plugin_version":"2.1.0","time_elapsed":503903,"subject_id":"90221","group":"Group2","full_date":"2025-11-10T00:33:26.416Z","date":"2025-11-10","time":"00:33:26","cor_ans":true},{"trial_type":"html-keyboard-response","rt":null,"stimulus":"<p style=\"color: green; font-size: 50px; font-weight: bold;\">Correct</p>","response":null,"trial_index":164,"plugin_version":"2.1.0","time_elapsed":504405,"subject_id":"90221","group":"Group2","full_date":"2025-11-10T00:33:26.416Z","date":"2025-11-10","time":"00:33:26"},{"correct_response":"a","task":"test_phase","broad_category":"M","image_png":"M_Quartzite_08.png","image_id":280,"category_name":"Quartzite","category":18,"distinct_rating":2.15,"distinct_type":"Bottom","item_type":"Foil","rt":751,"stimulus":"Stimuli_Rocks480/M_Quartzite_08.png","response":"a","trial_type":"image-keyboard-response","trial_index":165,"plugin_version":"2.1.0","time_elapsed":505169,"subject_id":"90221","group":"Group2","full_date":"2025-11-10T00:33:26.416Z","date":"2025-11-10","time":"00:33:26","cor_ans":true},{"trial_type":"html-keyboard-response","rt":null,"stimulus":"<p style=\"color: green; font-size: 50px; font-weight: bold;\">Correct</p>","response":null,"trial_index":166,"plugin_version":"2.1.0","time_elapsed":505671,"subject_id":"90221","group":"Group2","full_date":"2025-11-10T00:33:26.416Z","date":"2025-11-10","time":"00:33:26"},{"correct_response":"l","task":"test_phase","broad_category":"I","image_png":"I_Andesite_09.png","image_id":9,"category_name":"Andesite","category":1,"distinct_rating":2.49,"distinct_type":"Bottom","item_type":"Target","rt":2027,"stimulus":"Stimuli_Rocks480/I_Andesite_09.png","response":"l","trial_type":"image-keyboard-response","trial_index":167,"plugin_version":"2.1.0","time_elapsed":507713,"subject_id":"90221","group":"Group2","full_date":"2025-11-10T00:33:26.416Z","date":"2025-11-10","time":"00:33:26","cor_ans":true},{"trial_type":"html-keyboard-response","rt":null,"stimulus":"<p style=\"color: green; font-size: 50px; font-weight: bold;\">Correct</p>","response":null,"trial_index":168,"plugin_version":"2.1.0","time_elapsed":508216,"subject_id":"90221","group":"Group2","full_date":"2025-11-10T00:33:26.416Z","date":"2025-11-10","time":"00:33:26"},{"correct_response":"l","task":"test_phase","broad_category":"I","image_png":"I_Pegmatite_11.png","image_id":107,"category_name":"Pegmatite","category":7,"distinct_rating":7.11,"distinct_type":"Top","item_type":"Target","rt":762,"stimulus":"Stimuli_Rocks480/I_Pegmatite_11.png","response":"l","trial_type":"image-keyboard-response","trial_index":169,"plugin_version":"2.1.0","time_elapsed":508997,"subject_id":"90221","group":"Group2","full_date":"2025-11-10T00:33:26.416Z","date":"2025-11-10","time":"00:33:26","cor_ans":true},{"trial_type":"html-keyboard-response","rt":null,"stimulus":"<p style=\"color: green; font-size: 50px; font-weight: bold;\">Correct</p>","response":null,"trial_index":170,"plugin_version":"2.1.0","time_elapsed":509499,"subject_id":"90221","group":"Group2","full_date":"2025-11-10T00:33:26.416Z","date":"2025-11-10","time":"00:33:26"},{"correct_response":"l","task":"test_phase","broad_category":"S","image_png":"S_Sandstone_08.png","image_id":456,"category_name":"Sandstone","category":29,"distinct_rating":1.5,"distinct_type":"Bottom","item_type":"Target","rt":1154,"stimulus":"Stimuli_Rocks480/S_Sandstone_08.png","response":"l","trial_type":"image-keyboard-response","trial_index":171,"plugin_version":"2.1.0","time_elapsed":510668,"subject_id":"90221","group":"Group2","full_date":"2025-11-10T00:33:26.416Z","date":"2025-11-10","time":"00:33:26","cor_ans":true},{"trial_type":"html-keyboard-response","rt":null,"stimulus":"<p style=\"color: green; font-size: 50px; font-weight: bold;\">Correct</p>","response":null,"trial_index":172,"plugin_version":"2.1.0","time_elapsed":511171,"subject_id":"90221","group":"Group2","full_date":"2025-11-10T00:33:26.416Z","date":"2025-11-10","time":"00:33:26"},{"correct_response":"a","task":"test_phase","broad_category":"I","image_png":"I_Gabbro_08.png","image_id":56,"category_name":"Gabbro","category":4,"distinct_rating":3.02,"distinct_type":"Bottom","item_type":"Foil","rt":1159,"stimulus":"Stimuli_Rocks480/I_Gabbro_08.png","response":"a","trial_type":"image-keyboard-response","trial_index":173,"plugin_version":"2.1.0","time_elapsed":512345,"subject_id":"90221","group":"Group2","full_date":"2025-11-10T00:33:26.416Z","date":"2025-11-10","time":"00:33:26","cor_ans":true},{"trial_type":"html-keyboard-response","rt":null,"stimulus":"<p style=\"color: green; font-size: 50px; font-weight: bold;\">Correct</p>","response":null,"trial_index":174,"plugin_version":"2.1.0","time_elapsed":512847,"subject_id":"90221","group":"Group2","full_date":"2025-11-10T00:33:26.416Z","date":"2025-11-10","time":"00:33:26"},{"correct_response":"l","task":"test_phase","broad_category":"I","image_png":"I_Peridotite_13.png","image_id":125,"category_name":"Peridotite","category":8,"distinct_rating":7.28,"distinct_type":"Top","item_type":"Target","rt":914,"stimulus":"Stimuli_Rocks480/I_Peridotite_13.png","response":"a","trial_type":"image-keyboard-response","trial_index":175,"plugin_version":"2.1.0","time_elapsed":513781,"subject_id":"90221","group":"Group2","full_date":"2025-11-10T00:33:26.416Z","date":"2025-11-10","time":"00:33:26","cor_ans":false},{"trial_type":"html-keyboard-response","rt":null,"stimulus":"<p style=\"color: red; font-size: 50px; font-weight: bold;\">Incorrect</p>","response":null,"trial_index":176,"plugin_version":"2.1.0","time_elapsed":514283,"subject_id":"90221","group":"Group2","full_date":"2025-11-10T00:33:26.416Z","date":"2025-11-10","time":"00:33:26"},{"correct_response":"a","task":"test_phase","broad_category":"S","image_png":"S_Rock Gypsum_04.png","image_id":420,"category_name":"Rock Gypsum","category":27,"distinct_rating":7.61,"distinct_type":"Top","item_type":"Foil","rt":1461,"stimulus":"Stimuli_Rocks480/S_Rock Gypsum_04.png","response":"a","trial_type":"image-keyboard-response","trial_index":177,"plugin_version":"2.1.0","time_elapsed":515759,"subject_id":"90221","group":"Group2","full_date":"2025-11-10T00:33:26.416Z","date":"2025-11-10","time":"00:33:26","cor_ans":true},{"trial_type":"html-keyboard-response","rt":null,"stimulus":"<p style=\"color: green; font-size: 50px; font-weight: bold;\">Correct</p>","response":null,"trial_index":178,"plugin_version":"2.1.0","time_elapsed":516262,"subject_id":"90221","group":"Group2","full_date":"2025-11-10T00:33:26.416Z","date":"2025-11-10","time":"00:33:26"},{"correct_response":"l","task":"test_phase","broad_category":"M","image_png":"M_Gneiss_14.png","image_id":206,"category_name":"Gneiss","category":13,"distinct_rating":3.41,"distinct_type":"Bottom","item_type":"Target","rt":832,"stimulus":"Stimuli_Rocks480/M_Gneiss_14.png","response":"l","trial_type":"image-keyboard-response","trial_index":179,"plugin_version":"2.1.0","time_elapsed":517109,"subject_id":"90221","group":"Group2","full_date":"2025-11-10T00:33:26.416Z","date":"2025-11-10","time":"00:33:26","cor_ans":true},{"trial_type":"html-keyboard-response","rt":null,"stimulus":"<p style=\"color: green; font-size: 50px; font-weight: bold;\">Correct</p>","response":null,"trial_index":180,"plugin_version":"2.1.0","time_elapsed":517612,"subject_id":"90221","group":"Group2","full_date":"2025-11-10T00:33:26.416Z","date":"2025-11-10","time":"00:33:26"},{"correct_response":"a","task":"test_phase","broad_category":"M","image_png":"M_Gneiss_06.png","image_id":198,"category_name":"Gneiss","category":13,"distinct_rating":2.65,"distinct_type":"Bottom","item_type":"Foil","rt":1005,"stimulus":"Stimuli_Rocks480/M_Gneiss_06.png","response":"l","trial_type":"image-keyboard-response","trial_index":181,"plugin_version":"2.1.0","time_elapsed":518639,"subject_id":"90221","group":"Group2","full_date":"2025-11-10T00:33:26.416Z","date":"2025-11-10","time":"00:33:26","cor_ans":false},{"trial_type":"html-keyboard-response","rt":null,"stimulus":"<p style=\"color: red; font-size: 50px; font-weight: bold;\">Incorrect</p>","response":null,"trial_index":182,"plugin_version":"2.1.0","time_elapsed":519142,"subject_id":"90221","group":"Group2","full_date":"2025-11-10T00:33:26.416Z","date":"2025-11-10","time":"00:33:26"},{"correct_response":"l","task":"test_phase","broad_category":"M","image_png":"M_Quartzite_15.png","image_id":287,"category_name":"Quartzite","category":18,"distinct_rating":2.19,"distinct_type":"Bottom","item_type":"Target","rt":634,"stimulus":"Stimuli_Rocks480/M_Quartzite_15.png","response":"l","trial_type":"image-keyboard-response","trial_index":183,"plugin_version":"2.1.0","time_elapsed":519794,"subject_id":"90221","group":"Group2","full_date":"2025-11-10T00:33:26.416Z","date":"2025-11-10","time":"00:33:26","cor_ans":true},{"trial_type":"html-keyboard-response","rt":null,"stimulus":"<p style=\"color: green; font-size: 50px; font-weight: bold;\">Correct</p>","response":null,"trial_index":184,"plugin_version":"2.1.0","time_elapsed":520296,"subject_id":"90221","group":"Group2","full_date":"2025-11-10T00:33:26.416Z","date":"2025-11-10","time":"00:33:26"},{"correct_response":"a","task":"test_phase","broad_category":"S","image_png":"S_Shale_12.png","image_id":476,"category_name":"Shale","category":30,"distinct_rating":2.48,"distinct_type":"Bottom","item_type":"Foil","rt":657,"stimulus":"Stimuli_Rocks480/S_Shale_12.png","response":"a","trial_type":"image-keyboard-response","trial_index":185,"plugin_version":"2.1.0","time_elapsed":520970,"subject_id":"90221","group":"Group2","full_date":"2025-11-10T00:33:26.416Z","date":"2025-11-10","time":"00:33:26","cor_ans":true},{"trial_type":"html-keyboard-response","rt":null,"stimulus":"<p style=\"color: green; font-size: 50px; font-weight: bold;\">Correct</p>","response":null,"trial_index":186,"plugin_version":"2.1.0","time_elapsed":521472,"subject_id":"90221","group":"Group2","full_date":"2025-11-10T00:33:26.416Z","date":"2025-11-10","time":"00:33:26"},{"correct_response":"a","task":"test_phase","broad_category":"I","image_png":"I_Diorite_05.png","image_id":37,"category_name":"Diorite","category":3,"distinct_rating":3.08,"distinct_type":"Bottom","item_type":"Foil","rt":911,"stimulus":"Stimuli_Rocks480/I_Diorite_05.png","response":"a","trial_type":"image-keyboard-response","trial_index":187,"plugin_version":"2.1.0","time_elapsed":522400,"subject_id":"90221","group":"Group2","full_date":"2025-11-10T00:33:26.416Z","date":"2025-11-10","time":"00:33:26","cor_ans":true},{"trial_type":"html-keyboard-response","rt":null,"stimulus":"<p style=\"color: green; font-size: 50px; font-weight: bold;\">Correct</p>","response":null,"trial_index":188,"plugin_version":"2.1.0","time_elapsed":522902,"subject_id":"90221","group":"Group2","full_date":"2025-11-10T00:33:26.416Z","date":"2025-11-10","time":"00:33:26"},{"correct_response":"l","task":"test_phase","broad_category":"M","image_png":"M_Phyllite_13.png","image_id":269,"category_name":"Phyllite","category":17,"distinct_rating":2.8,"distinct_type":"Bottom","item_type":"Target","rt":1374,"stimulus":"Stimuli_Rocks480/M_Phyllite_13.png","response":"l","trial_type":"image-keyboard-response","trial_index":189,"plugin_version":"2.1.0","time_elapsed":524293,"subject_id":"90221","group":"Group2","full_date":"2025-11-10T00:33:26.416Z","date":"2025-11-10","time":"00:33:26","cor_ans":true},{"trial_type":"html-keyboard-response","rt":null,"stimulus":"<p style=\"color: green; font-size: 50px; font-weight: bold;\">Correct</p>","response":null,"trial_index":190,"plugin_version":"2.1.0","time_elapsed":524795,"subject_id":"90221","group":"Group2","full_date":"2025-11-10T00:33:26.416Z","date":"2025-11-10","time":"00:33:26"},{"correct_response":"l","task":"test_phase","broad_category":"I","image_png":"I_Andesite_04.png","image_id":4,"category_name":"Andesite","category":1,"distinct_rating":3.18,"distinct_type":"Bottom","item_type":"Target","rt":713,"stimulus":"Stimuli_Rocks480/I_Andesite_04.png","response":"a","trial_type":"image-keyboard-response","trial_index":191,"plugin_version":"2.1.0","time_elapsed":525524,"subject_id":"90221","group":"Group2","full_date":"2025-11-10T00:33:26.416Z","date":"2025-11-10","time":"00:33:26","cor_ans":false},{"trial_type":"html-keyboard-response","rt":null,"stimulus":"<p style=\"color: red; font-size: 50px; font-weight: bold;\">Incorrect</p>","response":null,"trial_index":192,"plugin_version":"2.1.0","time_elapsed":526026,"subject_id":"90221","group":"Group2","full_date":"2025-11-10T00:33:26.416Z","date":"2025-11-10","time":"00:33:26"},{"correct_response":"l","task":"test_phase","broad_category":"I","image_png":"I_Pumice_01.png","image_id":129,"category_name":"Pumice","category":9,"distinct_rating":3.25,"distinct_type":"Bottom","item_type":"Target","rt":1341,"stimulus":"Stimuli_Rocks480/I_Pumice_01.png","response":"l","trial_type":"image-keyboard-response","trial_index":193,"plugin_version":"2.1.0","time_elapsed":527383,"subject_id":"90221","group":"Group2","full_date":"2025-11-10T00:33:26.416Z","date":"2025-11-10","time":"00:33:26","cor_ans":true},{"trial_type":"html-keyboard-response","rt":null,"stimulus":"<p style=\"color: green; font-size: 50px; font-weight: bold;\">Correct</p>","response":null,"trial_index":194,"plugin_version":"2.1.0","time_elapsed":527885,"subject_id":"90221","group":"Group2","full_date":"2025-11-10T00:33:26.416Z","date":"2025-11-10","time":"00:33:26"},{"correct_response":"l","task":"test_phase","broad_category":"I","image_png":"I_Basalt_13.png","image_id":29,"category_name":"Basalt","category":2,"distinct_rating":2.68,"distinct_type":"Bottom","item_type":"Target","rt":1003,"stimulus":"Stimuli_Rocks480/I_Basalt_13.png","response":"l","trial_type":"image-keyboard-response","trial_index":195,"plugin_version":"2.1.0","time_elapsed":528901,"subject_id":"90221","group":"Group2","full_date":"2025-11-10T00:33:26.416Z","date":"2025-11-10","time":"00:33:26","cor_ans":true},{"trial_type":"html-keyboard-response","rt":null,"stimulus":"<p style=\"color: green; font-size: 50px; font-weight: bold;\">Correct</p>","response":null,"trial_index":196,"plugin_version":"2.1.0","time_elapsed":529403,"subject_id":"90221","group":"Group2","full_date":"2025-11-10T00:33:26.416Z","date":"2025-11-10","time":"00:33:26"},{"correct_response":"l","task":"test_phase","broad_category":"M","image_png":"M_Phyllite_05.png","image_id":261,"category_name":"Phyllite","category":17,"distinct_rating":2.14,"distinct_type":"Bottom","item_type":"Target","rt":665,"stimulus":"Stimuli_Rocks480/M_Phyllite_05.png","response":"l","trial_type":"image-keyboard-response","trial_index":197,"plugin_version":"2.1.0","time_elapsed":530082,"subject_id":"90221","group":"Group2","full_date":"2025-11-10T00:33:26.416Z","date":"2025-11-10","time":"00:33:26","cor_ans":true},{"trial_type":"html-keyboard-response","rt":null,"stimulus":"<p style=\"color: green; font-size: 50px; font-weight: bold;\">Correct</p>","response":null,"trial_index":198,"plugin_version":"2.1.0","time_elapsed":530583,"subject_id":"90221","group":"Group2","full_date":"2025-11-10T00:33:26.416Z","date":"2025-11-10","time":"00:33:26"},{"correct_response":"l","task":"test_phase","broad_category":"S","image_png":"S_Rock Salt_15.png","image_id":447,"category_name":"Rock Salt","category":28,"distinct_rating":7.79,"distinct_type":"Top","item_type":"Target","rt":692,"stimulus":"Stimuli_Rocks480/S_Rock Salt_15.png","response":"l","trial_type":"image-keyboard-response","trial_index":199,"plugin_version":"2.1.0","time_elapsed":531290,"subject_id":"90221","group":"Group2","full_date":"2025-11-10T00:33:26.416Z","date":"2025-11-10","time":"00:33:26","cor_ans":true},{"trial_type":"html-keyboard-response","rt":null,"stimulus":"<p style=\"color: green; font-size: 50px; font-weight: bold;\">Correct</p>","response":null,"trial_index":200,"plugin_version":"2.1.0","time_elapsed":531793,"subject_id":"90221","group":"Group2","full_date":"2025-11-10T00:33:26.416Z","date":"2025-11-10","time":"00:33:26"},{"correct_response":"l","task":"test_phase","broad_category":"M","image_png":"M_Marble_02.png","image_id":226,"category_name":"Marble","category":15,"distinct_rating":3.2,"distinct_type":"Bottom","item_type":"Target","rt":807,"stimulus":"Stimuli_Rocks480/M_Marble_02.png","response":"l","trial_type":"image-keyboard-response","trial_index":201,"plugin_version":"2.1.0","time_elapsed":532614,"subject_id":"90221","group":"Group2","full_date":"2025-11-10T00:33:26.416Z","date":"2025-11-10","time":"00:33:26","cor_ans":true},{"trial_type":"html-keyboard-response","rt":null,"stimulus":"<p style=\"color: green; font-size: 50px; font-weight: bold;\">Correct</p>","response":null,"trial_index":202,"plugin_version":"2.1.0","time_elapsed":533116,"subject_id":"90221","group":"Group2","full_date":"2025-11-10T00:33:26.416Z","date":"2025-11-10","time":"00:33:26"},{"correct_response":"l","task":"test_phase","broad_category":"M","image_png":"M_Quartzite_07.png","image_id":279,"category_name":"Quartzite","category":18,"distinct_rating":1.97,"distinct_type":"Bottom","item_type":"Target","rt":740,"stimulus":"Stimuli_Rocks480/M_Quartzite_07.png","response":"a","trial_type":"image-keyboard-response","trial_index":203,"plugin_version":"2.1.0","time_elapsed":533873,"subject_id":"90221","group":"Group2","full_date":"2025-11-10T00:33:26.416Z","date":"2025-11-10","time":"00:33:26","cor_ans":false},{"trial_type":"html-keyboard-response","rt":null,"stimulus":"<p style=\"color: red; font-size: 50px; font-weight: bold;\">Incorrect</p>","response":null,"trial_index":204,"plugin_version":"2.1.0","time_elapsed":534374,"subject_id":"90221","group":"Group2","full_date":"2025-11-10T00:33:26.416Z","date":"2025-11-10","time":"00:33:26"},{"correct_response":"a","task":"test_phase","broad_category":"I","image_png":"I_Basalt_09.png","image_id":25,"category_name":"Basalt","category":2,"distinct_rating":1.89,"distinct_type":"Bottom","item_type":"Foil","rt":648,"stimulus":"Stimuli_Rocks480/I_Basalt_09.png","response":"l","trial_type":"image-keyboard-response","trial_index":205,"plugin_version":"2.1.0","time_elapsed":535036,"subject_id":"90221","group":"Group2","full_date":"2025-11-10T00:33:26.416Z","date":"2025-11-10","time":"00:33:26","cor_ans":false},{"trial_type":"html-keyboard-response","rt":null,"stimulus":"<p style=\"color: red; font-size: 50px; font-weight: bold;\">Incorrect</p>","response":null,"trial_index":206,"plugin_version":"2.1.0","time_elapsed":535538,"subject_id":"90221","group":"Group2","full_date":"2025-11-10T00:33:26.416Z","date":"2025-11-10","time":"00:33:26"},{"correct_response":"a","task":"test_phase","broad_category":"M","image_png":"M_Gneiss_13.png","image_id":205,"category_name":"Gneiss","category":13,"distinct_rating":3.26,"distinct_type":"Bottom","item_type":"Foil","rt":699,"stimulus":"Stimuli_Rocks480/M_Gneiss_13.png","response":"l","trial_type":"image-keyboard-response","trial_index":207,"plugin_version":"2.1.0","time_elapsed":536249,"subject_id":"90221","group":"Group2","full_date":"2025-11-10T00:33:26.416Z","date":"2025-11-10","time":"00:33:26","cor_ans":false},{"trial_type":"html-keyboard-response","rt":null,"stimulus":"<p style=\"color: red; font-size: 50px; font-weight: bold;\">Incorrect</p>","response":null,"trial_index":208,"plugin_version":"2.1.0","time_elapsed":536752,"subject_id":"90221","group":"Group2","full_date":"2025-11-10T00:33:26.416Z","date":"2025-11-10","time":"00:33:26"},{"correct_response":"a","task":"test_phase","broad_category":"M","image_png":"M_Slate_11.png","image_id":315,"category_name":"Slate","category":20,"distinct_rating":2.75,"distinct_type":"Bottom","item_type":"Foil","rt":1182,"stimulus":"Stimuli_Rocks480/M_Slate_11.png","response":"a","trial_type":"image-keyboard-response","trial_index":209,"plugin_version":"2.1.0","time_elapsed":537948,"subject_id":"90221","group":"Group2","full_date":"2025-11-10T00:33:26.416Z","date":"2025-11-10","time":"00:33:26","cor_ans":true},{"trial_type":"html-keyboard-response","rt":null,"stimulus":"<p style=\"color: green; font-size: 50px; font-weight: bold;\">Correct</p>","response":null,"trial_index":210,"plugin_version":"2.1.0","time_elapsed":538451,"subject_id":"90221","group":"Group2","full_date":"2025-11-10T00:33:26.416Z","date":"2025-11-10","time":"00:33:26"},{"correct_response":"l","task":"test_phase","broad_category":"I","image_png":"I_Gabbro_12.png","image_id":60,"category_name":"Gabbro","category":4,"distinct_rating":2.6,"distinct_type":"Bottom","item_type":"Target","rt":941,"stimulus":"Stimuli_Rocks480/I_Gabbro_12.png","response":"a","trial_type":"image-keyboard-response","trial_index":211,"plugin_version":"2.1.0","time_elapsed":539411,"subject_id":"90221","group":"Group2","full_date":"2025-11-10T00:33:26.416Z","date":"2025-11-10","time":"00:33:26","cor_ans":false},{"trial_type":"html-keyboard-response","rt":null,"stimulus":"<p style=\"color: red; font-size: 50px; font-weight: bold;\">Incorrect</p>","response":null,"trial_index":212,"plugin_version":"2.1.0","time_elapsed":539913,"subject_id":"90221","group":"Group2","full_date":"2025-11-10T00:33:26.416Z","date":"2025-11-10","time":"00:33:26"},{"correct_response":"a","task":"test_phase","broad_category":"M","image_png":"M_Marble_04.png","image_id":228,"category_name":"Marble","category":15,"distinct_rating":3.15,"distinct_type":"Bottom","item_type":"Foil","rt":626,"stimulus":"Stimuli_Rocks480/M_Marble_04.png","response":"l","trial_type":"image-keyboard-response","trial_index":213,"plugin_version":"2.1.0","time_elapsed":540554,"subject_id":"90221","group":"Group2","full_date":"2025-11-10T00:33:26.416Z","date":"2025-11-10","time":"00:33:26","cor_ans":false},{"trial_type":"html-keyboard-response","rt":null,"stimulus":"<p style=\"color: red; font-size: 50px; font-weight: bold;\">Incorrect</p>","response":null,"trial_index":214,"plugin_version":"2.1.0","time_elapsed":541056,"subject_id":"90221","group":"Group2","full_date":"2025-11-10T00:33:26.416Z","date":"2025-11-10","time":"00:33:26"},{"correct_response":"l","task":"test_phase","broad_category":"M","image_png":"M_Slate_04.png","image_id":308,"category_name":"Slate","category":20,"distinct_rating":2.2,"distinct_type":"Bottom","item_type":"Target","rt":677,"stimulus":"Stimuli_Rocks480/M_Slate_04.png","response":"l","trial_type":"image-keyboard-response","trial_index":215,"plugin_version":"2.1.0","time_elapsed":541746,"subject_id":"90221","group":"Group2","full_date":"2025-11-10T00:33:26.416Z","date":"2025-11-10","time":"00:33:26","cor_ans":true},{"trial_type":"html-keyboard-response","rt":null,"stimulus":"<p style=\"color: green; font-size: 50px; font-weight: bold;\">Correct</p>","response":null,"trial_index":216,"plugin_version":"2.1.0","time_elapsed":542249,"subject_id":"90221","group":"Group2","full_date":"2025-11-10T00:33:26.416Z","date":"2025-11-10","time":"00:33:26"},{"correct_response":"l","task":"test_phase","broad_category":"M","image_png":"M_Quartzite_12.png","image_id":284,"category_name":"Quartzite","category":18,"distinct_rating":1.92,"distinct_type":"Bottom","item_type":"Target","rt":1284,"stimulus":"Stimuli_Rocks480/M_Quartzite_12.png","response":"a","trial_type":"image-keyboard-response","trial_index":217,"plugin_version":"2.1.0","time_elapsed":543549,"subject_id":"90221","group":"Group2","full_date":"2025-11-10T00:33:26.416Z","date":"2025-11-10","time":"00:33:26","cor_ans":false},{"trial_type":"html-keyboard-response","rt":null,"stimulus":"<p style=\"color: red; font-size: 50px; font-weight: bold;\">Incorrect</p>","response":null,"trial_index":218,"plugin_version":"2.1.0","time_elapsed":544052,"subject_id":"90221","group":"Group2","full_date":"2025-11-10T00:33:26.416Z","date":"2025-11-10","time":"00:33:26"},{"correct_response":"a","task":"test_phase","broad_category":"I","image_png":"I_Gabbro_16.png","image_id":64,"category_name":"Gabbro","category":4,"distinct_rating":2.52,"distinct_type":"Bottom","item_type":"Foil","rt":552,"stimulus":"Stimuli_Rocks480/I_Gabbro_16.png","response":"l","trial_type":"image-keyboard-response","trial_index":219,"plugin_version":"2.1.0","time_elapsed":544619,"subject_id":"90221","group":"Group2","full_date":"2025-11-10T00:33:26.416Z","date":"2025-11-10","time":"00:33:26","cor_ans":false},{"trial_type":"html-keyboard-response","rt":null,"stimulus":"<p style=\"color: red; font-size: 50px; font-weight: bold;\">Incorrect</p>","response":null,"trial_index":220,"plugin_version":"2.1.0","time_elapsed":545121,"subject_id":"90221","group":"Group2","full_date":"2025-11-10T00:33:26.416Z","date":"2025-11-10","time":"00:33:26"},{"correct_response":"l","task":"test_phase","broad_category":"S","image_png":"S_Shale_03.png","image_id":467,"category_name":"Shale","category":30,"distinct_rating":1.95,"distinct_type":"Bottom","item_type":"Target","rt":574,"stimulus":"Stimuli_Rocks480/S_Shale_03.png","response":"l","trial_type":"image-keyboard-response","trial_index":221,"plugin_version":"2.1.0","time_elapsed":545714,"subject_id":"90221","group":"Group2","full_date":"2025-11-10T00:33:26.416Z","date":"2025-11-10","time":"00:33:26","cor_ans":true},{"trial_type":"html-keyboard-response","rt":null,"stimulus":"<p style=\"color: green; font-size: 50px; font-weight: bold;\">Correct</p>","response":null,"trial_index":222,"plugin_version":"2.1.0","time_elapsed":546216,"subject_id":"90221","group":"Group2","full_date":"2025-11-10T00:33:26.416Z","date":"2025-11-10","time":"00:33:26"},{"correct_response":"l","task":"test_phase","broad_category":"I","image_png":"I_Basalt_10.png","image_id":26,"category_name":"Basalt","category":2,"distinct_rating":2.76,"distinct_type":"Bottom","item_type":"Target","rt":737,"stimulus":"Stimuli_Rocks480/I_Basalt_10.png","response":"a","trial_type":"image-keyboard-response","trial_index":223,"plugin_version":"2.1.0","time_elapsed":546969,"subject_id":"90221","group":"Group2","full_date":"2025-11-10T00:33:26.416Z","date":"2025-11-10","time":"00:33:26","cor_ans":false},{"trial_type":"html-keyboard-response","rt":null,"stimulus":"<p style=\"color: red; font-size: 50px; font-weight: bold;\">Incorrect</p>","response":null,"trial_index":224,"plugin_version":"2.1.0","time_elapsed":547471,"subject_id":"90221","group":"Group2","full_date":"2025-11-10T00:33:26.416Z","date":"2025-11-10","time":"00:33:26"},{"correct_response":"l","task":"test_phase","broad_category":"S","image_png":"S_Dolomite_16.png","image_id":400,"category_name":"Dolomite","category":25,"distinct_rating":1.71,"distinct_type":"Bottom","item_type":"Target","rt":715,"stimulus":"Stimuli_Rocks480/S_Dolomite_16.png","response":"a","trial_type":"image-keyboard-response","trial_index":225,"plugin_version":"2.1.0","time_elapsed":548200,"subject_id":"90221","group":"Group2","full_date":"2025-11-10T00:33:26.416Z","date":"2025-11-10","time":"00:33:26","cor_ans":false},{"trial_type":"html-keyboard-response","rt":null,"stimulus":"<p style=\"color: red; font-size: 50px; font-weight: bold;\">Incorrect</p>","response":null,"trial_index":226,"plugin_version":"2.1.0","time_elapsed":548702,"subject_id":"90221","group":"Group2","full_date":"2025-11-10T00:33:26.416Z","date":"2025-11-10","time":"00:33:26"},{"correct_response":"a","task":"test_phase","broad_category":"M","image_png":"M_Quartzite_13.png","image_id":285,"category_name":"Quartzite","category":18,"distinct_rating":2.27,"distinct_type":"Bottom","item_type":"Foil","rt":459,"stimulus":"Stimuli_Rocks480/M_Quartzite_13.png","response":"l","trial_type":"image-keyboard-response","trial_index":227,"plugin_version":"2.1.0","time_elapsed":549175,"subject_id":"90221","group":"Group2","full_date":"2025-11-10T00:33:26.416Z","date":"2025-11-10","time":"00:33:26","cor_ans":false},{"trial_type":"html-keyboard-response","rt":null,"stimulus":"<p style=\"color: red; font-size: 50px; font-weight: bold;\">Incorrect</p>","response":null,"trial_index":228,"plugin_version":"2.1.0","time_elapsed":549679,"subject_id":"90221","group":"Group2","full_date":"2025-11-10T00:33:26.416Z","date":"2025-11-10","time":"00:33:26"},{"correct_response":"a","task":"test_phase","broad_category":"S","image_png":"S_Shale_01.png","image_id":465,"category_name":"Shale","category":30,"distinct_rating":2.7,"distinct_type":"Bottom","item_type":"Foil","rt":852,"stimulus":"Stimuli_Rocks480/S_Shale_01.png","response":"a","trial_type":"image-keyboard-response","trial_index":229,"plugin_version":"2.1.0","time_elapsed":550544,"subject_id":"90221","group":"Group2","full_date":"2025-11-10T00:33:26.416Z","date":"2025-11-10","time":"00:33:26","cor_ans":true},{"trial_type":"html-keyboard-response","rt":null,"stimulus":"<p style=\"color: green; font-size: 50px; font-weight: bold;\">Correct</p>","response":null,"trial_index":230,"plugin_version":"2.1.0","time_elapsed":551046,"subject_id":"90221","group":"Group2","full_date":"2025-11-10T00:33:26.416Z","date":"2025-11-10","time":"00:33:26"},{"correct_response":"a","task":"test_phase","broad_category":"I","image_png":"I_Pumice_08.png","image_id":136,"category_name":"Pumice","category":9,"distinct_rating":3.1,"distinct_type":"Bottom","item_type":"Foil","rt":1242,"stimulus":"Stimuli_Rocks480/I_Pumice_08.png","response":"a","trial_type":"image-keyboard-response","trial_index":231,"plugin_version":"2.1.0","time_elapsed":552302,"subject_id":"90221","group":"Group2","full_date":"2025-11-10T00:33:26.416Z","date":"2025-11-10","time":"00:33:26","cor_ans":true},{"trial_type":"html-keyboard-response","rt":null,"stimulus":"<p style=\"color: green; font-size: 50px; font-weight: bold;\">Correct</p>","response":null,"trial_index":232,"plugin_version":"2.1.0","time_elapsed":552804,"subject_id":"90221","group":"Group2","full_date":"2025-11-10T00:33:26.416Z","date":"2025-11-10","time":"00:33:26"},{"correct_response":"l","task":"test_phase","broad_category":"I","image_png":"I_Rhyolite_08.png","image_id":152,"category_name":"Rhyolite","category":10,"distinct_rating":1.38,"distinct_type":"Bottom","item_type":"Target","rt":1248,"stimulus":"Stimuli_Rocks480/I_Rhyolite_08.png","response":"l","trial_type":"image-keyboard-response","trial_index":233,"plugin_version":"2.1.0","time_elapsed":554068,"subject_id":"90221","group":"Group2","full_date":"2025-11-10T00:33:26.416Z","date":"2025-11-10","time":"00:33:26","cor_ans":true},{"trial_type":"html-keyboard-response","rt":null,"stimulus":"<p style=\"color: green; font-size: 50px; font-weight: bold;\">Correct</p>","response":null,"trial_index":234,"plugin_version":"2.1.0","time_elapsed":554571,"subject_id":"90221","group":"Group2","full_date":"2025-11-10T00:33:26.416Z","date":"2025-11-10","time":"00:33:26"},{"correct_response":"a","task":"test_phase","broad_category":"I","image_png":"I_Andesite_08.png","image_id":8,"category_name":"Andesite","category":1,"distinct_rating":1.95,"distinct_type":"Bottom","item_type":"Foil","rt":1089,"stimulus":"Stimuli_Rocks480/I_Andesite_08.png","response":"l","trial_type":"image-keyboard-response","trial_index":235,"plugin_version":"2.1.0","time_elapsed":555675,"subject_id":"90221","group":"Group2","full_date":"2025-11-10T00:33:26.416Z","date":"2025-11-10","time":"00:33:2