[{"width":1280,"height":658,"webaudio":true,"browser":"safari","browser_version":"18.6.0","mobile":false,"os":"Mac OS","fullscreen":true,"vsync_rate":60.54,"webcam":true,"microphone":true,"trial_type":"browser-check","trial_index":0,"plugin_version":"2.1.0","time_elapsed":998,"subject_id":"88835","group":"Group1","full_date":"2025-11-11T20:24:14.804Z","date":"2025-11-11","time":"20:24:14"},{"success":true,"timeout":false,"failed_images":[],"failed_audio":[],"failed_video":[],"trial_type":"preload","trial_index":1,"plugin_version":"2.1.0","time_elapsed":11427,"subject_id":"88835","group":"Group1","full_date":"2025-11-11T20:24:14.804Z","date":"2025-11-11","time":"20:24:14"},{"rt":1526898,"url":"SONA_consent_memorability.html","trial_type":"external-html","trial_index":2,"plugin_version":"2.1.0","time_elapsed":2442095,"subject_id":"88835","group":"Group1","full_date":"2025-11-11T20:24:14.804Z","date":"2025-11-11","time":"20:24:14"},{"success":true,"rt":2628,"trial_type":"fullscreen","trial_index":3,"plugin_version":"2.1.0","time_elapsed":2445728,"subject_id":"88835","group":"Group1","full_date":"2025-11-11T20:24:14.804Z","date":"2025-11-11","time":"20:24:14"},{"rt":85610,"stimulus":"<div style=\"max-width: 760px; margin: auto; font-size: 20px; line-height: 1.5;\">\n      <h1 style=\"text-align:center; font-size: 30px;\">Instructions</h1>\n      <p>\n        Welcome to the study on <b>visual memory</b>. This experiment consists of <b>two phases</b>: \n        a <b>study phase</b> and a <b>test phase</b>.\n      </p>\n      <p>\n        In the study phase, you will see a series of rock images along with their category labels.\n        The images will appear one at a time.\n        <b>Your task</b> is to learn the categories to which the rock images belong \n        and to remember each image as accurately as possible.\n      </p> \n      <p>\n        After the study phase, <b>your memory will be tested</b>. \n        Additional instructions for the test phase will be provided at that time.\n      </p>\n      <p>\n        If your computer has multiple <b>language settings</b> (e.g., English and another language),\n        please make sure it is set to English before starting.\n      </p>\n      <p>\n        You can track your progress using the <b>completion bar</b> at the top of the screen. \n        Please note that the bar will refresh when the test phase begins \n        to give you an accurate sense of your progress in both phases.\n      </p> \n      <p>\n        Press the button below when you are ready to begin.\n      </p>\n    </div>","response":0,"trial_type":"html-button-response","trial_index":4,"plugin_version":"2.1.0","time_elapsed":2531334,"subject_id":"88835","group":"Group1","full_date":"2025-11-11T20:24:14.804Z","date":"2025-11-11","time":"20:24:14"},{"rt":null,"stimulus":"<p style=\"font-size: 50px; margin: 0; text-align: center;\">+</p>","response":null,"trial_type":"html-keyboard-response","trial_index":5,"plugin_version":"2.1.0","time_elapsed":2532338,"subject_id":"88835","group":"Group1","full_date":"2025-11-11T20:24:14.804Z","date":"2025-11-11","time":"20:24:14"},{"task":"memory_phase","broad_category":"M","image_png":"M_Quartzite_13.png","image_id":285,"category_name":"Quartzite","category":18,"distinct_rating":2.27,"distinct_type":"Bottom","rt":null,"stimulus":"Stimuli_Rocks480/M_Quartzite_13.png","response":null,"trial_type":"image-keyboard-response","trial_index":6,"plugin_version":"2.1.0","time_elapsed":2534855,"subject_id":"88835","group":"Group1","full_date":"2025-11-11T20:24:14.804Z","date":"2025-11-11","time":"20:24:14"},{"rt":null,"stimulus":"<p style=\"font-size: 50px; margin: 0; text-align: center;\">+</p>","response":null,"trial_type":"html-keyboard-response","trial_index":7,"plugin_version":"2.1.0","time_elapsed":2535857,"subject_id":"88835","group":"Group1","full_date":"2025-11-11T20:24:14.804Z","date":"2025-11-11","time":"20:24:14"},{"task":"memory_phase","broad_category":"S","image_png":"S_Conglomerate_05.png","image_id":373,"category_name":"Conglomerate","category":24,"distinct_rating":7.32,"distinct_type":"Top","rt":null,"stimulus":"Stimuli_Rocks480/S_Conglomerate_05.png","response":null,"trial_type":"image-keyboard-response","trial_index":8,"plugin_version":"2.1.0","time_elapsed":2538372,"subject_id":"88835","group":"Group1","full_date":"2025-11-11T20:24:14.804Z","date":"2025-11-11","time":"20:24:14"},{"rt":null,"stimulus":"<p style=\"font-size: 50px; margin: 0; text-align: center;\">+</p>","response":null,"trial_type":"html-keyboard-response","trial_index":9,"plugin_version":"2.1.0","time_elapsed":2539375,"subject_id":"88835","group":"Group1","full_date":"2025-11-11T20:24:14.804Z","date":"2025-11-11","time":"20:24:14"},{"task":"memory_phase","broad_category":"M","image_png":"M_Marble_06.png","image_id":230,"category_name":"Marble","category":15,"distinct_rating":3.4,"distinct_type":"Bottom","rt":null,"stimulus":"Stimuli_Rocks480/M_Marble_06.png","response":null,"trial_type":"image-keyboard-response","trial_index":10,"plugin_version":"2.1.0","time_elapsed":2541891,"subject_id":"88835","group":"Group1","full_date":"2025-11-11T20:24:14.804Z","date":"2025-11-11","time":"20:24:14"},{"rt":null,"stimulus":"<p style=\"font-size: 50px; margin: 0; text-align: center;\">+</p>","response":null,"trial_type":"html-keyboard-response","trial_index":11,"plugin_version":"2.1.0","time_elapsed":2542894,"subject_id":"88835","group":"Group1","full_date":"2025-11-11T20:24:14.804Z","date":"2025-11-11","time":"20:24:14"},{"task":"memory_phase","broad_category":"M","image_png":"M_Marble_16.png","image_id":240,"category_name":"Marble","category":15,"distinct_rating":2.57,"distinct_type":"Bottom","rt":null,"stimulus":"Stimuli_Rocks480/M_Marble_16.png","response":null,"trial_type":"image-keyboard-response","trial_index":12,"plugin_version":"2.1.0","time_elapsed":2545410,"subject_id":"88835","group":"Group1","full_date":"2025-11-11T20:24:14.804Z","date":"2025-11-11","time":"20:24:14"},{"rt":null,"stimulus":"<p style=\"font-size: 50px; margin: 0; text-align: center;\">+</p>","response":null,"trial_type":"html-keyboard-response","trial_index":13,"plugin_version":"2.1.0","time_elapsed":2546412,"subject_id":"88835","group":"Group1","full_date":"2025-11-11T20:24:14.804Z","date":"2025-11-11","time":"20:24:14"},{"task":"memory_phase","broad_category":"M","image_png":"M_Gneiss_05.png","image_id":197,"category_name":"Gneiss","category":13,"distinct_rating":2.97,"distinct_type":"Bottom","rt":null,"stimulus":"Stimuli_Rocks480/M_Gneiss_05.png","response":null,"trial_type":"image-keyboard-response","trial_index":14,"plugin_version":"2.1.0","time_elapsed":2548933,"subject_id":"88835","group":"Group1","full_date":"2025-11-11T20:24:14.804Z","date":"2025-11-11","time":"20:24:14"},{"rt":null,"stimulus":"<p style=\"font-size: 50px; margin: 0; text-align: center;\">+</p>","response":null,"trial_type":"html-keyboard-response","trial_index":15,"plugin_version":"2.1.0","time_elapsed":2549935,"subject_id":"88835","group":"Group1","full_date":"2025-11-11T20:24:14.804Z","date":"2025-11-11","time":"20:24:14"},{"task":"memory_phase","broad_category":"I","image_png":"I_Gabbro_08.png","image_id":56,"category_name":"Gabbro","category":4,"distinct_rating":3.02,"distinct_type":"Bottom","rt":null,"stimulus":"Stimuli_Rocks480/I_Gabbro_08.png","response":null,"trial_type":"image-keyboard-response","trial_index":16,"plugin_version":"2.1.0","time_elapsed":2552450,"subject_id":"88835","group":"Group1","full_date":"2025-11-11T20:24:14.804Z","date":"2025-11-11","time":"20:24:14"},{"rt":null,"stimulus":"<p style=\"font-size: 50px; margin: 0; text-align: center;\">+</p>","response":null,"trial_type":"html-keyboard-response","trial_index":17,"plugin_version":"2.1.0","time_elapsed":2553453,"subject_id":"88835","group":"Group1","full_date":"2025-11-11T20:24:14.804Z","date":"2025-11-11","time":"20:24:14"},{"task":"memory_phase","broad_category":"I","image_png":"I_Pumice_11.png","image_id":139,"category_name":"Pumice","category":9,"distinct_rating":1.74,"distinct_type":"Bottom","rt":null,"stimulus":"Stimuli_Rocks480/I_Pumice_11.png","response":null,"trial_type":"image-keyboard-response","trial_index":18,"plugin_version":"2.1.0","time_elapsed":2555965,"subject_id":"88835","group":"Group1","full_date":"2025-11-11T20:24:14.804Z","date":"2025-11-11","time":"20:24:14"},{"rt":null,"stimulus":"<p style=\"font-size: 50px; margin: 0; text-align: center;\">+</p>","response":null,"trial_type":"html-keyboard-response","trial_index":19,"plugin_version":"2.1.0","time_elapsed":2556967,"subject_id":"88835","group":"Group1","full_date":"2025-11-11T20:24:14.804Z","date":"2025-11-11","time":"20:24:14"},{"task":"memory_phase","broad_category":"M","image_png":"M_Slate_15.png","image_id":319,"category_name":"Slate","category":20,"distinct_rating":2.13,"distinct_type":"Bottom","rt":null,"stimulus":"Stimuli_Rocks480/M_Slate_15.png","response":null,"trial_type":"image-keyboard-response","trial_index":20,"plugin_version":"2.1.0","time_elapsed":2559478,"subject_id":"88835","group":"Group1","full_date":"2025-11-11T20:24:14.804Z","date":"2025-11-11","time":"20:24:14"},{"rt":null,"stimulus":"<p style=\"font-size: 50px; margin: 0; text-align: center;\">+</p>","response":null,"trial_type":"html-keyboard-response","trial_index":21,"plugin_version":"2.1.0","time_elapsed":2560480,"subject_id":"88835","group":"Group1","full_date":"2025-11-11T20:24:14.804Z","date":"2025-11-11","time":"20:24:14"},{"task":"memory_phase","broad_category":"M","image_png":"M_Gneiss_13.png","image_id":205,"category_name":"Gneiss","category":13,"distinct_rating":3.26,"distinct_type":"Bottom","rt":null,"stimulus":"Stimuli_Rocks480/M_Gneiss_13.png","response":null,"trial_type":"image-keyboard-response","trial_index":22,"plugin_version":"2.1.0","time_elapsed":2562992,"subject_id":"88835","group":"Group1","full_date":"2025-11-11T20:24:14.804Z","date":"2025-11-11","time":"20:24:14"},{"rt":null,"stimulus":"<p style=\"font-size: 50px; margin: 0; text-align: center;\">+</p>","response":null,"trial_type":"html-keyboard-response","trial_index":23,"plugin_version":"2.1.0","time_elapsed":2563995,"subject_id":"88835","group":"Group1","full_date":"2025-11-11T20:24:14.804Z","date":"2025-11-11","time":"20:24:14"},{"task":"memory_phase","broad_category":"I","image_png":"I_Basalt_02.png","image_id":18,"category_name":"Basalt","category":2,"distinct_rating":1.84,"distinct_type":"Bottom","rt":null,"stimulus":"Stimuli_Rocks480/I_Basalt_02.png","response":null,"trial_type":"image-keyboard-response","trial_index":24,"plugin_version":"2.1.0","time_elapsed":2566511,"subject_id":"88835","group":"Group1","full_date":"2025-11-11T20:24:14.804Z","date":"2025-11-11","time":"20:24:14"},{"rt":null,"stimulus":"<p style=\"font-size: 50px; margin: 0; text-align: center;\">+</p>","response":null,"trial_type":"html-keyboard-response","trial_index":25,"plugin_version":"2.1.0","time_elapsed":2567513,"subject_id":"88835","group":"Group1","full_date":"2025-11-11T20:24:14.804Z","date":"2025-11-11","time":"20:24:14"},{"task":"memory_phase","broad_category":"I","image_png":"I_Pumice_12.png","image_id":140,"category_name":"Pumice","category":9,"distinct_rating":2.97,"distinct_type":"Bottom","rt":null,"stimulus":"Stimuli_Rocks480/I_Pumice_12.png","response":null,"trial_type":"image-keyboard-response","trial_index":26,"plugin_version":"2.1.0","time_elapsed":2570024,"subject_id":"88835","group":"Group1","full_date":"2025-11-11T20:24:14.804Z","date":"2025-11-11","time":"20:24:14"},{"rt":null,"stimulus":"<p style=\"font-size: 50px; margin: 0; text-align: center;\">+</p>","response":null,"trial_type":"html-keyboard-response","trial_index":27,"plugin_version":"2.1.0","time_elapsed":2571026,"subject_id":"88835","group":"Group1","full_date":"2025-11-11T20:24:14.804Z","date":"2025-11-11","time":"20:24:14"},{"task":"memory_phase","broad_category":"I","image_png":"I_Pegmatite_10.png","image_id":106,"category_name":"Pegmatite","category":7,"distinct_rating":7.66,"distinct_type":"Top","rt":null,"stimulus":"Stimuli_Rocks480/I_Pegmatite_10.png","response":null,"trial_type":"image-keyboard-response","trial_index":28,"plugin_version":"2.1.0","time_elapsed":2573540,"subject_id":"88835","group":"Group1","full_date":"2025-11-11T20:24:14.804Z","date":"2025-11-11","time":"20:24:14"},{"rt":null,"stimulus":"<p style=\"font-size: 50px; margin: 0; text-align: center;\">+</p>","response":null,"trial_type":"html-keyboard-response","trial_index":29,"plugin_version":"2.1.0","time_elapsed":2574543,"subject_id":"88835","group":"Group1","full_date":"2025-11-11T20:24:14.804Z","date":"2025-11-11","time":"20:24:14"},{"task":"memory_phase","broad_category":"S","image_png":"S_Rock Gypsum_04.png","image_id":420,"category_name":"Rock Gypsum","category":27,"distinct_rating":7.61,"distinct_type":"Top","rt":null,"stimulus":"Stimuli_Rocks480/S_Rock Gypsum_04.png","response":null,"trial_type":"image-keyboard-response","trial_index":30,"plugin_version":"2.1.0","time_elapsed":2577060,"subject_id":"88835","group":"Group1","full_date":"2025-11-11T20:24:14.804Z","date":"2025-11-11","time":"20:24:14"},{"rt":null,"stimulus":"<p style=\"font-size: 50px; margin: 0; text-align: center;\">+</p>","response":null,"trial_type":"html-keyboard-response","trial_index":31,"plugin_version":"2.1.0","time_elapsed":2578062,"subject_id":"88835","group":"Group1","full_date":"2025-11-11T20:24:14.804Z","date":"2025-11-11","time":"20:24:14"},{"task":"memory_phase","broad_category":"S","image_png":"S_Rock Salt_01.png","image_id":433,"category_name":"Rock Salt","category":28,"distinct_rating":7.18,"distinct_type":"Top","rt":null,"stimulus":"Stimuli_Rocks480/S_Rock Salt_01.png","response":null,"trial_type":"image-keyboard-response","trial_index":32,"plugin_version":"2.1.0","time_elapsed":2580585,"subject_id":"88835","group":"Group1","full_date":"2025-11-11T20:24:14.804Z","date":"2025-11-11","time":"20:24:14"},{"rt":null,"stimulus":"<p style=\"font-size: 50px; margin: 0; text-align: center;\">+</p>","response":null,"trial_type":"html-keyboard-response","trial_index":33,"plugin_version":"2.1.0","time_elapsed":2581588,"subject_id":"88835","group":"Group1","full_date":"2025-11-11T20:24:14.804Z","date":"2025-11-11","time":"20:24:14"},{"task":"memory_phase","broad_category":"I","image_png":"I_Diorite_04.png","image_id":36,"category_name":"Diorite","category":3,"distinct_rating":2.98,"distinct_type":"Bottom","rt":null,"stimulus":"Stimuli_Rocks480/I_Diorite_04.png","response":null,"trial_type":"image-keyboard-response","trial_index":34,"plugin_version":"2.1.0","time_elapsed":2584103,"subject_id":"88835","group":"Group1","full_date":"2025-11-11T20:24:14.804Z","date":"2025-11-11","time":"20:24:14"},{"rt":null,"stimulus":"<p style=\"font-size: 50px; margin: 0; text-align: center;\">+</p>","response":null,"trial_type":"html-keyboard-response","trial_index":35,"plugin_version":"2.1.0","time_elapsed":2585105,"subject_id":"88835","group":"Group1","full_date":"2025-11-11T20:24:14.804Z","date":"2025-11-11","time":"20:24:14"},{"task":"memory_phase","broad_category":"S","image_png":"S_Dolomite_13.png","image_id":397,"category_name":"Dolomite","category":25,"distinct_rating":1.77,"distinct_type":"Bottom","rt":null,"stimulus":"Stimuli_Rocks480/S_Dolomite_13.png","response":null,"trial_type":"image-keyboard-response","trial_index":36,"plugin_version":"2.1.0","time_elapsed":2587620,"subject_id":"88835","group":"Group1","full_date":"2025-11-11T20:24:14.804Z","date":"2025-11-11","time":"20:24:14"},{"rt":null,"stimulus":"<p style=\"font-size: 50px; margin: 0; text-align: center;\">+</p>","response":null,"trial_type":"html-keyboard-response","trial_index":37,"plugin_version":"2.1.0","time_elapsed":2588623,"subject_id":"88835","group":"Group1","full_date":"2025-11-11T20:24:14.804Z","date":"2025-11-11","time":"20:24:14"},{"task":"memory_phase","broad_category":"I","image_png":"I_Gabbro_11.png","image_id":59,"category_name":"Gabbro","category":4,"distinct_rating":1.99,"distinct_type":"Bottom","rt":null,"stimulus":"Stimuli_Rocks480/I_Gabbro_11.png","response":null,"trial_type":"image-keyboard-response","trial_index":38,"plugin_version":"2.1.0","time_elapsed":2591136,"subject_id":"88835","group":"Group1","full_date":"2025-11-11T20:24:14.804Z","date":"2025-11-11","time":"20:24:14"},{"rt":null,"stimulus":"<p style=\"font-size: 50px; margin: 0; text-align: center;\">+</p>","response":null,"trial_type":"html-keyboard-response","trial_index":39,"plugin_version":"2.1.0","time_elapsed":2592139,"subject_id":"88835","group":"Group1","full_date":"2025-11-11T20:24:14.804Z","date":"2025-11-11","time":"20:24:14"},{"task":"memory_phase","broad_category":"I","image_png":"I_Rhyolite_16.png","image_id":160,"category_name":"Rhyolite","category":10,"distinct_rating":2.19,"distinct_type":"Bottom","rt":null,"stimulus":"Stimuli_Rocks480/I_Rhyolite_16.png","response":null,"trial_type":"image-keyboard-response","trial_index":40,"plugin_version":"2.1.0","time_elapsed":2594652,"subject_id":"88835","group":"Group1","full_date":"2025-11-11T20:24:14.804Z","date":"2025-11-11","time":"20:24:14"},{"rt":null,"stimulus":"<p style=\"font-size: 50px; margin: 0; text-align: center;\">+</p>","response":null,"trial_type":"html-keyboard-response","trial_index":41,"plugin_version":"2.1.0","time_elapsed":2595654,"subject_id":"88835","group":"Group1","full_date":"2025-11-11T20:24:14.804Z","date":"2025-11-11","time":"20:24:14"},{"task":"memory_phase","broad_category":"I","image_png":"I_Basalt_09.png","image_id":25,"category_name":"Basalt","category":2,"distinct_rating":1.89,"distinct_type":"Bottom","rt":null,"stimulus":"Stimuli_Rocks480/I_Basalt_09.png","response":null,"trial_type":"image-keyboard-response","trial_index":42,"plugin_version":"2.1.0","time_elapsed":2598167,"subject_id":"88835","group":"Group1","full_date":"2025-11-11T20:24:14.804Z","date":"2025-11-11","time":"20:24:14"},{"rt":null,"stimulus":"<p style=\"font-size: 50px; margin: 0; text-align: center;\">+</p>","response":null,"trial_type":"html-keyboard-response","trial_index":43,"plugin_version":"2.1.0","time_elapsed":2599169,"subject_id":"88835","group":"Group1","full_date":"2025-11-11T20:24:14.804Z","date":"2025-11-11","time":"20:24:14"},{"task":"memory_phase","broad_category":"S","image_png":"S_Shale_12.png","image_id":476,"category_name":"Shale","category":30,"distinct_rating":2.48,"distinct_type":"Bottom","rt":null,"stimulus":"Stimuli_Rocks480/S_Shale_12.png","response":null,"trial_type":"image-keyboard-response","trial_index":44,"plugin_version":"2.1.0","time_elapsed":2601684,"subject_id":"88835","group":"Group1","full_date":"2025-11-11T20:24:14.804Z","date":"2025-11-11","time":"20:24:14"},{"rt":null,"stimulus":"<p style=\"font-size: 50px; margin: 0; text-align: center;\">+</p>","response":null,"trial_type":"html-keyboard-response","trial_index":45,"plugin_version":"2.1.0","time_elapsed":2602687,"subject_id":"88835","group":"Group1","full_date":"2025-11-11T20:24:14.804Z","date":"2025-11-11","time":"20:24:14"},{"task":"memory_phase","broad_category":"M","image_png":"M_Slate_11.png","image_id":315,"category_name":"Slate","category":20,"distinct_rating":2.75,"distinct_type":"Bottom","rt":null,"stimulus":"Stimuli_Rocks480/M_Slate_11.png","response":null,"trial_type":"image-keyboard-response","trial_index":46,"plugin_version":"2.1.0","time_elapsed":2605201,"subject_id":"88835","group":"Group1","full_date":"2025-11-11T20:24:14.804Z","date":"2025-11-11","time":"20:24:14"},{"rt":null,"stimulus":"<p style=\"font-size: 50px; margin: 0; text-align: center;\">+</p>","response":null,"trial_type":"html-keyboard-response","trial_index":47,"plugin_version":"2.1.0","time_elapsed":2606203,"subject_id":"88835","group":"Group1","full_date":"2025-11-11T20:24:14.804Z","date":"2025-11-11","time":"20:24:14"},{"task":"memory_phase","broad_category":"M","image_png":"M_Slate_03.png","image_id":307,"category_name":"Slate","category":20,"distinct_rating":1.87,"distinct_type":"Bottom","rt":null,"stimulus":"Stimuli_Rocks480/M_Slate_03.png","response":null,"trial_type":"image-keyboard-response","trial_index":48,"plugin_version":"2.1.0","time_elapsed":2608718,"subject_id":"88835","group":"Group1","full_date":"2025-11-11T20:24:14.804Z","date":"2025-11-11","time":"20:24:14"},{"rt":null,"stimulus":"<p style=\"font-size: 50px; margin: 0; text-align: center;\">+</p>","response":null,"trial_type":"html-keyboard-response","trial_index":49,"plugin_version":"2.1.0","time_elapsed":2609720,"subject_id":"88835","group":"Group1","full_date":"2025-11-11T20:24:14.804Z","date":"2025-11-11","time":"20:24:14"},{"task":"memory_phase","broad_category":"S","image_png":"S_Dolomite_12.png","image_id":396,"category_name":"Dolomite","category":25,"distinct_rating":1.85,"distinct_type":"Bottom","rt":null,"stimulus":"Stimuli_Rocks480/S_Dolomite_12.png","response":null,"trial_type":"image-keyboard-response","trial_index":50,"plugin_version":"2.1.0","time_elapsed":2612234,"subject_id":"88835","group":"Group1","full_date":"2025-11-11T20:24:14.804Z","date":"2025-11-11","time":"20:24:14"},{"rt":null,"stimulus":"<p style=\"font-size: 50px; margin: 0; text-align: center;\">+</p>","response":null,"trial_type":"html-keyboard-response","trial_index":51,"plugin_version":"2.1.0","time_elapsed":2613236,"subject_id":"88835","group":"Group1","full_date":"2025-11-11T20:24:14.804Z","date":"2025-11-11","time":"20:24:14"},{"task":"memory_phase","broad_category":"S","image_png":"S_Shale_08.png","image_id":472,"category_name":"Shale","category":30,"distinct_rating":2.55,"distinct_type":"Bottom","rt":null,"stimulus":"Stimuli_Rocks480/S_Shale_08.png","response":null,"trial_type":"image-keyboard-response","trial_index":52,"plugin_version":"2.1.0","time_elapsed":2615754,"subject_id":"88835","group":"Group1","full_date":"2025-11-11T20:24:14.804Z","date":"2025-11-11","time":"20:24:14"},{"rt":null,"stimulus":"<p style=\"font-size: 50px; margin: 0; text-align: center;\">+</p>","response":null,"trial_type":"html-keyboard-response","trial_index":53,"plugin_version":"2.1.0","time_elapsed":2616755,"subject_id":"88835","group":"Group1","full_date":"2025-11-11T20:24:14.804Z","date":"2025-11-11","time":"20:24:14"},{"task":"memory_phase","broad_category":"M","image_png":"M_Marble_04.png","image_id":228,"category_name":"Marble","category":15,"distinct_rating":3.15,"distinct_type":"Bottom","rt":null,"stimulus":"Stimuli_Rocks480/M_Marble_04.png","response":null,"trial_type":"image-keyboard-response","trial_index":54,"plugin_version":"2.1.0","time_elapsed":2619269,"subject_id":"88835","group":"Group1","full_date":"2025-11-11T20:24:14.804Z","date":"2025-11-11","time":"20:24:14"},{"rt":5172,"stimulus":"<p style=\"font-size: 35px;\">Press SPACE to continue study phase</p>","response":" ","trial_type":"html-keyboard-response","trial_index":55,"plugin_version":"2.1.0","time_elapsed":2624444,"subject_id":"88835","group":"Group1","full_date":"2025-11-11T20:24:14.804Z","date":"2025-11-11","time":"20:24:14"},{"rt":null,"stimulus":"<p style=\"font-size: 50px; margin: 0; text-align: center;\">+</p>","response":null,"trial_type":"html-keyboard-response","trial_index":56,"plugin_version":"2.1.0","time_elapsed":2625447,"subject_id":"88835","group":"Group1","full_date":"2025-11-11T20:24:14.804Z","date":"2025-11-11","time":"20:24:14"},{"task":"memory_phase","broad_category":"I","image_png":"I_Andesite_06.png","image_id":6,"category_name":"Andesite","category":1,"distinct_rating":3.17,"distinct_type":"Bottom","rt":null,"stimulus":"Stimuli_Rocks480/I_Andesite_06.png","response":null,"trial_type":"image-keyboard-response","trial_index":57,"plugin_version":"2.1.0","time_elapsed":2627963,"subject_id":"88835","group":"Group1","full_date":"2025-11-11T20:24:14.804Z","date":"2025-11-11","time":"20:24:14"},{"rt":null,"stimulus":"<p style=\"font-size: 50px; margin: 0; text-align: center;\">+</p>","response":null,"trial_type":"html-keyboard-response","trial_index":58,"plugin_version":"2.1.0","time_elapsed":2628965,"subject_id":"88835","group":"Group1","full_date":"2025-11-11T20:24:14.804Z","date":"2025-11-11","time":"20:24:14"},{"task":"memory_phase","broad_category":"I","image_png":"I_Pumice_08.png","image_id":136,"category_name":"Pumice","category":9,"distinct_rating":3.1,"distinct_type":"Bottom","rt":null,"stimulus":"Stimuli_Rocks480/I_Pumice_08.png","response":null,"trial_type":"image-keyboard-response","trial_index":59,"plugin_version":"2.1.0","time_elapsed":2631480,"subject_id":"88835","group":"Group1","full_date":"2025-11-11T20:24:14.804Z","date":"2025-11-11","time":"20:24:14"},{"rt":null,"stimulus":"<p style=\"font-size: 50px; margin: 0; text-align: center;\">+</p>","response":null,"trial_type":"html-keyboard-response","trial_index":60,"plugin_version":"2.1.0","time_elapsed":2632483,"subject_id":"88835","group":"Group1","full_date":"2025-11-11T20:24:14.804Z","date":"2025-11-11","time":"20:24:14"},{"task":"memory_phase","broad_category":"S","image_png":"S_Shale_01.png","image_id":465,"category_name":"Shale","category":30,"distinct_rating":2.7,"distinct_type":"Bottom","rt":null,"stimulus":"Stimuli_Rocks480/S_Shale_01.png","response":null,"trial_type":"image-keyboard-response","trial_index":61,"plugin_version":"2.1.0","time_elapsed":2634998,"subject_id":"88835","group":"Group1","full_date":"2025-11-11T20:24:14.804Z","date":"2025-11-11","time":"20:24:14"},{"rt":null,"stimulus":"<p style=\"font-size: 50px; margin: 0; text-align: center;\">+</p>","response":null,"trial_type":"html-keyboard-response","trial_index":62,"plugin_version":"2.1.0","time_elapsed":2636000,"subject_id":"88835","group":"Group1","full_date":"2025-11-11T20:24:14.804Z","date":"2025-11-11","time":"20:24:14"},{"task":"memory_phase","broad_category":"I","image_png":"I_Gabbro_16.png","image_id":64,"category_name":"Gabbro","category":4,"distinct_rating":2.52,"distinct_type":"Bottom","rt":null,"stimulus":"Stimuli_Rocks480/I_Gabbro_16.png","response":null,"trial_type":"image-keyboard-response","trial_index":63,"plugin_version":"2.1.0","time_elapsed":2638515,"subject_id":"88835","group":"Group1","full_date":"2025-11-11T20:24:14.804Z","date":"2025-11-11","time":"20:24:14"},{"rt":null,"stimulus":"<p style=\"font-size: 50px; margin: 0; text-align: center;\">+</p>","response":null,"trial_type":"html-keyboard-response","trial_index":64,"plugin_version":"2.1.0","time_elapsed":2639518,"subject_id":"88835","group":"Group1","full_date":"2025-11-11T20:24:14.804Z","date":"2025-11-11","time":"20:24:14"},{"task":"memory_phase","broad_category":"I","image_png":"I_Andesite_08.png","image_id":8,"category_name":"Andesite","category":1,"distinct_rating":1.95,"distinct_type":"Bottom","rt":null,"stimulus":"Stimuli_Rocks480/I_Andesite_08.png","response":null,"trial_type":"image-keyboard-response","trial_index":65,"plugin_version":"2.1.0","time_elapsed":2642034,"subject_id":"88835","group":"Group1","full_date":"2025-11-11T20:24:14.804Z","date":"2025-11-11","time":"20:24:14"},{"rt":null,"stimulus":"<p style=\"font-size: 50px; margin: 0; text-align: center;\">+</p>","response":null,"trial_type":"html-keyboard-response","trial_index":66,"plugin_version":"2.1.0","time_elapsed":2643036,"subject_id":"88835","group":"Group1","full_date":"2025-11-11T20:24:14.804Z","date":"2025-11-11","time":"20:24:14"},{"task":"memory_phase","broad_category":"I","image_png":"I_Rhyolite_14.png","image_id":158,"category_name":"Rhyolite","category":10,"distinct_rating":2.59,"distinct_type":"Bottom","rt":null,"stimulus":"Stimuli_Rocks480/I_Rhyolite_14.png","response":null,"trial_type":"image-keyboard-response","trial_index":67,"plugin_version":"2.1.0","time_elapsed":2645550,"subject_id":"88835","group":"Group1","full_date":"2025-11-11T20:24:14.804Z","date":"2025-11-11","time":"20:24:14"},{"rt":null,"stimulus":"<p style=\"font-size: 50px; margin: 0; text-align: center;\">+</p>","response":null,"trial_type":"html-keyboard-response","trial_index":68,"plugin_version":"2.1.0","time_elapsed":2646552,"subject_id":"88835","group":"Group1","full_date":"2025-11-11T20:24:14.804Z","date":"2025-11-11","time":"20:24:14"},{"task":"memory_phase","broad_category":"M","image_png":"M_Quartzite_05.png","image_id":277,"category_name":"Quartzite","category":18,"distinct_rating":2.23,"distinct_type":"Bottom","rt":null,"stimulus":"Stimuli_Rocks480/M_Quartzite_05.png","response":null,"trial_type":"image-keyboard-response","trial_index":69,"plugin_version":"2.1.0","time_elapsed":2649069,"subject_id":"88835","group":"Group1","full_date":"2025-11-11T20:24:14.804Z","date":"2025-11-11","time":"20:24:14"},{"rt":null,"stimulus":"<p style=\"font-size: 50px; margin: 0; text-align: center;\">+</p>","response":null,"trial_type":"html-keyboard-response","trial_index":70,"plugin_version":"2.1.0","time_elapsed":2650071,"subject_id":"88835","group":"Group1","full_date":"2025-11-11T20:24:14.804Z","date":"2025-11-11","time":"20:24:14"},{"task":"memory_phase","broad_category":"I","image_png":"I_Rhyolite_11.png","image_id":155,"category_name":"Rhyolite","category":10,"distinct_rating":1.73,"distinct_type":"Bottom","rt":null,"stimulus":"Stimuli_Rocks480/I_Rhyolite_11.png","response":null,"trial_type":"image-keyboard-response","trial_index":71,"plugin_version":"2.1.0","time_elapsed":2652586,"subject_id":"88835","group":"Group1","full_date":"2025-11-11T20:24:14.804Z","date":"2025-11-11","time":"20:24:14"},{"rt":null,"stimulus":"<p style=\"font-size: 50px; margin: 0; text-align: center;\">+</p>","response":null,"trial_type":"html-keyboard-response","trial_index":72,"plugin_version":"2.1.0","time_elapsed":2653588,"subject_id":"88835","group":"Group1","full_date":"2025-11-11T20:24:14.804Z","date":"2025-11-11","time":"20:24:14"},{"task":"memory_phase","broad_category":"I","image_png":"I_Obsidian_05.png","image_id":85,"category_name":"Obsidian","category":6,"distinct_rating":7.32,"distinct_type":"Top","rt":null,"stimulus":"Stimuli_Rocks480/I_Obsidian_05.png","response":null,"trial_type":"image-keyboard-response","trial_index":73,"plugin_version":"2.1.0","time_elapsed":2656108,"subject_id":"88835","group":"Group1","full_date":"2025-11-11T20:24:14.804Z","date":"2025-11-11","time":"20:24:14"},{"rt":null,"stimulus":"<p style=\"font-size: 50px; margin: 0; text-align: center;\">+</p>","response":null,"trial_type":"html-keyboard-response","trial_index":74,"plugin_version":"2.1.0","time_elapsed":2657110,"subject_id":"88835","group":"Group1","full_date":"2025-11-11T20:24:14.804Z","date":"2025-11-11","time":"20:24:14"},{"task":"memory_phase","broad_category":"M","image_png":"M_Phyllite_10.png","image_id":266,"category_name":"Phyllite","category":17,"distinct_rating":2.6,"distinct_type":"Bottom","rt":null,"stimulus":"Stimuli_Rocks480/M_Phyllite_10.png","response":null,"trial_type":"image-keyboard-response","trial_index":75,"plugin_version":"2.1.0","time_elapsed":2659622,"subject_id":"88835","group":"Group1","full_date":"2025-11-11T20:24:14.804Z","date":"2025-11-11","time":"20:24:14"},{"rt":null,"stimulus":"<p style=\"font-size: 50px; margin: 0; text-align: center;\">+</p>","response":null,"trial_type":"html-keyboard-response","trial_index":76,"plugin_version":"2.1.0","time_elapsed":2660624,"subject_id":"88835","group":"Group1","full_date":"2025-11-11T20:24:14.804Z","date":"2025-11-11","time":"20:24:14"},{"task":"memory_phase","broad_category":"M","image_png":"M_Quartzite_08.png","image_id":280,"category_name":"Quartzite","category":18,"distinct_rating":2.15,"distinct_type":"Bottom","rt":null,"stimulus":"Stimuli_Rocks480/M_Quartzite_08.png","response":null,"trial_type":"image-keyboard-response","trial_index":77,"plugin_version":"2.1.0","time_elapsed":2663140,"subject_id":"88835","group":"Group1","full_date":"2025-11-11T20:24:14.804Z","date":"2025-11-11","time":"20:24:14"},{"rt":null,"stimulus":"<p style=\"font-size: 50px; margin: 0; text-align: center;\">+</p>","response":null,"trial_type":"html-keyboard-response","trial_index":78,"plugin_version":"2.1.0","time_elapsed":2664142,"subject_id":"88835","group":"Group1","full_date":"2025-11-11T20:24:14.804Z","date":"2025-11-11","time":"20:24:14"},{"task":"memory_phase","broad_category":"I","image_png":"I_Pegmatite_16.png","image_id":112,"category_name":"Pegmatite","category":7,"distinct_rating":7.03,"distinct_type":"Top","rt":null,"stimulus":"Stimuli_Rocks480/I_Pegmatite_16.png","response":null,"trial_type":"image-keyboard-response","trial_index":79,"plugin_version":"2.1.0","time_elapsed":2666657,"subject_id":"88835","group":"Group1","full_date":"2025-11-11T20:24:14.804Z","date":"2025-11-11","time":"20:24:14"},{"rt":null,"stimulus":"<p style=\"font-size: 50px; margin: 0; text-align: center;\">+</p>","response":null,"trial_type":"html-keyboard-response","trial_index":80,"plugin_version":"2.1.0","time_elapsed":2667659,"subject_id":"88835","group":"Group1","full_date":"2025-11-11T20:24:14.804Z","date":"2025-11-11","time":"20:24:14"},{"task":"memory_phase","broad_category":"M","image_png":"M_Gneiss_06.png","image_id":198,"category_name":"Gneiss","category":13,"distinct_rating":2.65,"distinct_type":"Bottom","rt":null,"stimulus":"Stimuli_Rocks480/M_Gneiss_06.png","response":null,"trial_type":"image-keyboard-response","trial_index":81,"plugin_version":"2.1.0","time_elapsed":2670177,"subject_id":"88835","group":"Group1","full_date":"2025-11-11T20:24:14.804Z","date":"2025-11-11","time":"20:24:14"},{"rt":null,"stimulus":"<p style=\"font-size: 50px; margin: 0; text-align: center;\">+</p>","response":null,"trial_type":"html-keyboard-response","trial_index":82,"plugin_version":"2.1.0","time_elapsed":2671180,"subject_id":"88835","group":"Group1","full_date":"2025-11-11T20:24:14.804Z","date":"2025-11-11","time":"20:24:14"},{"task":"memory_phase","broad_category":"S","image_png":"S_Sandstone_03.png","image_id":451,"category_name":"Sandstone","category":29,"distinct_rating":1.86,"distinct_type":"Bottom","rt":null,"stimulus":"Stimuli_Rocks480/S_Sandstone_03.png","response":null,"trial_type":"image-keyboard-response","trial_index":83,"plugin_version":"2.1.0","time_elapsed":2673694,"subject_id":"88835","group":"Group1","full_date":"2025-11-11T20:24:14.804Z","date":"2025-11-11","time":"20:24:14"},{"rt":null,"stimulus":"<p style=\"font-size: 50px; margin: 0; text-align: center;\">+</p>","response":null,"trial_type":"html-keyboard-response","trial_index":84,"plugin_version":"2.1.0","time_elapsed":2674697,"subject_id":"88835","group":"Group1","full_date":"2025-11-11T20:24:14.804Z","date":"2025-11-11","time":"20:24:14"},{"task":"memory_phase","broad_category":"S","image_png":"S_Dolomite_14.png","image_id":398,"category_name":"Dolomite","category":25,"distinct_rating":1.43,"distinct_type":"Bottom","rt":null,"stimulus":"Stimuli_Rocks480/S_Dolomite_14.png","response":null,"trial_type":"image-keyboard-response","trial_index":85,"plugin_version":"2.1.0","time_elapsed":2677217,"subject_id":"88835","group":"Group1","full_date":"2025-11-11T20:24:14.804Z","date":"2025-11-11","time":"20:24:14"},{"rt":null,"stimulus":"<p style=\"font-size: 50px; margin: 0; text-align: center;\">+</p>","response":null,"trial_type":"html-keyboard-response","trial_index":86,"plugin_version":"2.1.0","time_elapsed":2678219,"subject_id":"88835","group":"Group1","full_date":"2025-11-11T20:24:14.804Z","date":"2025-11-11","time":"20:24:14"},{"task":"memory_phase","broad_category":"S","image_png":"S_Breccia_11.png","image_id":347,"category_name":"Breccia","category":22,"distinct_rating":6.7,"distinct_type":"Top","rt":null,"stimulus":"Stimuli_Rocks480/S_Breccia_11.png","response":null,"trial_type":"image-keyboard-response","trial_index":87,"plugin_version":"2.1.0","time_elapsed":2680740,"subject_id":"88835","group":"Group1","full_date":"2025-11-11T20:24:14.804Z","date":"2025-11-11","time":"20:24:14"},{"rt":null,"stimulus":"<p style=\"font-size: 50px; margin: 0; text-align: center;\">+</p>","response":null,"trial_type":"html-keyboard-response","trial_index":88,"plugin_version":"2.1.0","time_elapsed":2681742,"subject_id":"88835","group":"Group1","full_date":"2025-11-11T20:24:14.804Z","date":"2025-11-11","time":"20:24:14"},{"task":"memory_phase","broad_category":"I","image_png":"I_Basalt_01.png","image_id":17,"category_name":"Basalt","category":2,"distinct_rating":1.92,"distinct_type":"Bottom","rt":null,"stimulus":"Stimuli_Rocks480/I_Basalt_01.png","response":null,"trial_type":"image-keyboard-response","trial_index":89,"plugin_version":"2.1.0","time_elapsed":2684260,"subject_id":"88835","group":"Group1","full_date":"2025-11-11T20:24:14.804Z","date":"2025-11-11","time":"20:24:14"},{"rt":null,"stimulus":"<p style=\"font-size: 50px; margin: 0; text-align: center;\">+</p>","response":null,"trial_type":"html-keyboard-response","trial_index":90,"plugin_version":"2.1.0","time_elapsed":2685262,"subject_id":"88835","group":"Group1","full_date":"2025-11-11T20:24:14.804Z","date":"2025-11-11","time":"20:24:14"},{"task":"memory_phase","broad_category":"S","image_png":"S_Sandstone_16.png","image_id":464,"category_name":"Sandstone","category":29,"distinct_rating":1.93,"distinct_type":"Bottom","rt":null,"stimulus":"Stimuli_Rocks480/S_Sandstone_16.png","response":null,"trial_type":"image-keyboard-response","trial_index":91,"plugin_version":"2.1.0","time_elapsed":2687775,"subject_id":"88835","group":"Group1","full_date":"2025-11-11T20:24:14.804Z","date":"2025-11-11","time":"20:24:14"},{"rt":null,"stimulus":"<p style=\"font-size: 50px; margin: 0; text-align: center;\">+</p>","response":null,"trial_type":"html-keyboard-response","trial_index":92,"plugin_version":"2.1.0","time_elapsed":2688777,"subject_id":"88835","group":"Group1","full_date":"2025-11-11T20:24:14.804Z","date":"2025-11-11","time":"20:24:14"},{"task":"memory_phase","broad_category":"M","image_png":"M_Phyllite_03.png","image_id":259,"category_name":"Phyllite","category":17,"distinct_rating":2.5,"distinct_type":"Bottom","rt":null,"stimulus":"Stimuli_Rocks480/M_Phyllite_03.png","response":null,"trial_type":"image-keyboard-response","trial_index":93,"plugin_version":"2.1.0","time_elapsed":2691293,"subject_id":"88835","group":"Group1","full_date":"2025-11-11T20:24:14.804Z","date":"2025-11-11","time":"20:24:14"},{"rt":null,"stimulus":"<p style=\"font-size: 50px; margin: 0; text-align: center;\">+</p>","response":null,"trial_type":"html-keyboard-response","trial_index":94,"plugin_version":"2.1.0","time_elapsed":2692295,"subject_id":"88835","group":"Group1","full_date":"2025-11-11T20:24:14.804Z","date":"2025-11-11","time":"20:24:14"},{"task":"memory_phase","broad_category":"I","image_png":"I_Andesite_10.png","image_id":10,"category_name":"Andesite","category":1,"distinct_rating":3.15,"distinct_type":"Bottom","rt":null,"stimulus":"Stimuli_Rocks480/I_Andesite_10.png","response":null,"trial_type":"image-keyboard-response","trial_index":95,"plugin_version":"2.1.0","time_elapsed":2694808,"subject_id":"88835","group":"Group1","full_date":"2025-11-11T20:24:14.804Z","date":"2025-11-11","time":"20:24:14"},{"rt":null,"stimulus":"<p style=\"font-size: 50px; margin: 0; text-align: center;\">+</p>","response":null,"trial_type":"html-keyboard-response","trial_index":96,"plugin_version":"2.1.0","time_elapsed":2695810,"subject_id":"88835","group":"Group1","full_date":"2025-11-11T20:24:14.804Z","date":"2025-11-11","time":"20:24:14"},{"task":"memory_phase","broad_category":"I","image_png":"I_Diorite_05.png","image_id":37,"category_name":"Diorite","category":3,"distinct_rating":3.08,"distinct_type":"Bottom","rt":null,"stimulus":"Stimuli_Rocks480/I_Diorite_05.png","response":null,"trial_type":"image-keyboard-response","trial_index":97,"plugin_version":"2.1.0","time_elapsed":2698326,"subject_id":"88835","group":"Group1","full_date":"2025-11-11T20:24:14.804Z","date":"2025-11-11","time":"20:24:14"},{"rt":null,"stimulus":"<p style=\"font-size: 50px; margin: 0; text-align: center;\">+</p>","response":null,"trial_type":"html-keyboard-response","trial_index":98,"plugin_version":"2.1.0","time_elapsed":2699329,"subject_id":"88835","group":"Group1","full_date":"2025-11-11T20:24:14.804Z","date":"2025-11-11","time":"20:24:14"},{"task":"memory_phase","broad_category":"S","image_png":"S_Sandstone_15.png","image_id":463,"category_name":"Sandstone","category":29,"distinct_rating":2,"distinct_type":"Bottom","rt":null,"stimulus":"Stimuli_Rocks480/S_Sandstone_15.png","response":null,"trial_type":"image-keyboard-response","trial_index":99,"plugin_version":"2.1.0","time_elapsed":2701847,"subject_id":"88835","group":"Group1","full_date":"2025-11-11T20:24:14.804Z","date":"2025-11-11","time":"20:24:14"},{"rt":null,"stimulus":"<p style=\"font-size: 50px; margin: 0; text-align: center;\">+</p>","response":null,"trial_type":"html-keyboard-response","trial_index":100,"plugin_version":"2.1.0","time_elapsed":2702849,"subject_id":"88835","group":"Group1","full_date":"2025-11-11T20:24:14.804Z","date":"2025-11-11","time":"20:24:14"},{"task":"memory_phase","broad_category":"I","image_png":"I_Diorite_03.png","image_id":35,"category_name":"Diorite","category":3,"distinct_rating":3.14,"distinct_type":"Bottom","rt":null,"stimulus":"Stimuli_Rocks480/I_Diorite_03.png","response":null,"trial_type":"image-keyboard-response","trial_index":101,"plugin_version":"2.1.0","time_elapsed":2705367,"subject_id":"88835","group":"Group1","full_date":"2025-11-11T20:24:14.804Z","date":"2025-11-11","time":"20:24:14"},{"rt":null,"stimulus":"<p style=\"font-size: 50px; margin: 0; text-align: center;\">+</p>","response":null,"trial_type":"html-keyboard-response","trial_index":102,"plugin_version":"2.1.0","time_elapsed":2706369,"subject_id":"88835","group":"Group1","full_date":"2025-11-11T20:24:14.804Z","date":"2025-11-11","time":"20:24:14"},{"task":"memory_phase","broad_category":"S","image_png":"S_Chert_10.png","image_id":362,"category_name":"Chert","category":23,"distinct_rating":7.17,"distinct_type":"Top","rt":null,"stimulus":"Stimuli_Rocks480/S_Chert_10.png","response":null,"trial_type":"image-keyboard-response","trial_index":103,"plugin_version":"2.1.0","time_elapsed":2708884,"subject_id":"88835","group":"Group1","full_date":"2025-11-11T20:24:14.804Z","date":"2025-11-11","time":"20:24:14"},{"rt":null,"stimulus":"<p style=\"font-size: 50px; margin: 0; text-align: center;\">+</p>","response":null,"trial_type":"html-keyboard-response","trial_index":104,"plugin_version":"2.1.0","time_elapsed":2709886,"subject_id":"88835","group":"Group1","full_date":"2025-11-11T20:24:14.804Z","date":"2025-11-11","time":"20:24:14"},{"task":"memory_phase","broad_category":"M","image_png":"M_Phyllite_07.png","image_id":263,"category_name":"Phyllite","category":17,"distinct_rating":2.59,"distinct_type":"Bottom","rt":null,"stimulus":"Stimuli_Rocks480/M_Phyllite_07.png","response":null,"trial_type":"image-keyboard-response","trial_index":105,"plugin_version":"2.1.0","time_elapsed":2712400,"subject_id":"88835","group":"Group1","full_date":"2025-11-11T20:24:14.804Z","date":"2025-11-11","time":"20:24:14"},{"rt":36726,"stimulus":"<div style=\"max-width: 760px; margin: auto; font-size: 20px; line-height: 1.5;\">\n      <h1 style=\"text-align:center; font-size: 30px;\">Instructions for the Test Phase</h1>\n      <p>\n        The study phase is now complete.\n      </p>\n      <p>\n        In the test phase, you will again see a series of rock images. \n        Some will be ones you saw before - during the study phase, while others will be new.  \n        <b>Your task</b> is to decide whether you have seen each image before by pressing the corresponding key on your keyboard:<br><br>\n          <b>A</b> - NO (you did not see this image before)<br>\n          <b>L</b> - YES (you saw this image before)<br><br>\n        The test will proceed at your own pace. You will receive feedback after each response.  \n        Please try to respond <b>as accurately as possible</b>.\n      </p>\n      <p>\n        <b>Reminder:</b> If your computer has multiple language settings (e.g., English and another language),\n        please ensure it is set to English during the test phase.\n      </p>\n      <p>\n        You can track your progress using the <b>completion bar</b> at the top of the screen.  \n        Note that it has been refreshed to reflect your progress during this final phase.\n      </p>\n      <p>\n        Press the button below when you are ready to continue.\n      </p>\n    </div>","response":0,"trial_type":"html-button-response","trial_index":106,"plugin_version":"2.1.0","time_elapsed":2749128,"subject_id":"88835","group":"Group1","full_date":"2025-11-11T20:24:14.804Z","date":"2025-11-11","time":"20:24:14"},{"correct_response":"l","task":"test_phase","broad_category":"M","image_png":"M_Quartzite_08.png","image_id":280,"category_name":"Quartzite","category":18,"distinct_rating":2.15,"distinct_type":"Bottom","item_type":"Target","rt":3001,"stimulus":"Stimuli_Rocks480/M_Quartzite_08.png","response":"l","trial_type":"image-keyboard-response","trial_index":107,"plugin_version":"2.1.0","time_elapsed":2752133,"subject_id":"88835","group":"Group1","full_date":"2025-11-11T20:24:14.804Z","date":"2025-11-11","time":"20:24:14","cor_ans":true},{"trial_type":"html-keyboard-response","rt":null,"stimulus":"<p style=\"color: green; font-size: 50px; font-weight: bold;\">Correct</p>","response":null,"trial_index":108,"plugin_version":"2.1.0","time_elapsed":2752635,"subject_id":"88835","group":"Group1","full_date":"2025-11-11T20:24:14.804Z","date":"2025-11-11","time":"20:24:14"},{"correct_response":"l","task":"test_phase","broad_category":"S","image_png":"S_Shale_08.png","image_id":472,"category_name":"Shale","category":30,"distinct_rating":2.55,"distinct_type":"Bottom","item_type":"Target","rt":4919,"stimulus":"Stimuli_Rocks480/S_Shale_08.png","response":"a","trial_type":"image-keyboard-response","trial_index":109,"plugin_version":"2.1.0","time_elapsed":2757556,"subject_id":"88835","group":"Group1","full_date":"2025-11-11T20:24:14.804Z","date":"2025-11-11","time":"20:24:14","cor_ans":false},{"trial_type":"html-keyboard-response","rt":null,"stimulus":"<p style=\"color: red; font-size: 50px; font-weight: bold;\">Incorrect</p>","response":null,"trial_index":110,"plugin_version":"2.1.0","time_elapsed":2758058,"subject_id":"88835","group":"Group1","full_date":"2025-11-11T20:24:14.804Z","date":"2025-11-11","time":"20:24:14"},{"correct_response":"l","task":"test_phase","broad_category":"M","image_png":"M_Marble_16.png","image_id":240,"category_name":"Marble","category":15,"distinct_rating":2.57,"distinct_type":"Bottom","item_type":"Target","rt":864,"stimulus":"Stimuli_Rocks480/M_Marble_16.png","response":"l","trial_type":"image-keyboard-response","trial_index":111,"plugin_version":"2.1.0","time_elapsed":2758937,"subject_id":"88835","group":"Group1","full_date":"2025-11-11T20:24:14.804Z","date":"2025-11-11","time":"20:24:14","cor_ans":true},{"trial_type":"html-keyboard-response","rt":null,"stimulus":"<p style=\"color: green; font-size: 50px; font-weight: bold;\">Correct</p>","response":null,"trial_index":112,"plugin_version":"2.1.0","time_elapsed":2759439,"subject_id":"88835","group":"Group1","full_date":"2025-11-11T20:24:14.804Z","date":"2025-11-11","time":"20:24:14"},{"correct_response":"a","task":"test_phase","broad_category":"M","image_png":"M_Gneiss_14.png","image_id":206,"category_name":"Gneiss","category":13,"distinct_rating":3.41,"distinct_type":"Bottom","item_type":"Foil","rt":1224,"stimulus":"Stimuli_Rocks480/M_Gneiss_14.png","response":"l","trial_type":"image-keyboard-response","trial_index":113,"plugin_version":"2.1.0","time_elapsed":2760679,"subject_id":"88835","group":"Group1","full_date":"2025-11-11T20:24:14.804Z","date":"2025-11-11","time":"20:24:14","cor_ans":false},{"trial_type":"html-keyboard-response","rt":null,"stimulus":"<p style=\"color: red; font-size: 50px; font-weight: bold;\">Incorrect</p>","response":null,"trial_index":114,"plugin_version":"2.1.0","time_elapsed":2761181,"subject_id":"88835","group":"Group1","full_date":"2025-11-11T20:24:14.804Z","date":"2025-11-11","time":"20:24:14"},{"correct_response":"a","task":"test_phase","broad_category":"I","image_png":"I_Pumice_01.png","image_id":129,"category_name":"Pumice","category":9,"distinct_rating":3.25,"distinct_type":"Bottom","item_type":"Foil","rt":875,"stimulus":"Stimuli_Rocks480/I_Pumice_01.png","response":"a","trial_type":"image-keyboard-response","trial_index":115,"plugin_version":"2.1.0","time_elapsed":2762072,"subject_id":"88835","group":"Group1","full_date":"2025-11-11T20:24:14.804Z","date":"2025-11-11","time":"20:24:14","cor_ans":true},{"trial_type":"html-keyboard-response","rt":null,"stimulus":"<p style=\"color: green; font-size: 50px; font-weight: bold;\">Correct</p>","response":null,"trial_index":116,"plugin_version":"2.1.0","time_elapsed":2762574,"subject_id":"88835","group":"Group1","full_date":"2025-11-11T20:24:14.804Z","date":"2025-11-11","time":"20:24:14"},{"correct_response":"l","task":"test_phase","broad_category":"M","image_png":"M_Phyllite_10.png","image_id":266,"category_name":"Phyllite","category":17,"distinct_rating":2.6,"distinct_type":"Bottom","item_type":"Target","rt":3629,"stimulus":"Stimuli_Rocks480/M_Phyllite_10.png","response":"l","trial_type":"image-keyboard-response","trial_index":117,"plugin_version":"2.1.0","time_elapsed":2766214,"subject_id":"88835","group":"Group1","full_date":"2025-11-11T20:24:14.804Z","date":"2025-11-11","time":"20:24:14","cor_ans":true},{"trial_type":"html-keyboard-response","rt":null,"stimulus":"<p style=\"color: green; font-size: 50px; font-weight: bold;\">Correct</p>","response":null,"trial_index":118,"plugin_version":"2.1.0","time_elapsed":2766716,"subject_id":"88835","group":"Group1","full_date":"2025-11-11T20:24:14.804Z","date":"2025-11-11","time":"20:24:14"},{"correct_response":"l","task":"test_phase","broad_category":"I","image_png":"I_Andesite_08.png","image_id":8,"category_name":"Andesite","category":1,"distinct_rating":1.95,"distinct_type":"Bottom","item_type":"Target","rt":944,"stimulus":"Stimuli_Rocks480/I_Andesite_08.png","response":"l","trial_type":"image-keyboard-response","trial_index":119,"plugin_version":"2.1.0","time_elapsed":2767675,"subject_id":"88835","group":"Group1","full_date":"2025-11-11T20:24:14.804Z","date":"2025-11-11","time":"20:24:14","cor_ans":true},{"trial_type":"html-keyboard-response","rt":null,"stimulus":"<p style=\"color: green; font-size: 50px; font-weight: bold;\">Correct</p>","response":null,"trial_index":120,"plugin_version":"2.1.0","time_elapsed":2768178,"subject_id":"88835","group":"Group1","full_date":"2025-11-11T20:24:14.804Z","date":"2025-11-11","time":"20:24:14"},{"correct_response":"l","task":"test_phase","broad_category":"I","image_png":"I_Basalt_02.png","image_id":18,"category_name":"Basalt","category":2,"distinct_rating":1.84,"distinct_type":"Bottom","item_type":"Target","rt":853,"stimulus":"Stimuli_Rocks480/I_Basalt_02.png","response":"a","trial_type":"image-keyboard-response","trial_index":121,"plugin_version":"2.1.0","time_elapsed":2769046,"subject_id":"88835","group":"Group1","full_date":"2025-11-11T20:24:14.804Z","date":"2025-11-11","time":"20:24:14","cor_ans":false},{"trial_type":"html-keyboard-response","rt":null,"stimulus":"<p style=\"color: red; font-size: 50px; font-weight: bold;\">Incorrect</p>","response":null,"trial_index":122,"plugin_version":"2.1.0","time_elapsed":2769548,"subject_id":"88835","group":"Group1","full_date":"2025-11-11T20:24:14.804Z","date":"2025-11-11","time":"20:24:14"},{"correct_response":"l","task":"test_phase","broad_category":"M","image_png":"M_Marble_04.png","image_id":228,"category_name":"Marble","category":15,"distinct_rating":3.15,"distinct_type":"Bottom","item_type":"Target","rt":972,"stimulus":"Stimuli_Rocks480/M_Marble_04.png","response":"a","trial_type":"image-keyboard-response","trial_index":123,"plugin_version":"2.1.0","time_elapsed":2770535,"subject_id":"88835","group":"Group1","full_date":"2025-11-11T20:24:14.804Z","date":"2025-11-11","time":"20:24:14","cor_ans":false},{"trial_type":"html-keyboard-response","rt":null,"stimulus":"<p style=\"color: red; font-size: 50px; font-weight: bold;\">Incorrect</p>","response":null,"trial_index":124,"plugin_version":"2.1.0","time_elapsed":2771037,"subject_id":"88835","group":"Group1","full_date":"2025-11-11T20:24:14.804Z","date":"2025-11-11","time":"20:24:14"},{"correct_response":"l","task":"test_phase","broad_category":"S","image_png":"S_Rock Salt_01.png","image_id":433,"category_name":"Rock Salt","category":28,"distinct_rating":7.18,"distinct_type":"Top","item_type":"Target","rt":917,"stimulus":"Stimuli_Rocks480/S_Rock Salt_01.png","response":"a","trial_type":"image-keyboard-response","trial_index":125,"plugin_version":"2.1.0","time_elapsed":2771971,"subject_id":"88835","group":"Group1","full_date":"2025-11-11T20:24:14.804Z","date":"2025-11-11","time":"20:24:14","cor_ans":false},{"trial_type":"html-keyboard-response","rt":null,"stimulus":"<p style=\"color: red; font-size: 50px; font-weight: bold;\">Incorrect</p>","response":null,"trial_index":126,"plugin_version":"2.1.0","time_elapsed":2772473,"subject_id":"88835","group":"Group1","full_date":"2025-11-11T20:24:14.804Z","date":"2025-11-11","time":"20:24:14"},{"correct_response":"l","task":"test_phase","broad_category":"S","image_png":"S_Chert_10.png","image_id":362,"category_name":"Chert","category":23,"distinct_rating":7.17,"distinct_type":"Top","item_type":"Target","rt":826,"stimulus":"Stimuli_Rocks480/S_Chert_10.png","response":"l","trial_type":"image-keyboard-response","trial_index":127,"plugin_version":"2.1.0","time_elapsed":2773301,"subject_id":"88835","group":"Group1","full_date":"2025-11-11T20:24:14.804Z","date":"2025-11-11","time":"20:24:14","cor_ans":true},{"trial_type":"html-keyboard-response","rt":null,"stimulus":"<p style=\"color: green; font-size: 50px; font-weight: bold;\">Correct</p>","response":null,"trial_index":128,"plugin_version":"2.1.0","time_elapsed":2773803,"subject_id":"88835","group":"Group1","full_date":"2025-11-11T20:24:14.804Z","date":"2025-11-11","time":"20:24:14"},{"correct_response":"a","task":"test_phase","broad_category":"S","image_png":"S_Chert_13.png","image_id":365,"category_name":"Chert","category":23,"distinct_rating":6.57,"distinct_type":"Top","item_type":"Foil","rt":1400,"stimulus":"Stimuli_Rocks480/S_Chert_13.png","response":"a","trial_type":"image-keyboard-response","trial_index":129,"plugin_version":"2.1.0","time_elapsed":2775211,"subject_id":"88835","group":"Group1","full_date":"2025-11-11T20:24:14.804Z","date":"2025-11-11","time":"20:24:14","cor_ans":true},{"trial_type":"html-keyboard-response","rt":null,"stimulus":"<p style=\"color: green; font-size: 50px; font-weight: bold;\">Correct</p>","response":null,"trial_index":130,"plugin_version":"2.1.0","time_elapsed":2775714,"subject_id":"88835","group":"Group1","full_date":"2025-11-11T20:24:14.804Z","date":"2025-11-11","time":"20:24:14"},{"correct_response":"a","task":"test_phase","broad_category":"I","image_png":"I_Basalt_10.png","image_id":26,"category_name":"Basalt","category":2,"distinct_rating":2.76,"distinct_type":"Bottom","item_type":"Foil","rt":660,"stimulus":"Stimuli_Rocks480/I_Basalt_10.png","response":"l","trial_type":"image-keyboard-response","trial_index":131,"plugin_version":"2.1.0","time_elapsed":2776387,"subject_id":"88835","group":"Group1","full_date":"2025-11-11T20:24:14.804Z","date":"2025-11-11","time":"20:24:14","cor_ans":false},{"trial_type":"html-keyboard-response","rt":null,"stimulus":"<p style=\"color: red; font-size: 50px; font-weight: bold;\">Incorrect</p>","response":null,"trial_index":132,"plugin_version":"2.1.0","time_elapsed":2776889,"subject_id":"88835","group":"Group1","full_date":"2025-11-11T20:24:14.804Z","date":"2025-11-11","time":"20:24:14"},{"correct_response":"a","task":"test_phase","broad_category":"S","image_png":"S_Dolomite_16.png","image_id":400,"category_name":"Dolomite","category":25,"distinct_rating":1.71,"distinct_type":"Bottom","item_type":"Foil","rt":889,"stimulus":"Stimuli_Rocks480/S_Dolomite_16.png","response":"l","trial_type":"image-keyboard-response","trial_index":133,"plugin_version":"2.1.0","time_elapsed":2777792,"subject_id":"88835","group":"Group1","full_date":"2025-11-11T20:24:14.804Z","date":"2025-11-11","time":"20:24:14","cor_ans":false},{"trial_type":"html-keyboard-response","rt":null,"stimulus":"<p style=\"color: red; font-size: 50px; font-weight: bold;\">Incorrect</p>","response":null,"trial_index":134,"plugin_version":"2.1.0","time_elapsed":2778294,"subject_id":"88835","group":"Group1","full_date":"2025-11-11T20:24:14.804Z","date":"2025-11-11","time":"20:24:14"},{"correct_response":"a","task":"test_phase","broad_category":"I","image_png":"I_Basalt_08.png","image_id":24,"category_name":"Basalt","category":2,"distinct_rating":2.31,"distinct_type":"Bottom","item_type":"Foil","rt":808,"stimulus":"Stimuli_Rocks480/I_Basalt_08.png","response":"l","trial_type":"image-keyboard-response","trial_index":135,"plugin_version":"2.1.0","time_elapsed":2779123,"subject_id":"88835","group":"Group1","full_date":"2025-11-11T20:24:14.804Z","date":"2025-11-11","time":"20:24:14","cor_ans":false},{"trial_type":"html-keyboard-response","rt":null,"stimulus":"<p style=\"color: red; font-size: 50px; font-weight: bold;\">Incorrect</p>","response":null,"trial_index":136,"plugin_version":"2.1.0","time_elapsed":2779625,"subject_id":"88835","group":"Group1","full_date":"2025-11-11T20:24:14.804Z","date":"2025-11-11","time":"20:24:14"},{"correct_response":"a","task":"test_phase","broad_category":"S","image_png":"S_Shale_02.png","image_id":466,"category_name":"Shale","category":30,"distinct_rating":2.9,"distinct_type":"Bottom","item_type":"Foil","rt":949,"stimulus":"Stimuli_Rocks480/S_Shale_02.png","response":"l","trial_type":"image-keyboard-response","trial_index":137,"plugin_version":"2.1.0","time_elapsed":2780586,"subject_id":"88835","group":"Group1","full_date":"2025-11-11T20:24:14.804Z","date":"2025-11-11","time":"20:24:14","cor_ans":false},{"trial_type":"html-keyboard-response","rt":null,"stimulus":"<p style=\"color: red; font-size: 50px; font-weight: bold;\">Incorrect</p>","response":null,"trial_index":138,"plugin_version":"2.1.0","time_elapsed":2781089,"subject_id":"88835","group":"Group1","full_date":"2025-11-11T20:24:14.804Z","date":"2025-11-11","time":"20:24:14"},{"correct_response":"a","task":"test_phase","broad_category":"I","image_png":"I_Diorite_01.png","image_id":33,"category_name":"Diorite","category":3,"distinct_rating":2.97,"distinct_type":"Bottom","item_type":"Foil","rt":758,"stimulus":"Stimuli_Rocks480/I_Diorite_01.png","response":"l","trial_type":"image-keyboard-response","trial_index":139,"plugin_version":"2.1.0","time_elapsed":2781864,"subject_id":"88835","group":"Group1","full_date":"2025-11-11T20:24:14.804Z","date":"2025-11-11","time":"20:24:14","cor_ans":false},{"trial_type":"html-keyboard-response","rt":null,"stimulus":"<p style=\"color: red; font-size: 50px; font-weight: bold;\">Incorrect</p>","response":null,"trial_index":140,"plugin_version":"2.1.0","time_elapsed":2782367,"subject_id":"88835","group":"Group1","full_date":"2025-11-11T20:24:14.804Z","date":"2025-11-11","time":"20:24:14"},{"correct_response":"l","task":"test_phase","broad_category":"S","image_png":"S_Shale_12.png","image_id":476,"category_name":"Shale","category":30,"distinct_rating":2.48,"distinct_type":"Bottom","item_type":"Target","rt":888,"stimulus":"Stimuli_Rocks480/S_Shale_12.png","response":"l","trial_type":"image-keyboard-response","trial_index":141,"plugin_version":"2.1.0","time_elapsed":2783270,"subject_id":"88835","group":"Group1","full_date":"2025-11-11T20:24:14.804Z","date":"2025-11-11","time":"20:24:14","cor_ans":true},{"trial_type":"html-keyboard-response","rt":null,"stimulus":"<p style=\"color: green; font-size: 50px; font-weight: bold;\">Correct</p>","response":null,"trial_index":142,"plugin_version":"2.1.0","time_elapsed":2783772,"subject_id":"88835","group":"Group1","full_date":"2025-11-11T20:24:14.804Z","date":"2025-11-11","time":"20:24:14"},{"correct_response":"l","task":"test_phase","broad_category":"I","image_png":"I_Pumice_11.png","image_id":139,"category_name":"Pumice","category":9,"distinct_rating":1.74,"distinct_type":"Bottom","item_type":"Target","rt":1048,"stimulus":"Stimuli_Rocks480/I_Pumice_11.png","response":"l","trial_type":"image-keyboard-response","trial_index":143,"plugin_version":"2.1.0","time_elapsed":2784832,"subject_id":"88835","group":"Group1","full_date":"2025-11-11T20:24:14.804Z","date":"2025-11-11","time":"20:24:14","cor_ans":true},{"trial_type":"html-keyboard-response","rt":null,"stimulus":"<p style=\"color: green; font-size: 50px; font-weight: bold;\">Correct</p>","response":null,"trial_index":144,"plugin_version":"2.1.0","time_elapsed":2785334,"subject_id":"88835","group":"Group1","full_date":"2025-11-11T20:24:14.804Z","date":"2025-11-11","time":"20:24:14"},{"correct_response":"l","task":"test_phase","broad_category":"I","image_png":"I_Basalt_01.png","image_id":17,"category_name":"Basalt","category":2,"distinct_rating":1.92,"distinct_type":"Bottom","item_type":"Target","rt":1708,"stimulus":"Stimuli_Rocks480/I_Basalt_01.png","response":"l","trial_type":"image-keyboard-response","trial_index":145,"plugin_version":"2.1.0","time_elapsed":2787059,"subject_id":"88835","group":"Group1","full_date":"2025-11-11T20:24:14.804Z","date":"2025-11-11","time":"20:24:14","cor_ans":true},{"trial_type":"html-keyboard-response","rt":null,"stimulus":"<p style=\"color: green; font-size: 50px; font-weight: bold;\">Correct</p>","response":null,"trial_index":146,"plugin_version":"2.1.0","time_elapsed":2787561,"subject_id":"88835","group":"Group1","full_date":"2025-11-11T20:24:14.804Z","date":"2025-11-11","time":"20:24:14"},{"correct_response":"l","task":"test_phase","broad_category":"M","image_png":"M_Slate_15.png","image_id":319,"category_name":"Slate","category":20,"distinct_rating":2.13,"distinct_type":"Bottom","item_type":"Target","rt":686,"stimulus":"Stimuli_Rocks480/M_Slate_15.png","response":"l","trial_type":"image-keyboard-response","trial_index":147,"plugin_version":"2.1.0","time_elapsed":2788258,"subject_id":"88835","group":"Group1","full_date":"2025-11-11T20:24:14.804Z","date":"2025-11-11","time":"20:24:14","cor_ans":true},{"trial_type":"html-keyboard-response","rt":null,"stimulus":"<p style=\"color: green; font-size: 50px; font-weight: bold;\">Correct</p>","response":null,"trial_index":148,"plugin_version":"2.1.0","time_elapsed":2788760,"subject_id":"88835","group":"Group1","full_date":"2025-11-11T20:24:14.804Z","date":"2025-11-11","time":"20:24:14"},{"correct_response":"l","task":"test_phase","broad_category":"S","image_png":"S_Sandstone_16.png","image_id":464,"category_name":"Sandstone","category":29,"distinct_rating":1.93,"distinct_type":"Bottom","item_type":"Target","rt":844,"stimulus":"Stimuli_Rocks480/S_Sandstone_16.png","response":"l","trial_type":"image-keyboard-response","trial_index":149,"plugin_version":"2.1.0","time_elapsed":2789616,"subject_id":"88835","group":"Group1","full_date":"2025-11-11T20:24:14.804Z","date":"2025-11-11","time":"20:24:14","cor_ans":true},{"trial_type":"html-keyboard-response","rt":null,"stimulus":"<p style=\"color: green; font-size: 50px; font-weight: bold;\">Correct</p>","response":null,"trial_index":150,"plugin_version":"2.1.0","time_elapsed":2790118,"subject_id":"88835","group":"Group1","full_date":"2025-11-11T20:24:14.804Z","date":"2025-11-11","time":"20:24:14"},{"correct_response":"l","task":"test_phase","broad_category":"I","image_png":"I_Pegmatite_10.png","image_id":106,"category_name":"Pegmatite","category":7,"distinct_rating":7.66,"distinct_type":"Top","item_type":"Target","rt":1905,"stimulus":"Stimuli_Rocks480/I_Pegmatite_10.png","response":"a","trial_type":"image-keyboard-response","trial_index":151,"plugin_version":"2.1.0","time_elapsed":2792037,"subject_id":"88835","group":"Group1","full_date":"2025-11-11T20:24:14.804Z","date":"2025-11-11","time":"20:24:14","cor_ans":false},{"trial_type":"html-keyboard-response","rt":null,"stimulus":"<p style=\"color: red; font-size: 50px; font-weight: bold;\">Incorrect</p>","response":null,"trial_index":152,"plugin_version":"2.1.0","time_elapsed":2792538,"subject_id":"88835","group":"Group1","full_date":"2025-11-11T20:24:14.804Z","date":"2025-11-11","time":"20:24:14"},{"correct_response":"a","task":"test_phase","broad_category":"S","image_png":"S_Dolomite_07.png","image_id":391,"category_name":"Dolomite","category":25,"distinct_rating":1.73,"distinct_type":"Bottom","item_type":"Foil","rt":582,"stimulus":"Stimuli_Rocks480/S_Dolomite_07.png","response":"l","trial_type":"image-keyboard-response","trial_index":153,"plugin_version":"2.1.0","time_elapsed":2793133,"subject_id":"88835","group":"Group1","full_date":"2025-11-11T20:24:14.804Z","date":"2025-11-11","time":"20:24:14","cor_ans":false},{"trial_type":"html-keyboard-response","rt":null,"stimulus":"<p style=\"color: red; font-size: 50px; font-weight: bold;\">Incorrect</p>","response":null,"trial_index":154,"plugin_version":"2.1.0","time_elapsed":2793635,"subject_id":"88835","group":"Group1","full_date":"2025-11-11T20:24:14.804Z","date":"2025-11-11","time":"20:24:14"},{"correct_response":"a","task":"test_phase","broad_category":"I","image_png":"I_Rhyolite_08.png","image_id":152,"category_name":"Rhyolite","category":10,"distinct_rating":1.38,"distinct_type":"Bottom","item_type":"Foil","rt":767,"stimulus":"Stimuli_Rocks480/I_Rhyolite_08.png","response":"l","trial_type":"image-keyboard-response","trial_index":155,"plugin_version":"2.1.0","time_elapsed":2794416,"subject_id":"88835","group":"Group1","full_date":"2025-11-11T20:24:14.804Z","date":"2025-11-11","time":"20:24:14","cor_ans":false},{"trial_type":"html-keyboard-response","rt":null,"stimulus":"<p style=\"color: red; font-size: 50px; font-weight: bold;\">Incorrect</p>","response":null,"trial_index":156,"plugin_version":"2.1.0","time_elapsed":2794918,"subject_id":"88835","group":"Group1","full_date":"2025-11-11T20:24:14.804Z","date":"2025-11-11","time":"20:24:14"},{"correct_response":"a","task":"test_phase","broad_category":"I","image_png":"I_Gabbro_02.png","image_id":50,"category_name":"Gabbro","category":4,"distinct_rating":2.73,"distinct_type":"Bottom","item_type":"Foil","rt":728,"stimulus":"Stimuli_Rocks480/I_Gabbro_02.png","response":"l","trial_type":"image-keyboard-response","trial_index":157,"plugin_version":"2.1.0","time_elapsed":2795660,"subject_id":"88835","group":"Group1","full_date":"2025-11-11T20:24:14.804Z","date":"2025-11-11","time":"20:24:14","cor_ans":false},{"trial_type":"html-keyboard-response","rt":null,"stimulus":"<p style=\"color: red; font-size: 50px; font-weight: bold;\">Incorrect</p>","response":null,"trial_index":158,"plugin_version":"2.1.0","time_elapsed":2796163,"subject_id":"88835","group":"Group1","full_date":"2025-11-11T20:24:14.804Z","date":"2025-11-11","time":"20:24:14"},{"correct_response":"a","task":"test_phase","broad_category":"I","image_png":"I_Pumice_14.png","image_id":142,"category_name":"Pumice","category":9,"distinct_rating":3.22,"distinct_type":"Bottom","item_type":"Foil","rt":786,"stimulus":"Stimuli_Rocks480/I_Pumice_14.png","response":"l","trial_type":"image-keyboard-response","trial_index":159,"plugin_version":"2.1.0","time_elapsed":2796962,"subject_id":"88835","group":"Group1","full_date":"2025-11-11T20:24:14.804Z","date":"2025-11-11","time":"20:24:14","cor_ans":false},{"trial_type":"html-keyboard-response","rt":null,"stimulus":"<p style=\"color: red; font-size: 50px; font-weight: bold;\">Incorrect</p>","response":null,"trial_index":160,"plugin_version":"2.1.0","time_elapsed":2797465,"subject_id":"88835","group":"Group1","full_date":"2025-11-11T20:24:14.804Z","date":"2025-11-11","time":"20:24:14"},{"correct_response":"a","task":"test_phase","broad_category":"M","image_png":"M_Slate_14.png","image_id":318,"category_name":"Slate","category":20,"distinct_rating":2.58,"distinct_type":"Bottom","item_type":"Foil","rt":1439,"stimulus":"Stimuli_Rocks480/M_Slate_14.png","response":"l","trial_type":"image-keyboard-response","trial_index":161,"plugin_version":"2.1.0","time_elapsed":2798913,"subject_id":"88835","group":"Group1","full_date":"2025-11-11T20:24:14.804Z","date":"2025-11-11","time":"20:24:14","cor_ans":false},{"trial_type":"html-keyboard-response","rt":null,"stimulus":"<p style=\"color: red; font-size: 50px; font-weight: bold;\">Incorrect</p>","response":null,"trial_index":162,"plugin_version":"2.1.0","time_elapsed":2799416,"subject_id":"88835","group":"Group1","full_date":"2025-11-11T20:24:14.804Z","date":"2025-11-11","time":"20:24:14"},{"correct_response":"a","task":"test_phase","broad_category":"S","image_png":"S_Rock Salt_15.png","image_id":447,"category_name":"Rock Salt","category":28,"distinct_rating":7.79,"distinct_type":"Top","item_type":"Foil","rt":725,"stimulus":"Stimuli_Rocks480/S_Rock Salt_15.png","response":"a","trial_type":"image-keyboard-response","trial_index":163,"plugin_version":"2.1.0","time_elapsed":2800155,"subject_id":"88835","group":"Group1","full_date":"2025-11-11T20:24:14.804Z","date":"2025-11-11","time":"20:24:14","cor_ans":true},{"trial_type":"html-keyboard-response","rt":null,"stimulus":"<p style=\"color: green; font-size: 50px; font-weight: bold;\">Correct</p>","response":null,"trial_index":164,"plugin_version":"2.1.0","time_elapsed":2800658,"subject_id":"88835","group":"Group1","full_date":"2025-11-11T20:24:14.804Z","date":"2025-11-11","time":"20:24:14"},{"correct_response":"l","task":"test_phase","broad_category":"I","image_png":"I_Obsidian_05.png","image_id":85,"category_name":"Obsidian","category":6,"distinct_rating":7.32,"distinct_type":"Top","item_type":"Target","rt":908,"stimulus":"Stimuli_Rocks480/I_Obsidian_05.png","response":"l","trial_type":"image-keyboard-response","trial_index":165,"plugin_version":"2.1.0","time_elapsed":2801582,"subject_id":"88835","group":"Group1","full_date":"2025-11-11T20:24:14.804Z","date":"2025-11-11","time":"20:24:14","cor_ans":true},{"trial_type":"html-keyboard-response","rt":null,"stimulus":"<p style=\"color: green; font-size: 50px; font-weight: bold;\">Correct</p>","response":null,"trial_index":166,"plugin_version":"2.1.0","time_elapsed":2802085,"subject_id":"88835","group":"Group1","full_date":"2025-11-11T20:24:14.804Z","date":"2025-11-11","time":"20:24:14"},{"correct_response":"a","task":"test_phase","broad_category":"S","image_png":"S_Sandstone_04.png","image_id":452,"category_name":"Sandstone","category":29,"distinct_rating":1.8,"distinct_type":"Bottom","item_type":"Foil","rt":1745,"stimulus":"Stimuli_Rocks480/S_Sandstone_04.png","response":"a","trial_type":"image-keyboard-response","trial_index":167,"plugin_version":"2.1.0","time_elapsed":2803844,"subject_id":"88835","group":"Group1","full_date":"2025-11-11T20:24:14.804Z","date":"2025-11-11","time":"20:24:14","cor_ans":true},{"trial_type":"html-keyboard-response","rt":null,"stimulus":"<p style=\"color: green; font-size: 50px; font-weight: bold;\">Correct</p>","response":null,"trial_index":168,"plugin_version":"2.1.0","time_elapsed":2804347,"subject_id":"88835","group":"Group1","full_date":"2025-11-11T20:24:14.804Z","date":"2025-11-11","time":"20:24:14"},{"correct_response":"l","task":"test_phase","broad_category":"I","image_png":"I_Diorite_04.png","image_id":36,"category_name":"Diorite","category":3,"distinct_rating":2.98,"distinct_type":"Bottom","item_type":"Target","rt":826,"stimulus":"Stimuli_Rocks480/I_Diorite_04.png","response":"l","trial_type":"image-keyboard-response","trial_index":169,"plugin_version":"2.1.0","time_elapsed":2805188,"subject_id":"88835","group":"Group1","full_date":"2025-11-11T20:24:14.804Z","date":"2025-11-11","time":"20:24:14","cor_ans":true},{"trial_type":"html-keyboard-response","rt":null,"stimulus":"<p style=\"color: green; font-size: 50px; font-weight: bold;\">Correct</p>","response":null,"trial_index":170,"plugin_version":"2.1.0","time_elapsed":2805690,"subject_id":"88835","group":"Group1","full_date":"2025-11-11T20:24:14.804Z","date":"2025-11-11","time":"20:24:14"},{"correct_response":"l","task":"test_phase","broad_category":"I","image_png":"I_Gabbro_11.png","image_id":59,"category_name":"Gabbro","category":4,"distinct_rating":1.99,"distinct_type":"Bottom","item_type":"Target","rt":1937,"stimulus":"Stimuli_Rocks480/I_Gabbro_11.png","response":"a","trial_type":"image-keyboard-response","trial_index":171,"plugin_version":"2.1.0","time_elapsed":2807640,"subject_id":"88835","group":"Group1","full_date":"2025-11-11T20:24:14.804Z","date":"2025-11-11","time":"20:24:14","cor_ans":false},{"trial_type":"html-keyboard-response","rt":null,"stimulus":"<p style=\"color: red; font-size: 50px; font-weight: bold;\">Incorrect</p>","response":null,"trial_index":172,"plugin_version":"2.1.0","time_elapsed":2808143,"subject_id":"88835","group":"Group1","full_date":"2025-11-11T20:24:14.804Z","date":"2025-11-11","time":"20:24:14"},{"correct_response":"a","task":"test_phase","broad_category":"I","image_png":"I_Andesite_09.png","image_id":9,"category_name":"Andesite","category":1,"distinct_rating":2.49,"distinct_type":"Bottom","item_type":"Foil","rt":544,"stimulus":"Stimuli_Rocks480/I_Andesite_09.png","response":"l","trial_type":"image-keyboard-response","trial_index":173,"plugin_version":"2.1.0","time_elapsed":2808702,"subject_id":"88835","group":"Group1","full_date":"2025-11-11T20:24:14.804Z","date":"2025-11-11","time":"20:24:14","cor_ans":false},{"trial_type":"html-keyboard-response","rt":null,"stimulus":"<p style=\"color: red; font-size: 50px; font-weight: bold;\">Incorrect</p>","response":null,"trial_index":174,"plugin_version":"2.1.0","time_elapsed":2809204,"subject_id":"88835","group":"Group1","full_date":"2025-11-11T20:24:14.804Z","date":"2025-11-11","time":"20:24:14"},{"correct_response":"l","task":"test_phase","broad_category":"S","image_png":"S_Breccia_11.png","image_id":347,"category_name":"Breccia","category":22,"distinct_rating":6.7,"distinct_type":"Top","item_type":"Target","rt":886,"stimulus":"Stimuli_Rocks480/S_Breccia_11.png","response":"a","trial_type":"image-keyboard-response","trial_index":175,"plugin_version":"2.1.0","time_elapsed":2810112,"subject_id":"88835","group":"Group1","full_date":"2025-11-11T20:24:14.804Z","date":"2025-11-11","time":"20:24:14","cor_ans":false},{"trial_type":"html-keyboard-response","rt":null,"stimulus":"<p style=\"color: red; font-size: 50px; font-weight: bold;\">Incorrect</p>","response":null,"trial_index":176,"plugin_version":"2.1.0","time_elapsed":2810614,"subject_id":"88835","group":"Group1","full_date":"2025-11-11T20:24:14.804Z","date":"2025-11-11","time":"20:24:14"},{"correct_response":"l","task":"test_phase","broad_category":"I","image_png":"I_Rhyolite_14.png","image_id":158,"category_name":"Rhyolite","category":10,"distinct_rating":2.59,"distinct_type":"Bottom","item_type":"Target","rt":576,"stimulus":"Stimuli_Rocks480/I_Rhyolite_14.png","response":"l","trial_type":"image-keyboard-response","trial_index":177,"plugin_version":"2.1.0","time_elapsed":2811204,"subject_id":"88835","group":"Group1","full_date":"2025-11-11T20:24:14.804Z","date":"2025-11-11","time":"20:24:14","cor_ans":true},{"trial_type":"html-keyboard-response","rt":null,"stimulus":"<p style=\"color: green; font-size: 50px; font-weight: bold;\">Correct</p>","response":null,"trial_index":178,"plugin_version":"2.1.0","time_elapsed":2811706,"subject_id":"88835","group":"Group1","full_date":"2025-11-11T20:24:14.804Z","date":"2025-11-11","time":"20:24:14"},{"correct_response":"a","task":"test_phase","broad_category":"M","image_png":"M_Phyllite_02.png","image_id":258,"category_name":"Phyllite","category":17,"distinct_rating":2.89,"distinct_type":"Bottom","item_type":"Foil","rt":1444,"stimulus":"Stimuli_Rocks480/M_Phyllite_02.png","response":"l","trial_type":"image-keyboard-response","trial_index":179,"plugin_version":"2.1.0","time_elapsed":2813165,"subject_id":"88835","group":"Group1","full_date":"2025-11-11T20:24:14.804Z","date":"2025-11-11","time":"20:24:14","cor_ans":false},{"trial_type":"html-keyboard-response","rt":null,"stimulus":"<p style=\"color: red; font-size: 50px; font-weight: bold;\">Incorrect</p>","response":null,"trial_index":180,"plugin_version":"2.1.0","time_elapsed":2813667,"subject_id":"88835","group":"Group1","full_date":"2025-11-11T20:24:14.804Z","date":"2025-11-11","time":"20:24:14"},{"correct_response":"a","task":"test_phase","broad_category":"S","image_png":"S_Shale_03.png","image_id":467,"category_name":"Shale","category":30,"distinct_rating":1.95,"distinct_type":"Bottom","item_type":"Foil","rt":1423,"stimulus":"Stimuli_Rocks480/S_Shale_03.png","response":"l","trial_type":"image-keyboard-response","trial_index":181,"plugin_version":"2.1.0","time_elapsed":2815107,"subject_id":"88835","group":"Group1","full_date":"2025-11-11T20:24:14.804Z","date":"2025-11-11","time":"20:24:14","cor_ans":false},{"trial_type":"html-keyboard-response","rt":null,"stimulus":"<p style=\"color: red; font-size: 50px; font-weight: bold;\">Incorrect</p>","response":null,"trial_index":182,"plugin_version":"2.1.0","time_elapsed":2815609,"subject_id":"88835","group":"Group1","full_date":"2025-11-11T20:24:14.804Z","date":"2025-11-11","time":"20:24:14"},{"correct_response":"l","task":"test_phase","broad_category":"M","image_png":"M_Gneiss_13.png","image_id":205,"category_name":"Gneiss","category":13,"distinct_rating":3.26,"distinct_type":"Bottom","item_type":"Target","rt":1783,"stimulus":"Stimuli_Rocks480/M_Gneiss_13.png","response":"l","trial_type":"image-keyboard-response","trial_index":183,"plugin_version":"2.1.0","time_elapsed":2817405,"subject_id":"88835","group":"Group1","full_date":"2025-11-11T20:24:14.804Z","date":"2025-11-11","time":"20:24:14","cor_ans":true},{"trial_type":"html-keyboard-response","rt":null,"stimulus":"<p style=\"color: green; font-size: 50px; font-weight: bold;\">Correct</p>","response":null,"trial_index":184,"plugin_version":"2.1.0","time_elapsed":2817907,"subject_id":"88835","group":"Group1","full_date":"2025-11-11T20:24:14.804Z","date":"2025-11-11","time":"20:24:14"},{"correct_response":"a","task":"test_phase","broad_category":"S","image_png":"S_Dolomite_01.png","image_id":385,"category_name":"Dolomite","category":25,"distinct_rating":1.43,"distinct_type":"Bottom","item_type":"Foil","rt":1115,"stimulus":"Stimuli_Rocks480/S_Dolomite_01.png","response":"a","trial_type":"image-keyboard-response","trial_index":185,"plugin_version":"2.1.0","time_elapsed":2819039,"subject_id":"88835","group":"Group1","full_date":"2025-11-11T20:24:14.804Z","date":"2025-11-11","time":"20:24:14","cor_ans":true},{"trial_type":"html-keyboard-response","rt":null,"stimulus":"<p style=\"color: green; font-size: 50px; font-weight: bold;\">Correct</p>","response":null,"trial_index":186,"plugin_version":"2.1.0","time_elapsed":2819541,"subject_id":"88835","group":"Group1","full_date":"2025-11-11T20:24:14.804Z","date":"2025-11-11","time":"20:24:14"},{"correct_response":"l","task":"test_phase","broad_category":"S","image_png":"S_Dolomite_12.png","image_id":396,"category_name":"Dolomite","category":25,"distinct_rating":1.85,"distinct_type":"Bottom","item_type":"Target","rt":2233,"stimulus":"Stimuli_Rocks480/S_Dolomite_12.png","response":"l","trial_type":"image-keyboard-response","trial_index":187,"plugin_version":"2.1.0","time_elapsed":2821787,"subject_id":"88835","group":"Group1","full_date":"2025-11-11T20:24:14.804Z","date":"2025-11-11","time":"20:24:14","cor_ans":true},{"trial_type":"html-keyboard-response","rt":null,"stimulus":"<p style=\"color: green; font-size: 50px; font-weight: bold;\">Correct</p>","response":null,"trial_index":188,"plugin_version":"2.1.0","time_elapsed":2822288,"subject_id":"88835","group":"Group1","full_date":"2025-11-11T20:24:14.804Z","date":"2025-11-11","time":"20:24:14"},{"correct_response":"l","task":"test_phase","broad_category":"S","image_png":"S_Rock Gypsum_04.png","image_id":420,"category_name":"Rock Gypsum","category":27,"distinct_rating":7.61,"distinct_type":"Top","item_type":"Target","rt":2791,"stimulus":"Stimuli_Rocks480/S_Rock Gypsum_04.png","response":"l","trial_type":"image-keyboard-response","trial_index":189,"plugin_version":"2.1.0","time_elapsed":2825097,"subject_id":"88835","group":"Group1","full_date":"2025-11-11T20:24:14.804Z","date":"2025-11-11","time":"20:24:14","cor_ans":true},{"trial_type":"html-keyboard-response","rt":null,"stimulus":"<p style=\"color: green; font-size: 50px; font-weight: bold;\">Correct</p>","response":null,"trial_index":190,"plugin_version":"2.1.0","time_elapsed":2825600,"subject_id":"88835","group":"Group1","full_date":"2025-11-11T20:24:14.804Z","date":"2025-11-11","time":"20:24:14"},{"correct_response":"l","task":"test_phase","broad_category":"I","image_png":"I_Gabbro_08.png","image_id":56,"category_name":"Gabbro","category":4,"distinct_rating":3.02,"distinct_type":"Bottom","item_type":"Target","rt":901,"stimulus":"Stimuli_Rocks480/I_Gabbro_08.png","response":"a","trial_type":"image-keyboard-response","trial_index":191,"plugin_version":"2.1.0","time_elapsed":2826513,"subject_id":"88835","group":"Group1","full_date":"2025-11-11T20:24:14.804Z","date":"2025-11-11","time":"20:24:14","cor_ans":false},{"trial_type":"html-keyboard-response","rt":null,"stimulus":"<p style=\"color: red; font-size: 50px; font-weight: bold;\">Incorrect</p>","response":null,"trial_index":192,"plugin_version":"2.1.0","time_elapsed":2827015,"subject_id":"88835","group":"Group1","full_date":"2025-11-11T20:24:14.804Z","date":"2025-11-11","time":"20:24:14"},{"correct_response":"a","task":"test_phase","broad_category":"I","image_png":"I_Pumice_13.png","image_id":141,"category_name":"Pumice","category":9,"distinct_rating":3.12,"distinct_type":"Bottom","item_type":"Foil","rt":1218,"stimulus":"Stimuli_Rocks480/I_Pumice_13.png","response":"l","trial_type":"image-keyboard-response","trial_index":193,"plugin_version":"2.1.0","time_elapsed":2828248,"subject_id":"88835","group":"Group1","full_date":"2025-11-11T20:24:14.804Z","date":"2025-11-11","time":"20:24:14","cor_ans":false},{"trial_type":"html-keyboard-response","rt":null,"stimulus":"<p style=\"color: red; font-size: 50px; font-weight: bold;\">Incorrect</p>","response":null,"trial_index":194,"plugin_version":"2.1.0","time_elapsed":2828751,"subject_id":"88835","group":"Group1","full_date":"2025-11-11T20:24:14.804Z","date":"2025-11-11","time":"20:24:14"},{"correct_response":"l","task":"test_phase","broad_category":"M","image_png":"M_Marble_06.png","image_id":230,"category_name":"Marble","category":15,"distinct_rating":3.4,"distinct_type":"Bottom","item_type":"Target","rt":699,"stimulus":"Stimuli_Rocks480/M_Marble_06.png","response":"a","trial_type":"image-keyboard-response","trial_index":195,"plugin_version":"2.1.0","time_elapsed":2829463,"subject_id":"88835","group":"Group1","full_date":"2025-11-11T20:24:14.804Z","date":"2025-11-11","time":"20:24:14","cor_ans":false},{"trial_type":"html-keyboard-response","rt":null,"stimulus":"<p style=\"color: red; font-size: 50px; font-weight: bold;\">Incorrect</p>","response":null,"trial_index":196,"plugin_version":"2.1.0","time_elapsed":2829965,"subject_id":"88835","group":"Group1","full_date":"2025-11-11T20:24:14.804Z","date":"2025-11-11","time":"20:24:14"},{"correct_response":"a","task":"test_phase","broad_category":"S","image_png":"S_Shale_07.png","image_id":471,"category_name":"Shale","category":30,"distinct_rating":2.73,"distinct_type":"Bottom","item_type":"Foil","rt":597,"stimulus":"Stimuli_Rocks480/S_Shale_07.png","response":"l","trial_type":"image-keyboard-response","trial_index":197,"plugin_version":"2.1.0","time_elapsed":2830574,"subject_id":"88835","group":"Group1","full_date":"2025-11-11T20:24:14.804Z","date":"2025-11-11","time":"20:24:14","cor_ans":false},{"trial_type":"html-keyboard-response","rt":null,"stimulus":"<p style=\"color: red; font-size: 50px; font-weight: bold;\">Incorrect</p>","response":null,"trial_index":198,"plugin_version":"2.1.0","time_elapsed":2831076,"subject_id":"88835","group":"Group1","full_date":"2025-11-11T20:24:14.804Z","date":"2025-11-11","time":"20:24:14"},{"correct_response":"a","task":"test_phase","broad_category":"M","image_png":"M_Quartzite_07.png","image_id":279,"category_name":"Quartzite","category":18,"distinct_rating":1.97,"distinct_type":"Bottom","item_type":"Foil","rt":940,"stimulus":"Stimuli_Rocks480/M_Quartzite_07.png","response":"a","trial_type":"image-keyboard-response","trial_index":199,"plugin_version":"2.1.0","time_elapsed":2832032,"subject_id":"88835","group":"Group1","full_date":"2025-11-11T20:24:14.804Z","date":"2025-11-11","time":"20:24:14","cor_ans":true},{"trial_type":"html-keyboard-response","rt":null,"stimulus":"<p style=\"color: green; font-size: 50px; font-weight: bold;\">Correct</p>","response":null,"trial_index":200,"plugin_version":"2.1.0","time_elapsed":2832534,"subject_id":"88835","group":"Group1","full_date":"2025-11-11T20:24:14.804Z","date":"2025-11-11","time":"20:24:14"},{"correct_response":"a","task":"test_phase","broad_category":"M","image_png":"M_Slate_10.png","image_id":314,"category_name":"Slate","category":20,"distinct_rating":1.94,"distinct_type":"Bottom","item_type":"Foil","rt":881,"stimulus":"Stimuli_Rocks480/M_Slate_10.png","response":"l","trial_type":"image-keyboard-response","trial_index":201,"plugin_version":"2.1.0","time_elapsed":2833426,"subject_id":"88835","group":"Group1","full_date":"2025-11-11T20:24:14.804Z","date":"2025-11-11","time":"20:24:14","cor_ans":false},{"trial_type":"html-keyboard-response","rt":null,"stimulus":"<p style=\"color: red; font-size: 50px; font-weight: bold;\">Incorrect</p>","response":null,"trial_index":202,"plugin_version":"2.1.0","time_elapsed":2833928,"subject_id":"88835","group":"Group1","full_date":"2025-11-11T20:24:14.804Z","date":"2025-11-11","time":"20:24:14"},{"correct_response":"a","task":"test_phase","broad_category":"I","image_png":"I_Andesite_03.png","image_id":3,"category_name":"Andesite","category":1,"distinct_rating":3.17,"distinct_type":"Bottom","item_type":"Foil","rt":799,"stimulus":"Stimuli_Rocks480/I_Andesite_03.png","response":"l","trial_type":"image-keyboard-response","trial_index":203,"plugin_version":"2.1.0","time_elapsed":2834740,"subject_id":"88835","group":"Group1","full_date":"2025-11-11T20:24:14.804Z","date":"2025-11-11","time":"20:24:14","cor_ans":false},{"trial_type":"html-keyboard-response","rt":null,"stimulus":"<p style=\"color: red; font-size: 50px; font-weight: bold;\">Incorrect</p>","response":null,"trial_index":204,"plugin_version":"2.1.0","time_elapsed":2835242,"subject_id":"88835","group":"Group1","full_date":"2025-11-11T20:24:14.804Z","date":"2025-11-11","time":"20:24:14"},{"correct_response":"a","task":"test_phase","broad_category":"I","image_png":"I_Basalt_13.png","image_id":29,"category_name":"Basalt","category":2,"distinct_rating":2.68,"distinct_type":"Bottom","item_type":"Foil","rt":628,"stimulus":"Stimuli_Rocks480/I_Basalt_13.png","response":"a","trial_type":"image-keyboard-response","trial_index":205,"plugin_version":"2.1.0","time_elapsed":2835884,"subject_id":"88835","group":"Group1","full_date":"2025-11-11T20:24:14.804Z","date":"2025-11-11","time":"20:24:14","cor_ans":true},{"trial_type":"html-keyboard-response","rt":null,"stimulus":"<p style=\"color: green; font-size: 50px; font-weight: bold;\">Correct</p>","response":null,"trial_index":206,"plugin_version":"2.1.0","time_elapsed":2836386,"subject_id":"88835","group":"Group1","full_date":"2025-11-11T20:24:14.804Z","date":"2025-11-11","time":"20:24:14"},{"correct_response":"l","task":"test_phase","broad_category":"I","image_png":"I_Diorite_05.png","image_id":37,"category_name":"Diorite","category":3,"distinct_rating":3.08,"distinct_type":"Bottom","item_type":"Target","rt":1003,"stimulus":"Stimuli_Rocks480/I_Diorite_05.png","response":"l","trial_type":"image-keyboard-response","trial_index":207,"plugin_version":"2.1.0","time_elapsed":2837403,"subject_id":"88835","group":"Group1","full_date":"2025-11-11T20:24:14.804Z","date":"2025-11-11","time":"20:24:14","cor_ans":true},{"trial_type":"html-keyboard-response","rt":null,"stimulus":"<p style=\"color: green; font-size: 50px; font-weight: bold;\">Correct</p>","response":null,"trial_index":208,"plugin_version":"2.1.0","time_elapsed":2837905,"subject_id":"88835","group":"Group1","full_date":"2025-11-11T20:24:14.804Z","date":"2025-11-11","time":"20:24:14"},{"correct_response":"a","task":"test_phase","broad_category":"S","image_png":"S_Sandstone_11.png","image_id":459,"category_name":"Sandstone","category":29,"distinct_rating":1.82,"distinct_type":"Bottom","item_type":"Foil","rt":776,"stimulus":"Stimuli_Rocks480/S_Sandstone_11.png","response":"a","trial_type":"image-keyboard-response","trial_index":209,"plugin_version":"2.1.0","time_elapsed":2838699,"subject_id":"88835","group":"Group1","full_date":"2025-11-11T20:24:14.804Z","date":"2025-11-11","time":"20:24:14","cor_ans":true},{"trial_type":"html-keyboard-response","rt":null,"stimulus":"<p style=\"color: green; font-size: 50px; font-weight: bold;\">Correct</p>","response":null,"trial_index":210,"plugin_version":"2.1.0","time_elapsed":2839201,"subject_id":"88835","group":"Group1","full_date":"2025-11-11T20:24:14.804Z","date":"2025-11-11","time":"20:24:14"},{"correct_response":"a","task":"test_phase","broad_category":"M","image_png":"M_Quartzite_15.png","image_id":287,"category_name":"Quartzite","category":18,"distinct_rating":2.19,"distinct_type":"Bottom","item_type":"Foil","rt":6606,"stimulus":"Stimuli_Rocks480/M_Quartzite_15.png","response":"a","trial_type":"image-keyboard-response","trial_index":211,"plugin_version":"2.1.0","time_elapsed":2845823,"subject_id":"88835","group":"Group1","full_date":"2025-11-11T20:24:14.804Z","date":"2025-11-11","time":"20:24:14","cor_ans":true},{"trial_type":"html-keyboard-response","rt":null,"stimulus":"<p style=\"color: green; font-size: 50px; font-weight: bold;\">Correct</p>","response":null,"trial_index":212,"plugin_version":"2.1.0","time_elapsed":2846325,"subject_id":"88835","group":"Group1","full_date":"2025-11-11T20:24:14.804Z","date":"2025-11-11","time":"20:24:14"},{"correct_response":"a","task":"test_phase","broad_category":"S","image_png":"S_Conglomerate_14.png","image_id":382,"category_name":"Conglomerate","category":24,"distinct_rating":6.86,"distinct_type":"Top","item_type":"Foil","rt":845,"stimulus":"Stimuli_Rocks480/S_Conglomerate_14.png","response":"a","trial_type":"image-keyboard-response","trial_index":213,"plugin_version":"2.1.0","time_elapsed":2847184,"subject_id":"88835","group":"Group1","full_date":"2025-11-11T20:24:14.804Z","date":"2025-11-11","time":"20:24:14","cor_ans":true},{"trial_type":"html-keyboard-response","rt":null,"stimulus":"<p style=\"color: green; font-size: 50px; font-weight: bold;\">Correct</p>","response":null,"trial_index":214,"plugin_version":"2.1.0","time_elapsed":2847686,"subject_id":"88835","group":"Group1","full_date":"2025-11-11T20:24:14.804Z","date":"2025-11-11","time":"20:24:14"},{"correct_response":"l","task":"test_phase","broad_category":"S","image_png":"S_Shale_01.png","image_id":465,"category_name":"Shale","category":30,"distinct_rating":2.7,"distinct_type":"Bottom","item_type":"Target","rt":882,"stimulus":"Stimuli_Rocks480/S_Shale_01.png","response":"a","trial_type":"image-keyboard-response","trial_index":215,"plugin_version":"2.1.0","time_elapsed":2848582,"subject_id":"88835","group":"Group1","full_date":"2025-11-11T20:24:14.804Z","date":"2025-11-11","time":"20:24:14","cor_ans":false},{"trial_type":"html-keyboard-response","rt":null,"stimulus":"<p style=\"color: red; font-size: 50px; font-weight: bold;\">Incorrect</p>","response":null,"trial_index":216,"plugin_version":"2.1.0","time_elapsed":2849084,"subject_id":"88835","group":"Group1","full_date":"2025-11-11T20:24:14.804Z","date":"2025-11-11","time":"20:24:14"},{"correct_response":"l","task":"test_phase","broad_category":"I","image_png":"I_Diorite_03.png","image_id":35,"category_name":"Diorite","category":3,"distinct_rating":3.14,"distinct_type":"Bottom","item_type":"Target","rt":723,"stimulus":"Stimuli_Rocks480/I_Diorite_03.png","response":"l","trial_type":"image-keyboard-response","trial_index":217,"plugin_version":"2.1.0","time_elapsed":2849824,"subject_id":"88835","group":"Group1","full_date":"2025-11-11T20:24:14.804Z","date":"2025-11-11","time":"20:24:14","cor_ans":true},{"trial_type":"html-keyboard-response","rt":null,"stimulus":"<p style=\"color: green; font-size: 50px; font-weight: bold;\">Correct</p>","response":null,"trial_index":218,"plugin_version":"2.1.0","time_elapsed":2850326,"subject_id":"88835","group":"Group1","full_date":"2025-11-11T20:24:14.804Z","date":"2025-11-11","time":"20:24:14"},{"correct_response":"a","task":"test_phase","broad_category":"M","image_png":"M_Gneiss_10.png","image_id":202,"category_name":"Gneiss","category":13,"distinct_rating":3.09,"distinct_type":"Bottom","item_type":"Foil","rt":891,"stimulus":"Stimuli_Rocks480/M_Gneiss_10.png","response":"l","trial_type":"image-keyboard-response","trial_index":219,"plugin_version":"2.1.0","time_elapsed":2851233,"subject_id":"88835","group":"Group1","full_date":"2025-11-11T20:24:14.804Z","date":"2025-11-11","time":"20:24:14","cor_ans":false},{"trial_type":"html-keyboard-response","rt":null,"stimulus":"<p style=\"color: red; font-size: 50px; font-weight: bold;\">Incorrect</p>","response":null,"trial_index":220,"plugin_version":"2.1.0","time_elapsed":2851735,"subject_id":"88835","group":"Group1","full_date":"2025-11-11T20:24:14.804Z","date":"2025-11-11","time":"20:24:14"},{"correct_response":"a","task":"test_phase","broad_category":"I","image_png":"I_Diorite_10.png","image_id":42,"category_name":"Diorite","category":3,"distinct_rating":2.84,"distinct_type":"Bottom","item_type":"Foil","rt":2264,"stimulus":"Stimuli_Rocks480/I_Diorite_10.png","response":"a","trial_type":"image-keyboard-response","trial_index":221,"plugin_version":"2.1.0","time_elapsed":2854013,"subject_id":"88835","group":"Group1","full_date":"2025-11-11T20:24:14.804Z","date":"2025-11-11","time":"20:24:14","cor_ans":true},{"trial_type":"html-keyboard-response","rt":null,"stimulus":"<p style=\"color: green; font-size: 50px; font-weight: bold;\">Correct</p>","response":null,"trial_index":222,"plugin_version":"2.1.0","time_elapsed":2854515,"subject_id":"88835","group":"Group1","full_date":"2025-11-11T20:24:14.804Z","date":"2025-11-11","time":"20:24:14"},{"correct_response":"a","task":"test_phase","broad_category":"I","image_png":"I_Pegmatite_03.png","image_id":99,"category_name":"Pegmatite","category":7,"distinct_rating":7.24,"distinct_type":"Top","item_type":"Foil","rt":1454,"stimulus":"Stimuli_Rocks480/I_Pegmatite_03.png","response":"l","trial_type":"image-keyboard-response","trial_index":223,"plugin_version":"2.1.0","time_elapsed":2855984,"subject_id":"88835","group":"Group1","full_date":"2025-11-11T20:24:14.804Z","date":"2025-11-11","time":"20:24:14","cor_ans":false},{"trial_type":"html-keyboard-response","rt":null,"stimulus":"<p style=\"color: red; font-size: 50px; font-weight: bold;\">Incorrect</p>","response":null,"trial_index":224,"plugin_version":"2.1.0","time_elapsed":2856486,"subject_id":"88835","group":"Group1","full_date":"2025-11-11T20:24:14.804Z","date":"2025-11-11","time":"20:24:14"},{"correct_response":"l","task":"test_phase","broad_category":"S","image_png":"S_Dolomite_13.png","image_id":397,"category_name":"Dolomite","category":25,"distinct_rating":1.77,"distinct_type":"Bottom","item_type":"Target","rt":1335,"stimulus":"Stimuli_Rocks480/S_Dolomite_13.png","response":"l","trial_type":"image-keyboard-response","trial_index":225,"plugin_version":"2.1.0","time_elapsed":2857834,"subject_id":"88835","group":"Group1","full_date":"2025-11-11T20:24:14.804Z","date":"2025-11-11","time":"20:24:14","cor_ans":true},{"trial_type":"html-keyboard-response","rt":null,"stimulus":"<p style=\"color: green; font-size: 50px; font-weight: bold;\">Correct</p>","response":null,"trial_index":226,"plugin_version":"2.1.0","time_elapsed":2858337,"subject_id":"88835","group":"Group1","full_date":"2025-11-11T20:24:14.804Z","date":"2025-11-11","time":"20:24:14"},{"correct_response":"l","task":"test_phase","broad_category":"M","image_png":"M_Phyllite_07.png","image_id":263,"category_name":"Phyllite","category":17,"distinct_rating":2.59,"distinct_type":"Bottom","item_type":"Target","rt":1379,"stimulus":"Stimuli_Rocks480/M_Phyllite_07.png","response":"a","trial_type":"image-keyboard-response","trial_index":227,"plugin_version":"2.1.0","time_elapsed":2859728,"subject_id":"88835","group":"Group1","full_date":"2025-11-11T20:24:14.804Z","date":"2025-11-11","time":"20:24:14","cor_ans":false},{"trial_type":"html-keyboard-response","rt":null,"stimulus":"<p style=\"color: red; font-size: 50px; font-weight: bold;\">Incorrect</p>","response":null,"trial_index":228,"plugin_version":"2.1.0","time_elapsed":2860230,"subject_id":"88835","group":"Group1","full_date":"2025-11-11T20:24:14.804Z","date":"2025-11-11","time":"20:24:14"},{"correct_response":"l","task":"test_phase","broad_category":"M","image_png":"M_Gneiss_05.png","image_id":197,"category_name":"Gneiss","category":13,"distinct_rating":2.97,"distinct_type":"Bottom","item_type":"Target","rt":678,"stimulus":"Stimuli_Rocks480/M_Gneiss_05.png","response":"l","trial_type":"image-keyboard-response","trial_index":229,"plugin_version":"2.1.0","time_elapsed":2860925,"subject_id":"88835","group":"Group1","full_date":"2025-11-11T20:24:14.804Z","date":"2025-11-11","time":"20:24:14","cor_ans":true},{"trial_type":"html-keyboard-response","rt":null,"stimulus":"<p style=\"color: green; font-size: 50px; font-weight: bold;\">Correct</p>","response":null,"trial_index":230,"plugin_version":"2.1.0","time_elapsed":2861428,"subject_id":"88835","group":"Group1","full_date":"2025-11-11T20:24:14.804Z","date":"2025-11-11","time":"20:24:14"},{"correct_response":"a","task":"test_phase","broad_category":"I","image_png":"I_Pegmatite_11.png","image_id":107,"category_name":"Pegmatite","category":7,"distinct_rating":7.11,"distinct_type":"Top","item_type":"Foil","rt":1122,"stimulus":"Stimuli_Rocks480/I_Pegmatite_11.png","response":"a","trial_type":"image-keyboard-response","trial_index":231,"plugin_version":"2.1.0","time_elapsed":2862566,"subject_id":"88835","group":"Group1","full_date":"2025-11-11T20:24:14.804Z","date":"2025-11-11","time":"20:24:14","cor_ans":true},{"trial_type":"html-keyboard-response","rt":null,"stimulus":"<p style=\"color: green; font-size: 50px; font-weight: bold;\">Correct</p>","response":null,"trial_index":232,"plugin_version":"2.1.0","time_elapsed":2863069,"subject_id":"88835","group":"Group1","full_date":"2025-11-11T20:24:14.804Z","date":"2025-11-11","time":"20:24:14"},{"correct_response":"l","task":"test_phase","broad_category":"M","image_png":"M_Gneiss_06.png","image_id":198,"category_name":"Gneiss","category":13,"distinct_rating":2.65,"distinct_type":"Bottom","item_type":"Target","rt":1315,"stimulus":"Stimuli_Rocks480/M_Gneiss_06.png","response":"a","trial_type":"image-keyboard-response","trial_index":233,"plugin_version":"2.1.0","time_elapsed":2864401,"subject_id":"88835","group":"Group1","full_date":"2025-11-11T20:24:14.804Z","date":"2025-11-11","time":"20:24:14","cor_ans":false},{"trial_type":"html-keyboard-response","rt":null,"stimulus":"<p style=\"color: red; font-size: 50px; font-weight: bold;\">Incorrect</p>","response":null,"trial_index":234,"plugin_version":"2.1.0","time_elapsed":2864903,"subject_id":"88835","group":"Group1","full_date":"2025-11-11T20:24:14.804Z","date":"2025-11-11","time":"20:24:14"},{"correct_response":"a","task":"test_phase","broad_category":"M","image_png":"M_Marble_02.png","image_id":226,"category_name":"Marble","category":15,"distinct_rating":3.2,"distinct_type":"Bottom","item_type":"Foil","rt":1348,"stimulus":"Stimuli_Rocks480/M_Marble_02.png","response":"a","trial_type":"image-keyboard-respons