[{"width":1432,"height":774,"webaudio":true,"browser":"edge-chromium","browser_version":"141.0.0","mobile":false,"os":"Windows 10","fullscreen":true,"vsync_rate":60.26,"webcam":true,"microphone":true,"trial_type":"browser-check","trial_index":0,"plugin_version":"2.1.0","time_elapsed":1006,"subject_id":"86923","group":"Group1","full_date":"2025-11-10T22:27:07.183Z","date":"2025-11-10","time":"22:27:07"},{"success":true,"timeout":false,"failed_images":[],"failed_audio":[],"failed_video":[],"trial_type":"preload","trial_index":1,"plugin_version":"2.1.0","time_elapsed":2650,"subject_id":"86923","group":"Group1","full_date":"2025-11-10T22:27:07.183Z","date":"2025-11-10","time":"22:27:07"},{"rt":7969,"url":"SONA_consent_memorability.html","trial_type":"external-html","trial_index":2,"plugin_version":"2.1.0","time_elapsed":10672,"subject_id":"86923","group":"Group1","full_date":"2025-11-10T22:27:07.183Z","date":"2025-11-10","time":"22:27:07"},{"success":true,"rt":1970,"trial_type":"fullscreen","trial_index":3,"plugin_version":"2.1.0","time_elapsed":13655,"subject_id":"86923","group":"Group1","full_date":"2025-11-10T22:27:07.183Z","date":"2025-11-10","time":"22:27:07"},{"rt":18578,"stimulus":"<div style=\"max-width: 760px; margin: auto; font-size: 20px; line-height: 1.5;\">\n      <h1 style=\"text-align:center; font-size: 30px;\">Instructions</h1>\n      <p>\n        Welcome to the study on <b>visual memory</b>. This experiment consists of <b>two phases</b>: \n        a <b>study phase</b> and a <b>test phase</b>.\n      </p>\n      <p>\n        In the study phase, you will see a series of rock images along with their category labels.\n        The images will appear one at a time.\n        <b>Your task</b> is to learn the categories to which the rock images belong \n        and to remember each image as accurately as possible.\n      </p> \n      <p>\n        After the study phase, <b>your memory will be tested</b>. \n        Additional instructions for the test phase will be provided at that time.\n      </p>\n      <p>\n        If your computer has multiple <b>language settings</b> (e.g., English and another language),\n        please make sure it is set to English before starting.\n      </p>\n      <p>\n        You can track your progress using the <b>completion bar</b> at the top of the screen. \n        Please note that the bar will refresh when the test phase begins \n        to give you an accurate sense of your progress in both phases.\n      </p> \n      <p>\n        Press the button below when you are ready to begin.\n      </p>\n    </div>","response":0,"trial_type":"html-button-response","trial_index":4,"plugin_version":"2.1.0","time_elapsed":32234,"subject_id":"86923","group":"Group1","full_date":"2025-11-10T22:27:07.183Z","date":"2025-11-10","time":"22:27:07"},{"rt":null,"stimulus":"<p style=\"font-size: 50px; margin: 0; text-align: center;\">+</p>","response":null,"trial_type":"html-keyboard-response","trial_index":5,"plugin_version":"2.1.0","time_elapsed":33237,"subject_id":"86923","group":"Group1","full_date":"2025-11-10T22:27:07.183Z","date":"2025-11-10","time":"22:27:07"},{"task":"memory_phase","broad_category":"I","image_png":"I_Basalt_09.png","image_id":25,"category_name":"Basalt","category":2,"distinct_rating":1.89,"distinct_type":"Bottom","rt":null,"stimulus":"Stimuli_Rocks480/I_Basalt_09.png","response":null,"trial_type":"image-keyboard-response","trial_index":6,"plugin_version":"2.1.0","time_elapsed":35751,"subject_id":"86923","group":"Group1","full_date":"2025-11-10T22:27:07.183Z","date":"2025-11-10","time":"22:27:07"},{"rt":null,"stimulus":"<p style=\"font-size: 50px; margin: 0; text-align: center;\">+</p>","response":null,"trial_type":"html-keyboard-response","trial_index":7,"plugin_version":"2.1.0","time_elapsed":36757,"subject_id":"86923","group":"Group1","full_date":"2025-11-10T22:27:07.183Z","date":"2025-11-10","time":"22:27:07"},{"task":"memory_phase","broad_category":"I","image_png":"I_Andesite_10.png","image_id":10,"category_name":"Andesite","category":1,"distinct_rating":3.15,"distinct_type":"Bottom","rt":null,"stimulus":"Stimuli_Rocks480/I_Andesite_10.png","response":null,"trial_type":"image-keyboard-response","trial_index":8,"plugin_version":"2.1.0","time_elapsed":39264,"subject_id":"86923","group":"Group1","full_date":"2025-11-10T22:27:07.183Z","date":"2025-11-10","time":"22:27:07"},{"rt":null,"stimulus":"<p style=\"font-size: 50px; margin: 0; text-align: center;\">+</p>","response":null,"trial_type":"html-keyboard-response","trial_index":9,"plugin_version":"2.1.0","time_elapsed":40266,"subject_id":"86923","group":"Group1","full_date":"2025-11-10T22:27:07.183Z","date":"2025-11-10","time":"22:27:07"},{"task":"memory_phase","broad_category":"M","image_png":"M_Quartzite_05.png","image_id":277,"category_name":"Quartzite","category":18,"distinct_rating":2.23,"distinct_type":"Bottom","rt":null,"stimulus":"Stimuli_Rocks480/M_Quartzite_05.png","response":null,"trial_type":"image-keyboard-response","trial_index":10,"plugin_version":"2.1.0","time_elapsed":42778,"subject_id":"86923","group":"Group1","full_date":"2025-11-10T22:27:07.183Z","date":"2025-11-10","time":"22:27:07"},{"rt":null,"stimulus":"<p style=\"font-size: 50px; margin: 0; text-align: center;\">+</p>","response":null,"trial_type":"html-keyboard-response","trial_index":11,"plugin_version":"2.1.0","time_elapsed":43780,"subject_id":"86923","group":"Group1","full_date":"2025-11-10T22:27:07.183Z","date":"2025-11-10","time":"22:27:07"},{"task":"memory_phase","broad_category":"S","image_png":"S_Chert_10.png","image_id":362,"category_name":"Chert","category":23,"distinct_rating":7.17,"distinct_type":"Top","rt":null,"stimulus":"Stimuli_Rocks480/S_Chert_10.png","response":null,"trial_type":"image-keyboard-response","trial_index":12,"plugin_version":"2.1.0","time_elapsed":46297,"subject_id":"86923","group":"Group1","full_date":"2025-11-10T22:27:07.183Z","date":"2025-11-10","time":"22:27:07"},{"rt":null,"stimulus":"<p style=\"font-size: 50px; margin: 0; text-align: center;\">+</p>","response":null,"trial_type":"html-keyboard-response","trial_index":13,"plugin_version":"2.1.0","time_elapsed":47309,"subject_id":"86923","group":"Group1","full_date":"2025-11-10T22:27:07.183Z","date":"2025-11-10","time":"22:27:07"},{"task":"memory_phase","broad_category":"M","image_png":"M_Gneiss_05.png","image_id":197,"category_name":"Gneiss","category":13,"distinct_rating":2.97,"distinct_type":"Bottom","rt":null,"stimulus":"Stimuli_Rocks480/M_Gneiss_05.png","response":null,"trial_type":"image-keyboard-response","trial_index":14,"plugin_version":"2.1.0","time_elapsed":49826,"subject_id":"86923","group":"Group1","full_date":"2025-11-10T22:27:07.183Z","date":"2025-11-10","time":"22:27:07"},{"rt":null,"stimulus":"<p style=\"font-size: 50px; margin: 0; text-align: center;\">+</p>","response":null,"trial_type":"html-keyboard-response","trial_index":15,"plugin_version":"2.1.0","time_elapsed":50828,"subject_id":"86923","group":"Group1","full_date":"2025-11-10T22:27:07.183Z","date":"2025-11-10","time":"22:27:07"},{"task":"memory_phase","broad_category":"M","image_png":"M_Marble_06.png","image_id":230,"category_name":"Marble","category":15,"distinct_rating":3.4,"distinct_type":"Bottom","rt":null,"stimulus":"Stimuli_Rocks480/M_Marble_06.png","response":null,"trial_type":"image-keyboard-response","trial_index":16,"plugin_version":"2.1.0","time_elapsed":53339,"subject_id":"86923","group":"Group1","full_date":"2025-11-10T22:27:07.183Z","date":"2025-11-10","time":"22:27:07"},{"rt":null,"stimulus":"<p style=\"font-size: 50px; margin: 0; text-align: center;\">+</p>","response":null,"trial_type":"html-keyboard-response","trial_index":17,"plugin_version":"2.1.0","time_elapsed":54350,"subject_id":"86923","group":"Group1","full_date":"2025-11-10T22:27:07.183Z","date":"2025-11-10","time":"22:27:07"},{"task":"memory_phase","broad_category":"M","image_png":"M_Quartzite_08.png","image_id":280,"category_name":"Quartzite","category":18,"distinct_rating":2.15,"distinct_type":"Bottom","rt":null,"stimulus":"Stimuli_Rocks480/M_Quartzite_08.png","response":null,"trial_type":"image-keyboard-response","trial_index":18,"plugin_version":"2.1.0","time_elapsed":56857,"subject_id":"86923","group":"Group1","full_date":"2025-11-10T22:27:07.183Z","date":"2025-11-10","time":"22:27:07"},{"rt":null,"stimulus":"<p style=\"font-size: 50px; margin: 0; text-align: center;\">+</p>","response":null,"trial_type":"html-keyboard-response","trial_index":19,"plugin_version":"2.1.0","time_elapsed":57858,"subject_id":"86923","group":"Group1","full_date":"2025-11-10T22:27:07.183Z","date":"2025-11-10","time":"22:27:07"},{"task":"memory_phase","broad_category":"S","image_png":"S_Sandstone_15.png","image_id":463,"category_name":"Sandstone","category":29,"distinct_rating":2,"distinct_type":"Bottom","rt":null,"stimulus":"Stimuli_Rocks480/S_Sandstone_15.png","response":null,"trial_type":"image-keyboard-response","trial_index":20,"plugin_version":"2.1.0","time_elapsed":60371,"subject_id":"86923","group":"Group1","full_date":"2025-11-10T22:27:07.183Z","date":"2025-11-10","time":"22:27:07"},{"rt":null,"stimulus":"<p style=\"font-size: 50px; margin: 0; text-align: center;\">+</p>","response":null,"trial_type":"html-keyboard-response","trial_index":21,"plugin_version":"2.1.0","time_elapsed":61381,"subject_id":"86923","group":"Group1","full_date":"2025-11-10T22:27:07.183Z","date":"2025-11-10","time":"22:27:07"},{"task":"memory_phase","broad_category":"M","image_png":"M_Gneiss_06.png","image_id":198,"category_name":"Gneiss","category":13,"distinct_rating":2.65,"distinct_type":"Bottom","rt":null,"stimulus":"Stimuli_Rocks480/M_Gneiss_06.png","response":null,"trial_type":"image-keyboard-response","trial_index":22,"plugin_version":"2.1.0","time_elapsed":63889,"subject_id":"86923","group":"Group1","full_date":"2025-11-10T22:27:07.183Z","date":"2025-11-10","time":"22:27:07"},{"rt":null,"stimulus":"<p style=\"font-size: 50px; margin: 0; text-align: center;\">+</p>","response":null,"trial_type":"html-keyboard-response","trial_index":23,"plugin_version":"2.1.0","time_elapsed":64890,"subject_id":"86923","group":"Group1","full_date":"2025-11-10T22:27:07.183Z","date":"2025-11-10","time":"22:27:07"},{"task":"memory_phase","broad_category":"I","image_png":"I_Pegmatite_16.png","image_id":112,"category_name":"Pegmatite","category":7,"distinct_rating":7.03,"distinct_type":"Top","rt":null,"stimulus":"Stimuli_Rocks480/I_Pegmatite_16.png","response":null,"trial_type":"image-keyboard-response","trial_index":24,"plugin_version":"2.1.0","time_elapsed":67393,"subject_id":"86923","group":"Group1","full_date":"2025-11-10T22:27:07.183Z","date":"2025-11-10","time":"22:27:07"},{"rt":null,"stimulus":"<p style=\"font-size: 50px; margin: 0; text-align: center;\">+</p>","response":null,"trial_type":"html-keyboard-response","trial_index":25,"plugin_version":"2.1.0","time_elapsed":68395,"subject_id":"86923","group":"Group1","full_date":"2025-11-10T22:27:07.183Z","date":"2025-11-10","time":"22:27:07"},{"task":"memory_phase","broad_category":"I","image_png":"I_Pumice_12.png","image_id":140,"category_name":"Pumice","category":9,"distinct_rating":2.97,"distinct_type":"Bottom","rt":null,"stimulus":"Stimuli_Rocks480/I_Pumice_12.png","response":null,"trial_type":"image-keyboard-response","trial_index":26,"plugin_version":"2.1.0","time_elapsed":70905,"subject_id":"86923","group":"Group1","full_date":"2025-11-10T22:27:07.183Z","date":"2025-11-10","time":"22:27:07"},{"rt":null,"stimulus":"<p style=\"font-size: 50px; margin: 0; text-align: center;\">+</p>","response":null,"trial_type":"html-keyboard-response","trial_index":27,"plugin_version":"2.1.0","time_elapsed":71913,"subject_id":"86923","group":"Group1","full_date":"2025-11-10T22:27:07.183Z","date":"2025-11-10","time":"22:27:07"},{"task":"memory_phase","broad_category":"S","image_png":"S_Shale_08.png","image_id":472,"category_name":"Shale","category":30,"distinct_rating":2.55,"distinct_type":"Bottom","rt":null,"stimulus":"Stimuli_Rocks480/S_Shale_08.png","response":null,"trial_type":"image-keyboard-response","trial_index":28,"plugin_version":"2.1.0","time_elapsed":74416,"subject_id":"86923","group":"Group1","full_date":"2025-11-10T22:27:07.183Z","date":"2025-11-10","time":"22:27:07"},{"rt":null,"stimulus":"<p style=\"font-size: 50px; margin: 0; text-align: center;\">+</p>","response":null,"trial_type":"html-keyboard-response","trial_index":29,"plugin_version":"2.1.0","time_elapsed":75421,"subject_id":"86923","group":"Group1","full_date":"2025-11-10T22:27:07.183Z","date":"2025-11-10","time":"22:27:07"},{"task":"memory_phase","broad_category":"I","image_png":"I_Andesite_06.png","image_id":6,"category_name":"Andesite","category":1,"distinct_rating":3.17,"distinct_type":"Bottom","rt":null,"stimulus":"Stimuli_Rocks480/I_Andesite_06.png","response":null,"trial_type":"image-keyboard-response","trial_index":30,"plugin_version":"2.1.0","time_elapsed":77925,"subject_id":"86923","group":"Group1","full_date":"2025-11-10T22:27:07.183Z","date":"2025-11-10","time":"22:27:07"},{"rt":null,"stimulus":"<p style=\"font-size: 50px; margin: 0; text-align: center;\">+</p>","response":null,"trial_type":"html-keyboard-response","trial_index":31,"plugin_version":"2.1.0","time_elapsed":78927,"subject_id":"86923","group":"Group1","full_date":"2025-11-10T22:27:07.183Z","date":"2025-11-10","time":"22:27:07"},{"task":"memory_phase","broad_category":"S","image_png":"S_Shale_12.png","image_id":476,"category_name":"Shale","category":30,"distinct_rating":2.48,"distinct_type":"Bottom","rt":null,"stimulus":"Stimuli_Rocks480/S_Shale_12.png","response":null,"trial_type":"image-keyboard-response","trial_index":32,"plugin_version":"2.1.0","time_elapsed":81441,"subject_id":"86923","group":"Group1","full_date":"2025-11-10T22:27:07.183Z","date":"2025-11-10","time":"22:27:07"},{"rt":null,"stimulus":"<p style=\"font-size: 50px; margin: 0; text-align: center;\">+</p>","response":null,"trial_type":"html-keyboard-response","trial_index":33,"plugin_version":"2.1.0","time_elapsed":82452,"subject_id":"86923","group":"Group1","full_date":"2025-11-10T22:27:07.183Z","date":"2025-11-10","time":"22:27:07"},{"task":"memory_phase","broad_category":"I","image_png":"I_Gabbro_11.png","image_id":59,"category_name":"Gabbro","category":4,"distinct_rating":1.99,"distinct_type":"Bottom","rt":null,"stimulus":"Stimuli_Rocks480/I_Gabbro_11.png","response":null,"trial_type":"image-keyboard-response","trial_index":34,"plugin_version":"2.1.0","time_elapsed":84962,"subject_id":"86923","group":"Group1","full_date":"2025-11-10T22:27:07.183Z","date":"2025-11-10","time":"22:27:07"},{"rt":null,"stimulus":"<p style=\"font-size: 50px; margin: 0; text-align: center;\">+</p>","response":null,"trial_type":"html-keyboard-response","trial_index":35,"plugin_version":"2.1.0","time_elapsed":85963,"subject_id":"86923","group":"Group1","full_date":"2025-11-10T22:27:07.183Z","date":"2025-11-10","time":"22:27:07"},{"task":"memory_phase","broad_category":"S","image_png":"S_Dolomite_13.png","image_id":397,"category_name":"Dolomite","category":25,"distinct_rating":1.77,"distinct_type":"Bottom","rt":null,"stimulus":"Stimuli_Rocks480/S_Dolomite_13.png","response":null,"trial_type":"image-keyboard-response","trial_index":36,"plugin_version":"2.1.0","time_elapsed":88472,"subject_id":"86923","group":"Group1","full_date":"2025-11-10T22:27:07.183Z","date":"2025-11-10","time":"22:27:07"},{"rt":null,"stimulus":"<p style=\"font-size: 50px; margin: 0; text-align: center;\">+</p>","response":null,"trial_type":"html-keyboard-response","trial_index":37,"plugin_version":"2.1.0","time_elapsed":89474,"subject_id":"86923","group":"Group1","full_date":"2025-11-10T22:27:07.183Z","date":"2025-11-10","time":"22:27:07"},{"task":"memory_phase","broad_category":"M","image_png":"M_Phyllite_07.png","image_id":263,"category_name":"Phyllite","category":17,"distinct_rating":2.59,"distinct_type":"Bottom","rt":null,"stimulus":"Stimuli_Rocks480/M_Phyllite_07.png","response":null,"trial_type":"image-keyboard-response","trial_index":38,"plugin_version":"2.1.0","time_elapsed":91983,"subject_id":"86923","group":"Group1","full_date":"2025-11-10T22:27:07.183Z","date":"2025-11-10","time":"22:27:07"},{"rt":null,"stimulus":"<p style=\"font-size: 50px; margin: 0; text-align: center;\">+</p>","response":null,"trial_type":"html-keyboard-response","trial_index":39,"plugin_version":"2.1.0","time_elapsed":92985,"subject_id":"86923","group":"Group1","full_date":"2025-11-10T22:27:07.183Z","date":"2025-11-10","time":"22:27:07"},{"task":"memory_phase","broad_category":"S","image_png":"S_Dolomite_14.png","image_id":398,"category_name":"Dolomite","category":25,"distinct_rating":1.43,"distinct_type":"Bottom","rt":null,"stimulus":"Stimuli_Rocks480/S_Dolomite_14.png","response":null,"trial_type":"image-keyboard-response","trial_index":40,"plugin_version":"2.1.0","time_elapsed":95500,"subject_id":"86923","group":"Group1","full_date":"2025-11-10T22:27:07.183Z","date":"2025-11-10","time":"22:27:07"},{"rt":null,"stimulus":"<p style=\"font-size: 50px; margin: 0; text-align: center;\">+</p>","response":null,"trial_type":"html-keyboard-response","trial_index":41,"plugin_version":"2.1.0","time_elapsed":96515,"subject_id":"86923","group":"Group1","full_date":"2025-11-10T22:27:07.183Z","date":"2025-11-10","time":"22:27:07"},{"task":"memory_phase","broad_category":"S","image_png":"S_Shale_01.png","image_id":465,"category_name":"Shale","category":30,"distinct_rating":2.7,"distinct_type":"Bottom","rt":null,"stimulus":"Stimuli_Rocks480/S_Shale_01.png","response":null,"trial_type":"image-keyboard-response","trial_index":42,"plugin_version":"2.1.0","time_elapsed":99023,"subject_id":"86923","group":"Group1","full_date":"2025-11-10T22:27:07.183Z","date":"2025-11-10","time":"22:27:07"},{"rt":null,"stimulus":"<p style=\"font-size: 50px; margin: 0; text-align: center;\">+</p>","response":null,"trial_type":"html-keyboard-response","trial_index":43,"plugin_version":"2.1.0","time_elapsed":100032,"subject_id":"86923","group":"Group1","full_date":"2025-11-10T22:27:07.183Z","date":"2025-11-10","time":"22:27:07"},{"task":"memory_phase","broad_category":"I","image_png":"I_Rhyolite_14.png","image_id":158,"category_name":"Rhyolite","category":10,"distinct_rating":2.59,"distinct_type":"Bottom","rt":null,"stimulus":"Stimuli_Rocks480/I_Rhyolite_14.png","response":null,"trial_type":"image-keyboard-response","trial_index":44,"plugin_version":"2.1.0","time_elapsed":102535,"subject_id":"86923","group":"Group1","full_date":"2025-11-10T22:27:07.183Z","date":"2025-11-10","time":"22:27:07"},{"rt":null,"stimulus":"<p style=\"font-size: 50px; margin: 0; text-align: center;\">+</p>","response":null,"trial_type":"html-keyboard-response","trial_index":45,"plugin_version":"2.1.0","time_elapsed":103536,"subject_id":"86923","group":"Group1","full_date":"2025-11-10T22:27:07.183Z","date":"2025-11-10","time":"22:27:07"},{"task":"memory_phase","broad_category":"M","image_png":"M_Phyllite_10.png","image_id":266,"category_name":"Phyllite","category":17,"distinct_rating":2.6,"distinct_type":"Bottom","rt":null,"stimulus":"Stimuli_Rocks480/M_Phyllite_10.png","response":null,"trial_type":"image-keyboard-response","trial_index":46,"plugin_version":"2.1.0","time_elapsed":106053,"subject_id":"86923","group":"Group1","full_date":"2025-11-10T22:27:07.183Z","date":"2025-11-10","time":"22:27:07"},{"rt":null,"stimulus":"<p style=\"font-size: 50px; margin: 0; text-align: center;\">+</p>","response":null,"trial_type":"html-keyboard-response","trial_index":47,"plugin_version":"2.1.0","time_elapsed":107054,"subject_id":"86923","group":"Group1","full_date":"2025-11-10T22:27:07.183Z","date":"2025-11-10","time":"22:27:07"},{"task":"memory_phase","broad_category":"I","image_png":"I_Basalt_01.png","image_id":17,"category_name":"Basalt","category":2,"distinct_rating":1.92,"distinct_type":"Bottom","rt":null,"stimulus":"Stimuli_Rocks480/I_Basalt_01.png","response":null,"trial_type":"image-keyboard-response","trial_index":48,"plugin_version":"2.1.0","time_elapsed":109560,"subject_id":"86923","group":"Group1","full_date":"2025-11-10T22:27:07.183Z","date":"2025-11-10","time":"22:27:07"},{"rt":null,"stimulus":"<p style=\"font-size: 50px; margin: 0; text-align: center;\">+</p>","response":null,"trial_type":"html-keyboard-response","trial_index":49,"plugin_version":"2.1.0","time_elapsed":110562,"subject_id":"86923","group":"Group1","full_date":"2025-11-10T22:27:07.183Z","date":"2025-11-10","time":"22:27:07"},{"task":"memory_phase","broad_category":"I","image_png":"I_Andesite_08.png","image_id":8,"category_name":"Andesite","category":1,"distinct_rating":1.95,"distinct_type":"Bottom","rt":null,"stimulus":"Stimuli_Rocks480/I_Andesite_08.png","response":null,"trial_type":"image-keyboard-response","trial_index":50,"plugin_version":"2.1.0","time_elapsed":113066,"subject_id":"86923","group":"Group1","full_date":"2025-11-10T22:27:07.183Z","date":"2025-11-10","time":"22:27:07"},{"rt":null,"stimulus":"<p style=\"font-size: 50px; margin: 0; text-align: center;\">+</p>","response":null,"trial_type":"html-keyboard-response","trial_index":51,"plugin_version":"2.1.0","time_elapsed":114079,"subject_id":"86923","group":"Group1","full_date":"2025-11-10T22:27:07.183Z","date":"2025-11-10","time":"22:27:07"},{"task":"memory_phase","broad_category":"S","image_png":"S_Rock Salt_01.png","image_id":433,"category_name":"Rock Salt","category":28,"distinct_rating":7.18,"distinct_type":"Top","rt":null,"stimulus":"Stimuli_Rocks480/S_Rock Salt_01.png","response":null,"trial_type":"image-keyboard-response","trial_index":52,"plugin_version":"2.1.0","time_elapsed":116596,"subject_id":"86923","group":"Group1","full_date":"2025-11-10T22:27:07.183Z","date":"2025-11-10","time":"22:27:07"},{"rt":null,"stimulus":"<p style=\"font-size: 50px; margin: 0; text-align: center;\">+</p>","response":null,"trial_type":"html-keyboard-response","trial_index":53,"plugin_version":"2.1.0","time_elapsed":117609,"subject_id":"86923","group":"Group1","full_date":"2025-11-10T22:27:07.183Z","date":"2025-11-10","time":"22:27:07"},{"task":"memory_phase","broad_category":"I","image_png":"I_Pegmatite_10.png","image_id":106,"category_name":"Pegmatite","category":7,"distinct_rating":7.66,"distinct_type":"Top","rt":null,"stimulus":"Stimuli_Rocks480/I_Pegmatite_10.png","response":null,"trial_type":"image-keyboard-response","trial_index":54,"plugin_version":"2.1.0","time_elapsed":120126,"subject_id":"86923","group":"Group1","full_date":"2025-11-10T22:27:07.183Z","date":"2025-11-10","time":"22:27:07"},{"rt":3055,"stimulus":"<p style=\"font-size: 35px;\">Press SPACE to continue study phase</p>","response":" ","trial_type":"html-keyboard-response","trial_index":55,"plugin_version":"2.1.0","time_elapsed":123184,"subject_id":"86923","group":"Group1","full_date":"2025-11-10T22:27:07.183Z","date":"2025-11-10","time":"22:27:07"},{"rt":null,"stimulus":"<p style=\"font-size: 50px; margin: 0; text-align: center;\">+</p>","response":null,"trial_type":"html-keyboard-response","trial_index":56,"plugin_version":"2.1.0","time_elapsed":124198,"subject_id":"86923","group":"Group1","full_date":"2025-11-10T22:27:07.183Z","date":"2025-11-10","time":"22:27:07"},{"task":"memory_phase","broad_category":"S","image_png":"S_Sandstone_16.png","image_id":464,"category_name":"Sandstone","category":29,"distinct_rating":1.93,"distinct_type":"Bottom","rt":null,"stimulus":"Stimuli_Rocks480/S_Sandstone_16.png","response":null,"trial_type":"image-keyboard-response","trial_index":57,"plugin_version":"2.1.0","time_elapsed":126714,"subject_id":"86923","group":"Group1","full_date":"2025-11-10T22:27:07.183Z","date":"2025-11-10","time":"22:27:07"},{"rt":null,"stimulus":"<p style=\"font-size: 50px; margin: 0; text-align: center;\">+</p>","response":null,"trial_type":"html-keyboard-response","trial_index":58,"plugin_version":"2.1.0","time_elapsed":127728,"subject_id":"86923","group":"Group1","full_date":"2025-11-10T22:27:07.183Z","date":"2025-11-10","time":"22:27:07"},{"task":"memory_phase","broad_category":"S","image_png":"S_Dolomite_12.png","image_id":396,"category_name":"Dolomite","category":25,"distinct_rating":1.85,"distinct_type":"Bottom","rt":null,"stimulus":"Stimuli_Rocks480/S_Dolomite_12.png","response":null,"trial_type":"image-keyboard-response","trial_index":59,"plugin_version":"2.1.0","time_elapsed":130242,"subject_id":"86923","group":"Group1","full_date":"2025-11-10T22:27:07.183Z","date":"2025-11-10","time":"22:27:07"},{"rt":null,"stimulus":"<p style=\"font-size: 50px; margin: 0; text-align: center;\">+</p>","response":null,"trial_type":"html-keyboard-response","trial_index":60,"plugin_version":"2.1.0","time_elapsed":131244,"subject_id":"86923","group":"Group1","full_date":"2025-11-10T22:27:07.183Z","date":"2025-11-10","time":"22:27:07"},{"task":"memory_phase","broad_category":"I","image_png":"I_Basalt_02.png","image_id":18,"category_name":"Basalt","category":2,"distinct_rating":1.84,"distinct_type":"Bottom","rt":null,"stimulus":"Stimuli_Rocks480/I_Basalt_02.png","response":null,"trial_type":"image-keyboard-response","trial_index":61,"plugin_version":"2.1.0","time_elapsed":133754,"subject_id":"86923","group":"Group1","full_date":"2025-11-10T22:27:07.183Z","date":"2025-11-10","time":"22:27:07"},{"rt":null,"stimulus":"<p style=\"font-size: 50px; margin: 0; text-align: center;\">+</p>","response":null,"trial_type":"html-keyboard-response","trial_index":62,"plugin_version":"2.1.0","time_elapsed":134765,"subject_id":"86923","group":"Group1","full_date":"2025-11-10T22:27:07.183Z","date":"2025-11-10","time":"22:27:07"},{"task":"memory_phase","broad_category":"M","image_png":"M_Gneiss_13.png","image_id":205,"category_name":"Gneiss","category":13,"distinct_rating":3.26,"distinct_type":"Bottom","rt":null,"stimulus":"Stimuli_Rocks480/M_Gneiss_13.png","response":null,"trial_type":"image-keyboard-response","trial_index":63,"plugin_version":"2.1.0","time_elapsed":137278,"subject_id":"86923","group":"Group1","full_date":"2025-11-10T22:27:07.183Z","date":"2025-11-10","time":"22:27:07"},{"rt":null,"stimulus":"<p style=\"font-size: 50px; margin: 0; text-align: center;\">+</p>","response":null,"trial_type":"html-keyboard-response","trial_index":64,"plugin_version":"2.1.0","time_elapsed":138292,"subject_id":"86923","group":"Group1","full_date":"2025-11-10T22:27:07.183Z","date":"2025-11-10","time":"22:27:07"},{"task":"memory_phase","broad_category":"M","image_png":"M_Slate_15.png","image_id":319,"category_name":"Slate","category":20,"distinct_rating":2.13,"distinct_type":"Bottom","rt":null,"stimulus":"Stimuli_Rocks480/M_Slate_15.png","response":null,"trial_type":"image-keyboard-response","trial_index":65,"plugin_version":"2.1.0","time_elapsed":140804,"subject_id":"86923","group":"Group1","full_date":"2025-11-10T22:27:07.183Z","date":"2025-11-10","time":"22:27:07"},{"rt":null,"stimulus":"<p style=\"font-size: 50px; margin: 0; text-align: center;\">+</p>","response":null,"trial_type":"html-keyboard-response","trial_index":66,"plugin_version":"2.1.0","time_elapsed":141813,"subject_id":"86923","group":"Group1","full_date":"2025-11-10T22:27:07.183Z","date":"2025-11-10","time":"22:27:07"},{"task":"memory_phase","broad_category":"I","image_png":"I_Pumice_11.png","image_id":139,"category_name":"Pumice","category":9,"distinct_rating":1.74,"distinct_type":"Bottom","rt":null,"stimulus":"Stimuli_Rocks480/I_Pumice_11.png","response":null,"trial_type":"image-keyboard-response","trial_index":67,"plugin_version":"2.1.0","time_elapsed":144321,"subject_id":"86923","group":"Group1","full_date":"2025-11-10T22:27:07.183Z","date":"2025-11-10","time":"22:27:07"},{"rt":null,"stimulus":"<p style=\"font-size: 50px; margin: 0; text-align: center;\">+</p>","response":null,"trial_type":"html-keyboard-response","trial_index":68,"plugin_version":"2.1.0","time_elapsed":145331,"subject_id":"86923","group":"Group1","full_date":"2025-11-10T22:27:07.183Z","date":"2025-11-10","time":"22:27:07"},{"task":"memory_phase","broad_category":"M","image_png":"M_Phyllite_03.png","image_id":259,"category_name":"Phyllite","category":17,"distinct_rating":2.5,"distinct_type":"Bottom","rt":null,"stimulus":"Stimuli_Rocks480/M_Phyllite_03.png","response":null,"trial_type":"image-keyboard-response","trial_index":69,"plugin_version":"2.1.0","time_elapsed":147836,"subject_id":"86923","group":"Group1","full_date":"2025-11-10T22:27:07.183Z","date":"2025-11-10","time":"22:27:07"},{"rt":null,"stimulus":"<p style=\"font-size: 50px; margin: 0; text-align: center;\">+</p>","response":null,"trial_type":"html-keyboard-response","trial_index":70,"plugin_version":"2.1.0","time_elapsed":148839,"subject_id":"86923","group":"Group1","full_date":"2025-11-10T22:27:07.183Z","date":"2025-11-10","time":"22:27:07"},{"task":"memory_phase","broad_category":"I","image_png":"I_Diorite_03.png","image_id":35,"category_name":"Diorite","category":3,"distinct_rating":3.14,"distinct_type":"Bottom","rt":null,"stimulus":"Stimuli_Rocks480/I_Diorite_03.png","response":null,"trial_type":"image-keyboard-response","trial_index":71,"plugin_version":"2.1.0","time_elapsed":151345,"subject_id":"86923","group":"Group1","full_date":"2025-11-10T22:27:07.183Z","date":"2025-11-10","time":"22:27:07"},{"rt":null,"stimulus":"<p style=\"font-size: 50px; margin: 0; text-align: center;\">+</p>","response":null,"trial_type":"html-keyboard-response","trial_index":72,"plugin_version":"2.1.0","time_elapsed":152352,"subject_id":"86923","group":"Group1","full_date":"2025-11-10T22:27:07.183Z","date":"2025-11-10","time":"22:27:07"},{"task":"memory_phase","broad_category":"S","image_png":"S_Conglomerate_05.png","image_id":373,"category_name":"Conglomerate","category":24,"distinct_rating":7.32,"distinct_type":"Top","rt":null,"stimulus":"Stimuli_Rocks480/S_Conglomerate_05.png","response":null,"trial_type":"image-keyboard-response","trial_index":73,"plugin_version":"2.1.0","time_elapsed":154861,"subject_id":"86923","group":"Group1","full_date":"2025-11-10T22:27:07.183Z","date":"2025-11-10","time":"22:27:07"},{"rt":null,"stimulus":"<p style=\"font-size: 50px; margin: 0; text-align: center;\">+</p>","response":null,"trial_type":"html-keyboard-response","trial_index":74,"plugin_version":"2.1.0","time_elapsed":155863,"subject_id":"86923","group":"Group1","full_date":"2025-11-10T22:27:07.183Z","date":"2025-11-10","time":"22:27:07"},{"task":"memory_phase","broad_category":"I","image_png":"I_Pumice_08.png","image_id":136,"category_name":"Pumice","category":9,"distinct_rating":3.1,"distinct_type":"Bottom","rt":null,"stimulus":"Stimuli_Rocks480/I_Pumice_08.png","response":null,"trial_type":"image-keyboard-response","trial_index":75,"plugin_version":"2.1.0","time_elapsed":158372,"subject_id":"86923","group":"Group1","full_date":"2025-11-10T22:27:07.183Z","date":"2025-11-10","time":"22:27:07"},{"rt":null,"stimulus":"<p style=\"font-size: 50px; margin: 0; text-align: center;\">+</p>","response":null,"trial_type":"html-keyboard-response","trial_index":76,"plugin_version":"2.1.0","time_elapsed":159375,"subject_id":"86923","group":"Group1","full_date":"2025-11-10T22:27:07.183Z","date":"2025-11-10","time":"22:27:07"},{"task":"memory_phase","broad_category":"I","image_png":"I_Obsidian_05.png","image_id":85,"category_name":"Obsidian","category":6,"distinct_rating":7.32,"distinct_type":"Top","rt":null,"stimulus":"Stimuli_Rocks480/I_Obsidian_05.png","response":null,"trial_type":"image-keyboard-response","trial_index":77,"plugin_version":"2.1.0","time_elapsed":161884,"subject_id":"86923","group":"Group1","full_date":"2025-11-10T22:27:07.183Z","date":"2025-11-10","time":"22:27:07"},{"rt":null,"stimulus":"<p style=\"font-size: 50px; margin: 0; text-align: center;\">+</p>","response":null,"trial_type":"html-keyboard-response","trial_index":78,"plugin_version":"2.1.0","time_elapsed":162893,"subject_id":"86923","group":"Group1","full_date":"2025-11-10T22:27:07.183Z","date":"2025-11-10","time":"22:27:07"},{"task":"memory_phase","broad_category":"M","image_png":"M_Marble_04.png","image_id":228,"category_name":"Marble","category":15,"distinct_rating":3.15,"distinct_type":"Bottom","rt":null,"stimulus":"Stimuli_Rocks480/M_Marble_04.png","response":null,"trial_type":"image-keyboard-response","trial_index":79,"plugin_version":"2.1.0","time_elapsed":165408,"subject_id":"86923","group":"Group1","full_date":"2025-11-10T22:27:07.183Z","date":"2025-11-10","time":"22:27:07"},{"rt":null,"stimulus":"<p style=\"font-size: 50px; margin: 0; text-align: center;\">+</p>","response":null,"trial_type":"html-keyboard-response","trial_index":80,"plugin_version":"2.1.0","time_elapsed":166410,"subject_id":"86923","group":"Group1","full_date":"2025-11-10T22:27:07.183Z","date":"2025-11-10","time":"22:27:07"},{"task":"memory_phase","broad_category":"I","image_png":"I_Gabbro_08.png","image_id":56,"category_name":"Gabbro","category":4,"distinct_rating":3.02,"distinct_type":"Bottom","rt":null,"stimulus":"Stimuli_Rocks480/I_Gabbro_08.png","response":null,"trial_type":"image-keyboard-response","trial_index":81,"plugin_version":"2.1.0","time_elapsed":168926,"subject_id":"86923","group":"Group1","full_date":"2025-11-10T22:27:07.183Z","date":"2025-11-10","time":"22:27:07"},{"rt":null,"stimulus":"<p style=\"font-size: 50px; margin: 0; text-align: center;\">+</p>","response":null,"trial_type":"html-keyboard-response","trial_index":82,"plugin_version":"2.1.0","time_elapsed":169937,"subject_id":"86923","group":"Group1","full_date":"2025-11-10T22:27:07.183Z","date":"2025-11-10","time":"22:27:07"},{"task":"memory_phase","broad_category":"I","image_png":"I_Gabbro_16.png","image_id":64,"category_name":"Gabbro","category":4,"distinct_rating":2.52,"distinct_type":"Bottom","rt":null,"stimulus":"Stimuli_Rocks480/I_Gabbro_16.png","response":null,"trial_type":"image-keyboard-response","trial_index":83,"plugin_version":"2.1.0","time_elapsed":172454,"subject_id":"86923","group":"Group1","full_date":"2025-11-10T22:27:07.183Z","date":"2025-11-10","time":"22:27:07"},{"rt":null,"stimulus":"<p style=\"font-size: 50px; margin: 0; text-align: center;\">+</p>","response":null,"trial_type":"html-keyboard-response","trial_index":84,"plugin_version":"2.1.0","time_elapsed":173466,"subject_id":"86923","group":"Group1","full_date":"2025-11-10T22:27:07.183Z","date":"2025-11-10","time":"22:27:07"},{"task":"memory_phase","broad_category":"S","image_png":"S_Rock Gypsum_04.png","image_id":420,"category_name":"Rock Gypsum","category":27,"distinct_rating":7.61,"distinct_type":"Top","rt":null,"stimulus":"Stimuli_Rocks480/S_Rock Gypsum_04.png","response":null,"trial_type":"image-keyboard-response","trial_index":85,"plugin_version":"2.1.0","time_elapsed":175972,"subject_id":"86923","group":"Group1","full_date":"2025-11-10T22:27:07.183Z","date":"2025-11-10","time":"22:27:07"},{"rt":null,"stimulus":"<p style=\"font-size: 50px; margin: 0; text-align: center;\">+</p>","response":null,"trial_type":"html-keyboard-response","trial_index":86,"plugin_version":"2.1.0","time_elapsed":176980,"subject_id":"86923","group":"Group1","full_date":"2025-11-10T22:27:07.183Z","date":"2025-11-10","time":"22:27:07"},{"task":"memory_phase","broad_category":"I","image_png":"I_Rhyolite_11.png","image_id":155,"category_name":"Rhyolite","category":10,"distinct_rating":1.73,"distinct_type":"Bottom","rt":null,"stimulus":"Stimuli_Rocks480/I_Rhyolite_11.png","response":null,"trial_type":"image-keyboard-response","trial_index":87,"plugin_version":"2.1.0","time_elapsed":179493,"subject_id":"86923","group":"Group1","full_date":"2025-11-10T22:27:07.183Z","date":"2025-11-10","time":"22:27:07"},{"rt":null,"stimulus":"<p style=\"font-size: 50px; margin: 0; text-align: center;\">+</p>","response":null,"trial_type":"html-keyboard-response","trial_index":88,"plugin_version":"2.1.0","time_elapsed":180505,"subject_id":"86923","group":"Group1","full_date":"2025-11-10T22:27:07.183Z","date":"2025-11-10","time":"22:27:07"},{"task":"memory_phase","broad_category":"I","image_png":"I_Diorite_05.png","image_id":37,"category_name":"Diorite","category":3,"distinct_rating":3.08,"distinct_type":"Bottom","rt":null,"stimulus":"Stimuli_Rocks480/I_Diorite_05.png","response":null,"trial_type":"image-keyboard-response","trial_index":89,"plugin_version":"2.1.0","time_elapsed":183024,"subject_id":"86923","group":"Group1","full_date":"2025-11-10T22:27:07.183Z","date":"2025-11-10","time":"22:27:07"},{"rt":null,"stimulus":"<p style=\"font-size: 50px; margin: 0; text-align: center;\">+</p>","response":null,"trial_type":"html-keyboard-response","trial_index":90,"plugin_version":"2.1.0","time_elapsed":184039,"subject_id":"86923","group":"Group1","full_date":"2025-11-10T22:27:07.183Z","date":"2025-11-10","time":"22:27:07"},{"task":"memory_phase","broad_category":"M","image_png":"M_Marble_16.png","image_id":240,"category_name":"Marble","category":15,"distinct_rating":2.57,"distinct_type":"Bottom","rt":null,"stimulus":"Stimuli_Rocks480/M_Marble_16.png","response":null,"trial_type":"image-keyboard-response","trial_index":91,"plugin_version":"2.1.0","time_elapsed":186556,"subject_id":"86923","group":"Group1","full_date":"2025-11-10T22:27:07.183Z","date":"2025-11-10","time":"22:27:07"},{"rt":null,"stimulus":"<p style=\"font-size: 50px; margin: 0; text-align: center;\">+</p>","response":null,"trial_type":"html-keyboard-response","trial_index":92,"plugin_version":"2.1.0","time_elapsed":187558,"subject_id":"86923","group":"Group1","full_date":"2025-11-10T22:27:07.183Z","date":"2025-11-10","time":"22:27:07"},{"task":"memory_phase","broad_category":"M","image_png":"M_Slate_11.png","image_id":315,"category_name":"Slate","category":20,"distinct_rating":2.75,"distinct_type":"Bottom","rt":null,"stimulus":"Stimuli_Rocks480/M_Slate_11.png","response":null,"trial_type":"image-keyboard-response","trial_index":93,"plugin_version":"2.1.0","time_elapsed":190076,"subject_id":"86923","group":"Group1","full_date":"2025-11-10T22:27:07.183Z","date":"2025-11-10","time":"22:27:07"},{"rt":null,"stimulus":"<p style=\"font-size: 50px; margin: 0; text-align: center;\">+</p>","response":null,"trial_type":"html-keyboard-response","trial_index":94,"plugin_version":"2.1.0","time_elapsed":191077,"subject_id":"86923","group":"Group1","full_date":"2025-11-10T22:27:07.183Z","date":"2025-11-10","time":"22:27:07"},{"task":"memory_phase","broad_category":"I","image_png":"I_Diorite_04.png","image_id":36,"category_name":"Diorite","category":3,"distinct_rating":2.98,"distinct_type":"Bottom","rt":null,"stimulus":"Stimuli_Rocks480/I_Diorite_04.png","response":null,"trial_type":"image-keyboard-response","trial_index":95,"plugin_version":"2.1.0","time_elapsed":193584,"subject_id":"86923","group":"Group1","full_date":"2025-11-10T22:27:07.183Z","date":"2025-11-10","time":"22:27:07"},{"rt":null,"stimulus":"<p style=\"font-size: 50px; margin: 0; text-align: center;\">+</p>","response":null,"trial_type":"html-keyboard-response","trial_index":96,"plugin_version":"2.1.0","time_elapsed":194597,"subject_id":"86923","group":"Group1","full_date":"2025-11-10T22:27:07.183Z","date":"2025-11-10","time":"22:27:07"},{"task":"memory_phase","broad_category":"S","image_png":"S_Breccia_11.png","image_id":347,"category_name":"Breccia","category":22,"distinct_rating":6.7,"distinct_type":"Top","rt":null,"stimulus":"Stimuli_Rocks480/S_Breccia_11.png","response":null,"trial_type":"image-keyboard-response","trial_index":97,"plugin_version":"2.1.0","time_elapsed":197103,"subject_id":"86923","group":"Group1","full_date":"2025-11-10T22:27:07.183Z","date":"2025-11-10","time":"22:27:07"},{"rt":null,"stimulus":"<p style=\"font-size: 50px; margin: 0; text-align: center;\">+</p>","response":null,"trial_type":"html-keyboard-response","trial_index":98,"plugin_version":"2.1.0","time_elapsed":198106,"subject_id":"86923","group":"Group1","full_date":"2025-11-10T22:27:07.183Z","date":"2025-11-10","time":"22:27:07"},{"task":"memory_phase","broad_category":"M","image_png":"M_Slate_03.png","image_id":307,"category_name":"Slate","category":20,"distinct_rating":1.87,"distinct_type":"Bottom","rt":null,"stimulus":"Stimuli_Rocks480/M_Slate_03.png","response":null,"trial_type":"image-keyboard-response","trial_index":99,"plugin_version":"2.1.0","time_elapsed":200617,"subject_id":"86923","group":"Group1","full_date":"2025-11-10T22:27:07.183Z","date":"2025-11-10","time":"22:27:07"},{"rt":null,"stimulus":"<p style=\"font-size: 50px; margin: 0; text-align: center;\">+</p>","response":null,"trial_type":"html-keyboard-response","trial_index":100,"plugin_version":"2.1.0","time_elapsed":201629,"subject_id":"86923","group":"Group1","full_date":"2025-11-10T22:27:07.183Z","date":"2025-11-10","time":"22:27:07"},{"task":"memory_phase","broad_category":"S","image_png":"S_Sandstone_03.png","image_id":451,"category_name":"Sandstone","category":29,"distinct_rating":1.86,"distinct_type":"Bottom","rt":null,"stimulus":"Stimuli_Rocks480/S_Sandstone_03.png","response":null,"trial_type":"image-keyboard-response","trial_index":101,"plugin_version":"2.1.0","time_elapsed":204136,"subject_id":"86923","group":"Group1","full_date":"2025-11-10T22:27:07.183Z","date":"2025-11-10","time":"22:27:07"},{"rt":null,"stimulus":"<p style=\"font-size: 50px; margin: 0; text-align: center;\">+</p>","response":null,"trial_type":"html-keyboard-response","trial_index":102,"plugin_version":"2.1.0","time_elapsed":205138,"subject_id":"86923","group":"Group1","full_date":"2025-11-10T22:27:07.183Z","date":"2025-11-10","time":"22:27:07"},{"task":"memory_phase","broad_category":"M","image_png":"M_Quartzite_13.png","image_id":285,"category_name":"Quartzite","category":18,"distinct_rating":2.27,"distinct_type":"Bottom","rt":null,"stimulus":"Stimuli_Rocks480/M_Quartzite_13.png","response":null,"trial_type":"image-keyboard-response","trial_index":103,"plugin_version":"2.1.0","time_elapsed":207656,"subject_id":"86923","group":"Group1","full_date":"2025-11-10T22:27:07.183Z","date":"2025-11-10","time":"22:27:07"},{"rt":null,"stimulus":"<p style=\"font-size: 50px; margin: 0; text-align: center;\">+</p>","response":null,"trial_type":"html-keyboard-response","trial_index":104,"plugin_version":"2.1.0","time_elapsed":208657,"subject_id":"86923","group":"Group1","full_date":"2025-11-10T22:27:07.183Z","date":"2025-11-10","time":"22:27:07"},{"task":"memory_phase","broad_category":"I","image_png":"I_Rhyolite_16.png","image_id":160,"category_name":"Rhyolite","category":10,"distinct_rating":2.19,"distinct_type":"Bottom","rt":null,"stimulus":"Stimuli_Rocks480/I_Rhyolite_16.png","response":null,"trial_type":"image-keyboard-response","trial_index":105,"plugin_version":"2.1.0","time_elapsed":211164,"subject_id":"86923","group":"Group1","full_date":"2025-11-10T22:27:07.183Z","date":"2025-11-10","time":"22:27:07"},{"rt":26728,"stimulus":"<div style=\"max-width: 760px; margin: auto; font-size: 20px; line-height: 1.5;\">\n      <h1 style=\"text-align:center; font-size: 30px;\">Instructions for the Test Phase</h1>\n      <p>\n        The study phase is now complete.\n      </p>\n      <p>\n        In the test phase, you will again see a series of rock images. \n        Some will be ones you saw before - during the study phase, while others will be new.  \n        <b>Your task</b> is to decide whether you have seen each image before by pressing the corresponding key on your keyboard:<br><br>\n          <b>A</b> - NO (you did not see this image before)<br>\n          <b>L</b> - YES (you saw this image before)<br><br>\n        The test will proceed at your own pace. You will receive feedback after each response.  \n        Please try to respond <b>as accurately as possible</b>.\n      </p>\n      <p>\n        <b>Reminder:</b> If your computer has multiple language settings (e.g., English and another language),\n        please ensure it is set to English during the test phase.\n      </p>\n      <p>\n        You can track your progress using the <b>completion bar</b> at the top of the screen.  \n        Note that it has been refreshed to reflect your progress during this final phase.\n      </p>\n      <p>\n        Press the button below when you are ready to continue.\n      </p>\n    </div>","response":0,"trial_type":"html-button-response","trial_index":106,"plugin_version":"2.1.0","time_elapsed":237895,"subject_id":"86923","group":"Group1","full_date":"2025-11-10T22:27:07.183Z","date":"2025-11-10","time":"22:27:07"},{"correct_response":"a","task":"test_phase","broad_category":"I","image_png":"I_Andesite_03.png","image_id":3,"category_name":"Andesite","category":1,"distinct_rating":3.17,"distinct_type":"Bottom","item_type":"Foil","rt":4045,"stimulus":"Stimuli_Rocks480/I_Andesite_03.png","response":"a","trial_type":"image-keyboard-response","trial_index":107,"plugin_version":"2.1.0","time_elapsed":241943,"subject_id":"86923","group":"Group1","full_date":"2025-11-10T22:27:07.183Z","date":"2025-11-10","time":"22:27:07","cor_ans":true},{"trial_type":"html-keyboard-response","rt":null,"stimulus":"<p style=\"color: green; font-size: 50px; font-weight: bold;\">Correct</p>","response":null,"trial_index":108,"plugin_version":"2.1.0","time_elapsed":242456,"subject_id":"86923","group":"Group1","full_date":"2025-11-10T22:27:07.183Z","date":"2025-11-10","time":"22:27:07"},{"correct_response":"a","task":"test_phase","broad_category":"I","image_png":"I_Obsidian_06.png","image_id":86,"category_name":"Obsidian","category":6,"distinct_rating":8.01,"distinct_type":"Top","item_type":"Foil","rt":1378,"stimulus":"Stimuli_Rocks480/I_Obsidian_06.png","response":"a","trial_type":"image-keyboard-response","trial_index":109,"plugin_version":"2.1.0","time_elapsed":243836,"subject_id":"86923","group":"Group1","full_date":"2025-11-10T22:27:07.183Z","date":"2025-11-10","time":"22:27:07","cor_ans":true},{"trial_type":"html-keyboard-response","rt":null,"stimulus":"<p style=\"color: green; font-size: 50px; font-weight: bold;\">Correct</p>","response":null,"trial_index":110,"plugin_version":"2.1.0","time_elapsed":244346,"subject_id":"86923","group":"Group1","full_date":"2025-11-10T22:27:07.183Z","date":"2025-11-10","time":"22:27:07"},{"correct_response":"l","task":"test_phase","broad_category":"I","image_png":"I_Diorite_04.png","image_id":36,"category_name":"Diorite","category":3,"distinct_rating":2.98,"distinct_type":"Bottom","item_type":"Target","rt":977,"stimulus":"Stimuli_Rocks480/I_Diorite_04.png","response":"l","trial_type":"image-keyboard-response","trial_index":111,"plugin_version":"2.1.0","time_elapsed":245325,"subject_id":"86923","group":"Group1","full_date":"2025-11-10T22:27:07.183Z","date":"2025-11-10","time":"22:27:07","cor_ans":true},{"trial_type":"html-keyboard-response","rt":null,"stimulus":"<p style=\"color: green; font-size: 50px; font-weight: bold;\">Correct</p>","response":null,"trial_index":112,"plugin_version":"2.1.0","time_elapsed":245840,"subject_id":"86923","group":"Group1","full_date":"2025-11-10T22:27:07.183Z","date":"2025-11-10","time":"22:27:07"},{"correct_response":"l","task":"test_phase","broad_category":"I","image_png":"I_Rhyolite_14.png","image_id":158,"category_name":"Rhyolite","category":10,"distinct_rating":2.59,"distinct_type":"Bottom","item_type":"Target","rt":1155,"stimulus":"Stimuli_Rocks480/I_Rhyolite_14.png","response":"a","trial_type":"image-keyboard-response","trial_index":113,"plugin_version":"2.1.0","time_elapsed":246997,"subject_id":"86923","group":"Group1","full_date":"2025-11-10T22:27:07.183Z","date":"2025-11-10","time":"22:27:07","cor_ans":false},{"trial_type":"html-keyboard-response","rt":null,"stimulus":"<p style=\"color: red; font-size: 50px; font-weight: bold;\">Incorrect</p>","response":null,"trial_index":114,"plugin_version":"2.1.0","time_elapsed":247501,"subject_id":"86923","group":"Group1","full_date":"2025-11-10T22:27:07.183Z","date":"2025-11-10","time":"22:27:07"},{"correct_response":"a","task":"test_phase","broad_category":"M","image_png":"M_Phyllite_13.png","image_id":269,"category_name":"Phyllite","category":17,"distinct_rating":2.8,"distinct_type":"Bottom","item_type":"Foil","rt":1776,"stimulus":"Stimuli_Rocks480/M_Phyllite_13.png","response":"l","trial_type":"image-keyboard-response","trial_index":115,"plugin_version":"2.1.0","time_elapsed":249279,"subject_id":"86923","group":"Group1","full_date":"2025-11-10T22:27:07.183Z","date":"2025-11-10","time":"22:27:07","cor_ans":false},{"trial_type":"html-keyboard-response","rt":null,"stimulus":"<p style=\"color: red; font-size: 50px; font-weight: bold;\">Incorrect</p>","response":null,"trial_index":116,"plugin_version":"2.1.0","time_elapsed":249782,"subject_id":"86923","group":"Group1","full_date":"2025-11-10T22:27:07.183Z","date":"2025-11-10","time":"22:27:07"},{"correct_response":"a","task":"test_phase","broad_category":"I","image_png":"I_Andesite_04.png","image_id":4,"category_name":"Andesite","category":1,"distinct_rating":3.18,"distinct_type":"Bottom","item_type":"Foil","rt":1671,"stimulus":"Stimuli_Rocks480/I_Andesite_04.png","response":"l","trial_type":"image-keyboard-response","trial_index":117,"plugin_version":"2.1.0","time_elapsed":251456,"subject_id":"86923","group":"Group1","full_date":"2025-11-10T22:27:07.183Z","date":"2025-11-10","time":"22:27:07","cor_ans":false},{"trial_type":"html-keyboard-response","rt":null,"stimulus":"<p style=\"color: red; font-size: 50px; font-weight: bold;\">Incorrect</p>","response":null,"trial_index":118,"plugin_version":"2.1.0","time_elapsed":251964,"subject_id":"86923","group":"Group1","full_date":"2025-11-10T22:27:07.183Z","date":"2025-11-10","time":"22:27:07"},{"correct_response":"l","task":"test_phase","broad_category":"S","image_png":"S_Breccia_11.png","image_id":347,"category_name":"Breccia","category":22,"distinct_rating":6.7,"distinct_type":"Top","item_type":"Target","rt":886,"stimulus":"Stimuli_Rocks480/S_Breccia_11.png","response":"l","trial_type":"image-keyboard-response","trial_index":119,"plugin_version":"2.1.0","time_elapsed":252853,"subject_id":"86923","group":"Group1","full_date":"2025-11-10T22:27:07.183Z","date":"2025-11-10","time":"22:27:07","cor_ans":true},{"trial_type":"html-keyboard-response","rt":null,"stimulus":"<p style=\"color: green; font-size: 50px; font-weight: bold;\">Correct</p>","response":null,"trial_index":120,"plugin_version":"2.1.0","time_elapsed":253363,"subject_id":"86923","group":"Group1","full_date":"2025-11-10T22:27:07.183Z","date":"2025-11-10","time":"22:27:07"},{"correct_response":"a","task":"test_phase","broad_category":"S","image_png":"S_Shale_02.png","image_id":466,"category_name":"Shale","category":30,"distinct_rating":2.9,"distinct_type":"Bottom","item_type":"Foil","rt":1091,"stimulus":"Stimuli_Rocks480/S_Shale_02.png","response":"a","trial_type":"image-keyboard-response","trial_index":121,"plugin_version":"2.1.0","time_elapsed":254455,"subject_id":"86923","group":"Group1","full_date":"2025-11-10T22:27:07.183Z","date":"2025-11-10","time":"22:27:07","cor_ans":true},{"trial_type":"html-keyboard-response","rt":null,"stimulus":"<p style=\"color: green; font-size: 50px; font-weight: bold;\">Correct</p>","response":null,"trial_index":122,"plugin_version":"2.1.0","time_elapsed":254964,"subject_id":"86923","group":"Group1","full_date":"2025-11-10T22:27:07.183Z","date":"2025-11-10","time":"22:27:07"},{"correct_response":"l","task":"test_phase","broad_category":"I","image_png":"I_Obsidian_05.png","image_id":85,"category_name":"Obsidian","category":6,"distinct_rating":7.32,"distinct_type":"Top","item_type":"Target","rt":893,"stimulus":"Stimuli_Rocks480/I_Obsidian_05.png","response":"l","trial_type":"image-keyboard-response","trial_index":123,"plugin_version":"2.1.0","time_elapsed":255859,"subject_id":"86923","group":"Group1","full_date":"2025-11-10T22:27:07.183Z","date":"2025-11-10","time":"22:27:07","cor_ans":true},{"trial_type":"html-keyboard-response","rt":null,"stimulus":"<p style=\"color: green; font-size: 50px; font-weight: bold;\">Correct</p>","response":null,"trial_index":124,"plugin_version":"2.1.0","time_elapsed":256362,"subject_id":"86923","group":"Group1","full_date":"2025-11-10T22:27:07.183Z","date":"2025-11-10","time":"22:27:07"},{"correct_response":"a","task":"test_phase","broad_category":"M","image_png":"M_Marble_03.png","image_id":227,"category_name":"Marble","category":15,"distinct_rating":2.67,"distinct_type":"Bottom","item_type":"Foil","rt":866,"stimulus":"Stimuli_Rocks480/M_Marble_03.png","response":"a","trial_type":"image-keyboard-response","trial_index":125,"plugin_version":"2.1.0","time_elapsed":257230,"subject_id":"86923","group":"Group1","full_date":"2025-11-10T22:27:07.183Z","date":"2025-11-10","time":"22:27:07","cor_ans":true},{"trial_type":"html-keyboard-response","rt":null,"stimulus":"<p style=\"color: green; font-size: 50px; font-weight: bold;\">Correct</p>","response":null,"trial_index":126,"plugin_version":"2.1.0","time_elapsed":257743,"subject_id":"86923","group":"Group1","full_date":"2025-11-10T22:27:07.183Z","date":"2025-11-10","time":"22:27:07"},{"correct_response":"l","task":"test_phase","broad_category":"S","image_png":"S_Dolomite_14.png","image_id":398,"category_name":"Dolomite","category":25,"distinct_rating":1.43,"distinct_type":"Bottom","item_type":"Target","rt":1465,"stimulus":"Stimuli_Rocks480/S_Dolomite_14.png","response":"a","trial_type":"image-keyboard-response","trial_index":127,"plugin_version":"2.1.0","time_elapsed":259210,"subject_id":"86923","group":"Group1","full_date":"2025-11-10T22:27:07.183Z","date":"2025-11-10","time":"22:27:07","cor_ans":false},{"trial_type":"html-keyboard-response","rt":null,"stimulus":"<p style=\"color: red; font-size: 50px; font-weight: bold;\">Incorrect</p>","response":null,"trial_index":128,"plugin_version":"2.1.0","time_elapsed":259725,"subject_id":"86923","group":"Group1","full_date":"2025-11-10T22:27:07.183Z","date":"2025-11-10","time":"22:27:07"},{"correct_response":"a","task":"test_phase","broad_category":"I","image_png":"I_Pegmatite_03.png","image_id":99,"category_name":"Pegmatite","category":7,"distinct_rating":7.24,"distinct_type":"Top","item_type":"Foil","rt":998,"stimulus":"Stimuli_Rocks480/I_Pegmatite_03.png","response":"a","trial_type":"image-keyboard-response","trial_index":129,"plugin_version":"2.1.0","time_elapsed":260724,"subject_id":"86923","group":"Group1","full_date":"2025-11-10T22:27:07.183Z","date":"2025-11-10","time":"22:27:07","cor_ans":true},{"trial_type":"html-keyboard-response","rt":null,"stimulus":"<p style=\"color: green; font-size: 50px; font-weight: bold;\">Correct</p>","response":null,"trial_index":130,"plugin_version":"2.1.0","time_elapsed":261230,"subject_id":"86923","group":"Group1","full_date":"2025-11-10T22:27:07.183Z","date":"2025-11-10","time":"22:27:07"},{"correct_response":"a","task":"test_phase","broad_category":"I","image_png":"I_Rhyolite_05.png","image_id":149,"category_name":"Rhyolite","category":10,"distinct_rating":3.02,"distinct_type":"Bottom","item_type":"Foil","rt":1700,"stimulus":"Stimuli_Rocks480/I_Rhyolite_05.png","response":"a","trial_type":"image-keyboard-response","trial_index":131,"plugin_version":"2.1.0","time_elapsed":262932,"subject_id":"86923","group":"Group1","full_date":"2025-11-10T22:27:07.183Z","date":"2025-11-10","time":"22:27:07","cor_ans":true},{"trial_type":"html-keyboard-response","rt":null,"stimulus":"<p style=\"color: green; font-size: 50px; font-weight: bold;\">Correct</p>","response":null,"trial_index":132,"plugin_version":"2.1.0","time_elapsed":263445,"subject_id":"86923","group":"Group1","full_date":"2025-11-10T22:27:07.183Z","date":"2025-11-10","time":"22:27:07"},{"correct_response":"l","task":"test_phase","broad_category":"I","image_png":"I_Andesite_08.png","image_id":8,"category_name":"Andesite","category":1,"distinct_rating":1.95,"distinct_type":"Bottom","item_type":"Target","rt":1044,"stimulus":"Stimuli_Rocks480/I_Andesite_08.png","response":"l","trial_type":"image-keyboard-response","trial_index":133,"plugin_version":"2.1.0","time_elapsed":264491,"subject_id":"86923","group":"Group1","full_date":"2025-11-10T22:27:07.183Z","date":"2025-11-10","time":"22:27:07","cor_ans":true},{"trial_type":"html-keyboard-response","rt":null,"stimulus":"<p style=\"color: green; font-size: 50px; font-weight: bold;\">Correct</p>","response":null,"trial_index":134,"plugin_version":"2.1.0","time_elapsed":264999,"subject_id":"86923","group":"Group1","full_date":"2025-11-10T22:27:07.183Z","date":"2025-11-10","time":"22:27:07"},{"correct_response":"l","task":"test_phase","broad_category":"M","image_png":"M_Marble_04.png","image_id":228,"category_name":"Marble","category":15,"distinct_rating":3.15,"distinct_type":"Bottom","item_type":"Target","rt":1124,"stimulus":"Stimuli_Rocks480/M_Marble_04.png","response":"l","trial_type":"image-keyboard-response","trial_index":135,"plugin_version":"2.1.0","time_elapsed":266126,"subject_id":"86923","group":"Group1","full_date":"2025-11-10T22:27:07.183Z","date":"2025-11-10","time":"22:27:07","cor_ans":true},{"trial_type":"html-keyboard-response","rt":null,"stimulus":"<p style=\"color: green; font-size: 50px; font-weight: bold;\">Correct</p>","response":null,"trial_index":136,"plugin_version":"2.1.0","time_elapsed":266630,"subject_id":"86923","group":"Group1","full_date":"2025-11-10T22:27:07.183Z","date":"2025-11-10","time":"22:27:07"},{"correct_response":"a","task":"test_phase","broad_category":"S","image_png":"S_Shale_07.png","image_id":471,"category_name":"Shale","category":30,"distinct_rating":2.73,"distinct_type":"Bottom","item_type":"Foil","rt":1972,"stimulus":"Stimuli_Rocks480/S_Shale_07.png","response":"l","trial_type":"image-keyboard-response","trial_index":137,"plugin_version":"2.1.0","time_elapsed":268605,"subject_id":"86923","group":"Group1","full_date":"2025-11-10T22:27:07.183Z","date":"2025-11-10","time":"22:27:07","cor_ans":false},{"trial_type":"html-keyboard-response","rt":null,"stimulus":"<p style=\"color: red; font-size: 50px; font-weight: bold;\">Incorrect</p>","response":null,"trial_index":138,"plugin_version":"2.1.0","time_elapsed":269121,"subject_id":"86923","group":"Group1","full_date":"2025-11-10T22:27:07.183Z","date":"2025-11-10","time":"22:27:07"},{"correct_response":"l","task":"test_phase","broad_category":"M","image_png":"M_Slate_11.png","image_id":315,"category_name":"Slate","category":20,"distinct_rating":2.75,"distinct_type":"Bottom","item_type":"Target","rt":1052,"stimulus":"Stimuli_Rocks480/M_Slate_11.png","response":"a","trial_type":"image-keyboard-response","trial_index":139,"plugin_version":"2.1.0","time_elapsed":270176,"subject_id":"86923","group":"Group1","full_date":"2025-11-10T22:27:07.183Z","date":"2025-11-10","time":"22:27:07","cor_ans":false},{"trial_type":"html-keyboard-response","rt":null,"stimulus":"<p style=\"color: red; font-size: 50px; font-weight: bold;\">Incorrect</p>","response":null,"trial_index":140,"plugin_version":"2.1.0","time_elapsed":270677,"subject_id":"86923","group":"Group1","full_date":"2025-11-10T22:27:07.183Z","date":"2025-11-10","time":"22:27:07"},{"correct_response":"a","task":"test_phase","broad_category":"S","image_png":"S_Sandstone_11.png","image_id":459,"category_name":"Sandstone","category":29,"distinct_rating":1.82,"distinct_type":"Bottom","item_type":"Foil","rt":1088,"stimulus":"Stimuli_Rocks480/S_Sandstone_11.png","response":"l","trial_type":"image-keyboard-response","trial_index":141,"plugin_version":"2.1.0","time_elapsed":271767,"subject_id":"86923","group":"Group1","full_date":"2025-11-10T22:27:07.183Z","date":"2025-11-10","time":"22:27:07","cor_ans":false},{"trial_type":"html-keyboard-response","rt":null,"stimulus":"<p style=\"color: red; font-size: 50px; font-weight: bold;\">Incorrect</p>","response":null,"trial_index":142,"plugin_version":"2.1.0","time_elapsed":272280,"subject_id":"86923","group":"Group1","full_date":"2025-11-10T22:27:07.183Z","date":"2025-11-10","time":"22:27:07"},{"correct_response":"l","task":"test_phase","broad_category":"I","image_png":"I_Andesite_06.png","image_id":6,"category_name":"Andesite","category":1,"distinct_rating":3.17,"distinct_type":"Bottom","item_type":"Target","rt":926,"stimulus":"Stimuli_Rocks480/I_Andesite_06.png","response":"l","trial_type":"image-keyboard-response","trial_index":143,"plugin_version":"2.1.0","time_elapsed":273208,"subject_id":"86923","group":"Group1","full_date":"2025-11-10T22:27:07.183Z","date":"2025-11-10","time":"22:27:07","cor_ans":true},{"trial_type":"html-keyboard-response","rt":null,"stimulus":"<p style=\"color: green; font-size: 50px; font-weight: bold;\">Correct</p>","response":null,"trial_index":144,"plugin_version":"2.1.0","time_elapsed":273722,"subject_id":"86923","group":"Group1","full_date":"2025-11-10T22:27:07.183Z","date":"2025-11-10","time":"22:27:07"},{"correct_response":"l","task":"test_phase","broad_category":"I","image_png":"I_Basalt_02.png","image_id":18,"category_name":"Basalt","category":2,"distinct_rating":1.84,"distinct_type":"Bottom","item_type":"Target","rt":3327,"stimulus":"Stimuli_Rocks480/I_Basalt_02.png","response":"a","trial_type":"image-keyboard-response","trial_index":145,"plugin_version":"2.1.0","time_elapsed":277052,"subject_id":"86923","group":"Group1","full_date":"2025-11-10T22:27:07.183Z","date":"2025-11-10","time":"22:27:07","cor_ans":false},{"trial_type":"html-keyboard-response","rt":null,"stimulus":"<p style=\"color: red; font-size: 50px; font-weight: bold;\">Incorrect</p>","response":null,"trial_index":146,"plugin_version":"2.1.0","time_elapsed":277566,"subject_id":"86923","group":"Group1","full_date":"2025-11-10T22:27:07.183Z","date":"2025-11-10","time":"22:27:07"},{"correct_response":"a","task":"test_phase","broad_category":"I","image_png":"I_Rhyolite_08.png","image_id":152,"category_name":"Rhyolite","category":10,"distinct_rating":1.38,"distinct_type":"Bottom","item_type":"Foil","rt":2127,"stimulus":"Stimuli_Rocks480/I_Rhyolite_08.png","response":"l","trial_type":"image-keyboard-response","trial_index":147,"plugin_version":"2.1.0","time_elapsed":279695,"subject_id":"86923","group":"Group1","full_date":"2025-11-10T22:27:07.183Z","date":"2025-11-10","time":"22:27:07","cor_ans":false},{"trial_type":"html-keyboard-response","rt":null,"stimulus":"<p style=\"color: red; font-size: 50px; font-weight: bold;\">Incorrect</p>","response":null,"trial_index":148,"plugin_version":"2.1.0","time_elapsed":280209,"subject_id":"86923","group":"Group1","full_date":"2025-11-10T22:27:07.183Z","date":"2025-11-10","time":"22:27:07"},{"correct_response":"l","task":"test_phase","broad_category":"S","image_png":"S_Chert_10.png","image_id":362,"category_name":"Chert","category":23,"distinct_rating":7.17,"distinct_type":"Top","item_type":"Target","rt":922,"stimulus":"Stimuli_Rocks480/S_Chert_10.png","response":"l","trial_type":"image-keyboard-response","trial_index":149,"plugin_version":"2.1.0","time_elapsed":281133,"subject_id":"86923","group":"Group1","full_date":"2025-11-10T22:27:07.183Z","date":"2025-11-10","time":"22:27:07","cor_ans":true},{"trial_type":"html-keyboard-response","rt":null,"stimulus":"<p style=\"color: green; font-size: 50px; font-weight: bold;\">Correct</p>","response":null,"trial_index":150,"plugin_version":"2.1.0","time_elapsed":281644,"subject_id":"86923","group":"Group1","full_date":"2025-11-10T22:27:07.183Z","date":"2025-11-10","time":"22:27:07"},{"correct_response":"l","task":"test_phase","broad_category":"I","image_png":"I_Pumice_12.png","image_id":140,"category_name":"Pumice","category":9,"distinct_rating":2.97,"distinct_type":"Bottom","item_type":"Target","rt":1066,"stimulus":"Stimuli_Rocks480/I_Pumice_12.png","response":"l","trial_type":"image-keyboard-response","trial_index":151,"plugin_version":"2.1.0","time_elapsed":282711,"subject_id":"86923","group":"Group1","full_date":"2025-11-10T22:27:07.183Z","date":"2025-11-10","time":"22:27:07","cor_ans":true},{"trial_type":"html-keyboard-response","rt":null,"stimulus":"<p style=\"color: green; font-size: 50px; font-weight: bold;\">Correct</p>","response":null,"trial_index":152,"plugin_version":"2.1.0","time_elapsed":283219,"subject_id":"86923","group":"Group1","full_date":"2025-11-10T22:27:07.183Z","date":"2025-11-10","time":"22:27:07"},{"correct_response":"l","task":"test_phase","broad_category":"I","image_png":"I_Pegmatite_16.png","image_id":112,"category_name":"Pegmatite","category":7,"distinct_rating":7.03,"distinct_type":"Top","item_type":"Target","rt":1386,"stimulus":"Stimuli_Rocks480/I_Pegmatite_16.png","response":"l","trial_type":"image-keyboard-response","trial_index":153,"plugin_version":"2.1.0","time_elapsed":284608,"subject_id":"86923","group":"Group1","full_date":"2025-11-10T22:27:07.183Z","date":"2025-11-10","time":"22:27:07","cor_ans":true},{"trial_type":"html-keyboard-response","rt":null,"stimulus":"<p style=\"color: green; font-size: 50px; font-weight: bold;\">Correct</p>","response":null,"trial_index":154,"plugin_version":"2.1.0","time_elapsed":285116,"subject_id":"86923","group":"Group1","full_date":"2025-11-10T22:27:07.183Z","date":"2025-11-10","time":"22:27:07"},{"correct_response":"a","task":"test_phase","broad_category":"S","image_png":"S_Rock Salt_13.png","image_id":445,"category_name":"Rock Salt","category":28,"distinct_rating":7.58,"distinct_type":"Top","item_type":"Foil","rt":704,"stimulus":"Stimuli_Rocks480/S_Rock Salt_13.png","response":"a","trial_type":"image-keyboard-response","trial_index":155,"plugin_version":"2.1.0","time_elapsed":285822,"subject_id":"86923","group":"Group1","full_date":"2025-11-10T22:27:07.183Z","date":"2025-11-10","time":"22:27:07","cor_ans":true},{"trial_type":"html-keyboard-response","rt":null,"stimulus":"<p style=\"color: green; font-size: 50px; font-weight: bold;\">Correct</p>","response":null,"trial_index":156,"plugin_version":"2.1.0","time_elapsed":286331,"subject_id":"86923","group":"Group1","full_date":"2025-11-10T22:27:07.183Z","date":"2025-11-10","time":"22:27:07"},{"correct_response":"l","task":"test_phase","broad_category":"M","image_png":"M_Phyllite_07.png","image_id":263,"category_name":"Phyllite","category":17,"distinct_rating":2.59,"distinct_type":"Bottom","item_type":"Target","rt":1906,"stimulus":"Stimuli_Rocks480/M_Phyllite_07.png","response":"a","trial_type":"image-keyboard-response","trial_index":157,"plugin_version":"2.1.0","time_elapsed":288239,"subject_id":"86923","group":"Group1","full_date":"2025-11-10T22:27:07.183Z","date":"2025-11-10","time":"22:27:07","cor_ans":false},{"trial_type":"html-keyboard-response","rt":null,"stimulus":"<p style=\"color: red; font-size: 50px; font-weight: bold;\">Incorrect</p>","response":null,"trial_index":158,"plugin_version":"2.1.0","time_elapsed":288748,"subject_id":"86923","group":"Group1","full_date":"2025-11-10T22:27:07.183Z","date":"2025-11-10","time":"22:27:07"},{"correct_response":"l","task":"test_phase","broad_category":"S","image_png":"S_Rock Gypsum_04.png","image_id":420,"category_name":"Rock Gypsum","category":27,"distinct_rating":7.61,"distinct_type":"Top","item_type":"Target","rt":1532,"stimulus":"Stimuli_Rocks480/S_Rock Gypsum_04.png","response":"l","trial_type":"image-keyboard-response","trial_index":159,"plugin_version":"2.1.0","time_elapsed":290283,"subject_id":"86923","group":"Group1","full_date":"2025-11-10T22:27:07.183Z","date":"2025-11-10","time":"22:27:07","cor_ans":true},{"trial_type":"html-keyboard-response","rt":null,"stimulus":"<p style=\"color: green; font-size: 50px; font-weight: bold;\">Correct</p>","response":null,"trial_index":160,"plugin_version":"2.1.0","time_elapsed":290785,"subject_id":"86923","group":"Group1","full_date":"2025-11-10T22:27:07.183Z","date":"2025-11-10","time":"22:27:07"},{"correct_response":"l","task":"test_phase","broad_category":"M","image_png":"M_Quartzite_05.png","image_id":277,"category_name":"Quartzite","category":18,"distinct_rating":2.23,"distinct_type":"Bottom","item_type":"Target","rt":1403,"stimulus":"Stimuli_Rocks480/M_Quartzite_05.png","response":"l","trial_type":"image-keyboard-response","trial_index":161,"plugin_version":"2.1.0","time_elapsed":292190,"subject_id":"86923","group":"Group1","full_date":"2025-11-10T22:27:07.183Z","date":"2025-11-10","time":"22:27:07","cor_ans":true},{"trial_type":"html-keyboard-response","rt":null,"stimulus":"<p style=\"color: green; font-size: 50px; font-weight: bold;\">Correct</p>","response":null,"trial_index":162,"plugin_version":"2.1.0","time_elapsed":292695,"subject_id":"86923","group":"Group1","full_date":"2025-11-10T22:27:07.183Z","date":"2025-11-10","time":"22:27:07"},{"correct_response":"l","task":"test_phase","broad_category":"I","image_png":"I_Andesite_10.png","image_id":10,"category_name":"Andesite","category":1,"distinct_rating":3.15,"distinct_type":"Bottom","item_type":"Target","rt":1511,"stimulus":"Stimuli_Rocks480/I_Andesite_10.png","response":"l","trial_type":"image-keyboard-response","trial_index":163,"plugin_version":"2.1.0","time_elapsed":294208,"subject_id":"86923","group":"Group1","full_date":"2025-11-10T22:27:07.183Z","date":"2025-11-10","time":"22:27:07","cor_ans":true},{"trial_type":"html-keyboard-response","rt":null,"stimulus":"<p style=\"color: green; font-size: 50px; font-weight: bold;\">Correct</p>","response":null,"trial_index":164,"plugin_version":"2.1.0","time_elapsed":294723,"subject_id":"86923","group":"Group1","full_date":"2025-11-10T22:27:07.183Z","date":"2025-11-10","time":"22:27:07"},{"correct_response":"l","task":"test_phase","broad_category":"M","image_png":"M_Slate_03.png","image_id":307,"category_name":"Slate","category":20,"distinct_rating":1.87,"distinct_type":"Bottom","item_type":"Target","rt":706,"stimulus":"Stimuli_Rocks480/M_Slate_03.png","response":"l","trial_type":"image-keyboard-response","trial_index":165,"plugin_version":"2.1.0","time_elapsed":295431,"subject_id":"86923","group":"Group1","full_date":"2025-11-10T22:27:07.183Z","date":"2025-11-10","time":"22:27:07","cor_ans":true},{"trial_type":"html-keyboard-response","rt":null,"stimulus":"<p style=\"color: green; font-size: 50px; font-weight: bold;\">Correct</p>","response":null,"trial_index":166,"plugin_version":"2.1.0","time_elapsed":295944,"subject_id":"86923","group":"Group1","full_date":"2025-11-10T22:27:07.183Z","date":"2025-11-10","time":"22:27:07"},{"correct_response":"l","task":"test_phase","broad_category":"M","image_png":"M_Phyllite_03.png","image_id":259,"category_name":"Phyllite","category":17,"distinct_rating":2.5,"distinct_type":"Bottom","item_type":"Target","rt":1339,"stimulus":"Stimuli_Rocks480/M_Phyllite_03.png","response":"a","trial_type":"image-keyboard-response","trial_index":167,"plugin_version":"2.1.0","time_elapsed":297286,"subject_id":"86923","group":"Group1","full_date":"2025-11-10T22:27:07.183Z","date":"2025-11-10","time":"22:27:07","cor_ans":false},{"trial_type":"html-keyboard-response","rt":null,"stimulus":"<p style=\"color: red; font-size: 50px; font-weight: bold;\">Incorrect</p>","response":null,"trial_index":168,"plugin_version":"2.1.0","time_elapsed":297800,"subject_id":"86923","group":"Group1","full_date":"2025-11-10T22:27:07.183Z","date":"2025-11-10","time":"22:27:07"},{"correct_response":"a","task":"test_phase","broad_category":"I","image_png":"I_Gabbro_14.png","image_id":62,"category_name":"Gabbro","category":4,"distinct_rating":2.95,"distinct_type":"Bottom","item_type":"Foil","rt":1035,"stimulus":"Stimuli_Rocks480/I_Gabbro_14.png","response":"a","trial_type":"image-keyboard-response","trial_index":169,"plugin_version":"2.1.0","time_elapsed":298837,"subject_id":"86923","group":"Group1","full_date":"2025-11-10T22:27:07.183Z","date":"2025-11-10","time":"22:27:07","cor_ans":true},{"trial_type":"html-keyboard-response","rt":null,"stimulus":"<p style=\"color: green; font-size: 50px; font-weight: bold;\">Correct</p>","response":null,"trial_index":170,"plugin_version":"2.1.0","time_elapsed":299346,"subject_id":"86923","group":"Group1","full_date":"2025-11-10T22:27:07.183Z","date":"2025-11-10","time":"22:27:07"},{"correct_response":"a","task":"test_phase","broad_category":"M","image_png":"M_Quartzite_07.png","image_id":279,"category_name":"Quartzite","category":18,"distinct_rating":1.97,"distinct_type":"Bottom","item_type":"Foil","rt":852,"stimulus":"Stimuli_Rocks480/M_Quartzite_07.png","response":"l","trial_type":"image-keyboard-response","trial_index":171,"plugin_version":"2.1.0","time_elapsed":300198,"subject_id":"86923","group":"Group1","full_date":"2025-11-10T22:27:07.183Z","date":"2025-11-10","time":"22:27:07","cor_ans":false},{"trial_type":"html-keyboard-response","rt":null,"stimulus":"<p style=\"color: red; font-size: 50px; font-weight: bold;\">Incorrect</p>","response":null,"trial_index":172,"plugin_version":"2.1.0","time_elapsed":300702,"subject_id":"86923","group":"Group1","full_date":"2025-11-10T22:27:07.183Z","date":"2025-11-10","time":"22:27:07"},{"correct_response":"a","task":"test_phase","broad_category":"S","image_png":"S_Sandstone_04.png","image_id":452,"category_name":"Sandstone","category":29,"distinct_rating":1.8,"distinct_type":"Bottom","item_type":"Foil","rt":2725,"stimulus":"Stimuli_Rocks480/S_Sandstone_04.png","response":"l","trial_type":"image-keyboard-response","trial_index":173,"plugin_version":"2.1.0","time_elapsed":303430,"subject_id":"86923","group":"Group1","full_date":"2025-11-10T22:27:07.183Z","date":"2025-11-10","time":"22:27:07","cor_ans":false},{"trial_type":"html-keyboard-response","rt":null,"stimulus":"<p style=\"color: red; font-size: 50px; font-weight: bold;\">Incorrect</p>","response":null,"trial_index":174,"plugin_version":"2.1.0","time_elapsed":303932,"subject_id":"86923","group":"Group1","full_date":"2025-11-10T22:27:07.183Z","date":"2025-11-10","time":"22:27:07"},{"correct_response":"l","task":"test_phase","broad_category":"I","image_png":"I_Gabbro_16.png","image_id":64,"category_name":"Gabbro","category":4,"distinct_rating":2.52,"distinct_type":"Bottom","item_type":"Target","rt":2099,"stimulus":"Stimuli_Rocks480/I_Gabbro_16.png","response":"l","trial_type":"image-keyboard-response","trial_index":175,"plugin_version":"2.1.0","time_elapsed":306033,"subject_id":"86923","group":"Group1","full_date":"2025-11-10T22:27:07.183Z","date":"2025-11-10","time":"22:27:07","cor_ans":true},{"trial_type":"html-keyboard-response","rt":null,"stimulus":"<p style=\"color: green; font-size: 50px; font-weight: bold;\">Correct</p>","response":null,"trial_index":176,"plugin_version":"2.1.0","time_elapsed":306544,"subject_id":"86923","group":"Group1","full_date":"2025-11-10T22:27:07.183Z","date":"2025-11-10","time":"22:27:07"},{"correct_response":"l","task":"test_phase","broad_category":"M","image_png":"M_Marble_06.png","image_id":230,"category_name":"Marble","category":15,"distinct_rating":3.4,"distinct_type":"Bottom","item_type":"Target","rt":1622,"stimulus":"Stimuli_Rocks480/M_Marble_06.png","response":"a","trial_type":"image-keyboard-response","trial_index":177,"plugin_version":"2.1.0","time_elapsed":308169,"subject_id":"86923","group":"Group1","full_date":"2025-11-10T22:27:07.183Z","date":"2025-11-10","time":"22:27:07","cor_ans":false},{"trial_type":"html-keyboard-response","rt":null,"stimulus":"<p style=\"color: red; font-size: 50px; font-weight: bold;\">Incorrect</p>","response":null,"trial_index":178,"plugin_version":"2.1.0","time_elapsed":308678,"subject_id":"86923","group":"Group1","full_date":"2025-11-10T22:27:07.183Z","date":"2025-11-10","time":"22:27:07"},{"correct_response":"l","task":"test_phase","broad_category":"S","image_png":"S_Dolomite_13.png","image_id":397,"category_name":"Dolomite","category":25,"distinct_rating":1.77,"distinct_type":"Bottom","item_type":"Target","rt":947,"stimulus":"Stimuli_Rocks480/S_Dolomite_13.png","response":"l","trial_type":"image-keyboard-response","trial_index":179,"plugin_version":"2.1.0","time_elapsed":309628,"subject_id":"86923","group":"Group1","full_date":"2025-11-10T22:27:07.183Z","date":"2025-11-10","time":"22:27:07","cor_ans":true},{"trial_type":"html-keyboard-response","rt":null,"stimulus":"<p style=\"color: green; font-size: 50px; font-weight: bold;\">Correct</p>","response":null,"trial_index":180,"plugin_version":"2.1.0","time_elapsed":310144,"subject_id":"86923","group":"Group1","full_date":"2025-11-10T22:27:07.183Z","date":"2025-11-10","time":"22:27:07"},{"correct_response":"a","task":"test_phase","broad_category":"S","image_png":"S_Shale_03.png","image_id":467,"category_name":"Shale","category":30,"distinct_rating":1.95,"distinct_type":"Bottom","item_type":"Foil","rt":968,"stimulus":"Stimuli_Rocks480/S_Shale_03.png","response":"l","trial_type":"image-keyboard-response","trial_index":181,"plugin_version":"2.1.0","time_elapsed":311114,"subject_id":"86923","group":"Group1","full_date":"2025-11-10T22:27:07.183Z","date":"2025-11-10","time":"22:27:07","cor_ans":false},{"trial_type":"html-keyboard-response","rt":null,"stimulus":"<p style=\"color: red; font-size: 50px; font-weight: bold;\">Incorrect</p>","response":null,"trial_index":182,"plugin_version":"2.1.0","time_elapsed":311620,"subject_id":"86923","group":"Group1","full_date":"2025-11-10T22:27:07.183Z","date":"2025-11-10","time":"22:27:07"},{"correct_response":"l","task":"test_phase","broad_category":"I","image_png":"I_Basalt_09.png","image_id":25,"category_name":"Basalt","category":2,"distinct_rating":1.89,"distinct_type":"Bottom","item_type":"Target","rt":2709,"stimulus":"Stimuli_Rocks480/I_Basalt_09.png","response":"l","trial_type":"image-keyboard-response","trial_index":183,"plugin_version":"2.1.0","time_elapsed":314338,"subject_id":"86923","group":"Group1","full_date":"2025-11-10T22:27:07.183Z","date":"2025-11-10","time":"22:27:07","cor_ans":true},{"trial_type":"html-keyboard-response","rt":null,"stimulus":"<p style=\"color: green; font-size: 50px; font-weight: bold;\">Correct</p>","response":null,"trial_index":184,"plugin_version":"2.1.0","time_elapsed":314842,"subject_id":"86923","group":"Group1","full_date":"2025-11-10T22:27:07.183Z","date":"2025-11-10","time":"22:27:07"},{"correct_response":"a","task":"test_phase","broad_category":"S","image_png":"S_Dolomite_07.png","image_id":391,"category_name":"Dolomite","category":25,"distinct_rating":1.73,"distinct_type":"Bottom","item_type":"Foil","rt":1577,"stimulus":"Stimuli_Rocks480/S_Dolomite_07.png","response":"l","trial_type":"image-keyboard-response","trial_index":185,"plugin_version":"2.1.0","time_elapsed":316421,"subject_id":"86923","group":"Group1","full_date":"2025-11-10T22:27:07.183Z","date":"2025-11-10","time":"22:27:07","cor_ans":false},{"trial_type":"html-keyboard-response","rt":null,"stimulus":"<p style=\"color: red; font-size: 50px; font-weight: bold;\">Incorrect</p>","response":null,"trial_index":186,"plugin_version":"2.1.0","time_elapsed":316929,"subject_id":"86923","group":"Group1","full_date":"2025-11-10T22:27:07.183Z","date":"2025-11-10","time":"22:27:07"},{"correct_response":"l","task":"test_phase","broad_category":"I","image_png":"I_Pegmatite_10.png","image_id":106,"category_name":"Pegmatite","category":7,"distinct_rating":7.66,"distinct_type":"Top","item_type":"Target","rt":894,"stimulus":"Stimuli_Rocks480/I_Pegmatite_10.png","response":"l","trial_type":"image-keyboard-response","trial_index":187,"plugin_version":"2.1.0","time_elapsed":317826,"subject_id":"86923","group":"Group1","full_date":"2025-11-10T22:27:07.183Z","date":"2025-11-10","time":"22:27:07","cor_ans":true},{"trial_type":"html-keyboard-response","rt":null,"stimulus":"<p style=\"color: green; font-size: 50px; font-weight: bold;\">Correct</p>","response":null,"trial_index":188,"plugin_version":"2.1.0","time_elapsed":318327,"subject_id":"86923","group":"Group1","full_date":"2025-11-10T22:27:07.183Z","date":"2025-11-10","time":"22:27:07"},{"correct_response":"a","task":"test_phase","broad_category":"S","image_png":"S_Chert_13.png","image_id":365,"category_name":"Chert","category":23,"distinct_rating":6.57,"distinct_type":"Top","item_type":"Foil","rt":2264,"stimulus":"Stimuli_Rocks480/S_Chert_13.png","response":"a","trial_type":"image-keyboard-response","trial_index":189,"plugin_version":"2.1.0","time_elapsed":320592,"subject_id":"86923","group":"Group1","full_date":"2025-11-10T22:27:07.183Z","date":"2025-11-10","time":"22:27:07","cor_ans":true},{"trial_type":"html-keyboard-response","rt":null,"stimulus":"<p style=\"color: green; font-size: 50px; font-weight: bold;\">Correct</p>","response":null,"trial_index":190,"plugin_version":"2.1.0","time_elapsed":321098,"subject_id":"86923","group":"Group1","full_date":"2025-11-10T22:27:07.183Z","date":"2025-11-10","time":"22:27:07"},{"correct_response":"l","task":"test_phase","broad_category":"S","image_png":"S_Shale_12.png","image_id":476,"category_name":"Shale","category":30,"distinct_rating":2.48,"distinct_type":"Bottom","item_type":"Target","rt":1012,"stimulus":"Stimuli_Rocks480/S_Shale_12.png","response":"a","trial_type":"image-keyboard-response","trial_index":191,"plugin_version":"2.1.0","time_elapsed":322112,"subject_id":"86923","group":"Group1","full_date":"2025-11-10T22:27:07.183Z","date":"2025-11-10","time":"22:27:07","cor_ans":false},{"trial_type":"html-keyboard-response","rt":null,"stimulus":"<p style=\"color: red; font-size: 50px; font-weight: bold;\">Incorrect</p>","response":null,"trial_index":192,"plugin_version":"2.1.0","time_elapsed":322622,"subject_id":"86923","group":"Group1","full_date":"2025-11-10T22:27:07.183Z","date":"2025-11-10","time":"22:27:07"},{"correct_response":"a","task":"test_phase","broad_category":"I","image_png":"I_Diorite_10.png","image_id":42,"category_name":"Diorite","category":3,"distinct_rating":2.84,"distinct_type":"Bottom","item_type":"Foil","rt":1809,"stimulus":"Stimuli_Rocks480/I_Diorite_10.png","response":"l","trial_type":"image-keyboard-response","trial_index":193,"plugin_version":"2.1.0","time_elapsed":324433,"subject_id":"86923","group":"Group1","full_date":"2025-11-10T22:27:07.183Z","date":"2025-11-10","time":"22:27:07","cor_ans":false},{"trial_type":"html-keyboard-response","rt":null,"stimulus":"<p style=\"color: red; font-size: 50px; font-weight: bold;\">Incorrect</p>","response":null,"trial_index":194,"plugin_version":"2.1.0","time_elapsed":324950,"subject_id":"86923","group":"Group1","full_date":"2025-11-10T22:27:07.183Z","date":"2025-11-10","time":"22:27:07"},{"correct_response":"l","task":"test_phase","broad_category":"I","image_png":"I_Rhyolite_11.png","image_id":155,"category_name":"Rhyolite","category":10,"distinct_rating":1.73,"distinct_type":"Bottom","item_type":"Target","rt":856,"stimulus":"Stimuli_Rocks480/I_Rhyolite_11.png","response":"l","trial_type":"image-keyboard-response","trial_index":195,"plugin_version":"2.1.0","time_elapsed":325809,"subject_id":"86923","group":"Group1","full_date":"2025-11-10T22:27:07.183Z","date":"2025-11-10","time":"22:27:07","cor_ans":true},{"trial_type":"html-keyboard-response","rt":null,"stimulus":"<p style=\"color: green; font-size: 50px; font-weight: bold;\">Correct</p>","response":null,"trial_index":196,"plugin_version":"2.1.0","time_elapsed":326320,"subject_id":"86923","group":"Group1","full_date":"2025-11-10T22:27:07.183Z","date":"2025-11-10","time":"22:27:07"},{"correct_response":"l","task":"test_phase","broad_category":"S","image_png":"S_Rock Salt_01.png","image_id":433,"category_name":"Rock Salt","category":28,"distinct_rating":7.18,"distinct_type":"Top","item_type":"Target","rt":847,"stimulus":"Stimuli_Rocks480/S_Rock Salt_01.png","response":"l","trial_type":"image-keyboard-response","trial_index":197,"plugin_version":"2.1.0","time_elapsed":327170,"subject_id":"86923","group":"Group1","full_date":"2025-11-10T22:27:07.183Z","date":"2025-11-10","time":"22:27:07","cor_ans":true},{"trial_type":"html-keyboard-response","rt":null,"stimulus":"<p style=\"color: green; font-size: 50px; font-weight: bold;\">Correct</p>","response":null,"trial_index":198,"plugin_version":"2.1.0","time_elapsed":327673,"subject_id":"86923","group":"Group1","full_date":"2025-11-10T22:27:07.183Z","date":"2025-11-10","time":"22:27:07"},{"correct_response":"a","task":"test_phase","broad_category":"I","image_png":"I_Andesite_09.png","image_id":9,"category_name":"Andesite","category":1,"distinct_rating":2.49,"distinct_type":"Bottom","item_type":"Foil","rt":1415,"stimulus":"Stimuli_Rocks480/I_Andesite_09.png","response":"a","trial_type":"image-keyboard-response","trial_index":199,"plugin_version":"2.1.0","time_elapsed":329091,"subject_id":"86923","group":"Group1","full_date":"2025-11-10T22:27:07.183Z","date":"2025-11-10","time":"22:27:07","cor_ans":true},{"trial_type":"html-keyboard-response","rt":null,"stimulus":"<p style=\"color: green; font-size: 50px; font-weight: bold;\">Correct</p>","response":null,"trial_index":200,"plugin_version":"2.1.0","time_elapsed":329605,"subject_id":"86923","group":"Group1","full_date":"2025-11-10T22:27:07.183Z","date":"2025-11-10","time":"22:27:07"},{"correct_response":"l","task":"test_phase","broad_category":"I","image_png":"I_Pumice_08.png","image_id":136,"category_name":"Pumice","category":9,"distinct_rating":3.1,"distinct_type":"Bottom","item_type":"Target","rt":1237,"stimulus":"Stimuli_Rocks480/I_Pumice_08.png","response":"l","trial_type":"image-keyboard-response","trial_index":201,"plugin_version":"2.1.0","time_elapsed":330844,"subject_id":"86923","group":"Group1","full_date":"2025-11-10T22:27:07.183Z","date":"2025-11-10","time":"22:27:07","cor_ans":true},{"trial_type":"html-keyboard-response","rt":null,"stimulus":"<p style=\"color: green; font-size: 50px; font-weight: bold;\">Correct</p>","response":null,"trial_index":202,"plugin_version":"2.1.0","time_elapsed":331351,"subject_id":"86923","group":"Group1","full_date":"2025-11-10T22:27:07.183Z","date":"2025-11-10","time":"22:27:07"},{"correct_response":"a","task":"test_phase","broad_category":"I","image_png":"I_Peridotite_13.png","image_id":125,"category_name":"Peridotite","category":8,"distinct_rating":7.28,"distinct_type":"Top","item_type":"Foil","rt":2081,"stimulus":"Stimuli_Rocks480/I_Peridotite_13.png","response":"a","trial_type":"image-keyboard-response","trial_index":203,"plugin_version":"2.1.0","time_elapsed":333435,"subject_id":"86923","group":"Group1","full_date":"2025-11-10T22:27:07.183Z","date":"2025-11-10","time":"22:27:07","cor_ans":true},{"trial_type":"html-keyboard-response","rt":null,"stimulus":"<p style=\"color: green; font-size: 50px; font-weight: bold;\">Correct</p>","response":null,"trial_index":204,"plugin_version":"2.1.0","time_elapsed":333946,"subject_id":"86923","group":"Group1","full_date":"2025-11-10T22:27:07.183Z","date":"2025-11-10","time":"22:27:07"},{"correct_response":"a","task":"test_phase","broad_category":"I","image_png":"I_Gabbro_02.png","image_id":50,"category_name":"Gabbro","category":4,"distinct_rating":2.73,"distinct_type":"Bottom","item_type":"Foil","rt":1565,"stimulus":"Stimuli_Rocks480/I_Gabbro_02.png","response":"a","trial_type":"image-keyboard-response","trial_index":205,"plugin_version":"2.1.0","time_elapsed":335513,"subject_id":"86923","group":"Group1","full_date":"2025-11-10T22:27:07.183Z","date":"2025-11-10","time":"22:27:07","cor_ans":true},{"trial_type":"html-keyboard-response","rt":null,"stimulus":"<p style=\"color: green; font-size: 50px; font-weight: bold;\">Correct</p>","response":null,"trial_index":206,"plugin_version":"2.1.0","time_elapsed":336016,"subject_id":"86923","group":"Group1","full_date":"2025-11-10T22:27:07.183Z","date":"2025-11-10","time":"22:27:07"},{"correct_response":"a","task":"test_phase","broad_category":"I","image_png":"I_Pumice_13.png","image_id":141,"category_name":"Pumice","category":9,"distinct_rating":3.12,"distinct_type":"Bottom","item_type":"Foil","rt":1061,"stimulus":"Stimuli_Rocks480/I_Pumice_13.png","response":"l","trial_type":"image-keyboard-response","trial_index":207,"plugin_version":"2.1.0","time_elapsed":337080,"subject_id":"86923","group":"Group1","full_date":"2025-11-10T22:27:07.183Z","date":"2025-11-10","time":"22:27:07","cor_ans":false},{"trial_type":"html-keyboard-response","rt":null,"stimulus":"<p style=\"color: red; font-size: 50px; font-weight: bold;\">Incorrect</p>","response":null,"trial_index":208,"plugin_version":"2.1.0","time_elapsed":337591,"subject_id":"86923","group":"Group1","full_date":"2025-11-10T22:27:07.183Z","date":"2025-11-10","time":"22:27:07"},{"correct_response":"l","task":"test_phase","broad_category":"I","image_png":"I_Diorite_05.png","image_id":37,"category_name":"Diorite","category":3,"distinct_rating":3.08,"distinct_type":"Bottom","item_type":"Target","rt":808,"stimulus":"Stimuli_Rocks480/I_Diorite_05.png","response":"l","trial_type":"image-keyboard-response","trial_index":209,"plugin_version":"2.1.0","time_elapsed":338401,"subject_id":"86923","group":"Group1","full_date":"2025-11-10T22:27:07.183Z","date":"2025-11-10","time":"22:27:07","cor_ans":true},{"trial_type":"html-keyboard-response","rt":null,"stimulus":"<p style=\"color: green; font-size: 50px; font-weight: bold;\">Correct</p>","response":null,"trial_index":210,"plugin_version":"2.1.0","time_elapsed":338912,"subject_id":"86923","group":"Group1","full_date":"2025-11-10T22:27:07.183Z","date":"2025-11-10","time":"22:27:07"},{"correct_response":"l","task":"test_phase","broad_category":"S","image_png":"S_Conglomerate_05.png","image_id":373,"category_name":"Conglomerate","category":24,"distinct_rating":7.32,"distinct_type":"Top","item_type":"Target","rt":816,"stimulus":"Stimuli_Rocks480/S_Conglomerate_05.png","response":"l","trial_type":"image-keyboard-response","trial_index":211,"plugin_version":"2.1.0","time_elapsed":339731,"subject_id":"86923","group":"Group1","full_date":"2025-11-10T22:27:07.183Z","date":"2025-11-10","time":"22:27:07","cor_ans":true},{"trial_type":"html-keyboard-response","rt":null,"stimulus":"<p style=\"color: green; font-size: 50px; font-weight: bold;\">Correct</p>","response":null,"trial_index":212,"plugin_version":"2.1.0","time_elapsed":340246,"subject_id":"86923","group":"Group1","full_date":"2025-11-10T22:27:07.183Z","date":"2025-11-10","time":"22:27:07"},{"correct_response":"a","task":"test_phase","broad_category":"M","image_png":"M_Gneiss_14.png","image_id":206,"category_name":"Gneiss","category":13,"distinct_rating":3.41,"distinct_type":"Bottom","item_type":"Foil","rt":1688,"stimulus":"Stimuli_Rocks480/M_Gneiss_14.png","response":"l","trial_type":"image-keyboard-response","trial_index":213,"plugin_version":"2.1.0","time_elapsed":341937,"subject_id":"86923","group":"Group1","full_date":"2025-11-10T22:27:07.183Z","date":"2025-11-10","time":"22:27:07","cor_ans":false},{"trial_type":"html-keyboard-response","rt":null,"stimulus":"<p style=\"color: red; font-size: 50px; font-weight: bold;\">Incorrect</p>","response":null,"trial_index":214,"plugin_version":"2.1.0","time_elapsed":342439,"subject_id":"86923","group":"Group1","full_date":"2025-11-10T22:27:07.183Z","date":"2025-11-10","time":"22:27:07"},{"correct_response":"a","task":"test_phase","broad_category":"I","image_png":"I_Basalt_13.png","image_id":29,"category_name":"Basalt","category":2,"distinct_rating":2.68,"distinct_type":"Bottom","item_type":"Foil","rt":716,"stimulus":"Stimuli_Rocks480/I_Basalt_13.png","response":"a","trial_type":"image-keyboard-response","trial_index":215,"plugin_version":"2.1.0","time_elapsed":343157,"subject_id":"86923","group":"Group1","full_date":"2025-11-10T22:27:07.183Z","date":"2025-11-10","time":"22:27:07","cor_ans":true},{"trial_type":"html-keyboard-response","rt":null,"stimulus":"<p style=\"color: green; font-size: 50px; font-weight: bold;\">Correct</p>","response":null,"trial_index":216,"plugin_version":"2.1.0","time_elapsed":343664,"subject_id":"86923","group":"Group1","full_date":"2025-11-10T22:27:07.183Z","date":"2025-11-10","time":"22:27:07"},{"correct_response":"l","task":"test_phase","broad_category":"I","image_png":"I_Pumice_11.png","image_id":139,"category_name":"Pumice","category":9,"distinct_rating":1.74,"distinct_type":"Bottom","item_type":"Target","rt":2609,"stimulus":"Stimuli_Rocks480/I_Pumice_11.png","response":"a","trial_type":"image-keyboard-response","trial_index":217,"plugin_version":"2.1.0","time_elapsed":346274,"subject_id":"86923","group":"Group1","full_date":"2025-11-10T22:27:07.183Z","date":"2025-11-10","time":"22:27:07","cor_ans":false},{"trial_type":"html-keyboard-response","rt":null,"stimulus":"<p style=\"color: red; font-size: 50px; font-weight: bold;\">Incorrect</p>","response":null,"trial_index":218,"plugin_version":"2.1.0","time_elapsed":346776,"subject_id":"86923","group":"Group1","full_date":"2025-11-10T22:27:07.183Z","date":"2025-11-10","time":"22:27:07"},{"correct_response":"l","task":"test_phase","broad_category":"M","image_png":"M_Marble_16.png","image_id":240,"category_name":"Marble","category":15,"distinct_rating":2.57,"distinct_type":"Bottom","item_type":"Target","rt":2918,"stimulus":"Stimuli_Rocks480/M_Marble_16.png","response":"l","trial_type":"image-keyboard-response","trial_index":219,"plugin_version":"2.1.0","time_elapsed":349697,"subject_id":"86923","group":"Group1","full_date":"2025-11-10T22:27:07.183Z","date":"2025-11-10","time":"22:27:07","cor_ans":true},{"trial_type":"html-keyboard-response","rt":null,"stimulus":"<p style=\"color: green; font-size: 50px; font-weight: bold;\">Correct</p>","response":null,"trial_index":220,"plugin_version":"2.1.0","time_elapsed":350198,"subject_id":"86923","group":"Group1","full_date":"2025-11-10T22:27:07.183Z","date":"2025-11-10","time":"22:27:07"},{"correct_response":"l","task":"test_phase","broad_category":"S","image_png":"S_Sandstone_03.png","image_id":451,"category_name":"Sandstone","category":29,"distinct_rating":1.86,"distinct_type":"Bottom","item_type":"Target","rt":1600,"stimulus":"Stimuli_Rocks480/S_Sandstone_03.png","response":"l","trial_type":"image-keyboard-response","trial_index":221,"plugin_version":"2.1.0","time_elapsed":351801,"subject_id":"86923","group":"Group1","full_date":"2025-11-10T22:27:07.183Z","date":"2025-11-10","time":"22:27:07","cor_ans":true},{"trial_type":"html-keyboard-response","rt":null,"stimulus":"<p style=\"color: green; font-size: 50px; font-weight: bold;\">Correct</p>","response":null,"trial_index":222,"plugin_version":"2.1.0","time_elapsed":352313,"subject_id":"86923","group":"Group1","full_date":"2025-11-10T22:27:07.183Z","date":"2025-11-10","time":"22:27:07"},{"correct_response":"l","task":"test_phase","broad_category":"M","image_png":"M_Quartzite_13.png","image_id":285,"category_name":"Quartzite","category":18,"distinct_rating":2.27,"distinct_type":"Bottom","item_type":"Target","rt":1367,"stimulus":"Stimuli_Rocks480/M_Quartzite_13.png","response":"l","trial_type":"image-keyboard-response","trial_index":223,"plugin_version":"2.1.0","time_elapsed":353681,"subject_id":"86923","group":"Group1","full_date":"2025-11-10T22:27:07.183Z","date":"2025-11-10","time":"22:27:07","cor_ans":true},{"trial_type":"html-keyboard-response","rt":null,"stimulus":"<p style=\"color: green; font-size: 50px; font-weight: bold;\">Correct</p>","response":null,"trial_index":224,"plugin_version":"2.1.0","time_elapsed":354184,"subject_id":"86923","group":"Group1","full_date":"2025-11-10T22:27:07.183Z","date":"2025-11-10","time":"22:27:07"},{"correct_response":"l","task":"test_phase","broad_category":"M","image_png":"M_Quartzite_08.png","image_id":280,"category_name":"Quartzite","category":18,"distinct_rating":2.15,"distinct_type":"Bottom","item_type":"Target","rt":1094,"stimulus":"Stimuli_Rocks480/M_Quartzite_08.png","response":"l","trial_type":"image-keyboard-response","trial_index":225,"plugin_version":"2.1.0","time_elapsed":355280,"subject_id":"86923","group":"Group1","full_date":"2025-11-10T22:27:07.183Z","date":"2025-11-10","time":"22:27:07","cor_ans":true},{"trial_type":"html-keyboard-response","rt":null,"stimulus":"<p style=\"color: green; font-size: 50px; font-weight: bold;\">Correct</p>","response":null,"trial_index":226,"plugin_version":"2.1.0","time_elapsed":355786,"subject_id":"86923","group":"Group1","full_date":"2025-11-10T22:27:07.183Z","date":"2025-11-10","time":"22:27:07"},{"correct_response":"l","task":"test_phase","broad_category":"S","image_png":"S_Shale_08.png","image_id":472,"category_name":"Shale","category":30,"distinct_rating":2.55,"distinct_type":"Bottom","item_type":"Target","rt":938,"stimulus":"Stimuli_Rocks480/S_Shale_08.png","response":"a","trial_type":"image-keyboard-response","trial_index":227,"plugin_version":"2.1.0","time_elapsed":356727,"subject_id":"86923","group":"Group1","full_date":"2025-11-10T22:27:07.183Z","date":"2025-11-10","time":"22:27:07","cor_ans":false},{"trial_type":"html-keyboard-response","rt":null,"stimulus":"<p style=\"color: red; font-size: 50px; font-weight: bold;\">Incorrect</p>","response":null,"trial_index":228,"plugin_version":"2.1.0","time_elapsed":357239,"subject_id":"86923","group":"Group1","full_date":"2025-11-10T22:27:07.183Z","date":"2025-11-10","time":"22:27:07"},{"correct_response":"l","task":"test_phase","broad_category":"S","image_png":"S_Shale_01.png","image_id":465,"category_name":"Shale","category":30,"distinct_rating":2.7,"distinct_type":"Bottom","item_type":"Target","rt":973,"stimulus":"Stimuli_Rocks480/S_Shale_01.png","response":"l","trial_type":"image-keyboard-response","trial_index":229,"plugin_version":"2.1.0","time_elapsed":358214,"subject_id":"86923","group":"Group1","full_date":"2025-11-10T22:27:07.183Z","date":"2025-11-10","time":"22:27:07","cor_ans":true},{"trial_type":"html-keyboard-response","rt":null,"stimulus":"<p style=\"color: green; font-size: 50px; font-weight: bold;\">Correct</p>","response":null,"trial_index":230,"plugin_version":"2.1.0","time_elapsed":358727,"subject_id":"86923","group":"Group1","full_date":"2025-11-10T22:27:07.183Z","date":"2025-11-10","time":"22:27:07"},{"correct_response":"a","task":"test_phase","broad_category":"M","image_png":"M_Slate_04.png","image_id":308,"category_name":"Slate","category":20,"distinct_rating":2.2,"distinct_type":"Bottom","item_type":"Foil","rt":945,"stimulus":"Stimuli_Rocks480/M_Slate_04.png","response":"l","trial_type":"image-keyboard-response","trial_index":231,"plugin_version":"2.1.0","time_elapsed":359674,"subject_id":"86923","group":"Group1","full_date":"2025-11-10T22:27:07.183Z","date":"2025-11-10","time":"22:27:07","cor_ans":false},{"trial_type":"html-keyboard-response","rt":null,"stimulus":"<p style=\"color: red; font-size: 50px; font-weight: bold;\">Incorrect</p>","response":null,"trial_index":232,"plugin_version":"2.1.0","time_elapsed":360187,"subject_id":"86923","group":"Group1","full_date":"2025-11-10T22:27:07.183Z","date":"2025-11-10","time":"22:27:07"},{"correct_response":"a","task":"test_phase","broad_category":"I","image_png":"I_Basalt_10.png","image_id":26,"category_name":"Basalt","category":2,"distinct_rating":2.76,"distinct_type":"Bottom","item_type":"Foil","rt":3156,"stimulus":"Stimuli_Rocks480/I_Basalt_10.png","response":"a","trial_type":"image-keyboard-response","trial_index":233,"plugin_version":"2.1.0","time_elapsed":363345,"subject_id":"86923","group":"Group1","full_date":"2025-11-10T22:27:07.183Z","date":"2025-11-10","time":"22:27:07","cor_ans":true},{"trial_type":"html-keyboard-response","rt":null,"stimulus":"<p style=\"color: green; font-size: 50px; font-weight: bold;\">Correct</p>","response":null,"trial_index":234,"plugin_version":"2.1.0","time_elapsed":363854,"subject_id":"86923","group":"Group1","full_date":"2025-11-10T22:27:07.183Z","date":"2025-11-10","time":"22:27:07"},{"correct_response":"l","task":"test_phase","broad_category":"S","image_png":"S_Dolomite_12.png","image_id":396,"category_name":"Dolomite","category":25,"distinct_rating":1.85,"distinct_type":"Bottom","item_type":"Target","rt":3356,"stimulus":"Stimuli_Rocks480/S_Dolomite_12.png","response":"l","trial_type":"image-keyboard-response","trial_index":235,"plugin_version":"2.1.0","time_elapsed":367212,"subject_id":"86923","group":"Group1","full_date":"2025-11-10T22:27:07.183Z","date":"2025-11-10","time":"22:27:07","cor_ans":true},{"trial_type":