[{"width":1366,"height":633,"webaudio":true,"browser":"chrome","browser_version":"141.0.0","mobile":false,"os":"Windows 10","fullscreen":true,"vsync_rate":30.16,"webcam":true,"microphone":true,"trial_type":"browser-check","trial_index":0,"plugin_version":"2.1.0","time_elapsed":2014,"subject_id":"90163","group":"Group2","full_date":"2025-11-12T02:06:31.654Z","date":"2025-11-12","time":"02:06:31"},{"success":true,"timeout":false,"failed_images":[],"failed_audio":[],"failed_video":[],"trial_type":"preload","trial_index":1,"plugin_version":"2.1.0","time_elapsed":117658,"subject_id":"90163","group":"Group2","full_date":"2025-11-12T02:06:31.654Z","date":"2025-11-12","time":"02:06:31"},{"rt":36289,"url":"SONA_consent_memorability.html","trial_type":"external-html","trial_index":2,"plugin_version":"2.1.0","time_elapsed":154032,"subject_id":"90163","group":"Group2","full_date":"2025-11-12T02:06:31.654Z","date":"2025-11-12","time":"02:06:31"},{"success":true,"rt":2830,"trial_type":"fullscreen","trial_index":3,"plugin_version":"2.1.0","time_elapsed":157883,"subject_id":"90163","group":"Group2","full_date":"2025-11-12T02:06:31.654Z","date":"2025-11-12","time":"02:06:31"},{"rt":33996,"stimulus":"<div style=\"max-width: 760px; margin: auto; font-size: 20px; line-height: 1.5;\">\n      <h1 style=\"text-align:center; font-size: 30px;\">Instructions</h1>\n      <p>\n        Welcome to the study on <b>visual memory</b>. This experiment consists of <b>two phases</b>: \n        a <b>study phase</b> and a <b>test phase</b>.\n      </p>\n      <p>\n        In the study phase, you will see a series of rock images along with their category labels.\n        The images will appear one at a time.\n        <b>Your task</b> is to learn the categories to which the rock images belong \n        and to remember each image as accurately as possible.\n      </p> \n      <p>\n        After the study phase, <b>your memory will be tested</b>. \n        Additional instructions for the test phase will be provided at that time.\n      </p>\n      <p>\n        If your computer has multiple <b>language settings</b> (e.g., English and another language),\n        please make sure it is set to English before starting.\n      </p>\n      <p>\n        You can track your progress using the <b>completion bar</b> at the top of the screen. \n        Please note that the bar will refresh when the test phase begins \n        to give you an accurate sense of your progress in both phases.\n      </p> \n      <p>\n        Press the button below when you are ready to begin.\n      </p>\n    </div>","response":0,"trial_type":"html-button-response","trial_index":4,"plugin_version":"2.1.0","time_elapsed":191882,"subject_id":"90163","group":"Group2","full_date":"2025-11-12T02:06:31.654Z","date":"2025-11-12","time":"02:06:31"},{"rt":null,"stimulus":"<p style=\"font-size: 50px; margin: 0; text-align: center;\">+</p>","response":null,"trial_type":"html-keyboard-response","trial_index":5,"plugin_version":"2.1.0","time_elapsed":192896,"subject_id":"90163","group":"Group2","full_date":"2025-11-12T02:06:31.654Z","date":"2025-11-12","time":"02:06:31"},{"task":"memory_phase","broad_category":"I","image_png":"I_Pumice_01.png","image_id":129,"category_name":"Pumice","category":9,"distinct_rating":3.25,"distinct_type":"Bottom","rt":null,"stimulus":"Stimuli_Rocks480/I_Pumice_01.png","response":null,"trial_type":"image-keyboard-response","trial_index":6,"plugin_version":"2.1.0","time_elapsed":195413,"subject_id":"90163","group":"Group2","full_date":"2025-11-12T02:06:31.654Z","date":"2025-11-12","time":"02:06:31"},{"rt":null,"stimulus":"<p style=\"font-size: 50px; margin: 0; text-align: center;\">+</p>","response":null,"trial_type":"html-keyboard-response","trial_index":7,"plugin_version":"2.1.0","time_elapsed":196419,"subject_id":"90163","group":"Group2","full_date":"2025-11-12T02:06:31.654Z","date":"2025-11-12","time":"02:06:31"},{"task":"memory_phase","broad_category":"I","image_png":"I_Obsidian_06.png","image_id":86,"category_name":"Obsidian","category":6,"distinct_rating":8.01,"distinct_type":"Top","rt":null,"stimulus":"Stimuli_Rocks480/I_Obsidian_06.png","response":null,"trial_type":"image-keyboard-response","trial_index":8,"plugin_version":"2.1.0","time_elapsed":198931,"subject_id":"90163","group":"Group2","full_date":"2025-11-12T02:06:31.654Z","date":"2025-11-12","time":"02:06:31"},{"rt":null,"stimulus":"<p style=\"font-size: 50px; margin: 0; text-align: center;\">+</p>","response":null,"trial_type":"html-keyboard-response","trial_index":9,"plugin_version":"2.1.0","time_elapsed":199939,"subject_id":"90163","group":"Group2","full_date":"2025-11-12T02:06:31.654Z","date":"2025-11-12","time":"02:06:31"},{"task":"memory_phase","broad_category":"I","image_png":"I_Rhyolite_10.png","image_id":154,"category_name":"Rhyolite","category":10,"distinct_rating":2.88,"distinct_type":"Bottom","rt":null,"stimulus":"Stimuli_Rocks480/I_Rhyolite_10.png","response":null,"trial_type":"image-keyboard-response","trial_index":10,"plugin_version":"2.1.0","time_elapsed":202448,"subject_id":"90163","group":"Group2","full_date":"2025-11-12T02:06:31.654Z","date":"2025-11-12","time":"02:06:31"},{"rt":null,"stimulus":"<p style=\"font-size: 50px; margin: 0; text-align: center;\">+</p>","response":null,"trial_type":"html-keyboard-response","trial_index":11,"plugin_version":"2.1.0","time_elapsed":203455,"subject_id":"90163","group":"Group2","full_date":"2025-11-12T02:06:31.654Z","date":"2025-11-12","time":"02:06:31"},{"task":"memory_phase","broad_category":"M","image_png":"M_Gneiss_15.png","image_id":207,"category_name":"Gneiss","category":13,"distinct_rating":3.11,"distinct_type":"Bottom","rt":null,"stimulus":"Stimuli_Rocks480/M_Gneiss_15.png","response":null,"trial_type":"image-keyboard-response","trial_index":12,"plugin_version":"2.1.0","time_elapsed":205965,"subject_id":"90163","group":"Group2","full_date":"2025-11-12T02:06:31.654Z","date":"2025-11-12","time":"02:06:31"},{"rt":null,"stimulus":"<p style=\"font-size: 50px; margin: 0; text-align: center;\">+</p>","response":null,"trial_type":"html-keyboard-response","trial_index":13,"plugin_version":"2.1.0","time_elapsed":206974,"subject_id":"90163","group":"Group2","full_date":"2025-11-12T02:06:31.654Z","date":"2025-11-12","time":"02:06:31"},{"task":"memory_phase","broad_category":"S","image_png":"S_Dolomite_16.png","image_id":400,"category_name":"Dolomite","category":25,"distinct_rating":1.71,"distinct_type":"Bottom","rt":null,"stimulus":"Stimuli_Rocks480/S_Dolomite_16.png","response":null,"trial_type":"image-keyboard-response","trial_index":14,"plugin_version":"2.1.0","time_elapsed":209483,"subject_id":"90163","group":"Group2","full_date":"2025-11-12T02:06:31.654Z","date":"2025-11-12","time":"02:06:31"},{"rt":null,"stimulus":"<p style=\"font-size: 50px; margin: 0; text-align: center;\">+</p>","response":null,"trial_type":"html-keyboard-response","trial_index":15,"plugin_version":"2.1.0","time_elapsed":210497,"subject_id":"90163","group":"Group2","full_date":"2025-11-12T02:06:31.654Z","date":"2025-11-12","time":"02:06:31"},{"task":"memory_phase","broad_category":"S","image_png":"S_Rock Salt_13.png","image_id":445,"category_name":"Rock Salt","category":28,"distinct_rating":7.58,"distinct_type":"Top","rt":null,"stimulus":"Stimuli_Rocks480/S_Rock Salt_13.png","response":null,"trial_type":"image-keyboard-response","trial_index":16,"plugin_version":"2.1.0","time_elapsed":213005,"subject_id":"90163","group":"Group2","full_date":"2025-11-12T02:06:31.654Z","date":"2025-11-12","time":"02:06:31"},{"rt":null,"stimulus":"<p style=\"font-size: 50px; margin: 0; text-align: center;\">+</p>","response":null,"trial_type":"html-keyboard-response","trial_index":17,"plugin_version":"2.1.0","time_elapsed":214021,"subject_id":"90163","group":"Group2","full_date":"2025-11-12T02:06:31.654Z","date":"2025-11-12","time":"02:06:31"},{"task":"memory_phase","broad_category":"I","image_png":"I_Diorite_10.png","image_id":42,"category_name":"Diorite","category":3,"distinct_rating":2.84,"distinct_type":"Bottom","rt":null,"stimulus":"Stimuli_Rocks480/I_Diorite_10.png","response":null,"trial_type":"image-keyboard-response","trial_index":18,"plugin_version":"2.1.0","time_elapsed":216537,"subject_id":"90163","group":"Group2","full_date":"2025-11-12T02:06:31.654Z","date":"2025-11-12","time":"02:06:31"},{"rt":null,"stimulus":"<p style=\"font-size: 50px; margin: 0; text-align: center;\">+</p>","response":null,"trial_type":"html-keyboard-response","trial_index":19,"plugin_version":"2.1.0","time_elapsed":217550,"subject_id":"90163","group":"Group2","full_date":"2025-11-12T02:06:31.654Z","date":"2025-11-12","time":"02:06:31"},{"task":"memory_phase","broad_category":"M","image_png":"M_Marble_14.png","image_id":238,"category_name":"Marble","category":15,"distinct_rating":3.31,"distinct_type":"Bottom","rt":null,"stimulus":"Stimuli_Rocks480/M_Marble_14.png","response":null,"trial_type":"image-keyboard-response","trial_index":20,"plugin_version":"2.1.0","time_elapsed":220058,"subject_id":"90163","group":"Group2","full_date":"2025-11-12T02:06:31.654Z","date":"2025-11-12","time":"02:06:31"},{"rt":null,"stimulus":"<p style=\"font-size: 50px; margin: 0; text-align: center;\">+</p>","response":null,"trial_type":"html-keyboard-response","trial_index":21,"plugin_version":"2.1.0","time_elapsed":221075,"subject_id":"90163","group":"Group2","full_date":"2025-11-12T02:06:31.654Z","date":"2025-11-12","time":"02:06:31"},{"task":"memory_phase","broad_category":"I","image_png":"I_Gabbro_12.png","image_id":60,"category_name":"Gabbro","category":4,"distinct_rating":2.6,"distinct_type":"Bottom","rt":null,"stimulus":"Stimuli_Rocks480/I_Gabbro_12.png","response":null,"trial_type":"image-keyboard-response","trial_index":22,"plugin_version":"2.1.0","time_elapsed":223586,"subject_id":"90163","group":"Group2","full_date":"2025-11-12T02:06:31.654Z","date":"2025-11-12","time":"02:06:31"},{"rt":null,"stimulus":"<p style=\"font-size: 50px; margin: 0; text-align: center;\">+</p>","response":null,"trial_type":"html-keyboard-response","trial_index":23,"plugin_version":"2.1.0","time_elapsed":224592,"subject_id":"90163","group":"Group2","full_date":"2025-11-12T02:06:31.654Z","date":"2025-11-12","time":"02:06:31"},{"task":"memory_phase","broad_category":"S","image_png":"S_Shale_03.png","image_id":467,"category_name":"Shale","category":30,"distinct_rating":1.95,"distinct_type":"Bottom","rt":null,"stimulus":"Stimuli_Rocks480/S_Shale_03.png","response":null,"trial_type":"image-keyboard-response","trial_index":24,"plugin_version":"2.1.0","time_elapsed":227109,"subject_id":"90163","group":"Group2","full_date":"2025-11-12T02:06:31.654Z","date":"2025-11-12","time":"02:06:31"},{"rt":null,"stimulus":"<p style=\"font-size: 50px; margin: 0; text-align: center;\">+</p>","response":null,"trial_type":"html-keyboard-response","trial_index":25,"plugin_version":"2.1.0","time_elapsed":228119,"subject_id":"90163","group":"Group2","full_date":"2025-11-12T02:06:31.654Z","date":"2025-11-12","time":"02:06:31"},{"task":"memory_phase","broad_category":"M","image_png":"M_Quartzite_15.png","image_id":287,"category_name":"Quartzite","category":18,"distinct_rating":2.19,"distinct_type":"Bottom","rt":null,"stimulus":"Stimuli_Rocks480/M_Quartzite_15.png","response":null,"trial_type":"image-keyboard-response","trial_index":26,"plugin_version":"2.1.0","time_elapsed":230626,"subject_id":"90163","group":"Group2","full_date":"2025-11-12T02:06:31.654Z","date":"2025-11-12","time":"02:06:31"},{"rt":null,"stimulus":"<p style=\"font-size: 50px; margin: 0; text-align: center;\">+</p>","response":null,"trial_type":"html-keyboard-response","trial_index":27,"plugin_version":"2.1.0","time_elapsed":231635,"subject_id":"90163","group":"Group2","full_date":"2025-11-12T02:06:31.654Z","date":"2025-11-12","time":"02:06:31"},{"task":"memory_phase","broad_category":"I","image_png":"I_Pumice_13.png","image_id":141,"category_name":"Pumice","category":9,"distinct_rating":3.12,"distinct_type":"Bottom","rt":null,"stimulus":"Stimuli_Rocks480/I_Pumice_13.png","response":null,"trial_type":"image-keyboard-response","trial_index":28,"plugin_version":"2.1.0","time_elapsed":234142,"subject_id":"90163","group":"Group2","full_date":"2025-11-12T02:06:31.654Z","date":"2025-11-12","time":"02:06:31"},{"rt":null,"stimulus":"<p style=\"font-size: 50px; margin: 0; text-align: center;\">+</p>","response":null,"trial_type":"html-keyboard-response","trial_index":29,"plugin_version":"2.1.0","time_elapsed":235151,"subject_id":"90163","group":"Group2","full_date":"2025-11-12T02:06:31.654Z","date":"2025-11-12","time":"02:06:31"},{"task":"memory_phase","broad_category":"I","image_png":"I_Pumice_14.png","image_id":142,"category_name":"Pumice","category":9,"distinct_rating":3.22,"distinct_type":"Bottom","rt":null,"stimulus":"Stimuli_Rocks480/I_Pumice_14.png","response":null,"trial_type":"image-keyboard-response","trial_index":30,"plugin_version":"2.1.0","time_elapsed":237661,"subject_id":"90163","group":"Group2","full_date":"2025-11-12T02:06:31.654Z","date":"2025-11-12","time":"02:06:31"},{"rt":null,"stimulus":"<p style=\"font-size: 50px; margin: 0; text-align: center;\">+</p>","response":null,"trial_type":"html-keyboard-response","trial_index":31,"plugin_version":"2.1.0","time_elapsed":238691,"subject_id":"90163","group":"Group2","full_date":"2025-11-12T02:06:31.654Z","date":"2025-11-12","time":"02:06:31"},{"task":"memory_phase","broad_category":"S","image_png":"S_Rock Salt_15.png","image_id":447,"category_name":"Rock Salt","category":28,"distinct_rating":7.79,"distinct_type":"Top","rt":null,"stimulus":"Stimuli_Rocks480/S_Rock Salt_15.png","response":null,"trial_type":"image-keyboard-response","trial_index":32,"plugin_version":"2.1.0","time_elapsed":241210,"subject_id":"90163","group":"Group2","full_date":"2025-11-12T02:06:31.654Z","date":"2025-11-12","time":"02:06:31"},{"rt":null,"stimulus":"<p style=\"font-size: 50px; margin: 0; text-align: center;\">+</p>","response":null,"trial_type":"html-keyboard-response","trial_index":33,"plugin_version":"2.1.0","time_elapsed":242226,"subject_id":"90163","group":"Group2","full_date":"2025-11-12T02:06:31.654Z","date":"2025-11-12","time":"02:06:31"},{"task":"memory_phase","broad_category":"M","image_png":"M_Quartzite_07.png","image_id":279,"category_name":"Quartzite","category":18,"distinct_rating":1.97,"distinct_type":"Bottom","rt":null,"stimulus":"Stimuli_Rocks480/M_Quartzite_07.png","response":null,"trial_type":"image-keyboard-response","trial_index":34,"plugin_version":"2.1.0","time_elapsed":244742,"subject_id":"90163","group":"Group2","full_date":"2025-11-12T02:06:31.654Z","date":"2025-11-12","time":"02:06:31"},{"rt":null,"stimulus":"<p style=\"font-size: 50px; margin: 0; text-align: center;\">+</p>","response":null,"trial_type":"html-keyboard-response","trial_index":35,"plugin_version":"2.1.0","time_elapsed":245757,"subject_id":"90163","group":"Group2","full_date":"2025-11-12T02:06:31.654Z","date":"2025-11-12","time":"02:06:31"},{"task":"memory_phase","broad_category":"I","image_png":"I_Basalt_10.png","image_id":26,"category_name":"Basalt","category":2,"distinct_rating":2.76,"distinct_type":"Bottom","rt":null,"stimulus":"Stimuli_Rocks480/I_Basalt_10.png","response":null,"trial_type":"image-keyboard-response","trial_index":36,"plugin_version":"2.1.0","time_elapsed":248266,"subject_id":"90163","group":"Group2","full_date":"2025-11-12T02:06:31.654Z","date":"2025-11-12","time":"02:06:31"},{"rt":null,"stimulus":"<p style=\"font-size: 50px; margin: 0; text-align: center;\">+</p>","response":null,"trial_type":"html-keyboard-response","trial_index":37,"plugin_version":"2.1.0","time_elapsed":249273,"subject_id":"90163","group":"Group2","full_date":"2025-11-12T02:06:31.654Z","date":"2025-11-12","time":"02:06:31"},{"task":"memory_phase","broad_category":"I","image_png":"I_Diorite_01.png","image_id":33,"category_name":"Diorite","category":3,"distinct_rating":2.97,"distinct_type":"Bottom","rt":null,"stimulus":"Stimuli_Rocks480/I_Diorite_01.png","response":null,"trial_type":"image-keyboard-response","trial_index":38,"plugin_version":"2.1.0","time_elapsed":251784,"subject_id":"90163","group":"Group2","full_date":"2025-11-12T02:06:31.654Z","date":"2025-11-12","time":"02:06:31"},{"rt":null,"stimulus":"<p style=\"font-size: 50px; margin: 0; text-align: center;\">+</p>","response":null,"trial_type":"html-keyboard-response","trial_index":39,"plugin_version":"2.1.0","time_elapsed":252800,"subject_id":"90163","group":"Group2","full_date":"2025-11-12T02:06:31.654Z","date":"2025-11-12","time":"02:06:31"},{"task":"memory_phase","broad_category":"I","image_png":"I_Basalt_08.png","image_id":24,"category_name":"Basalt","category":2,"distinct_rating":2.31,"distinct_type":"Bottom","rt":null,"stimulus":"Stimuli_Rocks480/I_Basalt_08.png","response":null,"trial_type":"image-keyboard-response","trial_index":40,"plugin_version":"2.1.0","time_elapsed":255304,"subject_id":"90163","group":"Group2","full_date":"2025-11-12T02:06:31.654Z","date":"2025-11-12","time":"02:06:31"},{"rt":null,"stimulus":"<p style=\"font-size: 50px; margin: 0; text-align: center;\">+</p>","response":null,"trial_type":"html-keyboard-response","trial_index":41,"plugin_version":"2.1.0","time_elapsed":256314,"subject_id":"90163","group":"Group2","full_date":"2025-11-12T02:06:31.654Z","date":"2025-11-12","time":"02:06:31"},{"task":"memory_phase","broad_category":"S","image_png":"S_Sandstone_04.png","image_id":452,"category_name":"Sandstone","category":29,"distinct_rating":1.8,"distinct_type":"Bottom","rt":null,"stimulus":"Stimuli_Rocks480/S_Sandstone_04.png","response":null,"trial_type":"image-keyboard-response","trial_index":42,"plugin_version":"2.1.0","time_elapsed":258830,"subject_id":"90163","group":"Group2","full_date":"2025-11-12T02:06:31.654Z","date":"2025-11-12","time":"02:06:31"},{"rt":null,"stimulus":"<p style=\"font-size: 50px; margin: 0; text-align: center;\">+</p>","response":null,"trial_type":"html-keyboard-response","trial_index":43,"plugin_version":"2.1.0","time_elapsed":259846,"subject_id":"90163","group":"Group2","full_date":"2025-11-12T02:06:31.654Z","date":"2025-11-12","time":"02:06:31"},{"task":"memory_phase","broad_category":"M","image_png":"M_Phyllite_13.png","image_id":269,"category_name":"Phyllite","category":17,"distinct_rating":2.8,"distinct_type":"Bottom","rt":null,"stimulus":"Stimuli_Rocks480/M_Phyllite_13.png","response":null,"trial_type":"image-keyboard-response","trial_index":44,"plugin_version":"2.1.0","time_elapsed":262362,"subject_id":"90163","group":"Group2","full_date":"2025-11-12T02:06:31.654Z","date":"2025-11-12","time":"02:06:31"},{"rt":null,"stimulus":"<p style=\"font-size: 50px; margin: 0; text-align: center;\">+</p>","response":null,"trial_type":"html-keyboard-response","trial_index":45,"plugin_version":"2.1.0","time_elapsed":263376,"subject_id":"90163","group":"Group2","full_date":"2025-11-12T02:06:31.654Z","date":"2025-11-12","time":"02:06:31"},{"task":"memory_phase","broad_category":"S","image_png":"S_Chert_13.png","image_id":365,"category_name":"Chert","category":23,"distinct_rating":6.57,"distinct_type":"Top","rt":null,"stimulus":"Stimuli_Rocks480/S_Chert_13.png","response":null,"trial_type":"image-keyboard-response","trial_index":46,"plugin_version":"2.1.0","time_elapsed":265884,"subject_id":"90163","group":"Group2","full_date":"2025-11-12T02:06:31.654Z","date":"2025-11-12","time":"02:06:31"},{"rt":null,"stimulus":"<p style=\"font-size: 50px; margin: 0; text-align: center;\">+</p>","response":null,"trial_type":"html-keyboard-response","trial_index":47,"plugin_version":"2.1.0","time_elapsed":266893,"subject_id":"90163","group":"Group2","full_date":"2025-11-12T02:06:31.654Z","date":"2025-11-12","time":"02:06:31"},{"task":"memory_phase","broad_category":"S","image_png":"S_Dolomite_01.png","image_id":385,"category_name":"Dolomite","category":25,"distinct_rating":1.43,"distinct_type":"Bottom","rt":null,"stimulus":"Stimuli_Rocks480/S_Dolomite_01.png","response":null,"trial_type":"image-keyboard-response","trial_index":48,"plugin_version":"2.1.0","time_elapsed":269408,"subject_id":"90163","group":"Group2","full_date":"2025-11-12T02:06:31.654Z","date":"2025-11-12","time":"02:06:31"},{"rt":null,"stimulus":"<p style=\"font-size: 50px; margin: 0; text-align: center;\">+</p>","response":null,"trial_type":"html-keyboard-response","trial_index":49,"plugin_version":"2.1.0","time_elapsed":270424,"subject_id":"90163","group":"Group2","full_date":"2025-11-12T02:06:31.654Z","date":"2025-11-12","time":"02:06:31"},{"task":"memory_phase","broad_category":"I","image_png":"I_Gabbro_02.png","image_id":50,"category_name":"Gabbro","category":4,"distinct_rating":2.73,"distinct_type":"Bottom","rt":null,"stimulus":"Stimuli_Rocks480/I_Gabbro_02.png","response":null,"trial_type":"image-keyboard-response","trial_index":50,"plugin_version":"2.1.0","time_elapsed":272932,"subject_id":"90163","group":"Group2","full_date":"2025-11-12T02:06:31.654Z","date":"2025-11-12","time":"02:06:31"},{"rt":null,"stimulus":"<p style=\"font-size: 50px; margin: 0; text-align: center;\">+</p>","response":null,"trial_type":"html-keyboard-response","trial_index":51,"plugin_version":"2.1.0","time_elapsed":273940,"subject_id":"90163","group":"Group2","full_date":"2025-11-12T02:06:31.654Z","date":"2025-11-12","time":"02:06:31"},{"task":"memory_phase","broad_category":"M","image_png":"M_Slate_04.png","image_id":308,"category_name":"Slate","category":20,"distinct_rating":2.2,"distinct_type":"Bottom","rt":null,"stimulus":"Stimuli_Rocks480/M_Slate_04.png","response":null,"trial_type":"image-keyboard-response","trial_index":52,"plugin_version":"2.1.0","time_elapsed":276456,"subject_id":"90163","group":"Group2","full_date":"2025-11-12T02:06:31.654Z","date":"2025-11-12","time":"02:06:31"},{"rt":null,"stimulus":"<p style=\"font-size: 50px; margin: 0; text-align: center;\">+</p>","response":null,"trial_type":"html-keyboard-response","trial_index":53,"plugin_version":"2.1.0","time_elapsed":277471,"subject_id":"90163","group":"Group2","full_date":"2025-11-12T02:06:31.654Z","date":"2025-11-12","time":"02:06:31"},{"task":"memory_phase","broad_category":"I","image_png":"I_Andesite_04.png","image_id":4,"category_name":"Andesite","category":1,"distinct_rating":3.18,"distinct_type":"Bottom","rt":null,"stimulus":"Stimuli_Rocks480/I_Andesite_04.png","response":null,"trial_type":"image-keyboard-response","trial_index":54,"plugin_version":"2.1.0","time_elapsed":279979,"subject_id":"90163","group":"Group2","full_date":"2025-11-12T02:06:31.654Z","date":"2025-11-12","time":"02:06:31"},{"rt":2302,"stimulus":"<p style=\"font-size: 35px;\">Press SPACE to continue study phase</p>","response":" ","trial_type":"html-keyboard-response","trial_index":55,"plugin_version":"2.1.0","time_elapsed":282284,"subject_id":"90163","group":"Group2","full_date":"2025-11-12T02:06:31.654Z","date":"2025-11-12","time":"02:06:31"},{"rt":null,"stimulus":"<p style=\"font-size: 50px; margin: 0; text-align: center;\">+</p>","response":null,"trial_type":"html-keyboard-response","trial_index":56,"plugin_version":"2.1.0","time_elapsed":283299,"subject_id":"90163","group":"Group2","full_date":"2025-11-12T02:06:31.654Z","date":"2025-11-12","time":"02:06:31"},{"task":"memory_phase","broad_category":"S","image_png":"S_Conglomerate_14.png","image_id":382,"category_name":"Conglomerate","category":24,"distinct_rating":6.86,"distinct_type":"Top","rt":null,"stimulus":"Stimuli_Rocks480/S_Conglomerate_14.png","response":null,"trial_type":"image-keyboard-response","trial_index":57,"plugin_version":"2.1.0","time_elapsed":285805,"subject_id":"90163","group":"Group2","full_date":"2025-11-12T02:06:31.654Z","date":"2025-11-12","time":"02:06:31"},{"rt":null,"stimulus":"<p style=\"font-size: 50px; margin: 0; text-align: center;\">+</p>","response":null,"trial_type":"html-keyboard-response","trial_index":58,"plugin_version":"2.1.0","time_elapsed":286807,"subject_id":"90163","group":"Group2","full_date":"2025-11-12T02:06:31.654Z","date":"2025-11-12","time":"02:06:31"},{"task":"memory_phase","broad_category":"I","image_png":"I_Peridotite_13.png","image_id":125,"category_name":"Peridotite","category":8,"distinct_rating":7.28,"distinct_type":"Top","rt":null,"stimulus":"Stimuli_Rocks480/I_Peridotite_13.png","response":null,"trial_type":"image-keyboard-response","trial_index":59,"plugin_version":"2.1.0","time_elapsed":289323,"subject_id":"90163","group":"Group2","full_date":"2025-11-12T02:06:31.654Z","date":"2025-11-12","time":"02:06:31"},{"rt":null,"stimulus":"<p style=\"font-size: 50px; margin: 0; text-align: center;\">+</p>","response":null,"trial_type":"html-keyboard-response","trial_index":60,"plugin_version":"2.1.0","time_elapsed":290338,"subject_id":"90163","group":"Group2","full_date":"2025-11-12T02:06:31.654Z","date":"2025-11-12","time":"02:06:31"},{"task":"memory_phase","broad_category":"I","image_png":"I_Diorite_15.png","image_id":47,"category_name":"Diorite","category":3,"distinct_rating":3.05,"distinct_type":"Bottom","rt":null,"stimulus":"Stimuli_Rocks480/I_Diorite_15.png","response":null,"trial_type":"image-keyboard-response","trial_index":61,"plugin_version":"2.1.0","time_elapsed":292848,"subject_id":"90163","group":"Group2","full_date":"2025-11-12T02:06:31.654Z","date":"2025-11-12","time":"02:06:31"},{"rt":null,"stimulus":"<p style=\"font-size: 50px; margin: 0; text-align: center;\">+</p>","response":null,"trial_type":"html-keyboard-response","trial_index":62,"plugin_version":"2.1.0","time_elapsed":293855,"subject_id":"90163","group":"Group2","full_date":"2025-11-12T02:06:31.654Z","date":"2025-11-12","time":"02:06:31"},{"task":"memory_phase","broad_category":"M","image_png":"M_Marble_02.png","image_id":226,"category_name":"Marble","category":15,"distinct_rating":3.2,"distinct_type":"Bottom","rt":null,"stimulus":"Stimuli_Rocks480/M_Marble_02.png","response":null,"trial_type":"image-keyboard-response","trial_index":63,"plugin_version":"2.1.0","time_elapsed":296364,"subject_id":"90163","group":"Group2","full_date":"2025-11-12T02:06:31.654Z","date":"2025-11-12","time":"02:06:31"},{"rt":null,"stimulus":"<p style=\"font-size: 50px; margin: 0; text-align: center;\">+</p>","response":null,"trial_type":"html-keyboard-response","trial_index":64,"plugin_version":"2.1.0","time_elapsed":297372,"subject_id":"90163","group":"Group2","full_date":"2025-11-12T02:06:31.654Z","date":"2025-11-12","time":"02:06:31"},{"task":"memory_phase","broad_category":"I","image_png":"I_Pegmatite_11.png","image_id":107,"category_name":"Pegmatite","category":7,"distinct_rating":7.11,"distinct_type":"Top","rt":null,"stimulus":"Stimuli_Rocks480/I_Pegmatite_11.png","response":null,"trial_type":"image-keyboard-response","trial_index":65,"plugin_version":"2.1.0","time_elapsed":299879,"subject_id":"90163","group":"Group2","full_date":"2025-11-12T02:06:31.654Z","date":"2025-11-12","time":"02:06:31"},{"rt":null,"stimulus":"<p style=\"font-size: 50px; margin: 0; text-align: center;\">+</p>","response":null,"trial_type":"html-keyboard-response","trial_index":66,"plugin_version":"2.1.0","time_elapsed":300887,"subject_id":"90163","group":"Group2","full_date":"2025-11-12T02:06:31.654Z","date":"2025-11-12","time":"02:06:31"},{"task":"memory_phase","broad_category":"S","image_png":"S_Shale_07.png","image_id":471,"category_name":"Shale","category":30,"distinct_rating":2.73,"distinct_type":"Bottom","rt":null,"stimulus":"Stimuli_Rocks480/S_Shale_07.png","response":null,"trial_type":"image-keyboard-response","trial_index":67,"plugin_version":"2.1.0","time_elapsed":303402,"subject_id":"90163","group":"Group2","full_date":"2025-11-12T02:06:31.654Z","date":"2025-11-12","time":"02:06:31"},{"rt":null,"stimulus":"<p style=\"font-size: 50px; margin: 0; text-align: center;\">+</p>","response":null,"trial_type":"html-keyboard-response","trial_index":68,"plugin_version":"2.1.0","time_elapsed":304417,"subject_id":"90163","group":"Group2","full_date":"2025-11-12T02:06:31.654Z","date":"2025-11-12","time":"02:06:31"},{"task":"memory_phase","broad_category":"I","image_png":"I_Gabbro_14.png","image_id":62,"category_name":"Gabbro","category":4,"distinct_rating":2.95,"distinct_type":"Bottom","rt":null,"stimulus":"Stimuli_Rocks480/I_Gabbro_14.png","response":null,"trial_type":"image-keyboard-response","trial_index":69,"plugin_version":"2.1.0","time_elapsed":306927,"subject_id":"90163","group":"Group2","full_date":"2025-11-12T02:06:31.654Z","date":"2025-11-12","time":"02:06:31"},{"rt":null,"stimulus":"<p style=\"font-size: 50px; margin: 0; text-align: center;\">+</p>","response":null,"trial_type":"html-keyboard-response","trial_index":70,"plugin_version":"2.1.0","time_elapsed":307933,"subject_id":"90163","group":"Group2","full_date":"2025-11-12T02:06:31.654Z","date":"2025-11-12","time":"02:06:31"},{"task":"memory_phase","broad_category":"I","image_png":"I_Andesite_09.png","image_id":9,"category_name":"Andesite","category":1,"distinct_rating":2.49,"distinct_type":"Bottom","rt":null,"stimulus":"Stimuli_Rocks480/I_Andesite_09.png","response":null,"trial_type":"image-keyboard-response","trial_index":71,"plugin_version":"2.1.0","time_elapsed":310450,"subject_id":"90163","group":"Group2","full_date":"2025-11-12T02:06:31.654Z","date":"2025-11-12","time":"02:06:31"},{"rt":null,"stimulus":"<p style=\"font-size: 50px; margin: 0; text-align: center;\">+</p>","response":null,"trial_type":"html-keyboard-response","trial_index":72,"plugin_version":"2.1.0","time_elapsed":311457,"subject_id":"90163","group":"Group2","full_date":"2025-11-12T02:06:31.654Z","date":"2025-11-12","time":"02:06:31"},{"task":"memory_phase","broad_category":"S","image_png":"S_Sandstone_11.png","image_id":459,"category_name":"Sandstone","category":29,"distinct_rating":1.82,"distinct_type":"Bottom","rt":null,"stimulus":"Stimuli_Rocks480/S_Sandstone_11.png","response":null,"trial_type":"image-keyboard-response","trial_index":73,"plugin_version":"2.1.0","time_elapsed":313974,"subject_id":"90163","group":"Group2","full_date":"2025-11-12T02:06:31.654Z","date":"2025-11-12","time":"02:06:31"},{"rt":null,"stimulus":"<p style=\"font-size: 50px; margin: 0; text-align: center;\">+</p>","response":null,"trial_type":"html-keyboard-response","trial_index":74,"plugin_version":"2.1.0","time_elapsed":314977,"subject_id":"90163","group":"Group2","full_date":"2025-11-12T02:06:31.654Z","date":"2025-11-12","time":"02:06:31"},{"task":"memory_phase","broad_category":"I","image_png":"I_Pegmatite_03.png","image_id":99,"category_name":"Pegmatite","category":7,"distinct_rating":7.24,"distinct_type":"Top","rt":null,"stimulus":"Stimuli_Rocks480/I_Pegmatite_03.png","response":null,"trial_type":"image-keyboard-response","trial_index":75,"plugin_version":"2.1.0","time_elapsed":317481,"subject_id":"90163","group":"Group2","full_date":"2025-11-12T02:06:31.654Z","date":"2025-11-12","time":"02:06:31"},{"rt":null,"stimulus":"<p style=\"font-size: 50px; margin: 0; text-align: center;\">+</p>","response":null,"trial_type":"html-keyboard-response","trial_index":76,"plugin_version":"2.1.0","time_elapsed":318497,"subject_id":"90163","group":"Group2","full_date":"2025-11-12T02:06:31.654Z","date":"2025-11-12","time":"02:06:31"},{"task":"memory_phase","broad_category":"I","image_png":"I_Andesite_03.png","image_id":3,"category_name":"Andesite","category":1,"distinct_rating":3.17,"distinct_type":"Bottom","rt":null,"stimulus":"Stimuli_Rocks480/I_Andesite_03.png","response":null,"trial_type":"image-keyboard-response","trial_index":77,"plugin_version":"2.1.0","time_elapsed":321013,"subject_id":"90163","group":"Group2","full_date":"2025-11-12T02:06:31.654Z","date":"2025-11-12","time":"02:06:31"},{"rt":null,"stimulus":"<p style=\"font-size: 50px; margin: 0; text-align: center;\">+</p>","response":null,"trial_type":"html-keyboard-response","trial_index":78,"plugin_version":"2.1.0","time_elapsed":322029,"subject_id":"90163","group":"Group2","full_date":"2025-11-12T02:06:31.654Z","date":"2025-11-12","time":"02:06:31"},{"task":"memory_phase","broad_category":"M","image_png":"M_Gneiss_14.png","image_id":206,"category_name":"Gneiss","category":13,"distinct_rating":3.41,"distinct_type":"Bottom","rt":null,"stimulus":"Stimuli_Rocks480/M_Gneiss_14.png","response":null,"trial_type":"image-keyboard-response","trial_index":79,"plugin_version":"2.1.0","time_elapsed":324543,"subject_id":"90163","group":"Group2","full_date":"2025-11-12T02:06:31.654Z","date":"2025-11-12","time":"02:06:31"},{"rt":null,"stimulus":"<p style=\"font-size: 50px; margin: 0; text-align: center;\">+</p>","response":null,"trial_type":"html-keyboard-response","trial_index":80,"plugin_version":"2.1.0","time_elapsed":325545,"subject_id":"90163","group":"Group2","full_date":"2025-11-12T02:06:31.654Z","date":"2025-11-12","time":"02:06:31"},{"task":"memory_phase","broad_category":"M","image_png":"M_Quartzite_12.png","image_id":284,"category_name":"Quartzite","category":18,"distinct_rating":1.92,"distinct_type":"Bottom","rt":null,"stimulus":"Stimuli_Rocks480/M_Quartzite_12.png","response":null,"trial_type":"image-keyboard-response","trial_index":81,"plugin_version":"2.1.0","time_elapsed":328058,"subject_id":"90163","group":"Group2","full_date":"2025-11-12T02:06:31.654Z","date":"2025-11-12","time":"02:06:31"},{"rt":null,"stimulus":"<p style=\"font-size: 50px; margin: 0; text-align: center;\">+</p>","response":null,"trial_type":"html-keyboard-response","trial_index":82,"plugin_version":"2.1.0","time_elapsed":329066,"subject_id":"90163","group":"Group2","full_date":"2025-11-12T02:06:31.654Z","date":"2025-11-12","time":"02:06:31"},{"task":"memory_phase","broad_category":"I","image_png":"I_Rhyolite_08.png","image_id":152,"category_name":"Rhyolite","category":10,"distinct_rating":1.38,"distinct_type":"Bottom","rt":null,"stimulus":"Stimuli_Rocks480/I_Rhyolite_08.png","response":null,"trial_type":"image-keyboard-response","trial_index":83,"plugin_version":"2.1.0","time_elapsed":331583,"subject_id":"90163","group":"Group2","full_date":"2025-11-12T02:06:31.654Z","date":"2025-11-12","time":"02:06:31"},{"rt":null,"stimulus":"<p style=\"font-size: 50px; margin: 0; text-align: center;\">+</p>","response":null,"trial_type":"html-keyboard-response","trial_index":84,"plugin_version":"2.1.0","time_elapsed":332593,"subject_id":"90163","group":"Group2","full_date":"2025-11-12T02:06:31.654Z","date":"2025-11-12","time":"02:06:31"},{"task":"memory_phase","broad_category":"M","image_png":"M_Slate_14.png","image_id":318,"category_name":"Slate","category":20,"distinct_rating":2.58,"distinct_type":"Bottom","rt":null,"stimulus":"Stimuli_Rocks480/M_Slate_14.png","response":null,"trial_type":"image-keyboard-response","trial_index":85,"plugin_version":"2.1.0","time_elapsed":335100,"subject_id":"90163","group":"Group2","full_date":"2025-11-12T02:06:31.654Z","date":"2025-11-12","time":"02:06:31"},{"rt":null,"stimulus":"<p style=\"font-size: 50px; margin: 0; text-align: center;\">+</p>","response":null,"trial_type":"html-keyboard-response","trial_index":86,"plugin_version":"2.1.0","time_elapsed":336115,"subject_id":"90163","group":"Group2","full_date":"2025-11-12T02:06:31.654Z","date":"2025-11-12","time":"02:06:31"},{"task":"memory_phase","broad_category":"S","image_png":"S_Sandstone_08.png","image_id":456,"category_name":"Sandstone","category":29,"distinct_rating":1.5,"distinct_type":"Bottom","rt":null,"stimulus":"Stimuli_Rocks480/S_Sandstone_08.png","response":null,"trial_type":"image-keyboard-response","trial_index":87,"plugin_version":"2.1.0","time_elapsed":338628,"subject_id":"90163","group":"Group2","full_date":"2025-11-12T02:06:31.654Z","date":"2025-11-12","time":"02:06:31"},{"rt":null,"stimulus":"<p style=\"font-size: 50px; margin: 0; text-align: center;\">+</p>","response":null,"trial_type":"html-keyboard-response","trial_index":88,"plugin_version":"2.1.0","time_elapsed":339633,"subject_id":"90163","group":"Group2","full_date":"2025-11-12T02:06:31.654Z","date":"2025-11-12","time":"02:06:31"},{"task":"memory_phase","broad_category":"M","image_png":"M_Phyllite_02.png","image_id":258,"category_name":"Phyllite","category":17,"distinct_rating":2.89,"distinct_type":"Bottom","rt":null,"stimulus":"Stimuli_Rocks480/M_Phyllite_02.png","response":null,"trial_type":"image-keyboard-response","trial_index":89,"plugin_version":"2.1.0","time_elapsed":342148,"subject_id":"90163","group":"Group2","full_date":"2025-11-12T02:06:31.654Z","date":"2025-11-12","time":"02:06:31"},{"rt":null,"stimulus":"<p style=\"font-size: 50px; margin: 0; text-align: center;\">+</p>","response":null,"trial_type":"html-keyboard-response","trial_index":90,"plugin_version":"2.1.0","time_elapsed":343158,"subject_id":"90163","group":"Group2","full_date":"2025-11-12T02:06:31.654Z","date":"2025-11-12","time":"02:06:31"},{"task":"memory_phase","broad_category":"M","image_png":"M_Gneiss_10.png","image_id":202,"category_name":"Gneiss","category":13,"distinct_rating":3.09,"distinct_type":"Bottom","rt":null,"stimulus":"Stimuli_Rocks480/M_Gneiss_10.png","response":null,"trial_type":"image-keyboard-response","trial_index":91,"plugin_version":"2.1.0","time_elapsed":345668,"subject_id":"90163","group":"Group2","full_date":"2025-11-12T02:06:31.654Z","date":"2025-11-12","time":"02:06:31"},{"rt":null,"stimulus":"<p style=\"font-size: 50px; margin: 0; text-align: center;\">+</p>","response":null,"trial_type":"html-keyboard-response","trial_index":92,"plugin_version":"2.1.0","time_elapsed":346684,"subject_id":"90163","group":"Group2","full_date":"2025-11-12T02:06:31.654Z","date":"2025-11-12","time":"02:06:31"},{"task":"memory_phase","broad_category":"M","image_png":"M_Phyllite_05.png","image_id":261,"category_name":"Phyllite","category":17,"distinct_rating":2.14,"distinct_type":"Bottom","rt":null,"stimulus":"Stimuli_Rocks480/M_Phyllite_05.png","response":null,"trial_type":"image-keyboard-response","trial_index":93,"plugin_version":"2.1.0","time_elapsed":349193,"subject_id":"90163","group":"Group2","full_date":"2025-11-12T02:06:31.654Z","date":"2025-11-12","time":"02:06:31"},{"rt":null,"stimulus":"<p style=\"font-size: 50px; margin: 0; text-align: center;\">+</p>","response":null,"trial_type":"html-keyboard-response","trial_index":94,"plugin_version":"2.1.0","time_elapsed":350200,"subject_id":"90163","group":"Group2","full_date":"2025-11-12T02:06:31.654Z","date":"2025-11-12","time":"02:06:31"},{"task":"memory_phase","broad_category":"S","image_png":"S_Dolomite_07.png","image_id":391,"category_name":"Dolomite","category":25,"distinct_rating":1.73,"distinct_type":"Bottom","rt":null,"stimulus":"Stimuli_Rocks480/S_Dolomite_07.png","response":null,"trial_type":"image-keyboard-response","trial_index":95,"plugin_version":"2.1.0","time_elapsed":352712,"subject_id":"90163","group":"Group2","full_date":"2025-11-12T02:06:31.654Z","date":"2025-11-12","time":"02:06:31"},{"rt":null,"stimulus":"<p style=\"font-size: 50px; margin: 0; text-align: center;\">+</p>","response":null,"trial_type":"html-keyboard-response","trial_index":96,"plugin_version":"2.1.0","time_elapsed":353725,"subject_id":"90163","group":"Group2","full_date":"2025-11-12T02:06:31.654Z","date":"2025-11-12","time":"02:06:31"},{"task":"memory_phase","broad_category":"M","image_png":"M_Slate_10.png","image_id":314,"category_name":"Slate","category":20,"distinct_rating":1.94,"distinct_type":"Bottom","rt":null,"stimulus":"Stimuli_Rocks480/M_Slate_10.png","response":null,"trial_type":"image-keyboard-response","trial_index":97,"plugin_version":"2.1.0","time_elapsed":356241,"subject_id":"90163","group":"Group2","full_date":"2025-11-12T02:06:31.654Z","date":"2025-11-12","time":"02:06:31"},{"rt":null,"stimulus":"<p style=\"font-size: 50px; margin: 0; text-align: center;\">+</p>","response":null,"trial_type":"html-keyboard-response","trial_index":98,"plugin_version":"2.1.0","time_elapsed":357256,"subject_id":"90163","group":"Group2","full_date":"2025-11-12T02:06:31.654Z","date":"2025-11-12","time":"02:06:31"},{"task":"memory_phase","broad_category":"S","image_png":"S_Shale_02.png","image_id":466,"category_name":"Shale","category":30,"distinct_rating":2.9,"distinct_type":"Bottom","rt":null,"stimulus":"Stimuli_Rocks480/S_Shale_02.png","response":null,"trial_type":"image-keyboard-response","trial_index":99,"plugin_version":"2.1.0","time_elapsed":359764,"subject_id":"90163","group":"Group2","full_date":"2025-11-12T02:06:31.654Z","date":"2025-11-12","time":"02:06:31"},{"rt":null,"stimulus":"<p style=\"font-size: 50px; margin: 0; text-align: center;\">+</p>","response":null,"trial_type":"html-keyboard-response","trial_index":100,"plugin_version":"2.1.0","time_elapsed":360779,"subject_id":"90163","group":"Group2","full_date":"2025-11-12T02:06:31.654Z","date":"2025-11-12","time":"02:06:31"},{"task":"memory_phase","broad_category":"I","image_png":"I_Rhyolite_05.png","image_id":149,"category_name":"Rhyolite","category":10,"distinct_rating":3.02,"distinct_type":"Bottom","rt":null,"stimulus":"Stimuli_Rocks480/I_Rhyolite_05.png","response":null,"trial_type":"image-keyboard-response","trial_index":101,"plugin_version":"2.1.0","time_elapsed":363295,"subject_id":"90163","group":"Group2","full_date":"2025-11-12T02:06:31.654Z","date":"2025-11-12","time":"02:06:31"},{"rt":null,"stimulus":"<p style=\"font-size: 50px; margin: 0; text-align: center;\">+</p>","response":null,"trial_type":"html-keyboard-response","trial_index":102,"plugin_version":"2.1.0","time_elapsed":364311,"subject_id":"90163","group":"Group2","full_date":"2025-11-12T02:06:31.654Z","date":"2025-11-12","time":"02:06:31"},{"task":"memory_phase","broad_category":"M","image_png":"M_Marble_03.png","image_id":227,"category_name":"Marble","category":15,"distinct_rating":2.67,"distinct_type":"Bottom","rt":null,"stimulus":"Stimuli_Rocks480/M_Marble_03.png","response":null,"trial_type":"image-keyboard-response","trial_index":103,"plugin_version":"2.1.0","time_elapsed":366819,"subject_id":"90163","group":"Group2","full_date":"2025-11-12T02:06:31.654Z","date":"2025-11-12","time":"02:06:31"},{"rt":null,"stimulus":"<p style=\"font-size: 50px; margin: 0; text-align: center;\">+</p>","response":null,"trial_type":"html-keyboard-response","trial_index":104,"plugin_version":"2.1.0","time_elapsed":367827,"subject_id":"90163","group":"Group2","full_date":"2025-11-12T02:06:31.654Z","date":"2025-11-12","time":"02:06:31"},{"task":"memory_phase","broad_category":"I","image_png":"I_Basalt_13.png","image_id":29,"category_name":"Basalt","category":2,"distinct_rating":2.68,"distinct_type":"Bottom","rt":null,"stimulus":"Stimuli_Rocks480/I_Basalt_13.png","response":null,"trial_type":"image-keyboard-response","trial_index":105,"plugin_version":"2.1.0","time_elapsed":370342,"subject_id":"90163","group":"Group2","full_date":"2025-11-12T02:06:31.654Z","date":"2025-11-12","time":"02:06:31"},{"rt":10081,"stimulus":"<div style=\"max-width: 760px; margin: auto; font-size: 20px; line-height: 1.5;\">\n      <h1 style=\"text-align:center; font-size: 30px;\">Instructions for the Test Phase</h1>\n      <p>\n        The study phase is now complete.\n      </p>\n      <p>\n        In the test phase, you will again see a series of rock images. \n        Some will be ones you saw before - during the study phase, while others will be new.  \n        <b>Your task</b> is to decide whether you have seen each image before by pressing the corresponding key on your keyboard:<br><br>\n          <b>A</b> - NO (you did not see this image before)<br>\n          <b>L</b> - YES (you saw this image before)<br><br>\n        The test will proceed at your own pace. You will receive feedback after each response.  \n        Please try to respond <b>as accurately as possible</b>.\n      </p>\n      <p>\n        <b>Reminder:</b> If your computer has multiple language settings (e.g., English and another language),\n        please ensure it is set to English during the test phase.\n      </p>\n      <p>\n        You can track your progress using the <b>completion bar</b> at the top of the screen.  \n        Note that it has been refreshed to reflect your progress during this final phase.\n      </p>\n      <p>\n        Press the button below when you are ready to continue.\n      </p>\n    </div>","response":0,"trial_type":"html-button-response","trial_index":106,"plugin_version":"2.1.0","time_elapsed":380427,"subject_id":"90163","group":"Group2","full_date":"2025-11-12T02:06:31.654Z","date":"2025-11-12","time":"02:06:31"},{"correct_response":"l","task":"test_phase","broad_category":"M","image_png":"M_Gneiss_14.png","image_id":206,"category_name":"Gneiss","category":13,"distinct_rating":3.41,"distinct_type":"Bottom","item_type":"Target","rt":1986,"stimulus":"Stimuli_Rocks480/M_Gneiss_14.png","response":"l","trial_type":"image-keyboard-response","trial_index":107,"plugin_version":"2.1.0","time_elapsed":382419,"subject_id":"90163","group":"Group2","full_date":"2025-11-12T02:06:31.654Z","date":"2025-11-12","time":"02:06:31","cor_ans":true},{"trial_type":"html-keyboard-response","rt":null,"stimulus":"<p style=\"color: green; font-size: 50px; font-weight: bold;\">Correct</p>","response":null,"trial_index":108,"plugin_version":"2.1.0","time_elapsed":382934,"subject_id":"90163","group":"Group2","full_date":"2025-11-12T02:06:31.654Z","date":"2025-11-12","time":"02:06:31"},{"correct_response":"a","task":"test_phase","broad_category":"M","image_png":"M_Gneiss_06.png","image_id":198,"category_name":"Gneiss","category":13,"distinct_rating":2.65,"distinct_type":"Bottom","item_type":"Foil","rt":1453,"stimulus":"Stimuli_Rocks480/M_Gneiss_06.png","response":"a","trial_type":"image-keyboard-response","trial_index":109,"plugin_version":"2.1.0","time_elapsed":384390,"subject_id":"90163","group":"Group2","full_date":"2025-11-12T02:06:31.654Z","date":"2025-11-12","time":"02:06:31","cor_ans":true},{"trial_type":"html-keyboard-response","rt":null,"stimulus":"<p style=\"color: green; font-size: 50px; font-weight: bold;\">Correct</p>","response":null,"trial_index":110,"plugin_version":"2.1.0","time_elapsed":384906,"subject_id":"90163","group":"Group2","full_date":"2025-11-12T02:06:31.654Z","date":"2025-11-12","time":"02:06:31"},{"correct_response":"l","task":"test_phase","broad_category":"M","image_png":"M_Marble_14.png","image_id":238,"category_name":"Marble","category":15,"distinct_rating":3.31,"distinct_type":"Bottom","item_type":"Target","rt":1956,"stimulus":"Stimuli_Rocks480/M_Marble_14.png","response":"l","trial_type":"image-keyboard-response","trial_index":111,"plugin_version":"2.1.0","time_elapsed":386865,"subject_id":"90163","group":"Group2","full_date":"2025-11-12T02:06:31.654Z","date":"2025-11-12","time":"02:06:31","cor_ans":true},{"trial_type":"html-keyboard-response","rt":null,"stimulus":"<p style=\"color: green; font-size: 50px; font-weight: bold;\">Correct</p>","response":null,"trial_index":112,"plugin_version":"2.1.0","time_elapsed":387367,"subject_id":"90163","group":"Group2","full_date":"2025-11-12T02:06:31.654Z","date":"2025-11-12","time":"02:06:31"},{"correct_response":"l","task":"test_phase","broad_category":"M","image_png":"M_Phyllite_13.png","image_id":269,"category_name":"Phyllite","category":17,"distinct_rating":2.8,"distinct_type":"Bottom","item_type":"Target","rt":1035,"stimulus":"Stimuli_Rocks480/M_Phyllite_13.png","response":"l","trial_type":"image-keyboard-response","trial_index":113,"plugin_version":"2.1.0","time_elapsed":388404,"subject_id":"90163","group":"Group2","full_date":"2025-11-12T02:06:31.654Z","date":"2025-11-12","time":"02:06:31","cor_ans":true},{"trial_type":"html-keyboard-response","rt":null,"stimulus":"<p style=\"color: green; font-size: 50px; font-weight: bold;\">Correct</p>","response":null,"trial_index":114,"plugin_version":"2.1.0","time_elapsed":388914,"subject_id":"90163","group":"Group2","full_date":"2025-11-12T02:06:31.654Z","date":"2025-11-12","time":"02:06:31"},{"correct_response":"l","task":"test_phase","broad_category":"M","image_png":"M_Gneiss_10.png","image_id":202,"category_name":"Gneiss","category":13,"distinct_rating":3.09,"distinct_type":"Bottom","item_type":"Target","rt":1156,"stimulus":"Stimuli_Rocks480/M_Gneiss_10.png","response":"l","trial_type":"image-keyboard-response","trial_index":115,"plugin_version":"2.1.0","time_elapsed":390073,"subject_id":"90163","group":"Group2","full_date":"2025-11-12T02:06:31.654Z","date":"2025-11-12","time":"02:06:31","cor_ans":true},{"trial_type":"html-keyboard-response","rt":null,"stimulus":"<p style=\"color: green; font-size: 50px; font-weight: bold;\">Correct</p>","response":null,"trial_index":116,"plugin_version":"2.1.0","time_elapsed":390584,"subject_id":"90163","group":"Group2","full_date":"2025-11-12T02:06:31.654Z","date":"2025-11-12","time":"02:06:31"},{"correct_response":"l","task":"test_phase","broad_category":"I","image_png":"I_Peridotite_13.png","image_id":125,"category_name":"Peridotite","category":8,"distinct_rating":7.28,"distinct_type":"Top","item_type":"Target","rt":1014,"stimulus":"Stimuli_Rocks480/I_Peridotite_13.png","response":"l","trial_type":"image-keyboard-response","trial_index":117,"plugin_version":"2.1.0","time_elapsed":391601,"subject_id":"90163","group":"Group2","full_date":"2025-11-12T02:06:31.654Z","date":"2025-11-12","time":"02:06:31","cor_ans":true},{"trial_type":"html-keyboard-response","rt":null,"stimulus":"<p style=\"color: green; font-size: 50px; font-weight: bold;\">Correct</p>","response":null,"trial_index":118,"plugin_version":"2.1.0","time_elapsed":392105,"subject_id":"90163","group":"Group2","full_date":"2025-11-12T02:06:31.654Z","date":"2025-11-12","time":"02:06:31"},{"correct_response":"a","task":"test_phase","broad_category":"I","image_png":"I_Diorite_03.png","image_id":35,"category_name":"Diorite","category":3,"distinct_rating":3.14,"distinct_type":"Bottom","item_type":"Foil","rt":1260,"stimulus":"Stimuli_Rocks480/I_Diorite_03.png","response":"l","trial_type":"image-keyboard-response","trial_index":119,"plugin_version":"2.1.0","time_elapsed":393370,"subject_id":"90163","group":"Group2","full_date":"2025-11-12T02:06:31.654Z","date":"2025-11-12","time":"02:06:31","cor_ans":false},{"trial_type":"html-keyboard-response","rt":null,"stimulus":"<p style=\"color: red; font-size: 50px; font-weight: bold;\">Incorrect</p>","response":null,"trial_index":120,"plugin_version":"2.1.0","time_elapsed":393875,"subject_id":"90163","group":"Group2","full_date":"2025-11-12T02:06:31.654Z","date":"2025-11-12","time":"02:06:31"},{"correct_response":"a","task":"test_phase","broad_category":"M","image_png":"M_Slate_11.png","image_id":315,"category_name":"Slate","category":20,"distinct_rating":2.75,"distinct_type":"Bottom","item_type":"Foil","rt":2096,"stimulus":"Stimuli_Rocks480/M_Slate_11.png","response":"a","trial_type":"image-keyboard-response","trial_index":121,"plugin_version":"2.1.0","time_elapsed":395974,"subject_id":"90163","group":"Group2","full_date":"2025-11-12T02:06:31.654Z","date":"2025-11-12","time":"02:06:31","cor_ans":true},{"trial_type":"html-keyboard-response","rt":null,"stimulus":"<p style=\"color: green; font-size: 50px; font-weight: bold;\">Correct</p>","response":null,"trial_index":122,"plugin_version":"2.1.0","time_elapsed":396485,"subject_id":"90163","group":"Group2","full_date":"2025-11-12T02:06:31.654Z","date":"2025-11-12","time":"02:06:31"},{"correct_response":"l","task":"test_phase","broad_category":"M","image_png":"M_Slate_04.png","image_id":308,"category_name":"Slate","category":20,"distinct_rating":2.2,"distinct_type":"Bottom","item_type":"Target","rt":919,"stimulus":"Stimuli_Rocks480/M_Slate_04.png","response":"l","trial_type":"image-keyboard-response","trial_index":123,"plugin_version":"2.1.0","time_elapsed":397407,"subject_id":"90163","group":"Group2","full_date":"2025-11-12T02:06:31.654Z","date":"2025-11-12","time":"02:06:31","cor_ans":true},{"trial_type":"html-keyboard-response","rt":null,"stimulus":"<p style=\"color: green; font-size: 50px; font-weight: bold;\">Correct</p>","response":null,"trial_index":124,"plugin_version":"2.1.0","time_elapsed":397922,"subject_id":"90163","group":"Group2","full_date":"2025-11-12T02:06:31.654Z","date":"2025-11-12","time":"02:06:31"},{"correct_response":"l","task":"test_phase","broad_category":"S","image_png":"S_Conglomerate_14.png","image_id":382,"category_name":"Conglomerate","category":24,"distinct_rating":6.86,"distinct_type":"Top","item_type":"Target","rt":1620,"stimulus":"Stimuli_Rocks480/S_Conglomerate_14.png","response":"l","trial_type":"image-keyboard-response","trial_index":125,"plugin_version":"2.1.0","time_elapsed":399559,"subject_id":"90163","group":"Group2","full_date":"2025-11-12T02:06:31.654Z","date":"2025-11-12","time":"02:06:31","cor_ans":true},{"trial_type":"html-keyboard-response","rt":null,"stimulus":"<p style=\"color: green; font-size: 50px; font-weight: bold;\">Correct</p>","response":null,"trial_index":126,"plugin_version":"2.1.0","time_elapsed":400071,"subject_id":"90163","group":"Group2","full_date":"2025-11-12T02:06:31.654Z","date":"2025-11-12","time":"02:06:31"},{"correct_response":"a","task":"test_phase","broad_category":"S","image_png":"S_Conglomerate_05.png","image_id":373,"category_name":"Conglomerate","category":24,"distinct_rating":7.32,"distinct_type":"Top","item_type":"Foil","rt":1059,"stimulus":"Stimuli_Rocks480/S_Conglomerate_05.png","response":"a","trial_type":"image-keyboard-response","trial_index":127,"plugin_version":"2.1.0","time_elapsed":401134,"subject_id":"90163","group":"Group2","full_date":"2025-11-12T02:06:31.654Z","date":"2025-11-12","time":"02:06:31","cor_ans":true},{"trial_type":"html-keyboard-response","rt":null,"stimulus":"<p style=\"color: green; font-size: 50px; font-weight: bold;\">Correct</p>","response":null,"trial_index":128,"plugin_version":"2.1.0","time_elapsed":401649,"subject_id":"90163","group":"Group2","full_date":"2025-11-12T02:06:31.654Z","date":"2025-11-12","time":"02:06:31"},{"correct_response":"a","task":"test_phase","broad_category":"I","image_png":"I_Basalt_02.png","image_id":18,"category_name":"Basalt","category":2,"distinct_rating":1.84,"distinct_type":"Bottom","item_type":"Foil","rt":1403,"stimulus":"Stimuli_Rocks480/I_Basalt_02.png","response":"l","trial_type":"image-keyboard-response","trial_index":129,"plugin_version":"2.1.0","time_elapsed":403055,"subject_id":"90163","group":"Group2","full_date":"2025-11-12T02:06:31.654Z","date":"2025-11-12","time":"02:06:31","cor_ans":false},{"trial_type":"html-keyboard-response","rt":null,"stimulus":"<p style=\"color: red; font-size: 50px; font-weight: bold;\">Incorrect</p>","response":null,"trial_index":130,"plugin_version":"2.1.0","time_elapsed":403570,"subject_id":"90163","group":"Group2","full_date":"2025-11-12T02:06:31.654Z","date":"2025-11-12","time":"02:06:31"},{"correct_response":"l","task":"test_phase","broad_category":"I","image_png":"I_Pegmatite_11.png","image_id":107,"category_name":"Pegmatite","category":7,"distinct_rating":7.11,"distinct_type":"Top","item_type":"Target","rt":1572,"stimulus":"Stimuli_Rocks480/I_Pegmatite_11.png","response":"l","trial_type":"image-keyboard-response","trial_index":131,"plugin_version":"2.1.0","time_elapsed":405146,"subject_id":"90163","group":"Group2","full_date":"2025-11-12T02:06:31.654Z","date":"2025-11-12","time":"02:06:31","cor_ans":true},{"trial_type":"html-keyboard-response","rt":null,"stimulus":"<p style=\"color: green; font-size: 50px; font-weight: bold;\">Correct</p>","response":null,"trial_index":132,"plugin_version":"2.1.0","time_elapsed":405655,"subject_id":"90163","group":"Group2","full_date":"2025-11-12T02:06:31.654Z","date":"2025-11-12","time":"02:06:31"},{"correct_response":"a","task":"test_phase","broad_category":"I","image_png":"I_Gabbro_16.png","image_id":64,"category_name":"Gabbro","category":4,"distinct_rating":2.52,"distinct_type":"Bottom","item_type":"Foil","rt":1859,"stimulus":"Stimuli_Rocks480/I_Gabbro_16.png","response":"a","trial_type":"image-keyboard-response","trial_index":133,"plugin_version":"2.1.0","time_elapsed":407517,"subject_id":"90163","group":"Group2","full_date":"2025-11-12T02:06:31.654Z","date":"2025-11-12","time":"02:06:31","cor_ans":true},{"trial_type":"html-keyboard-response","rt":null,"stimulus":"<p style=\"color: green; font-size: 50px; font-weight: bold;\">Correct</p>","response":null,"trial_index":134,"plugin_version":"2.1.0","time_elapsed":408030,"subject_id":"90163","group":"Group2","full_date":"2025-11-12T02:06:31.654Z","date":"2025-11-12","time":"02:06:31"},{"correct_response":"a","task":"test_phase","broad_category":"S","image_png":"S_Sandstone_03.png","image_id":451,"category_name":"Sandstone","category":29,"distinct_rating":1.86,"distinct_type":"Bottom","item_type":"Foil","rt":2218,"stimulus":"Stimuli_Rocks480/S_Sandstone_03.png","response":"a","trial_type":"image-keyboard-response","trial_index":135,"plugin_version":"2.1.0","time_elapsed":410251,"subject_id":"90163","group":"Group2","full_date":"2025-11-12T02:06:31.654Z","date":"2025-11-12","time":"02:06:31","cor_ans":true},{"trial_type":"html-keyboard-response","rt":null,"stimulus":"<p style=\"color: green; font-size: 50px; font-weight: bold;\">Correct</p>","response":null,"trial_index":136,"plugin_version":"2.1.0","time_elapsed":410760,"subject_id":"90163","group":"Group2","full_date":"2025-11-12T02:06:31.654Z","date":"2025-11-12","time":"02:06:31"},{"correct_response":"l","task":"test_phase","broad_category":"S","image_png":"S_Sandstone_11.png","image_id":459,"category_name":"Sandstone","category":29,"distinct_rating":1.82,"distinct_type":"Bottom","item_type":"Target","rt":1943,"stimulus":"Stimuli_Rocks480/S_Sandstone_11.png","response":"l","trial_type":"image-keyboard-response","trial_index":137,"plugin_version":"2.1.0","time_elapsed":412705,"subject_id":"90163","group":"Group2","full_date":"2025-11-12T02:06:31.654Z","date":"2025-11-12","time":"02:06:31","cor_ans":true},{"trial_type":"html-keyboard-response","rt":null,"stimulus":"<p style=\"color: green; font-size: 50px; font-weight: bold;\">Correct</p>","response":null,"trial_index":138,"plugin_version":"2.1.0","time_elapsed":413220,"subject_id":"90163","group":"Group2","full_date":"2025-11-12T02:06:31.654Z","date":"2025-11-12","time":"02:06:31"},{"correct_response":"a","task":"test_phase","broad_category":"M","image_png":"M_Phyllite_07.png","image_id":263,"category_name":"Phyllite","category":17,"distinct_rating":2.59,"distinct_type":"Bottom","item_type":"Foil","rt":1888,"stimulus":"Stimuli_Rocks480/M_Phyllite_07.png","response":"a","trial_type":"image-keyboard-response","trial_index":139,"plugin_version":"2.1.0","time_elapsed":415111,"subject_id":"90163","group":"Group2","full_date":"2025-11-12T02:06:31.654Z","date":"2025-11-12","time":"02:06:31","cor_ans":true},{"trial_type":"html-keyboard-response","rt":null,"stimulus":"<p style=\"color: green; font-size: 50px; font-weight: bold;\">Correct</p>","response":null,"trial_index":140,"plugin_version":"2.1.0","time_elapsed":415621,"subject_id":"90163","group":"Group2","full_date":"2025-11-12T02:06:31.654Z","date":"2025-11-12","time":"02:06:31"},{"correct_response":"l","task":"test_phase","broad_category":"S","image_png":"S_Shale_02.png","image_id":466,"category_name":"Shale","category":30,"distinct_rating":2.9,"distinct_type":"Bottom","item_type":"Target","rt":1896,"stimulus":"Stimuli_Rocks480/S_Shale_02.png","response":"l","trial_type":"image-keyboard-response","trial_index":141,"plugin_version":"2.1.0","time_elapsed":417520,"subject_id":"90163","group":"Group2","full_date":"2025-11-12T02:06:31.654Z","date":"2025-11-12","time":"02:06:31","cor_ans":true},{"trial_type":"html-keyboard-response","rt":null,"stimulus":"<p style=\"color: green; font-size: 50px; font-weight: bold;\">Correct</p>","response":null,"trial_index":142,"plugin_version":"2.1.0","time_elapsed":418031,"subject_id":"90163","group":"Group2","full_date":"2025-11-12T02:06:31.654Z","date":"2025-11-12","time":"02:06:31"},{"correct_response":"a","task":"test_phase","broad_category":"S","image_png":"S_Shale_01.png","image_id":465,"category_name":"Shale","category":30,"distinct_rating":2.7,"distinct_type":"Bottom","item_type":"Foil","rt":1165,"stimulus":"Stimuli_Rocks480/S_Shale_01.png","response":"a","trial_type":"image-keyboard-response","trial_index":143,"plugin_version":"2.1.0","time_elapsed":419198,"subject_id":"90163","group":"Group2","full_date":"2025-11-12T02:06:31.654Z","date":"2025-11-12","time":"02:06:31","cor_ans":true},{"trial_type":"html-keyboard-response","rt":null,"stimulus":"<p style=\"color: green; font-size: 50px; font-weight: bold;\">Correct</p>","response":null,"trial_index":144,"plugin_version":"2.1.0","time_elapsed":419713,"subject_id":"90163","group":"Group2","full_date":"2025-11-12T02:06:31.654Z","date":"2025-11-12","time":"02:06:31"},{"correct_response":"l","task":"test_phase","broad_category":"M","image_png":"M_Phyllite_02.png","image_id":258,"category_name":"Phyllite","category":17,"distinct_rating":2.89,"distinct_type":"Bottom","item_type":"Target","rt":2969,"stimulus":"Stimuli_Rocks480/M_Phyllite_02.png","response":"a","trial_type":"image-keyboard-response","trial_index":145,"plugin_version":"2.1.0","time_elapsed":422685,"subject_id":"90163","group":"Group2","full_date":"2025-11-12T02:06:31.654Z","date":"2025-11-12","time":"02:06:31","cor_ans":false},{"trial_type":"html-keyboard-response","rt":null,"stimulus":"<p style=\"color: red; font-size: 50px; font-weight: bold;\">Incorrect</p>","response":null,"trial_index":146,"plugin_version":"2.1.0","time_elapsed":423189,"subject_id":"90163","group":"Group2","full_date":"2025-11-12T02:06:31.654Z","date":"2025-11-12","time":"02:06:31"},{"correct_response":"l","task":"test_phase","broad_category":"S","image_png":"S_Rock Salt_15.png","image_id":447,"category_name":"Rock Salt","category":28,"distinct_rating":7.79,"distinct_type":"Top","item_type":"Target","rt":933,"stimulus":"Stimuli_Rocks480/S_Rock Salt_15.png","response":"l","trial_type":"image-keyboard-response","trial_index":147,"plugin_version":"2.1.0","time_elapsed":424125,"subject_id":"90163","group":"Group2","full_date":"2025-11-12T02:06:31.654Z","date":"2025-11-12","time":"02:06:31","cor_ans":true},{"trial_type":"html-keyboard-response","rt":null,"stimulus":"<p style=\"color: green; font-size: 50px; font-weight: bold;\">Correct</p>","response":null,"trial_index":148,"plugin_version":"2.1.0","time_elapsed":424633,"subject_id":"90163","group":"Group2","full_date":"2025-11-12T02:06:31.654Z","date":"2025-11-12","time":"02:06:31"},{"correct_response":"l","task":"test_phase","broad_category":"I","image_png":"I_Pegmatite_03.png","image_id":99,"category_name":"Pegmatite","category":7,"distinct_rating":7.24,"distinct_type":"Top","item_type":"Target","rt":893,"stimulus":"Stimuli_Rocks480/I_Pegmatite_03.png","response":"l","trial_type":"image-keyboard-response","trial_index":149,"plugin_version":"2.1.0","time_elapsed":425529,"subject_id":"90163","group":"Group2","full_date":"2025-11-12T02:06:31.654Z","date":"2025-11-12","time":"02:06:31","cor_ans":true},{"trial_type":"html-keyboard-response","rt":null,"stimulus":"<p style=\"color: green; font-size: 50px; font-weight: bold;\">Correct</p>","response":null,"trial_index":150,"plugin_version":"2.1.0","time_elapsed":426031,"subject_id":"90163","group":"Group2","full_date":"2025-11-12T02:06:31.654Z","date":"2025-11-12","time":"02:06:31"},{"correct_response":"a","task":"test_phase","broad_category":"M","image_png":"M_Quartzite_05.png","image_id":277,"category_name":"Quartzite","category":18,"distinct_rating":2.23,"distinct_type":"Bottom","item_type":"Foil","rt":1277,"stimulus":"Stimuli_Rocks480/M_Quartzite_05.png","response":"a","trial_type":"image-keyboard-response","trial_index":151,"plugin_version":"2.1.0","time_elapsed":427311,"subject_id":"90163","group":"Group2","full_date":"2025-11-12T02:06:31.654Z","date":"2025-11-12","time":"02:06:31","cor_ans":true},{"trial_type":"html-keyboard-response","rt":null,"stimulus":"<p style=\"color: green; font-size: 50px; font-weight: bold;\">Correct</p>","response":null,"trial_index":152,"plugin_version":"2.1.0","time_elapsed":427815,"subject_id":"90163","group":"Group2","full_date":"2025-11-12T02:06:31.654Z","date":"2025-11-12","time":"02:06:31"},{"correct_response":"a","task":"test_phase","broad_category":"I","image_png":"I_Pumice_08.png","image_id":136,"category_name":"Pumice","category":9,"distinct_rating":3.1,"distinct_type":"Bottom","item_type":"Foil","rt":1057,"stimulus":"Stimuli_Rocks480/I_Pumice_08.png","response":"a","trial_type":"image-keyboard-response","trial_index":153,"plugin_version":"2.1.0","time_elapsed":428875,"subject_id":"90163","group":"Group2","full_date":"2025-11-12T02:06:31.654Z","date":"2025-11-12","time":"02:06:31","cor_ans":true},{"trial_type":"html-keyboard-response","rt":null,"stimulus":"<p style=\"color: green; font-size: 50px; font-weight: bold;\">Correct</p>","response":null,"trial_index":154,"plugin_version":"2.1.0","time_elapsed":429387,"subject_id":"90163","group":"Group2","full_date":"2025-11-12T02:06:31.654Z","date":"2025-11-12","time":"02:06:31"},{"correct_response":"a","task":"test_phase","broad_category":"M","image_png":"M_Gneiss_13.png","image_id":205,"category_name":"Gneiss","category":13,"distinct_rating":3.26,"distinct_type":"Bottom","item_type":"Foil","rt":1113,"stimulus":"Stimuli_Rocks480/M_Gneiss_13.png","response":"a","trial_type":"image-keyboard-response","trial_index":155,"plugin_version":"2.1.0","time_elapsed":430502,"subject_id":"90163","group":"Group2","full_date":"2025-11-12T02:06:31.654Z","date":"2025-11-12","time":"02:06:31","cor_ans":true},{"trial_type":"html-keyboard-response","rt":null,"stimulus":"<p style=\"color: green; font-size: 50px; font-weight: bold;\">Correct</p>","response":null,"trial_index":156,"plugin_version":"2.1.0","time_elapsed":431013,"subject_id":"90163","group":"Group2","full_date":"2025-11-12T02:06:31.654Z","date":"2025-11-12","time":"02:06:31"},{"correct_response":"l","task":"test_phase","broad_category":"I","image_png":"I_Diorite_01.png","image_id":33,"category_name":"Diorite","category":3,"distinct_rating":2.97,"distinct_type":"Bottom","item_type":"Target","rt":767,"stimulus":"Stimuli_Rocks480/I_Diorite_01.png","response":"l","trial_type":"image-keyboard-response","trial_index":157,"plugin_version":"2.1.0","time_elapsed":431783,"subject_id":"90163","group":"Group2","full_date":"2025-11-12T02:06:31.654Z","date":"2025-11-12","time":"02:06:31","cor_ans":true},{"trial_type":"html-keyboard-response","rt":null,"stimulus":"<p style=\"color: green; font-size: 50px; font-weight: bold;\">Correct</p>","response":null,"trial_index":158,"plugin_version":"2.1.0","time_elapsed":432292,"subject_id":"90163","group":"Group2","full_date":"2025-11-12T02:06:31.654Z","date":"2025-11-12","time":"02:06:31"},{"correct_response":"a","task":"test_phase","broad_category":"I","image_png":"I_Andesite_08.png","image_id":8,"category_name":"Andesite","category":1,"distinct_rating":1.95,"distinct_type":"Bottom","item_type":"Foil","rt":1340,"stimulus":"Stimuli_Rocks480/I_Andesite_08.png","response":"l","trial_type":"image-keyboard-response","trial_index":159,"plugin_version":"2.1.0","time_elapsed":433635,"subject_id":"90163","group":"Group2","full_date":"2025-11-12T02:06:31.654Z","date":"2025-11-12","time":"02:06:31","cor_ans":false},{"trial_type":"html-keyboard-response","rt":null,"stimulus":"<p style=\"color: red; font-size: 50px; font-weight: bold;\">Incorrect</p>","response":null,"trial_index":160,"plugin_version":"2.1.0","time_elapsed":434140,"subject_id":"90163","group":"Group2","full_date":"2025-11-12T02:06:31.654Z","date":"2025-11-12","time":"02:06:31"},{"correct_response":"l","task":"test_phase","broad_category":"S","image_png":"S_Sandstone_08.png","image_id":456,"category_name":"Sandstone","category":29,"distinct_rating":1.5,"distinct_type":"Bottom","item_type":"Target","rt":1678,"stimulus":"Stimuli_Rocks480/S_Sandstone_08.png","response":"l","trial_type":"image-keyboard-response","trial_index":161,"plugin_version":"2.1.0","time_elapsed":435821,"subject_id":"90163","group":"Group2","full_date":"2025-11-12T02:06:31.654Z","date":"2025-11-12","time":"02:06:31","cor_ans":true},{"trial_type":"html-keyboard-response","rt":null,"stimulus":"<p style=\"color: green; font-size: 50px; font-weight: bold;\">Correct</p>","response":null,"trial_index":162,"plugin_version":"2.1.0","time_elapsed":436331,"subject_id":"90163","group":"Group2","full_date":"2025-11-12T02:06:31.654Z","date":"2025-11-12","time":"02:06:31"},{"correct_response":"a","task":"test_phase","broad_category":"I","image_png":"I_Rhyolite_11.png","image_id":155,"category_name":"Rhyolite","category":10,"distinct_rating":1.73,"distinct_type":"Bottom","item_type":"Foil","rt":1131,"stimulus":"Stimuli_Rocks480/I_Rhyolite_11.png","response":"l","trial_type":"image-keyboard-response","trial_index":163,"plugin_version":"2.1.0","time_elapsed":437465,"subject_id":"90163","group":"Group2","full_date":"2025-11-12T02:06:31.654Z","date":"2025-11-12","time":"02:06:31","cor_ans":false},{"trial_type":"html-keyboard-response","rt":null,"stimulus":"<p style=\"color: red; font-size: 50px; font-weight: bold;\">Incorrect</p>","response":null,"trial_index":164,"plugin_version":"2.1.0","time_elapsed":437980,"subject_id":"90163","group":"Group2","full_date":"2025-11-12T02:06:31.654Z","date":"2025-11-12","time":"02:06:31"},{"correct_response":"l","task":"test_phase","broad_category":"I","image_png":"I_Basalt_13.png","image_id":29,"category_name":"Basalt","category":2,"distinct_rating":2.68,"distinct_type":"Bottom","item_type":"Target","rt":1210,"stimulus":"Stimuli_Rocks480/I_Basalt_13.png","response":"a","trial_type":"image-keyboard-response","trial_index":165,"plugin_version":"2.1.0","time_elapsed":439193,"subject_id":"90163","group":"Group2","full_date":"2025-11-12T02:06:31.654Z","date":"2025-11-12","time":"02:06:31","cor_ans":false},{"trial_type":"html-keyboard-response","rt":null,"stimulus":"<p style=\"color: red; font-size: 50px; font-weight: bold;\">Incorrect</p>","response":null,"trial_index":166,"plugin_version":"2.1.0","time_elapsed":439699,"subject_id":"90163","group":"Group2","full_date":"2025-11-12T02:06:31.654Z","date":"2025-11-12","time":"02:06:31"},{"correct_response":"l","task":"test_phase","broad_category":"S","image_png":"S_Shale_07.png","image_id":471,"category_name":"Shale","category":30,"distinct_rating":2.73,"distinct_type":"Bottom","item_type":"Target","rt":3240,"stimulus":"Stimuli_Rocks480/S_Shale_07.png","response":"a","trial_type":"image-keyboard-response","trial_index":167,"plugin_version":"2.1.0","time_elapsed":442943,"subject_id":"90163","group":"Group2","full_date":"2025-11-12T02:06:31.654Z","date":"2025-11-12","time":"02:06:31","cor_ans":false},{"trial_type":"html-keyboard-response","rt":null,"stimulus":"<p style=\"color: red; font-size: 50px; font-weight: bold;\">Incorrect</p>","response":null,"trial_index":168,"plugin_version":"2.1.0","time_elapsed":443457,"subject_id":"90163","group":"Group2","full_date":"2025-11-12T02:06:31.654Z","date":"2025-11-12","time":"02:06:31"},{"correct_response":"a","task":"test_phase","broad_category":"S","image_png":"S_Breccia_11.png","image_id":347,"category_name":"Breccia","category":22,"distinct_rating":6.7,"distinct_type":"Top","item_type":"Foil","rt":2010,"stimulus":"Stimuli_Rocks480/S_Breccia_11.png","response":"a","trial_type":"image-keyboard-response","trial_index":169,"plugin_version":"2.1.0","time_elapsed":445470,"subject_id":"90163","group":"Group2","full_date":"2025-11-12T02:06:31.654Z","date":"2025-11-12","time":"02:06:31","cor_ans":true},{"trial_type":"html-keyboard-response","rt":null,"stimulus":"<p style=\"color: green; font-size: 50px; font-weight: bold;\">Correct</p>","response":null,"trial_index":170,"plugin_version":"2.1.0","time_elapsed":445982,"subject_id":"90163","group":"Group2","full_date":"2025-11-12T02:06:31.654Z","date":"2025-11-12","time":"02:06:31"},{"correct_response":"a","task":"test_phase","broad_category":"S","image_png":"S_Dolomite_13.png","image_id":397,"category_name":"Dolomite","category":25,"distinct_rating":1.77,"distinct_type":"Bottom","item_type":"Foil","rt":1561,"stimulus":"Stimuli_Rocks480/S_Dolomite_13.png","response":"l","trial_type":"image-keyboard-response","trial_index":171,"plugin_version":"2.1.0","time_elapsed":447546,"subject_id":"90163","group":"Group2","full_date":"2025-11-12T02:06:31.654Z","date":"2025-11-12","time":"02:06:31","cor_ans":false},{"trial_type":"html-keyboard-response","rt":null,"stimulus":"<p style=\"color: red; font-size: 50px; font-weight: bold;\">Incorrect</p>","response":null,"trial_index":172,"plugin_version":"2.1.0","time_elapsed":448057,"subject_id":"90163","group":"Group2","full_date":"2025-11-12T02:06:31.654Z","date":"2025-11-12","time":"02:06:31"},{"correct_response":"l","task":"test_phase","broad_category":"I","image_png":"I_Pumice_13.png","image_id":141,"category_name":"Pumice","category":9,"distinct_rating":3.12,"distinct_type":"Bottom","item_type":"Target","rt":1801,"stimulus":"Stimuli_Rocks480/I_Pumice_13.png","response":"l","trial_type":"image-keyboard-response","trial_index":173,"plugin_version":"2.1.0","time_elapsed":449861,"subject_id":"90163","group":"Group2","full_date":"2025-11-12T02:06:31.654Z","date":"2025-11-12","time":"02:06:31","cor_ans":true},{"trial_type":"html-keyboard-response","rt":null,"stimulus":"<p style=\"color: green; font-size: 50px; font-weight: bold;\">Correct</p>","response":null,"trial_index":174,"plugin_version":"2.1.0","time_elapsed":450372,"subject_id":"90163","group":"Group2","full_date":"2025-11-12T02:06:31.654Z","date":"2025-11-12","time":"02:06:31"},{"correct_response":"l","task":"test_phase","broad_category":"I","image_png":"I_Gabbro_14.png","image_id":62,"category_name":"Gabbro","category":4,"distinct_rating":2.95,"distinct_type":"Bottom","item_type":"Target","rt":1881,"stimulus":"Stimuli_Rocks480/I_Gabbro_14.png","response":"l","trial_type":"image-keyboard-response","trial_index":175,"plugin_version":"2.1.0","time_elapsed":452256,"subject_id":"90163","group":"Group2","full_date":"2025-11-12T02:06:31.654Z","date":"2025-11-12","time":"02:06:31","cor_ans":true},{"trial_type":"html-keyboard-response","rt":null,"stimulus":"<p style=\"color: green; font-size: 50px; font-weight: bold;\">Correct</p>","response":null,"trial_index":176,"plugin_version":"2.1.0","time_elapsed":452762,"subject_id":"90163","group":"Group2","full_date":"2025-11-12T02:06:31.654Z","date":"2025-11-12","time":"02:06:31"},{"correct_response":"a","task":"test_phase","broad_category":"I","image_png":"I_Pegmatite_16.png","image_id":112,"category_name":"Pegmatite","category":7,"distinct_rating":7.03,"distinct_type":"Top","item_type":"Foil","rt":1264,"stimulus":"Stimuli_Rocks480/I_Pegmatite_16.png","response":"a","trial_type":"image-keyboard-response","trial_index":177,"plugin_version":"2.1.0","time_elapsed":454029,"subject_id":"90163","group":"Group2","full_date":"2025-11-12T02:06:31.654Z","date":"2025-11-12","time":"02:06:31","cor_ans":true},{"trial_type":"html-keyboard-response","rt":null,"stimulus":"<p style=\"color: green; font-size: 50px; font-weight: bold;\">Correct</p>","response":null,"trial_index":178,"plugin_version":"2.1.0","time_elapsed":454533,"subject_id":"90163","group":"Group2","full_date":"2025-11-12T02:06:31.654Z","date":"2025-11-12","time":"02:06:31"},{"correct_response":"l","task":"test_phase","broad_category":"S","image_png":"S_Dolomite_01.png","image_id":385,"category_name":"Dolomite","category":25,"distinct_rating":1.43,"distinct_type":"Bottom","item_type":"Target","rt":1206,"stimulus":"Stimuli_Rocks480/S_Dolomite_01.png","response":"l","trial_type":"image-keyboard-response","trial_index":179,"plugin_version":"2.1.0","time_elapsed":455742,"subject_id":"90163","group":"Group2","full_date":"2025-11-12T02:06:31.654Z","date":"2025-11-12","time":"02:06:31","cor_ans":true},{"trial_type":"html-keyboard-response","rt":null,"stimulus":"<p style=\"color: green; font-size: 50px; font-weight: bold;\">Correct</p>","response":null,"trial_index":180,"plugin_version":"2.1.0","time_elapsed":456254,"subject_id":"90163","group":"Group2","full_date":"2025-11-12T02:06:31.654Z","date":"2025-11-12","time":"02:06:31"},{"correct_response":"a","task":"test_phase","broad_category":"I","image_png":"I_Pumice_12.png","image_id":140,"category_name":"Pumice","category":9,"distinct_rating":2.97,"distinct_type":"Bottom","item_type":"Foil","rt":948,"stimulus":"Stimuli_Rocks480/I_Pumice_12.png","response":"a","trial_type":"image-keyboard-response","trial_index":181,"plugin_version":"2.1.0","time_elapsed":457205,"subject_id":"90163","group":"Group2","full_date":"2025-11-12T02:06:31.654Z","date":"2025-11-12","time":"02:06:31","cor_ans":true},{"trial_type":"html-keyboard-response","rt":null,"stimulus":"<p style=\"color: green; font-size: 50px; font-weight: bold;\">Correct</p>","response":null,"trial_index":182,"plugin_version":"2.1.0","time_elapsed":457717,"subject_id":"90163","group":"Group2","full_date":"2025-11-12T02:06:31.654Z","date":"2025-11-12","time":"02:06:31"},{"correct_response":"l","task":"test_phase","broad_category":"M","image_png":"M_Marble_03.png","image_id":227,"category_name":"Marble","category":15,"distinct_rating":2.67,"distinct_type":"Bottom","item_type":"Target","rt":886,"stimulus":"Stimuli_Rocks480/M_Marble_03.png","response":"l","trial_type":"image-keyboard-response","trial_index":183,"plugin_version":"2.1.0","time_elapsed":458605,"subject_id":"90163","group":"Group2","full_date":"2025-11-12T02:06:31.654Z","date":"2025-11-12","time":"02:06:31","cor_ans":true},{"trial_type":"html-keyboard-response","rt":null,"stimulus":"<p style=\"color: green; font-size: 50px; font-weight: bold;\">Correct</p>","response":null,"trial_index":184,"plugin_version":"2.1.0","time_elapsed":459108,"subject_id":"90163","group":"Group2","full_date":"2025-11-12T02:06:31.654Z","date":"2025-11-12","time":"02:06:31"},{"correct_response":"a","task":"test_phase","broad_category":"I","image_png":"I_Andesite_06.png","image_id":6,"category_name":"Andesite","category":1,"distinct_rating":3.17,"distinct_type":"Bottom","item_type":"Foil","rt":1492,"stimulus":"Stimuli_Rocks480/I_Andesite_06.png","response":"a","trial_type":"image-keyboard-response","trial_index":185,"plugin_version":"2.1.0","time_elapsed":460603,"subject_id":"90163","group":"Group2","full_date":"2025-11-12T02:06:31.654Z","date":"2025-11-12","time":"02:06:31","cor_ans":true},{"trial_type":"html-keyboard-response","rt":null,"stimulus":"<p style=\"color: green; font-size: 50px; font-weight: bold;\">Correct</p>","response":null,"trial_index":186,"plugin_version":"2.1.0","time_elapsed":461109,"subject_id":"90163","group":"Group2","full_date":"2025-11-12T02:06:31.654Z","date":"2025-11-12","time":"02:06:31"},{"correct_response":"a","task":"test_phase","broad_category":"M","image_png":"M_Quartzite_08.png","image_id":280,"category_name":"Quartzite","category":18,"distinct_rating":2.15,"distinct_type":"Bottom","item_type":"Foil","rt":2319,"stimulus":"Stimuli_Rocks480/M_Quartzite_08.png","response":"l","trial_type":"image-keyboard-response","trial_index":187,"plugin_version":"2.1.0","time_elapsed":463431,"subject_id":"90163","group":"Group2","full_date":"2025-11-12T02:06:31.654Z","date":"2025-11-12","time":"02:06:31","cor_ans":false},{"trial_type":"html-keyboard-response","rt":null,"stimulus":"<p style=\"color: red; font-size: 50px; font-weight: bold;\">Incorrect</p>","response":null,"trial_index":188,"plugin_version":"2.1.0","time_elapsed":463942,"subject_id":"90163","group":"Group2","full_date":"2025-11-12T02:06:31.654Z","date":"2025-11-12","time":"02:06:31"},{"correct_response":"a","task":"test_phase","broad_category":"S","image_png":"S_Dolomite_12.png","image_id":396,"category_name":"Dolomite","category":25,"distinct_rating":1.85,"distinct_type":"Bottom","item_type":"Foil","rt":3275,"stimulus":"Stimuli_Rocks480/S_Dolomite_12.png","response":"l","trial_type":"image-keyboard-response","trial_index":189,"plugin_version":"2.1.0","time_elapsed":467220,"subject_id":"90163","group":"Group2","full_date":"2025-11-12T02:06:31.654Z","date":"2025-11-12","time":"02:06:31","cor_ans":false},{"trial_type":"html-keyboard-response","rt":null,"stimulus":"<p style=\"color: red; font-size: 50px; font-weight: bold;\">Incorrect</p>","response":null,"trial_index":190,"plugin_version":"2.1.0","time_elapsed":467733,"subject_id":"90163","group":"Group2","full_date":"2025-11-12T02:06:31.654Z","date":"2025-11-12","time":"02:06:31"},{"correct_response":"a","task":"test_phase","broad_category":"S","image_png":"S_Sandstone_16.png","image_id":464,"category_name":"Sandstone","category":29,"distinct_rating":1.93,"distinct_type":"Bottom","item_type":"Foil","rt":1014,"stimulus":"Stimuli_Rocks480/S_Sandstone_16.png","response":"a","trial_type":"image-keyboard-response","trial_index":191,"plugin_version":"2.1.0","time_elapsed":468749,"subject_id":"90163","group":"Group2","full_date":"2025-11-12T02:06:31.654Z","date":"2025-11-12","time":"02:06:31","cor_ans":true},{"trial_type":"html-keyboard-response","rt":null,"stimulus":"<p style=\"color: green; font-size: 50px; font-weight: bold;\">Correct</p>","response":null,"trial_index":192,"plugin_version":"2.1.0","time_elapsed":469264,"subject_id":"90163","group":"Group2","full_date":"2025-11-12T02:06:31.654Z","date":"2025-11-12","time":"02:06:31"},{"correct_response":"l","task":"test_phase","broad_category":"S","image_png":"S_Dolomite_07.png","image_id":391,"category_name":"Dolomite","category":25,"distinct_rating":1.73,"distinct_type":"Bottom","item_type":"Target","rt":1275,"stimulus":"Stimuli_Rocks480/S_Dolomite_07.png","response":"l","trial_type":"image-keyboard-response","trial_index":193,"plugin_version":"2.1.0","time_elapsed":470543,"subject_id":"90163","group":"Group2","full_date":"2025-11-12T02:06:31.654Z","date":"2025-11-12","time":"02:06:31","cor_ans":true},{"trial_type":"html-keyboard-response","rt":null,"stimulus":"<p style=\"color: green; font-size: 50px; font-weight: bold;\">Correct</p>","response":null,"trial_index":194,"plugin_version":"2.1.0","time_elapsed":471059,"subject_id":"90163","group":"Group2","full_date":"2025-11-12T02:06:31.654Z","date":"2025-11-12","time":"02:06:31"},{"correct_response":"a","task":"test_phase","broad_category":"M","image_png":"M_Marble_04.png","image_id":228,"category_name":"Marble","category":15,"distinct_rating":3.15,"distinct_type":"Bottom","item_type":"Foil","rt":1656,"stimulus":"Stimuli_Rocks480/M_Marble_04.png","response":"a","trial_type":"image-keyboard-response","trial_index":195,"plugin_version":"2.1.0","time_elapsed":472718,"subject_id":"90163","group":"Group2","full_date":"2025-11-12T02:06:31.654Z","date":"2025-11-12","time":"02:06:31","cor_ans":true},{"trial_type":"html-keyboard-response","rt":null,"stimulus":"<p style=\"color: green; font-size: 50px; font-weight: bold;\">Correct</p>","response":null,"trial_index":196,"plugin_version":"2.1.0","time_elapsed":473224,"subject_id":"90163","group":"Group2","full_date":"2025-11-12T02:06:31.654Z","date":"2025-11-12","time":"02:06:31"},{"correct_response":"a","task":"test_phase","broad_category":"S","image_png":"S_Dolomite_14.png","image_id":398,"category_name":"Dolomite","category":25,"distinct_rating":1.43,"distinct_type":"Bottom","item_type":"Foil","rt":1957,"stimulus":"Stimuli_Rocks480/S_Dolomite_14.png","response":"a","trial_type":"image-keyboard-response","trial_index":197,"plugin_version":"2.1.0","time_elapsed":475185,"subject_id":"90163","group":"Group2","full_date":"2025-11-12T02:06:31.654Z","date":"2025-11-12","time":"02:06:31","cor_ans":true},{"trial_type":"html-keyboard-response","rt":null,"stimulus":"<p style=\"color: green; font-size: 50px; font-weight: bold;\">Correct</p>","response":null,"trial_index":198,"plugin_version":"2.1.0","time_elapsed":475693,"subject_id":"90163","group":"Group2","full_date":"2025-11-12T02:06:31.654Z","date":"2025-11-12","time":"02:06:31"},{"correct_response":"l","task":"test_phase","broad_category":"I","image_png":"I_Rhyolite_08.png","image_id":152,"category_name":"Rhyolite","category":10,"distinct_rating":1.38,"distinct_type":"Bottom","item_type":"Target","rt":1587,"stimulus":"Stimuli_Rocks480/I_Rhyolite_08.png","response":"a","trial_type":"image-keyboard-response","trial_index":199,"plugin_version":"2.1.0","time_elapsed":477283,"subject_id":"90163","group":"Group2","full_date":"2025-11-12T02:06:31.654Z","date":"2025-11-12","time":"02:06:31","cor_ans":false},{"trial_type":"html-keyboard-response","rt":null,"stimulus":"<p style=\"color: red; font-size: 50px; font-weight: bold;\">Incorrect</p>","response":null,"trial_index":200,"plugin_version":"2.1.0","time_elapsed":477796,"subject_id":"90163","group":"Group2","full_date":"2025-11-12T02:06:31.654Z","date":"2025-11-12","time":"02:06:31"},{"correct_response":"l","task":"test_phase","broad_category":"S","image_png":"S_Rock Salt_13.png","image_id":445,"category_name":"Rock Salt","category":28,"distinct_rating":7.58,"distinct_type":"Top","item_type":"Target","rt":1799,"stimulus":"Stimuli_Rocks480/S_Rock Salt_13.png","response":"a","trial_type":"image-keyboard-response","trial_index":201,"plugin_version":"2.1.0","time_elapsed":479597,"subject_id":"90163","group":"Group2","full_date":"2025-11-12T02:06:31.654Z","date":"2025-11-12","time":"02:06:31","cor_ans":false},{"trial_type":"html-keyboard-response","rt":null,"stimulus":"<p style=\"color: red; font-size: 50px; font-weight: bold;\">Incorrect</p>","response":null,"trial_index":202,"plugin_version":"2.1.0","time_elapsed":480102,"subject_id":"90163","group":"Group2","full_date":"2025-11-12T02:06:31.654Z","date":"2025-11-12","time":"02:06:31"},{"correct_response":"a","task":"test_phase","broad_category":"M","image_png":"M_Quartzite_13.png","image_id":285,"category_name":"Quartzite","category":18,"distinct_rating":2.27,"distinct_type":"Bottom","item_type":"Foil","rt":4969,"stimulus":"Stimuli_Rocks480/M_Quartzite_13.png","response":"a","trial_type":"image-keyboard-response","trial_index":203,"plugin_version":"2.1.0","time_elapsed":485073,"subject_id":"90163","group":"Group2","full_date":"2025-11-12T02:06:31.654Z","date":"2025-11-12","time":"02:06:31","cor_ans":true},{"trial_type":"html-keyboard-response","rt":null,"stimulus":"<p style=\"color: green; font-size: 50px; font-weight: bold;\">Correct</p>","response":null,"trial_index":204,"plugin_version":"2.1.0","time_elapsed":485587,"subject_id":"90163","group":"Group2","full_date":"2025-11-12T02:06:31.654Z","date":"2025-11-12","time":"02:06:31"},{"correct_response":"l","task":"test_phase","broad_category":"I","image_png":"I_Pumice_14.png","image_id":142,"category_name":"Pumice","category":9,"distinct_rating":3.22,"distinct_type":"Bottom","item_type":"Target","rt":1458,"stimulus":"Stimuli_Rocks480/I_Pumice_14.png","response":"l","trial_type":"image-keyboard-response","trial_index":205,"plugin_version":"2.1.0","time_elapsed":487048,"subject_id":"90163","group":"Group2","full_date":"2025-11-12T02:06:31.654Z","date":"2025-11-12","time":"02:06:31","cor_ans":true},{"trial_type":"html-keyboard-response","rt":null,"stimulus":"<p style=\"color: green; font-size: 50px; font-weight: bold;\">Correct</p>","response":null,"trial_index":206,"plugin_version":"2.1.0","time_elapsed":487560,"subject_id":"90163","group":"Group2","full_date":"2025-11-12T02:06:31.654Z","date":"2025-11-12","time":"02:06:31"},{"correct_response":"a","task":"test_phase","broad_category":"I","image_png":"I_Andesite_10.png","image_id":10,"category_name":"Andesite","category":1,"distinct_rating":3.15,"distinct_type":"Bottom","item_type":"Foil","rt":2057,"stimulus":"Stimuli_Rocks480/I_Andesite_10.png","response":"a","trial_type":"image-keyboard-response","trial_index":207,"plugin_version":"2.1.0","time_elapsed":489621,"subject_id":"90163","group":"Group2","full_date":"2025-11-12T02:06:31.654Z","date":"2025-11-12","time":"02:06:31","cor_ans":true},{"trial_type":"html-keyboard-response","rt":null,"stimulus":"<p style=\"color: green; font-size: 50px; font-weight: bold;\">Correct</p>","response":null,"trial_index":208,"plugin_version":"2.1.0","time_elapsed":490127,"subject_id":"90163","group":"Group2","full_date":"2025-11-12T02:06:31.654Z","date":"2025-11-12","time":"02:06:31"},{"correct_response":"a","task":"test_phase","broad_category":"I","image_png":"I_Pegmatite_10.png","image_id":106,"category_name":"Pegmatite","category":7,"distinct_rating":7.66,"distinct_type":"Top","item_type":"Foil","rt":1971,"stimulus":"Stimuli_Rocks480/I_Pegmatite_10.png","response":"a","trial_type":"image-keyboard-response","trial_index":209,"plugin_version":"2.1.0","time_elapsed":492101,"subject_id":"90163","group":"Group2","full_date":"2025-11-12T02:06:31.654Z","date":"2025-11-12","time":"02:06:31","cor_ans":true},{"trial_type":"html-keyboard-response","rt":null,"stimulus":"<p style=\"color: green; font-size: 50px; font-weight: bold;\">Correct</p>","response":null,"trial_index":210,"plugin_version":"2.1.0","time_elapsed":492604,"subject_id":"90163","group":"Group2","full_date":"2025-11-12T02:06:31.654Z","date":"2025-11-12","time":"02:06:31"},{"correct_response":"l","task":"test_phase","broad_category":"M","image_png":"M_Phyllite_05.png","image_id":261,"category_name":"Phyllite","category":17,"distinct_rating":2.14,"distinct_type":"Bottom","item_type":"Target","rt":2507,"stimulus":"Stimuli_Rocks480/M_Phyllite_05.png","response":"a","trial_type":"image-keyboard-response","trial_index":211,"plugin_version":"2.1.0","time_elapsed":495115,"subject_id":"90163","group":"Group2","full_date":"2025-11-12T02:06:31.654Z","date":"2025-11-12","time":"02:06:31","cor_ans":false},{"trial_type":"html-keyboard-response","rt":null,"stimulus":"<p style=\"color: red; font-size: 50px; font-weight: bold;\">Incorrect</p>","response":null,"trial_index":212,"plugin_version":"2.1.0","time_elapsed":495628,"subject_id":"90163","group":"Group2","full_date":"2025-11-12T02:06:31.654Z","date":"2025-11-12","time":"02:06:31"},{"correct_response":"l","task":"test_phase","broad_category":"I","image_png":"I_Basalt_08.png","image_id":24,"category_name":"Basalt","category":2,"distinct_rating":2.31,"distinct_type":"Bottom","item_type":"Target","rt":2861,"stimulus":"Stimuli_Rocks480/I_Basalt_08.png","response":"a","trial_type":"image-keyboard-response","trial_index":213,"plugin_version":"2.1.0","time_elapsed":498492,"subject_id":"90163","group":"Group2","full_date":"2025-11-12T02:06:31.654Z","date":"2025-11-12","time":"02:06:31","cor_ans":false},{"trial_type":"html-keyboard-response","rt":null,"stimulus":"<p style=\"color: red; font-size: 50px; font-weight: bold;\">Incorrect</p>","response":null,"trial_index":214,"plugin_version":"2.1.0","time_elapsed":499002,"subject_id":"90163","group":"Group2","full_date":"2025-11-12T02:06:31.654Z","date":"2025-11-12","time":"02:06:31"},{"correct_response":"l","task":"test_phase","broad_category":"M","image_png":"M_Marble_02.png","image_id":226,"category_name":"Marble","category":15,"distinct_rating":3.2,"distinct_type":"Bottom","item_type":"Target","rt":950,"stimulus":"Stimuli_Rocks480/M_Marble_02.png","response":"l","trial_type":"image-keyboard-response","trial_index":215,"plugin_version":"2.1.0","time_elapsed":499954,"subject_id":"90163","group":"Group2","full_date":"2025-11-12T02:06:31.654Z","date":"2025-11-12","time":"02:06:31","cor_ans":true},{"trial_type":"html-keyboard-response","rt":null,"stimulus":"<p style=\"color: green; font-size: 50px; font-weight: bold;\">Correct</p>","response":null,"trial_index":216,"plugin_version":"2.1.0","time_elapsed":500470,"subject_id":"90163","group":"Group2","full_date":"2025-11-12T02:06:31.654Z","date":"2025-11-12","time":"02:06:31"},{"correct_response":"l","task":"test_phase","broad_category":"I","image_png":"I_Rhyolite_05.png","image_id":149,"category_name":"Rhyolite","category":10,"distinct_rating":3.02,"distinct_type":"Bottom","item_type":"Target","rt":1192,"stimulus":"Stimuli_Rocks480/I_Rhyolite_05.png","response":"a","trial_type":"image-keyboard-response","trial_index":217,"plugin_version":"2.1.0","time_elapsed":501665,"subject_id":"90163","group":"Group2","full_date":"2025-11-12T02:06:31.654Z","date":"2025-11-12","time":"02:06:31","cor_ans":false},{"trial_type":"html-keyboard-response","rt":null,"stimulus":"<p style=\"color: red; font-size: 50px; font-weight: bold;\">Incorrect</p>","response":null,"trial_index":218,"plugin_version":"2.1.0","time_elapsed":502171,"subject_id":"90163","group":"Group2","full_date":"2025-11-12T02:06:31.654Z","date":"2025-11-12","time":"02:06:31"},{"correct_response":"l","task":"test_phase","broad_category":"M","image_png":"M_Slate_10.png","image_id":314,"category_name":"Slate","category":20,"distinct_rating":1.94,"distinct_type":"Bottom","item_type":"Target","rt":1160,"stimulus":"Stimuli_Rocks480/M_Slate_10.png","response":"l","trial_type":"image-keyboard-response","trial_index":219,"plugin_version":"2.1.0","time_elapsed":503347,"subject_id":"90163","group":"Group2","full_date":"2025-11-12T02:06:31.654Z","date":"2025-11-12","time":"02:06:31","cor_ans":true},{"trial_type":"html-keyboard-response","rt":null,"stimulus":"<p style=\"color: green; font-size: 50px; font-weight: bold;\">Correct</p>","response":null,"trial_index":220,"plugin_version":"2.1.0","time_elapsed":503860,"subject_id":"90163","group":"Group2","full_date":"2025-11-12T02:06:31.654Z","date":"2025-11-12","time":"02:06:31"},{"correct_response":"a","task":"test_phase","broad_category":"I","image_png":"I_Diorite_05.png","image_id":37,"category_name":"Diorite","category":3,"distinct_rating":3.08,"distinct_type":"Bottom","item_type":"Foil","rt":1773,"stimulus":"Stimuli_Rocks480/I_Diorite_05.png","response":"l","trial_type":"image-keyboard-response","trial_index":221,"plugin_version":"2.1.0","time_elapsed":505636,"subject_id":"90163","group":"Group2","full_date":"2025-11-12T02:06:31.654Z","date":"2025-11-12","time":"02:06:31","cor_ans":false},{"trial_type":"html-keyboard-response","rt":null,"stimulus":"<p style=\"color: red; font-size: 50px; font-weight: bold;\">Incorrect</p>","response":null,"trial_index":222,"plugin_version":"2.1.0","time_elapsed":506145,"subject_id":"90163","group":"Group2","full_date":"2025-11-12T02:06:31.654Z","date":"2025-11-12","time":"02:06:31"},{"correct_response":"l","task":"test_phase","broad_category":"I","image_png":"I_Diorite_10.png","image_id":42,"category_name":"Diorite","category":3,"distinct_rating":2.84,"distinct_type":"Bottom","item_type":"Target","rt":1959,"stimulus":"Stimuli_Rocks480/I_Diorite_10.png","response":"l","trial_type":"image-keyboard-response","trial_index":223,"plugin_version":"2.1.0","time_elapsed":508106,"subject_id":"90163","group":"Group2","full_date":"2025-11-12T02:06:31.654Z","date":"2025-11-12","time":"02:06:31","cor_ans":true},{"trial_type":"html-keyboard-response","rt":null,"stimulus":"<p style=\"color: green; font-size: 50px; font-weight: bold;\">Correct</p>","response":null,"trial_index":224,"plugin_version":"2.1.0","time_elapsed":508622,"subject_id":"90163","group":"Group2","full_date":"2025-11-12T02:06:31.654Z","date":"2025-11-12","time":"02:06:31"},{"correct_response":"a","task":"test_phase","broad_category":"I","image_png":"I_Basalt_01.png","image_id":17,"category_name":"Basalt","category":2,"distinct_rating":1.92,"distinct_type":"Bottom","item_type":"Foil","rt":881,"stimulus":"Stimuli_Rocks480/I_Basalt_01.png","response":"l","trial_type":"image-keyboard-response","trial_index":225,"plugin_version":"2.1.0","time_elapsed":509506,"subject_id":"90163","group":"Group2","full_date":"2025-11-12T02:06:31.654Z","date":"2025-11-12","time":"02:06:31","cor_ans":false},{"trial_type":"html-keyboard-response","rt":null,"stimulus":"<p style=\"color: red; font-size: 50px; font-weight: bold;\">Incorrect</p>","response":null,"trial_index":226,"plugin_version":"2.1.0","time_elapsed":510016,"subject_id":"90163","group":"Group2","full_date":"2025-11-12T02:06:31.654Z","date":"2025-11-12","time":"02:06:31"},{"correct_response":"l","task":"test_phase","broad_category":"M","image_png":"M_Slate_14.png","image_id":318,"category_name":"Slate","category":20,"distinct_rating":2.58,"distinct_type":"Bottom","item_type":"Target","rt":1510,"stimulus":"Stimuli_Rocks480/M_Slate_14.png","response":"a","trial_type":"image-keyboard-response","trial_index":227,"plugin_version":"2.1.0","time_elapsed":511529,"subject_id":"90163","group":"Group2","full_date":"2025-11-12T02:06:31.654Z","date":"2025-11-12","time":"02:06:31","cor_ans":false},{"trial_type":"html-keyboard-response","rt":null,"stimulus":"<p style=\"color: red; font-size: 50px; font-weight: bold;\">Incorrect</p>","response":null,"trial_index":228,"plugin_version":"2.1.0","time_elapsed":512037,"subject_id":"90163","group":"Group2","full_date":"2025-11-12T02:06:31.654Z","date":"2025-11-12","time":"02:06:31"},{"correct_response":"l","task":"test_phase","broad_category":"M","image_png":"M_Quartzite_12.png","image_id":284,"category_name":"Quartzite","category":18,"distinct_rating":1.92,"distinct_type":"Bottom","item_type":"Target","rt":2053,"stimulus":"Stimuli_Rocks480/M_Quartzite_12.png","response":"a","trial_type":"image-keyboard-response","trial_index":229,"plugin_version":"2.1.0","time_elapsed":514094,"subject_id":"90163","group":"Group2","full_date":"2025-11-12T02:06:31.654Z","date":"2025-11-12","time":"02:06:31","cor_ans":false},{"trial_type":"html-keyboard-response","rt":null,"stimulus":"<p style=\"color: red; font-size: 50px; font-weight: bold;\">Incorrect</p>","response":null,"trial_index":230,"plugin_version":"2.1.0","time_elapsed":514604,"subject_id":"90163","group":"Group2","full_date":"2025-11-12T02:06:31.654Z","date":"2025-11-12","time":"02:06:31"},{"correct_response":"l","task":"test_phase","broad_category":"I","image_png":"I_Basalt_10.png","image_id":26,"category_name":"Basalt","category":2,"distinct_rating":2.76,"distinct_type":"Bottom","item_type":"Target","rt":3330,"stimulus":"Stimuli_Rocks480/I_Basalt_10.png","response":"a","trial_type":"image-keyboard-response","trial_index":231,"plugin_version":"2.1.0","time_elapsed":517937,"subject_id":"90163","group":"Group2","full_date":"2025-11-12T02:06:31.654Z","date":"2025-11-12","time":"02:06:31","cor_ans":false},{"trial_type":"html-keyboard-response","rt":null,"stimulus":"<p style=\"color: red; font-size: 50px; font-weight: bold;\">Incorrect</p>","response":null,"trial_index":232,"plugin_version":"2.1.0","time_elapsed":518454,"subject_id":"90163","group":"Group2","full_date":"2025-11-12T02:06:31.654Z","date":"2025-11-12","time":"02:06:31"},{"correct_response":"l","task":"test_phase","broad_category":"S","image_png":"S_Shale_03.png","image_id":467,"category_name":"Shale","category":30,"distinct_rating":1.95,"distinct_type":"Bottom","item_type":"Target","rt":1025,"stimulus":"Stimuli_Rocks480/S_Shale_03.png","response":"l","trial_type":"image-keyboard-response","trial_index":233,"plugin_version":"2.1.0","time_elapsed":519483,"subject_id":"90163","group":"Group2","full_date":"2025-11-12T02:06:31.654Z","date":"2025-11-12","time":"02:06:31","cor_ans":true},{"trial_type":"html-keyboard-response","rt":null,"stimulus":"<p style=\"color: green; font-size: 50px; font-weight: bold;\">Correct</p>","response":null,"trial_index":234,"plugin_version":"2.1.0","time_elapsed":519994,"subject_id":"90163","group":"Group2","full_date":"2025-11-12T02:06:31.654Z","date":"2025-11-12","time":"02:06:31"},{"correct_response":"a","task":"test_phase","broad_category":"M","image_png":"M_Marble_16.png","image_id":240,"category_name":"Marble","category":15,"distinct_rating":2.57,"distinct_type":"Bottom","item_type":"Foil","rt":8639,"stimulus":"Stimuli_Rocks480/M_Marble_16.png","response":"l","trial_type":"image-keyboard-response","trial_index":235,"plugin_version":"2.1.0","time_elapsed":528636,"subject_id":"90163","group":"Group2","full_date":"2025-11-12T02:06:31.65