[{"width":1528,"height":834,"webaudio":true,"browser":"edge-chromium","browser_version":"142.0.0","mobile":false,"os":"Windows 10","fullscreen":true,"vsync_rate":60.17,"webcam":true,"microphone":true,"trial_type":"browser-check","trial_index":0,"plugin_version":"2.1.0","time_elapsed":1004,"subject_id":"88774","group":"Group2","full_date":"2025-11-11T16:25:18.588Z","date":"2025-11-11","time":"16:25:18"},{"success":true,"timeout":false,"failed_images":[],"failed_audio":[],"failed_video":[],"trial_type":"preload","trial_index":1,"plugin_version":"2.1.0","time_elapsed":3206,"subject_id":"88774","group":"Group2","full_date":"2025-11-11T16:25:18.588Z","date":"2025-11-11","time":"16:25:18"},{"rt":5861,"url":"SONA_consent_memorability.html","trial_type":"external-html","trial_index":2,"plugin_version":"2.1.0","time_elapsed":9122,"subject_id":"88774","group":"Group2","full_date":"2025-11-11T16:25:18.588Z","date":"2025-11-11","time":"16:25:18"},{"success":true,"rt":1607,"trial_type":"fullscreen","trial_index":3,"plugin_version":"2.1.0","time_elapsed":11737,"subject_id":"88774","group":"Group2","full_date":"2025-11-11T16:25:18.588Z","date":"2025-11-11","time":"16:25:18"},{"rt":2133,"stimulus":"<div style=\"max-width: 760px; margin: auto; font-size: 20px; line-height: 1.5;\">\n      <h1 style=\"text-align:center; font-size: 30px;\">Instructions</h1>\n      <p>\n        Welcome to the study on <b>visual memory</b>. This experiment consists of <b>two phases</b>: \n        a <b>study phase</b> and a <b>test phase</b>.\n      </p>\n      <p>\n        In the study phase, you will see a series of rock images along with their category labels.\n        The images will appear one at a time.\n        <b>Your task</b> is to learn the categories to which the rock images belong \n        and to remember each image as accurately as possible.\n      </p> \n      <p>\n        After the study phase, <b>your memory will be tested</b>. \n        Additional instructions for the test phase will be provided at that time.\n      </p>\n      <p>\n        If your computer has multiple <b>language settings</b> (e.g., English and another language),\n        please make sure it is set to English before starting.\n      </p>\n      <p>\n        You can track your progress using the <b>completion bar</b> at the top of the screen. \n        Please note that the bar will refresh when the test phase begins \n        to give you an accurate sense of your progress in both phases.\n      </p> \n      <p>\n        Press the button below when you are ready to begin.\n      </p>\n    </div>","response":0,"trial_type":"html-button-response","trial_index":4,"plugin_version":"2.1.0","time_elapsed":13872,"subject_id":"88774","group":"Group2","full_date":"2025-11-11T16:25:18.588Z","date":"2025-11-11","time":"16:25:18"},{"rt":null,"stimulus":"<p style=\"font-size: 50px; margin: 0; text-align: center;\">+</p>","response":null,"trial_type":"html-keyboard-response","trial_index":5,"plugin_version":"2.1.0","time_elapsed":14885,"subject_id":"88774","group":"Group2","full_date":"2025-11-11T16:25:18.588Z","date":"2025-11-11","time":"16:25:18"},{"task":"memory_phase","broad_category":"S","image_png":"S_Chert_13.png","image_id":365,"category_name":"Chert","category":23,"distinct_rating":6.57,"distinct_type":"Top","rt":null,"stimulus":"Stimuli_Rocks480/S_Chert_13.png","response":null,"trial_type":"image-keyboard-response","trial_index":6,"plugin_version":"2.1.0","time_elapsed":17401,"subject_id":"88774","group":"Group2","full_date":"2025-11-11T16:25:18.588Z","date":"2025-11-11","time":"16:25:18"},{"rt":null,"stimulus":"<p style=\"font-size: 50px; margin: 0; text-align: center;\">+</p>","response":null,"trial_type":"html-keyboard-response","trial_index":7,"plugin_version":"2.1.0","time_elapsed":18404,"subject_id":"88774","group":"Group2","full_date":"2025-11-11T16:25:18.588Z","date":"2025-11-11","time":"16:25:18"},{"task":"memory_phase","broad_category":"M","image_png":"M_Slate_04.png","image_id":308,"category_name":"Slate","category":20,"distinct_rating":2.2,"distinct_type":"Bottom","rt":null,"stimulus":"Stimuli_Rocks480/M_Slate_04.png","response":null,"trial_type":"image-keyboard-response","trial_index":8,"plugin_version":"2.1.0","time_elapsed":20908,"subject_id":"88774","group":"Group2","full_date":"2025-11-11T16:25:18.588Z","date":"2025-11-11","time":"16:25:18"},{"rt":null,"stimulus":"<p style=\"font-size: 50px; margin: 0; text-align: center;\">+</p>","response":null,"trial_type":"html-keyboard-response","trial_index":9,"plugin_version":"2.1.0","time_elapsed":21920,"subject_id":"88774","group":"Group2","full_date":"2025-11-11T16:25:18.588Z","date":"2025-11-11","time":"16:25:18"},{"task":"memory_phase","broad_category":"I","image_png":"I_Pumice_13.png","image_id":141,"category_name":"Pumice","category":9,"distinct_rating":3.12,"distinct_type":"Bottom","rt":null,"stimulus":"Stimuli_Rocks480/I_Pumice_13.png","response":null,"trial_type":"image-keyboard-response","trial_index":10,"plugin_version":"2.1.0","time_elapsed":24425,"subject_id":"88774","group":"Group2","full_date":"2025-11-11T16:25:18.588Z","date":"2025-11-11","time":"16:25:18"},{"rt":null,"stimulus":"<p style=\"font-size: 50px; margin: 0; text-align: center;\">+</p>","response":null,"trial_type":"html-keyboard-response","trial_index":11,"plugin_version":"2.1.0","time_elapsed":25437,"subject_id":"88774","group":"Group2","full_date":"2025-11-11T16:25:18.588Z","date":"2025-11-11","time":"16:25:18"},{"task":"memory_phase","broad_category":"M","image_png":"M_Gneiss_14.png","image_id":206,"category_name":"Gneiss","category":13,"distinct_rating":3.41,"distinct_type":"Bottom","rt":null,"stimulus":"Stimuli_Rocks480/M_Gneiss_14.png","response":null,"trial_type":"image-keyboard-response","trial_index":12,"plugin_version":"2.1.0","time_elapsed":27941,"subject_id":"88774","group":"Group2","full_date":"2025-11-11T16:25:18.588Z","date":"2025-11-11","time":"16:25:18"},{"rt":null,"stimulus":"<p style=\"font-size: 50px; margin: 0; text-align: center;\">+</p>","response":null,"trial_type":"html-keyboard-response","trial_index":13,"plugin_version":"2.1.0","time_elapsed":28952,"subject_id":"88774","group":"Group2","full_date":"2025-11-11T16:25:18.588Z","date":"2025-11-11","time":"16:25:18"},{"task":"memory_phase","broad_category":"S","image_png":"S_Shale_03.png","image_id":467,"category_name":"Shale","category":30,"distinct_rating":1.95,"distinct_type":"Bottom","rt":null,"stimulus":"Stimuli_Rocks480/S_Shale_03.png","response":null,"trial_type":"image-keyboard-response","trial_index":14,"plugin_version":"2.1.0","time_elapsed":31455,"subject_id":"88774","group":"Group2","full_date":"2025-11-11T16:25:18.588Z","date":"2025-11-11","time":"16:25:18"},{"rt":null,"stimulus":"<p style=\"font-size: 50px; margin: 0; text-align: center;\">+</p>","response":null,"trial_type":"html-keyboard-response","trial_index":15,"plugin_version":"2.1.0","time_elapsed":32465,"subject_id":"88774","group":"Group2","full_date":"2025-11-11T16:25:18.588Z","date":"2025-11-11","time":"16:25:18"},{"task":"memory_phase","broad_category":"I","image_png":"I_Pumice_14.png","image_id":142,"category_name":"Pumice","category":9,"distinct_rating":3.22,"distinct_type":"Bottom","rt":null,"stimulus":"Stimuli_Rocks480/I_Pumice_14.png","response":null,"trial_type":"image-keyboard-response","trial_index":16,"plugin_version":"2.1.0","time_elapsed":34971,"subject_id":"88774","group":"Group2","full_date":"2025-11-11T16:25:18.588Z","date":"2025-11-11","time":"16:25:18"},{"rt":null,"stimulus":"<p style=\"font-size: 50px; margin: 0; text-align: center;\">+</p>","response":null,"trial_type":"html-keyboard-response","trial_index":17,"plugin_version":"2.1.0","time_elapsed":35986,"subject_id":"88774","group":"Group2","full_date":"2025-11-11T16:25:18.588Z","date":"2025-11-11","time":"16:25:18"},{"task":"memory_phase","broad_category":"I","image_png":"I_Diorite_01.png","image_id":33,"category_name":"Diorite","category":3,"distinct_rating":2.97,"distinct_type":"Bottom","rt":null,"stimulus":"Stimuli_Rocks480/I_Diorite_01.png","response":null,"trial_type":"image-keyboard-response","trial_index":18,"plugin_version":"2.1.0","time_elapsed":38493,"subject_id":"88774","group":"Group2","full_date":"2025-11-11T16:25:18.588Z","date":"2025-11-11","time":"16:25:18"},{"rt":null,"stimulus":"<p style=\"font-size: 50px; margin: 0; text-align: center;\">+</p>","response":null,"trial_type":"html-keyboard-response","trial_index":19,"plugin_version":"2.1.0","time_elapsed":39499,"subject_id":"88774","group":"Group2","full_date":"2025-11-11T16:25:18.588Z","date":"2025-11-11","time":"16:25:18"},{"task":"memory_phase","broad_category":"M","image_png":"M_Marble_03.png","image_id":227,"category_name":"Marble","category":15,"distinct_rating":2.67,"distinct_type":"Bottom","rt":null,"stimulus":"Stimuli_Rocks480/M_Marble_03.png","response":null,"trial_type":"image-keyboard-response","trial_index":20,"plugin_version":"2.1.0","time_elapsed":42002,"subject_id":"88774","group":"Group2","full_date":"2025-11-11T16:25:18.588Z","date":"2025-11-11","time":"16:25:18"},{"rt":null,"stimulus":"<p style=\"font-size: 50px; margin: 0; text-align: center;\">+</p>","response":null,"trial_type":"html-keyboard-response","trial_index":21,"plugin_version":"2.1.0","time_elapsed":43016,"subject_id":"88774","group":"Group2","full_date":"2025-11-11T16:25:18.588Z","date":"2025-11-11","time":"16:25:18"},{"task":"memory_phase","broad_category":"S","image_png":"S_Dolomite_07.png","image_id":391,"category_name":"Dolomite","category":25,"distinct_rating":1.73,"distinct_type":"Bottom","rt":null,"stimulus":"Stimuli_Rocks480/S_Dolomite_07.png","response":null,"trial_type":"image-keyboard-response","trial_index":22,"plugin_version":"2.1.0","time_elapsed":45522,"subject_id":"88774","group":"Group2","full_date":"2025-11-11T16:25:18.588Z","date":"2025-11-11","time":"16:25:18"},{"rt":null,"stimulus":"<p style=\"font-size: 50px; margin: 0; text-align: center;\">+</p>","response":null,"trial_type":"html-keyboard-response","trial_index":23,"plugin_version":"2.1.0","time_elapsed":46535,"subject_id":"88774","group":"Group2","full_date":"2025-11-11T16:25:18.588Z","date":"2025-11-11","time":"16:25:18"},{"task":"memory_phase","broad_category":"M","image_png":"M_Slate_14.png","image_id":318,"category_name":"Slate","category":20,"distinct_rating":2.58,"distinct_type":"Bottom","rt":null,"stimulus":"Stimuli_Rocks480/M_Slate_14.png","response":null,"trial_type":"image-keyboard-response","trial_index":24,"plugin_version":"2.1.0","time_elapsed":49041,"subject_id":"88774","group":"Group2","full_date":"2025-11-11T16:25:18.588Z","date":"2025-11-11","time":"16:25:18"},{"rt":null,"stimulus":"<p style=\"font-size: 50px; margin: 0; text-align: center;\">+</p>","response":null,"trial_type":"html-keyboard-response","trial_index":25,"plugin_version":"2.1.0","time_elapsed":50052,"subject_id":"88774","group":"Group2","full_date":"2025-11-11T16:25:18.588Z","date":"2025-11-11","time":"16:25:18"},{"task":"memory_phase","broad_category":"I","image_png":"I_Gabbro_02.png","image_id":50,"category_name":"Gabbro","category":4,"distinct_rating":2.73,"distinct_type":"Bottom","rt":null,"stimulus":"Stimuli_Rocks480/I_Gabbro_02.png","response":null,"trial_type":"image-keyboard-response","trial_index":26,"plugin_version":"2.1.0","time_elapsed":52557,"subject_id":"88774","group":"Group2","full_date":"2025-11-11T16:25:18.588Z","date":"2025-11-11","time":"16:25:18"},{"rt":null,"stimulus":"<p style=\"font-size: 50px; margin: 0; text-align: center;\">+</p>","response":null,"trial_type":"html-keyboard-response","trial_index":27,"plugin_version":"2.1.0","time_elapsed":53569,"subject_id":"88774","group":"Group2","full_date":"2025-11-11T16:25:18.588Z","date":"2025-11-11","time":"16:25:18"},{"task":"memory_phase","broad_category":"M","image_png":"M_Quartzite_07.png","image_id":279,"category_name":"Quartzite","category":18,"distinct_rating":1.97,"distinct_type":"Bottom","rt":null,"stimulus":"Stimuli_Rocks480/M_Quartzite_07.png","response":null,"trial_type":"image-keyboard-response","trial_index":28,"plugin_version":"2.1.0","time_elapsed":56073,"subject_id":"88774","group":"Group2","full_date":"2025-11-11T16:25:18.588Z","date":"2025-11-11","time":"16:25:18"},{"rt":null,"stimulus":"<p style=\"font-size: 50px; margin: 0; text-align: center;\">+</p>","response":null,"trial_type":"html-keyboard-response","trial_index":29,"plugin_version":"2.1.0","time_elapsed":57082,"subject_id":"88774","group":"Group2","full_date":"2025-11-11T16:25:18.588Z","date":"2025-11-11","time":"16:25:18"},{"task":"memory_phase","broad_category":"M","image_png":"M_Quartzite_12.png","image_id":284,"category_name":"Quartzite","category":18,"distinct_rating":1.92,"distinct_type":"Bottom","rt":null,"stimulus":"Stimuli_Rocks480/M_Quartzite_12.png","response":null,"trial_type":"image-keyboard-response","trial_index":30,"plugin_version":"2.1.0","time_elapsed":59608,"subject_id":"88774","group":"Group2","full_date":"2025-11-11T16:25:18.588Z","date":"2025-11-11","time":"16:25:18"},{"rt":null,"stimulus":"<p style=\"font-size: 50px; margin: 0; text-align: center;\">+</p>","response":null,"trial_type":"html-keyboard-response","trial_index":31,"plugin_version":"2.1.0","time_elapsed":60617,"subject_id":"88774","group":"Group2","full_date":"2025-11-11T16:25:18.588Z","date":"2025-11-11","time":"16:25:18"},{"task":"memory_phase","broad_category":"S","image_png":"S_Rock Salt_15.png","image_id":447,"category_name":"Rock Salt","category":28,"distinct_rating":7.79,"distinct_type":"Top","rt":null,"stimulus":"Stimuli_Rocks480/S_Rock Salt_15.png","response":null,"trial_type":"image-keyboard-response","trial_index":32,"plugin_version":"2.1.0","time_elapsed":63123,"subject_id":"88774","group":"Group2","full_date":"2025-11-11T16:25:18.588Z","date":"2025-11-11","time":"16:25:18"},{"rt":null,"stimulus":"<p style=\"font-size: 50px; margin: 0; text-align: center;\">+</p>","response":null,"trial_type":"html-keyboard-response","trial_index":33,"plugin_version":"2.1.0","time_elapsed":64134,"subject_id":"88774","group":"Group2","full_date":"2025-11-11T16:25:18.588Z","date":"2025-11-11","time":"16:25:18"},{"task":"memory_phase","broad_category":"I","image_png":"I_Diorite_10.png","image_id":42,"category_name":"Diorite","category":3,"distinct_rating":2.84,"distinct_type":"Bottom","rt":null,"stimulus":"Stimuli_Rocks480/I_Diorite_10.png","response":null,"trial_type":"image-keyboard-response","trial_index":34,"plugin_version":"2.1.0","time_elapsed":66643,"subject_id":"88774","group":"Group2","full_date":"2025-11-11T16:25:18.588Z","date":"2025-11-11","time":"16:25:18"},{"rt":null,"stimulus":"<p style=\"font-size: 50px; margin: 0; text-align: center;\">+</p>","response":null,"trial_type":"html-keyboard-response","trial_index":35,"plugin_version":"2.1.0","time_elapsed":67649,"subject_id":"88774","group":"Group2","full_date":"2025-11-11T16:25:18.588Z","date":"2025-11-11","time":"16:25:18"},{"task":"memory_phase","broad_category":"I","image_png":"I_Basalt_08.png","image_id":24,"category_name":"Basalt","category":2,"distinct_rating":2.31,"distinct_type":"Bottom","rt":null,"stimulus":"Stimuli_Rocks480/I_Basalt_08.png","response":null,"trial_type":"image-keyboard-response","trial_index":36,"plugin_version":"2.1.0","time_elapsed":70156,"subject_id":"88774","group":"Group2","full_date":"2025-11-11T16:25:18.588Z","date":"2025-11-11","time":"16:25:18"},{"rt":null,"stimulus":"<p style=\"font-size: 50px; margin: 0; text-align: center;\">+</p>","response":null,"trial_type":"html-keyboard-response","trial_index":37,"plugin_version":"2.1.0","time_elapsed":71167,"subject_id":"88774","group":"Group2","full_date":"2025-11-11T16:25:18.588Z","date":"2025-11-11","time":"16:25:18"},{"task":"memory_phase","broad_category":"S","image_png":"S_Sandstone_11.png","image_id":459,"category_name":"Sandstone","category":29,"distinct_rating":1.82,"distinct_type":"Bottom","rt":null,"stimulus":"Stimuli_Rocks480/S_Sandstone_11.png","response":null,"trial_type":"image-keyboard-response","trial_index":38,"plugin_version":"2.1.0","time_elapsed":73670,"subject_id":"88774","group":"Group2","full_date":"2025-11-11T16:25:18.588Z","date":"2025-11-11","time":"16:25:18"},{"rt":null,"stimulus":"<p style=\"font-size: 50px; margin: 0; text-align: center;\">+</p>","response":null,"trial_type":"html-keyboard-response","trial_index":39,"plugin_version":"2.1.0","time_elapsed":74681,"subject_id":"88774","group":"Group2","full_date":"2025-11-11T16:25:18.588Z","date":"2025-11-11","time":"16:25:18"},{"task":"memory_phase","broad_category":"I","image_png":"I_Rhyolite_08.png","image_id":152,"category_name":"Rhyolite","category":10,"distinct_rating":1.38,"distinct_type":"Bottom","rt":null,"stimulus":"Stimuli_Rocks480/I_Rhyolite_08.png","response":null,"trial_type":"image-keyboard-response","trial_index":40,"plugin_version":"2.1.0","time_elapsed":77187,"subject_id":"88774","group":"Group2","full_date":"2025-11-11T16:25:18.588Z","date":"2025-11-11","time":"16:25:18"},{"rt":null,"stimulus":"<p style=\"font-size: 50px; margin: 0; text-align: center;\">+</p>","response":null,"trial_type":"html-keyboard-response","trial_index":41,"plugin_version":"2.1.0","time_elapsed":78200,"subject_id":"88774","group":"Group2","full_date":"2025-11-11T16:25:18.588Z","date":"2025-11-11","time":"16:25:18"},{"task":"memory_phase","broad_category":"S","image_png":"S_Sandstone_08.png","image_id":456,"category_name":"Sandstone","category":29,"distinct_rating":1.5,"distinct_type":"Bottom","rt":null,"stimulus":"Stimuli_Rocks480/S_Sandstone_08.png","response":null,"trial_type":"image-keyboard-response","trial_index":42,"plugin_version":"2.1.0","time_elapsed":80703,"subject_id":"88774","group":"Group2","full_date":"2025-11-11T16:25:18.588Z","date":"2025-11-11","time":"16:25:18"},{"rt":null,"stimulus":"<p style=\"font-size: 50px; margin: 0; text-align: center;\">+</p>","response":null,"trial_type":"html-keyboard-response","trial_index":43,"plugin_version":"2.1.0","time_elapsed":81715,"subject_id":"88774","group":"Group2","full_date":"2025-11-11T16:25:18.588Z","date":"2025-11-11","time":"16:25:18"},{"task":"memory_phase","broad_category":"I","image_png":"I_Rhyolite_10.png","image_id":154,"category_name":"Rhyolite","category":10,"distinct_rating":2.88,"distinct_type":"Bottom","rt":null,"stimulus":"Stimuli_Rocks480/I_Rhyolite_10.png","response":null,"trial_type":"image-keyboard-response","trial_index":44,"plugin_version":"2.1.0","time_elapsed":84220,"subject_id":"88774","group":"Group2","full_date":"2025-11-11T16:25:18.588Z","date":"2025-11-11","time":"16:25:18"},{"rt":null,"stimulus":"<p style=\"font-size: 50px; margin: 0; text-align: center;\">+</p>","response":null,"trial_type":"html-keyboard-response","trial_index":45,"plugin_version":"2.1.0","time_elapsed":85231,"subject_id":"88774","group":"Group2","full_date":"2025-11-11T16:25:18.588Z","date":"2025-11-11","time":"16:25:18"},{"task":"memory_phase","broad_category":"I","image_png":"I_Pegmatite_11.png","image_id":107,"category_name":"Pegmatite","category":7,"distinct_rating":7.11,"distinct_type":"Top","rt":null,"stimulus":"Stimuli_Rocks480/I_Pegmatite_11.png","response":null,"trial_type":"image-keyboard-response","trial_index":46,"plugin_version":"2.1.0","time_elapsed":87737,"subject_id":"88774","group":"Group2","full_date":"2025-11-11T16:25:18.588Z","date":"2025-11-11","time":"16:25:18"},{"rt":null,"stimulus":"<p style=\"font-size: 50px; margin: 0; text-align: center;\">+</p>","response":null,"trial_type":"html-keyboard-response","trial_index":47,"plugin_version":"2.1.0","time_elapsed":88749,"subject_id":"88774","group":"Group2","full_date":"2025-11-11T16:25:18.588Z","date":"2025-11-11","time":"16:25:18"},{"task":"memory_phase","broad_category":"S","image_png":"S_Dolomite_01.png","image_id":385,"category_name":"Dolomite","category":25,"distinct_rating":1.43,"distinct_type":"Bottom","rt":null,"stimulus":"Stimuli_Rocks480/S_Dolomite_01.png","response":null,"trial_type":"image-keyboard-response","trial_index":48,"plugin_version":"2.1.0","time_elapsed":91255,"subject_id":"88774","group":"Group2","full_date":"2025-11-11T16:25:18.588Z","date":"2025-11-11","time":"16:25:18"},{"rt":null,"stimulus":"<p style=\"font-size: 50px; margin: 0; text-align: center;\">+</p>","response":null,"trial_type":"html-keyboard-response","trial_index":49,"plugin_version":"2.1.0","time_elapsed":92263,"subject_id":"88774","group":"Group2","full_date":"2025-11-11T16:25:18.588Z","date":"2025-11-11","time":"16:25:18"},{"task":"memory_phase","broad_category":"S","image_png":"S_Sandstone_04.png","image_id":452,"category_name":"Sandstone","category":29,"distinct_rating":1.8,"distinct_type":"Bottom","rt":null,"stimulus":"Stimuli_Rocks480/S_Sandstone_04.png","response":null,"trial_type":"image-keyboard-response","trial_index":50,"plugin_version":"2.1.0","time_elapsed":94777,"subject_id":"88774","group":"Group2","full_date":"2025-11-11T16:25:18.588Z","date":"2025-11-11","time":"16:25:18"},{"rt":null,"stimulus":"<p style=\"font-size: 50px; margin: 0; text-align: center;\">+</p>","response":null,"trial_type":"html-keyboard-response","trial_index":51,"plugin_version":"2.1.0","time_elapsed":95784,"subject_id":"88774","group":"Group2","full_date":"2025-11-11T16:25:18.588Z","date":"2025-11-11","time":"16:25:18"},{"task":"memory_phase","broad_category":"M","image_png":"M_Gneiss_10.png","image_id":202,"category_name":"Gneiss","category":13,"distinct_rating":3.09,"distinct_type":"Bottom","rt":null,"stimulus":"Stimuli_Rocks480/M_Gneiss_10.png","response":null,"trial_type":"image-keyboard-response","trial_index":52,"plugin_version":"2.1.0","time_elapsed":98301,"subject_id":"88774","group":"Group2","full_date":"2025-11-11T16:25:18.588Z","date":"2025-11-11","time":"16:25:18"},{"rt":null,"stimulus":"<p style=\"font-size: 50px; margin: 0; text-align: center;\">+</p>","response":null,"trial_type":"html-keyboard-response","trial_index":53,"plugin_version":"2.1.0","time_elapsed":99316,"subject_id":"88774","group":"Group2","full_date":"2025-11-11T16:25:18.588Z","date":"2025-11-11","time":"16:25:18"},{"task":"memory_phase","broad_category":"I","image_png":"I_Pumice_01.png","image_id":129,"category_name":"Pumice","category":9,"distinct_rating":3.25,"distinct_type":"Bottom","rt":null,"stimulus":"Stimuli_Rocks480/I_Pumice_01.png","response":null,"trial_type":"image-keyboard-response","trial_index":54,"plugin_version":"2.1.0","time_elapsed":101829,"subject_id":"88774","group":"Group2","full_date":"2025-11-11T16:25:18.588Z","date":"2025-11-11","time":"16:25:18"},{"rt":2038,"stimulus":"<p style=\"font-size: 35px;\">Press SPACE to continue study phase</p>","response":" ","trial_type":"html-keyboard-response","trial_index":55,"plugin_version":"2.1.0","time_elapsed":103869,"subject_id":"88774","group":"Group2","full_date":"2025-11-11T16:25:18.588Z","date":"2025-11-11","time":"16:25:18"},{"rt":null,"stimulus":"<p style=\"font-size: 50px; margin: 0; text-align: center;\">+</p>","response":null,"trial_type":"html-keyboard-response","trial_index":56,"plugin_version":"2.1.0","time_elapsed":104876,"subject_id":"88774","group":"Group2","full_date":"2025-11-11T16:25:18.588Z","date":"2025-11-11","time":"16:25:18"},{"task":"memory_phase","broad_category":"S","image_png":"S_Rock Salt_13.png","image_id":445,"category_name":"Rock Salt","category":28,"distinct_rating":7.58,"distinct_type":"Top","rt":null,"stimulus":"Stimuli_Rocks480/S_Rock Salt_13.png","response":null,"trial_type":"image-keyboard-response","trial_index":57,"plugin_version":"2.1.0","time_elapsed":107392,"subject_id":"88774","group":"Group2","full_date":"2025-11-11T16:25:18.588Z","date":"2025-11-11","time":"16:25:18"},{"rt":null,"stimulus":"<p style=\"font-size: 50px; margin: 0; text-align: center;\">+</p>","response":null,"trial_type":"html-keyboard-response","trial_index":58,"plugin_version":"2.1.0","time_elapsed":108396,"subject_id":"88774","group":"Group2","full_date":"2025-11-11T16:25:18.588Z","date":"2025-11-11","time":"16:25:18"},{"task":"memory_phase","broad_category":"M","image_png":"M_Slate_10.png","image_id":314,"category_name":"Slate","category":20,"distinct_rating":1.94,"distinct_type":"Bottom","rt":null,"stimulus":"Stimuli_Rocks480/M_Slate_10.png","response":null,"trial_type":"image-keyboard-response","trial_index":59,"plugin_version":"2.1.0","time_elapsed":110903,"subject_id":"88774","group":"Group2","full_date":"2025-11-11T16:25:18.588Z","date":"2025-11-11","time":"16:25:18"},{"rt":null,"stimulus":"<p style=\"font-size: 50px; margin: 0; text-align: center;\">+</p>","response":null,"trial_type":"html-keyboard-response","trial_index":60,"plugin_version":"2.1.0","time_elapsed":111916,"subject_id":"88774","group":"Group2","full_date":"2025-11-11T16:25:18.588Z","date":"2025-11-11","time":"16:25:18"},{"task":"memory_phase","broad_category":"S","image_png":"S_Shale_02.png","image_id":466,"category_name":"Shale","category":30,"distinct_rating":2.9,"distinct_type":"Bottom","rt":null,"stimulus":"Stimuli_Rocks480/S_Shale_02.png","response":null,"trial_type":"image-keyboard-response","trial_index":61,"plugin_version":"2.1.0","time_elapsed":114421,"subject_id":"88774","group":"Group2","full_date":"2025-11-11T16:25:18.588Z","date":"2025-11-11","time":"16:25:18"},{"rt":null,"stimulus":"<p style=\"font-size: 50px; margin: 0; text-align: center;\">+</p>","response":null,"trial_type":"html-keyboard-response","trial_index":62,"plugin_version":"2.1.0","time_elapsed":115431,"subject_id":"88774","group":"Group2","full_date":"2025-11-11T16:25:18.588Z","date":"2025-11-11","time":"16:25:18"},{"task":"memory_phase","broad_category":"M","image_png":"M_Phyllite_13.png","image_id":269,"category_name":"Phyllite","category":17,"distinct_rating":2.8,"distinct_type":"Bottom","rt":null,"stimulus":"Stimuli_Rocks480/M_Phyllite_13.png","response":null,"trial_type":"image-keyboard-response","trial_index":63,"plugin_version":"2.1.0","time_elapsed":117935,"subject_id":"88774","group":"Group2","full_date":"2025-11-11T16:25:18.588Z","date":"2025-11-11","time":"16:25:18"},{"rt":null,"stimulus":"<p style=\"font-size: 50px; margin: 0; text-align: center;\">+</p>","response":null,"trial_type":"html-keyboard-response","trial_index":64,"plugin_version":"2.1.0","time_elapsed":118946,"subject_id":"88774","group":"Group2","full_date":"2025-11-11T16:25:18.588Z","date":"2025-11-11","time":"16:25:18"},{"task":"memory_phase","broad_category":"I","image_png":"I_Gabbro_12.png","image_id":60,"category_name":"Gabbro","category":4,"distinct_rating":2.6,"distinct_type":"Bottom","rt":null,"stimulus":"Stimuli_Rocks480/I_Gabbro_12.png","response":null,"trial_type":"image-keyboard-response","trial_index":65,"plugin_version":"2.1.0","time_elapsed":121450,"subject_id":"88774","group":"Group2","full_date":"2025-11-11T16:25:18.588Z","date":"2025-11-11","time":"16:25:18"},{"rt":null,"stimulus":"<p style=\"font-size: 50px; margin: 0; text-align: center;\">+</p>","response":null,"trial_type":"html-keyboard-response","trial_index":66,"plugin_version":"2.1.0","time_elapsed":122464,"subject_id":"88774","group":"Group2","full_date":"2025-11-11T16:25:18.588Z","date":"2025-11-11","time":"16:25:18"},{"task":"memory_phase","broad_category":"I","image_png":"I_Andesite_03.png","image_id":3,"category_name":"Andesite","category":1,"distinct_rating":3.17,"distinct_type":"Bottom","rt":null,"stimulus":"Stimuli_Rocks480/I_Andesite_03.png","response":null,"trial_type":"image-keyboard-response","trial_index":67,"plugin_version":"2.1.0","time_elapsed":124968,"subject_id":"88774","group":"Group2","full_date":"2025-11-11T16:25:18.588Z","date":"2025-11-11","time":"16:25:18"},{"rt":null,"stimulus":"<p style=\"font-size: 50px; margin: 0; text-align: center;\">+</p>","response":null,"trial_type":"html-keyboard-response","trial_index":68,"plugin_version":"2.1.0","time_elapsed":125980,"subject_id":"88774","group":"Group2","full_date":"2025-11-11T16:25:18.588Z","date":"2025-11-11","time":"16:25:18"},{"task":"memory_phase","broad_category":"I","image_png":"I_Obsidian_06.png","image_id":86,"category_name":"Obsidian","category":6,"distinct_rating":8.01,"distinct_type":"Top","rt":null,"stimulus":"Stimuli_Rocks480/I_Obsidian_06.png","response":null,"trial_type":"image-keyboard-response","trial_index":69,"plugin_version":"2.1.0","time_elapsed":128488,"subject_id":"88774","group":"Group2","full_date":"2025-11-11T16:25:18.588Z","date":"2025-11-11","time":"16:25:18"},{"rt":null,"stimulus":"<p style=\"font-size: 50px; margin: 0; text-align: center;\">+</p>","response":null,"trial_type":"html-keyboard-response","trial_index":70,"plugin_version":"2.1.0","time_elapsed":129497,"subject_id":"88774","group":"Group2","full_date":"2025-11-11T16:25:18.588Z","date":"2025-11-11","time":"16:25:18"},{"task":"memory_phase","broad_category":"M","image_png":"M_Marble_14.png","image_id":238,"category_name":"Marble","category":15,"distinct_rating":3.31,"distinct_type":"Bottom","rt":null,"stimulus":"Stimuli_Rocks480/M_Marble_14.png","response":null,"trial_type":"image-keyboard-response","trial_index":71,"plugin_version":"2.1.0","time_elapsed":132001,"subject_id":"88774","group":"Group2","full_date":"2025-11-11T16:25:18.588Z","date":"2025-11-11","time":"16:25:18"},{"rt":null,"stimulus":"<p style=\"font-size: 50px; margin: 0; text-align: center;\">+</p>","response":null,"trial_type":"html-keyboard-response","trial_index":72,"plugin_version":"2.1.0","time_elapsed":133012,"subject_id":"88774","group":"Group2","full_date":"2025-11-11T16:25:18.588Z","date":"2025-11-11","time":"16:25:18"},{"task":"memory_phase","broad_category":"S","image_png":"S_Conglomerate_14.png","image_id":382,"category_name":"Conglomerate","category":24,"distinct_rating":6.86,"distinct_type":"Top","rt":null,"stimulus":"Stimuli_Rocks480/S_Conglomerate_14.png","response":null,"trial_type":"image-keyboard-response","trial_index":73,"plugin_version":"2.1.0","time_elapsed":135521,"subject_id":"88774","group":"Group2","full_date":"2025-11-11T16:25:18.588Z","date":"2025-11-11","time":"16:25:18"},{"rt":null,"stimulus":"<p style=\"font-size: 50px; margin: 0; text-align: center;\">+</p>","response":null,"trial_type":"html-keyboard-response","trial_index":74,"plugin_version":"2.1.0","time_elapsed":136531,"subject_id":"88774","group":"Group2","full_date":"2025-11-11T16:25:18.588Z","date":"2025-11-11","time":"16:25:18"},{"task":"memory_phase","broad_category":"I","image_png":"I_Gabbro_14.png","image_id":62,"category_name":"Gabbro","category":4,"distinct_rating":2.95,"distinct_type":"Bottom","rt":null,"stimulus":"Stimuli_Rocks480/I_Gabbro_14.png","response":null,"trial_type":"image-keyboard-response","trial_index":75,"plugin_version":"2.1.0","time_elapsed":139048,"subject_id":"88774","group":"Group2","full_date":"2025-11-11T16:25:18.588Z","date":"2025-11-11","time":"16:25:18"},{"rt":null,"stimulus":"<p style=\"font-size: 50px; margin: 0; text-align: center;\">+</p>","response":null,"trial_type":"html-keyboard-response","trial_index":76,"plugin_version":"2.1.0","time_elapsed":140062,"subject_id":"88774","group":"Group2","full_date":"2025-11-11T16:25:18.588Z","date":"2025-11-11","time":"16:25:18"},{"task":"memory_phase","broad_category":"I","image_png":"I_Peridotite_13.png","image_id":125,"category_name":"Peridotite","category":8,"distinct_rating":7.28,"distinct_type":"Top","rt":null,"stimulus":"Stimuli_Rocks480/I_Peridotite_13.png","response":null,"trial_type":"image-keyboard-response","trial_index":77,"plugin_version":"2.1.0","time_elapsed":142573,"subject_id":"88774","group":"Group2","full_date":"2025-11-11T16:25:18.588Z","date":"2025-11-11","time":"16:25:18"},{"rt":null,"stimulus":"<p style=\"font-size: 50px; margin: 0; text-align: center;\">+</p>","response":null,"trial_type":"html-keyboard-response","trial_index":78,"plugin_version":"2.1.0","time_elapsed":143580,"subject_id":"88774","group":"Group2","full_date":"2025-11-11T16:25:18.588Z","date":"2025-11-11","time":"16:25:18"},{"task":"memory_phase","broad_category":"M","image_png":"M_Marble_02.png","image_id":226,"category_name":"Marble","category":15,"distinct_rating":3.2,"distinct_type":"Bottom","rt":null,"stimulus":"Stimuli_Rocks480/M_Marble_02.png","response":null,"trial_type":"image-keyboard-response","trial_index":79,"plugin_version":"2.1.0","time_elapsed":146099,"subject_id":"88774","group":"Group2","full_date":"2025-11-11T16:25:18.588Z","date":"2025-11-11","time":"16:25:18"},{"rt":null,"stimulus":"<p style=\"font-size: 50px; margin: 0; text-align: center;\">+</p>","response":null,"trial_type":"html-keyboard-response","trial_index":80,"plugin_version":"2.1.0","time_elapsed":147114,"subject_id":"88774","group":"Group2","full_date":"2025-11-11T16:25:18.588Z","date":"2025-11-11","time":"16:25:18"},{"task":"memory_phase","broad_category":"I","image_png":"I_Pegmatite_03.png","image_id":99,"category_name":"Pegmatite","category":7,"distinct_rating":7.24,"distinct_type":"Top","rt":null,"stimulus":"Stimuli_Rocks480/I_Pegmatite_03.png","response":null,"trial_type":"image-keyboard-response","trial_index":81,"plugin_version":"2.1.0","time_elapsed":149621,"subject_id":"88774","group":"Group2","full_date":"2025-11-11T16:25:18.588Z","date":"2025-11-11","time":"16:25:18"},{"rt":null,"stimulus":"<p style=\"font-size: 50px; margin: 0; text-align: center;\">+</p>","response":null,"trial_type":"html-keyboard-response","trial_index":82,"plugin_version":"2.1.0","time_elapsed":150630,"subject_id":"88774","group":"Group2","full_date":"2025-11-11T16:25:18.588Z","date":"2025-11-11","time":"16:25:18"},{"task":"memory_phase","broad_category":"I","image_png":"I_Diorite_15.png","image_id":47,"category_name":"Diorite","category":3,"distinct_rating":3.05,"distinct_type":"Bottom","rt":null,"stimulus":"Stimuli_Rocks480/I_Diorite_15.png","response":null,"trial_type":"image-keyboard-response","trial_index":83,"plugin_version":"2.1.0","time_elapsed":153134,"subject_id":"88774","group":"Group2","full_date":"2025-11-11T16:25:18.588Z","date":"2025-11-11","time":"16:25:18"},{"rt":null,"stimulus":"<p style=\"font-size: 50px; margin: 0; text-align: center;\">+</p>","response":null,"trial_type":"html-keyboard-response","trial_index":84,"plugin_version":"2.1.0","time_elapsed":154147,"subject_id":"88774","group":"Group2","full_date":"2025-11-11T16:25:18.588Z","date":"2025-11-11","time":"16:25:18"},{"task":"memory_phase","broad_category":"S","image_png":"S_Shale_07.png","image_id":471,"category_name":"Shale","category":30,"distinct_rating":2.73,"distinct_type":"Bottom","rt":null,"stimulus":"Stimuli_Rocks480/S_Shale_07.png","response":null,"trial_type":"image-keyboard-response","trial_index":85,"plugin_version":"2.1.0","time_elapsed":156653,"subject_id":"88774","group":"Group2","full_date":"2025-11-11T16:25:18.588Z","date":"2025-11-11","time":"16:25:18"},{"rt":null,"stimulus":"<p style=\"font-size: 50px; margin: 0; text-align: center;\">+</p>","response":null,"trial_type":"html-keyboard-response","trial_index":86,"plugin_version":"2.1.0","time_elapsed":157666,"subject_id":"88774","group":"Group2","full_date":"2025-11-11T16:25:18.588Z","date":"2025-11-11","time":"16:25:18"},{"task":"memory_phase","broad_category":"I","image_png":"I_Andesite_09.png","image_id":9,"category_name":"Andesite","category":1,"distinct_rating":2.49,"distinct_type":"Bottom","rt":null,"stimulus":"Stimuli_Rocks480/I_Andesite_09.png","response":null,"trial_type":"image-keyboard-response","trial_index":87,"plugin_version":"2.1.0","time_elapsed":160182,"subject_id":"88774","group":"Group2","full_date":"2025-11-11T16:25:18.588Z","date":"2025-11-11","time":"16:25:18"},{"rt":null,"stimulus":"<p style=\"font-size: 50px; margin: 0; text-align: center;\">+</p>","response":null,"trial_type":"html-keyboard-response","trial_index":88,"plugin_version":"2.1.0","time_elapsed":161196,"subject_id":"88774","group":"Group2","full_date":"2025-11-11T16:25:18.588Z","date":"2025-11-11","time":"16:25:18"},{"task":"memory_phase","broad_category":"I","image_png":"I_Basalt_13.png","image_id":29,"category_name":"Basalt","category":2,"distinct_rating":2.68,"distinct_type":"Bottom","rt":null,"stimulus":"Stimuli_Rocks480/I_Basalt_13.png","response":null,"trial_type":"image-keyboard-response","trial_index":89,"plugin_version":"2.1.0","time_elapsed":163713,"subject_id":"88774","group":"Group2","full_date":"2025-11-11T16:25:18.588Z","date":"2025-11-11","time":"16:25:18"},{"rt":null,"stimulus":"<p style=\"font-size: 50px; margin: 0; text-align: center;\">+</p>","response":null,"trial_type":"html-keyboard-response","trial_index":90,"plugin_version":"2.1.0","time_elapsed":164728,"subject_id":"88774","group":"Group2","full_date":"2025-11-11T16:25:18.588Z","date":"2025-11-11","time":"16:25:18"},{"task":"memory_phase","broad_category":"M","image_png":"M_Gneiss_15.png","image_id":207,"category_name":"Gneiss","category":13,"distinct_rating":3.11,"distinct_type":"Bottom","rt":null,"stimulus":"Stimuli_Rocks480/M_Gneiss_15.png","response":null,"trial_type":"image-keyboard-response","trial_index":91,"plugin_version":"2.1.0","time_elapsed":167232,"subject_id":"88774","group":"Group2","full_date":"2025-11-11T16:25:18.588Z","date":"2025-11-11","time":"16:25:18"},{"rt":null,"stimulus":"<p style=\"font-size: 50px; margin: 0; text-align: center;\">+</p>","response":null,"trial_type":"html-keyboard-response","trial_index":92,"plugin_version":"2.1.0","time_elapsed":168245,"subject_id":"88774","group":"Group2","full_date":"2025-11-11T16:25:18.588Z","date":"2025-11-11","time":"16:25:18"},{"task":"memory_phase","broad_category":"M","image_png":"M_Phyllite_02.png","image_id":258,"category_name":"Phyllite","category":17,"distinct_rating":2.89,"distinct_type":"Bottom","rt":null,"stimulus":"Stimuli_Rocks480/M_Phyllite_02.png","response":null,"trial_type":"image-keyboard-response","trial_index":93,"plugin_version":"2.1.0","time_elapsed":170752,"subject_id":"88774","group":"Group2","full_date":"2025-11-11T16:25:18.588Z","date":"2025-11-11","time":"16:25:18"},{"rt":null,"stimulus":"<p style=\"font-size: 50px; margin: 0; text-align: center;\">+</p>","response":null,"trial_type":"html-keyboard-response","trial_index":94,"plugin_version":"2.1.0","time_elapsed":171763,"subject_id":"88774","group":"Group2","full_date":"2025-11-11T16:25:18.588Z","date":"2025-11-11","time":"16:25:18"},{"task":"memory_phase","broad_category":"I","image_png":"I_Rhyolite_05.png","image_id":149,"category_name":"Rhyolite","category":10,"distinct_rating":3.02,"distinct_type":"Bottom","rt":null,"stimulus":"Stimuli_Rocks480/I_Rhyolite_05.png","response":null,"trial_type":"image-keyboard-response","trial_index":95,"plugin_version":"2.1.0","time_elapsed":174282,"subject_id":"88774","group":"Group2","full_date":"2025-11-11T16:25:18.588Z","date":"2025-11-11","time":"16:25:18"},{"rt":null,"stimulus":"<p style=\"font-size: 50px; margin: 0; text-align: center;\">+</p>","response":null,"trial_type":"html-keyboard-response","trial_index":96,"plugin_version":"2.1.0","time_elapsed":175294,"subject_id":"88774","group":"Group2","full_date":"2025-11-11T16:25:18.588Z","date":"2025-11-11","time":"16:25:18"},{"task":"memory_phase","broad_category":"M","image_png":"M_Phyllite_05.png","image_id":261,"category_name":"Phyllite","category":17,"distinct_rating":2.14,"distinct_type":"Bottom","rt":null,"stimulus":"Stimuli_Rocks480/M_Phyllite_05.png","response":null,"trial_type":"image-keyboard-response","trial_index":97,"plugin_version":"2.1.0","time_elapsed":177798,"subject_id":"88774","group":"Group2","full_date":"2025-11-11T16:25:18.588Z","date":"2025-11-11","time":"16:25:18"},{"rt":null,"stimulus":"<p style=\"font-size: 50px; margin: 0; text-align: center;\">+</p>","response":null,"trial_type":"html-keyboard-response","trial_index":98,"plugin_version":"2.1.0","time_elapsed":178813,"subject_id":"88774","group":"Group2","full_date":"2025-11-11T16:25:18.588Z","date":"2025-11-11","time":"16:25:18"},{"task":"memory_phase","broad_category":"S","image_png":"S_Dolomite_16.png","image_id":400,"category_name":"Dolomite","category":25,"distinct_rating":1.71,"distinct_type":"Bottom","rt":null,"stimulus":"Stimuli_Rocks480/S_Dolomite_16.png","response":null,"trial_type":"image-keyboard-response","trial_index":99,"plugin_version":"2.1.0","time_elapsed":181315,"subject_id":"88774","group":"Group2","full_date":"2025-11-11T16:25:18.588Z","date":"2025-11-11","time":"16:25:18"},{"rt":null,"stimulus":"<p style=\"font-size: 50px; margin: 0; text-align: center;\">+</p>","response":null,"trial_type":"html-keyboard-response","trial_index":100,"plugin_version":"2.1.0","time_elapsed":182329,"subject_id":"88774","group":"Group2","full_date":"2025-11-11T16:25:18.588Z","date":"2025-11-11","time":"16:25:18"},{"task":"memory_phase","broad_category":"I","image_png":"I_Andesite_04.png","image_id":4,"category_name":"Andesite","category":1,"distinct_rating":3.18,"distinct_type":"Bottom","rt":null,"stimulus":"Stimuli_Rocks480/I_Andesite_04.png","response":null,"trial_type":"image-keyboard-response","trial_index":101,"plugin_version":"2.1.0","time_elapsed":184833,"subject_id":"88774","group":"Group2","full_date":"2025-11-11T16:25:18.588Z","date":"2025-11-11","time":"16:25:18"},{"rt":null,"stimulus":"<p style=\"font-size: 50px; margin: 0; text-align: center;\">+</p>","response":null,"trial_type":"html-keyboard-response","trial_index":102,"plugin_version":"2.1.0","time_elapsed":185846,"subject_id":"88774","group":"Group2","full_date":"2025-11-11T16:25:18.588Z","date":"2025-11-11","time":"16:25:18"},{"task":"memory_phase","broad_category":"I","image_png":"I_Basalt_10.png","image_id":26,"category_name":"Basalt","category":2,"distinct_rating":2.76,"distinct_type":"Bottom","rt":null,"stimulus":"Stimuli_Rocks480/I_Basalt_10.png","response":null,"trial_type":"image-keyboard-response","trial_index":103,"plugin_version":"2.1.0","time_elapsed":188362,"subject_id":"88774","group":"Group2","full_date":"2025-11-11T16:25:18.588Z","date":"2025-11-11","time":"16:25:18"},{"rt":null,"stimulus":"<p style=\"font-size: 50px; margin: 0; text-align: center;\">+</p>","response":null,"trial_type":"html-keyboard-response","trial_index":104,"plugin_version":"2.1.0","time_elapsed":189377,"subject_id":"88774","group":"Group2","full_date":"2025-11-11T16:25:18.588Z","date":"2025-11-11","time":"16:25:18"},{"task":"memory_phase","broad_category":"M","image_png":"M_Quartzite_15.png","image_id":287,"category_name":"Quartzite","category":18,"distinct_rating":2.19,"distinct_type":"Bottom","rt":null,"stimulus":"Stimuli_Rocks480/M_Quartzite_15.png","response":null,"trial_type":"image-keyboard-response","trial_index":105,"plugin_version":"2.1.0","time_elapsed":191896,"subject_id":"88774","group":"Group2","full_date":"2025-11-11T16:25:18.588Z","date":"2025-11-11","time":"16:25:18"},{"rt":11797,"stimulus":"<div style=\"max-width: 760px; margin: auto; font-size: 20px; line-height: 1.5;\">\n      <h1 style=\"text-align:center; font-size: 30px;\">Instructions for the Test Phase</h1>\n      <p>\n        The study phase is now complete.\n      </p>\n      <p>\n        In the test phase, you will again see a series of rock images. \n        Some will be ones you saw before - during the study phase, while others will be new.  \n        <b>Your task</b> is to decide whether you have seen each image before by pressing the corresponding key on your keyboard:<br><br>\n          <b>A</b> - NO (you did not see this image before)<br>\n          <b>L</b> - YES (you saw this image before)<br><br>\n        The test will proceed at your own pace. You will receive feedback after each response.  \n        Please try to respond <b>as accurately as possible</b>.\n      </p>\n      <p>\n        <b>Reminder:</b> If your computer has multiple language settings (e.g., English and another language),\n        please ensure it is set to English during the test phase.\n      </p>\n      <p>\n        You can track your progress using the <b>completion bar</b> at the top of the screen.  \n        Note that it has been refreshed to reflect your progress during this final phase.\n      </p>\n      <p>\n        Press the button below when you are ready to continue.\n      </p>\n    </div>","response":0,"trial_type":"html-button-response","trial_index":106,"plugin_version":"2.1.0","time_elapsed":203696,"subject_id":"88774","group":"Group2","full_date":"2025-11-11T16:25:18.588Z","date":"2025-11-11","time":"16:25:18"},{"correct_response":"l","task":"test_phase","broad_category":"M","image_png":"M_Slate_04.png","image_id":308,"category_name":"Slate","category":20,"distinct_rating":2.2,"distinct_type":"Bottom","item_type":"Target","rt":2945,"stimulus":"Stimuli_Rocks480/M_Slate_04.png","response":"l","trial_type":"image-keyboard-response","trial_index":107,"plugin_version":"2.1.0","time_elapsed":206643,"subject_id":"88774","group":"Group2","full_date":"2025-11-11T16:25:18.588Z","date":"2025-11-11","time":"16:25:18","cor_ans":true},{"trial_type":"html-keyboard-response","rt":null,"stimulus":"<p style=\"color: green; font-size: 50px; font-weight: bold;\">Correct</p>","response":null,"trial_index":108,"plugin_version":"2.1.0","time_elapsed":207150,"subject_id":"88774","group":"Group2","full_date":"2025-11-11T16:25:18.588Z","date":"2025-11-11","time":"16:25:18"},{"correct_response":"l","task":"test_phase","broad_category":"M","image_png":"M_Phyllite_02.png","image_id":258,"category_name":"Phyllite","category":17,"distinct_rating":2.89,"distinct_type":"Bottom","item_type":"Target","rt":1229,"stimulus":"Stimuli_Rocks480/M_Phyllite_02.png","response":"l","trial_type":"image-keyboard-response","trial_index":109,"plugin_version":"2.1.0","time_elapsed":208382,"subject_id":"88774","group":"Group2","full_date":"2025-11-11T16:25:18.588Z","date":"2025-11-11","time":"16:25:18","cor_ans":true},{"trial_type":"html-keyboard-response","rt":null,"stimulus":"<p style=\"color: green; font-size: 50px; font-weight: bold;\">Correct</p>","response":null,"trial_index":110,"plugin_version":"2.1.0","time_elapsed":208899,"subject_id":"88774","group":"Group2","full_date":"2025-11-11T16:25:18.588Z","date":"2025-11-11","time":"16:25:18"},{"correct_response":"a","task":"test_phase","broad_category":"S","image_png":"S_Dolomite_12.png","image_id":396,"category_name":"Dolomite","category":25,"distinct_rating":1.85,"distinct_type":"Bottom","item_type":"Foil","rt":1094,"stimulus":"Stimuli_Rocks480/S_Dolomite_12.png","response":"l","trial_type":"image-keyboard-response","trial_index":111,"plugin_version":"2.1.0","time_elapsed":209996,"subject_id":"88774","group":"Group2","full_date":"2025-11-11T16:25:18.588Z","date":"2025-11-11","time":"16:25:18","cor_ans":false},{"trial_type":"html-keyboard-response","rt":null,"stimulus":"<p style=\"color: red; font-size: 50px; font-weight: bold;\">Incorrect</p>","response":null,"trial_index":112,"plugin_version":"2.1.0","time_elapsed":210499,"subject_id":"88774","group":"Group2","full_date":"2025-11-11T16:25:18.588Z","date":"2025-11-11","time":"16:25:18"},{"correct_response":"l","task":"test_phase","broad_category":"M","image_png":"M_Marble_14.png","image_id":238,"category_name":"Marble","category":15,"distinct_rating":3.31,"distinct_type":"Bottom","item_type":"Target","rt":1251,"stimulus":"Stimuli_Rocks480/M_Marble_14.png","response":"l","trial_type":"image-keyboard-response","trial_index":113,"plugin_version":"2.1.0","time_elapsed":211753,"subject_id":"88774","group":"Group2","full_date":"2025-11-11T16:25:18.588Z","date":"2025-11-11","time":"16:25:18","cor_ans":true},{"trial_type":"html-keyboard-response","rt":null,"stimulus":"<p style=\"color: green; font-size: 50px; font-weight: bold;\">Correct</p>","response":null,"trial_index":114,"plugin_version":"2.1.0","time_elapsed":212267,"subject_id":"88774","group":"Group2","full_date":"2025-11-11T16:25:18.588Z","date":"2025-11-11","time":"16:25:18"},{"correct_response":"a","task":"test_phase","broad_category":"M","image_png":"M_Quartzite_13.png","image_id":285,"category_name":"Quartzite","category":18,"distinct_rating":2.27,"distinct_type":"Bottom","item_type":"Foil","rt":1889,"stimulus":"Stimuli_Rocks480/M_Quartzite_13.png","response":"a","trial_type":"image-keyboard-response","trial_index":115,"plugin_version":"2.1.0","time_elapsed":214159,"subject_id":"88774","group":"Group2","full_date":"2025-11-11T16:25:18.588Z","date":"2025-11-11","time":"16:25:18","cor_ans":true},{"trial_type":"html-keyboard-response","rt":null,"stimulus":"<p style=\"color: green; font-size: 50px; font-weight: bold;\">Correct</p>","response":null,"trial_index":116,"plugin_version":"2.1.0","time_elapsed":214667,"subject_id":"88774","group":"Group2","full_date":"2025-11-11T16:25:18.588Z","date":"2025-11-11","time":"16:25:18"},{"correct_response":"a","task":"test_phase","broad_category":"M","image_png":"M_Slate_11.png","image_id":315,"category_name":"Slate","category":20,"distinct_rating":2.75,"distinct_type":"Bottom","item_type":"Foil","rt":1142,"stimulus":"Stimuli_Rocks480/M_Slate_11.png","response":"l","trial_type":"image-keyboard-response","trial_index":117,"plugin_version":"2.1.0","time_elapsed":215811,"subject_id":"88774","group":"Group2","full_date":"2025-11-11T16:25:18.588Z","date":"2025-11-11","time":"16:25:18","cor_ans":false},{"trial_type":"html-keyboard-response","rt":null,"stimulus":"<p style=\"color: red; font-size: 50px; font-weight: bold;\">Incorrect</p>","response":null,"trial_index":118,"plugin_version":"2.1.0","time_elapsed":216317,"subject_id":"88774","group":"Group2","full_date":"2025-11-11T16:25:18.588Z","date":"2025-11-11","time":"16:25:18"},{"correct_response":"l","task":"test_phase","broad_category":"I","image_png":"I_Pumice_13.png","image_id":141,"category_name":"Pumice","category":9,"distinct_rating":3.12,"distinct_type":"Bottom","item_type":"Target","rt":2352,"stimulus":"Stimuli_Rocks480/I_Pumice_13.png","response":"a","trial_type":"image-keyboard-response","trial_index":119,"plugin_version":"2.1.0","time_elapsed":218672,"subject_id":"88774","group":"Group2","full_date":"2025-11-11T16:25:18.588Z","date":"2025-11-11","time":"16:25:18","cor_ans":false},{"trial_type":"html-keyboard-response","rt":null,"stimulus":"<p style=\"color: red; font-size: 50px; font-weight: bold;\">Incorrect</p>","response":null,"trial_index":120,"plugin_version":"2.1.0","time_elapsed":219183,"subject_id":"88774","group":"Group2","full_date":"2025-11-11T16:25:18.588Z","date":"2025-11-11","time":"16:25:18"},{"correct_response":"l","task":"test_phase","broad_category":"I","image_png":"I_Basalt_13.png","image_id":29,"category_name":"Basalt","category":2,"distinct_rating":2.68,"distinct_type":"Bottom","item_type":"Target","rt":1019,"stimulus":"Stimuli_Rocks480/I_Basalt_13.png","response":"l","trial_type":"image-keyboard-response","trial_index":121,"plugin_version":"2.1.0","time_elapsed":220205,"subject_id":"88774","group":"Group2","full_date":"2025-11-11T16:25:18.588Z","date":"2025-11-11","time":"16:25:18","cor_ans":true},{"trial_type":"html-keyboard-response","rt":null,"stimulus":"<p style=\"color: green; font-size: 50px; font-weight: bold;\">Correct</p>","response":null,"trial_index":122,"plugin_version":"2.1.0","time_elapsed":220716,"subject_id":"88774","group":"Group2","full_date":"2025-11-11T16:25:18.588Z","date":"2025-11-11","time":"16:25:18"},{"correct_response":"l","task":"test_phase","broad_category":"M","image_png":"M_Marble_03.png","image_id":227,"category_name":"Marble","category":15,"distinct_rating":2.67,"distinct_type":"Bottom","item_type":"Target","rt":1197,"stimulus":"Stimuli_Rocks480/M_Marble_03.png","response":"l","trial_type":"image-keyboard-response","trial_index":123,"plugin_version":"2.1.0","time_elapsed":221915,"subject_id":"88774","group":"Group2","full_date":"2025-11-11T16:25:18.588Z","date":"2025-11-11","time":"16:25:18","cor_ans":true},{"trial_type":"html-keyboard-response","rt":null,"stimulus":"<p style=\"color: green; font-size: 50px; font-weight: bold;\">Correct</p>","response":null,"trial_index":124,"plugin_version":"2.1.0","time_elapsed":222416,"subject_id":"88774","group":"Group2","full_date":"2025-11-11T16:25:18.588Z","date":"2025-11-11","time":"16:25:18"},{"correct_response":"l","task":"test_phase","broad_category":"S","image_png":"S_Dolomite_01.png","image_id":385,"category_name":"Dolomite","category":25,"distinct_rating":1.43,"distinct_type":"Bottom","item_type":"Target","rt":1787,"stimulus":"Stimuli_Rocks480/S_Dolomite_01.png","response":"a","trial_type":"image-keyboard-response","trial_index":125,"plugin_version":"2.1.0","time_elapsed":224206,"subject_id":"88774","group":"Group2","full_date":"2025-11-11T16:25:18.588Z","date":"2025-11-11","time":"16:25:18","cor_ans":false},{"trial_type":"html-keyboard-response","rt":null,"stimulus":"<p style=\"color: red; font-size: 50px; font-weight: bold;\">Incorrect</p>","response":null,"trial_index":126,"plugin_version":"2.1.0","time_elapsed":224716,"subject_id":"88774","group":"Group2","full_date":"2025-11-11T16:25:18.588Z","date":"2025-11-11","time":"16:25:18"},{"correct_response":"l","task":"test_phase","broad_category":"I","image_png":"I_Basalt_08.png","image_id":24,"category_name":"Basalt","category":2,"distinct_rating":2.31,"distinct_type":"Bottom","item_type":"Target","rt":970,"stimulus":"Stimuli_Rocks480/I_Basalt_08.png","response":"a","trial_type":"image-keyboard-response","trial_index":127,"plugin_version":"2.1.0","time_elapsed":225690,"subject_id":"88774","group":"Group2","full_date":"2025-11-11T16:25:18.588Z","date":"2025-11-11","time":"16:25:18","cor_ans":false},{"trial_type":"html-keyboard-response","rt":null,"stimulus":"<p style=\"color: red; font-size: 50px; font-weight: bold;\">Incorrect</p>","response":null,"trial_index":128,"plugin_version":"2.1.0","time_elapsed":226199,"subject_id":"88774","group":"Group2","full_date":"2025-11-11T16:25:18.588Z","date":"2025-11-11","time":"16:25:18"},{"correct_response":"a","task":"test_phase","broad_category":"I","image_png":"I_Andesite_06.png","image_id":6,"category_name":"Andesite","category":1,"distinct_rating":3.17,"distinct_type":"Bottom","item_type":"Foil","rt":1025,"stimulus":"Stimuli_Rocks480/I_Andesite_06.png","response":"a","trial_type":"image-keyboard-response","trial_index":129,"plugin_version":"2.1.0","time_elapsed":227227,"subject_id":"88774","group":"Group2","full_date":"2025-11-11T16:25:18.588Z","date":"2025-11-11","time":"16:25:18","cor_ans":true},{"trial_type":"html-keyboard-response","rt":null,"stimulus":"<p style=\"color: green; font-size: 50px; font-weight: bold;\">Correct</p>","response":null,"trial_index":130,"plugin_version":"2.1.0","time_elapsed":227732,"subject_id":"88774","group":"Group2","full_date":"2025-11-11T16:25:18.588Z","date":"2025-11-11","time":"16:25:18"},{"correct_response":"a","task":"test_phase","broad_category":"I","image_png":"I_Pumice_08.png","image_id":136,"category_name":"Pumice","category":9,"distinct_rating":3.1,"distinct_type":"Bottom","item_type":"Foil","rt":1890,"stimulus":"Stimuli_Rocks480/I_Pumice_08.png","response":"a","trial_type":"image-keyboard-response","trial_index":131,"plugin_version":"2.1.0","time_elapsed":229624,"subject_id":"88774","group":"Group2","full_date":"2025-11-11T16:25:18.588Z","date":"2025-11-11","time":"16:25:18","cor_ans":true},{"trial_type":"html-keyboard-response","rt":null,"stimulus":"<p style=\"color: green; font-size: 50px; font-weight: bold;\">Correct</p>","response":null,"trial_index":132,"plugin_version":"2.1.0","time_elapsed":230133,"subject_id":"88774","group":"Group2","full_date":"2025-11-11T16:25:18.588Z","date":"2025-11-11","time":"16:25:18"},{"correct_response":"a","task":"test_phase","broad_category":"S","image_png":"S_Sandstone_03.png","image_id":451,"category_name":"Sandstone","category":29,"distinct_rating":1.86,"distinct_type":"Bottom","item_type":"Foil","rt":1942,"stimulus":"Stimuli_Rocks480/S_Sandstone_03.png","response":"l","trial_type":"image-keyboard-response","trial_index":133,"plugin_version":"2.1.0","time_elapsed":232077,"subject_id":"88774","group":"Group2","full_date":"2025-11-11T16:25:18.588Z","date":"2025-11-11","time":"16:25:18","cor_ans":false},{"trial_type":"html-keyboard-response","rt":null,"stimulus":"<p style=\"color: red; font-size: 50px; font-weight: bold;\">Incorrect</p>","response":null,"trial_index":134,"plugin_version":"2.1.0","time_elapsed":232581,"subject_id":"88774","group":"Group2","full_date":"2025-11-11T16:25:18.588Z","date":"2025-11-11","time":"16:25:18"},{"correct_response":"l","task":"test_phase","broad_category":"I","image_png":"I_Basalt_10.png","image_id":26,"category_name":"Basalt","category":2,"distinct_rating":2.76,"distinct_type":"Bottom","item_type":"Target","rt":1026,"stimulus":"Stimuli_Rocks480/I_Basalt_10.png","response":"l","trial_type":"image-keyboard-response","trial_index":135,"plugin_version":"2.1.0","time_elapsed":233608,"subject_id":"88774","group":"Group2","full_date":"2025-11-11T16:25:18.588Z","date":"2025-11-11","time":"16:25:18","cor_ans":true},{"trial_type":"html-keyboard-response","rt":null,"stimulus":"<p style=\"color: green; font-size: 50px; font-weight: bold;\">Correct</p>","response":null,"trial_index":136,"plugin_version":"2.1.0","time_elapsed":234117,"subject_id":"88774","group":"Group2","full_date":"2025-11-11T16:25:18.588Z","date":"2025-11-11","time":"16:25:18"},{"correct_response":"a","task":"test_phase","broad_category":"I","image_png":"I_Diorite_03.png","image_id":35,"category_name":"Diorite","category":3,"distinct_rating":3.14,"distinct_type":"Bottom","item_type":"Foil","rt":1008,"stimulus":"Stimuli_Rocks480/I_Diorite_03.png","response":"l","trial_type":"image-keyboard-response","trial_index":137,"plugin_version":"2.1.0","time_elapsed":235128,"subject_id":"88774","group":"Group2","full_date":"2025-11-11T16:25:18.588Z","date":"2025-11-11","time":"16:25:18","cor_ans":false},{"trial_type":"html-keyboard-response","rt":null,"stimulus":"<p style=\"color: red; font-size: 50px; font-weight: bold;\">Incorrect</p>","response":null,"trial_index":138,"plugin_version":"2.1.0","time_elapsed":235631,"subject_id":"88774","group":"Group2","full_date":"2025-11-11T16:25:18.588Z","date":"2025-11-11","time":"16:25:18"},{"correct_response":"a","task":"test_phase","broad_category":"M","image_png":"M_Slate_15.png","image_id":319,"category_name":"Slate","category":20,"distinct_rating":2.13,"distinct_type":"Bottom","item_type":"Foil","rt":838,"stimulus":"Stimuli_Rocks480/M_Slate_15.png","response":"l","trial_type":"image-keyboard-response","trial_index":139,"plugin_version":"2.1.0","time_elapsed":236472,"subject_id":"88774","group":"Group2","full_date":"2025-11-11T16:25:18.588Z","date":"2025-11-11","time":"16:25:18","cor_ans":false},{"trial_type":"html-keyboard-response","rt":null,"stimulus":"<p style=\"color: red; font-size: 50px; font-weight: bold;\">Incorrect</p>","response":null,"trial_index":140,"plugin_version":"2.1.0","time_elapsed":236980,"subject_id":"88774","group":"Group2","full_date":"2025-11-11T16:25:18.588Z","date":"2025-11-11","time":"16:25:18"},{"correct_response":"a","task":"test_phase","broad_category":"I","image_png":"I_Pegmatite_10.png","image_id":106,"category_name":"Pegmatite","category":7,"distinct_rating":7.66,"distinct_type":"Top","item_type":"Foil","rt":1322,"stimulus":"Stimuli_Rocks480/I_Pegmatite_10.png","response":"a","trial_type":"image-keyboard-response","trial_index":141,"plugin_version":"2.1.0","time_elapsed":238305,"subject_id":"88774","group":"Group2","full_date":"2025-11-11T16:25:18.588Z","date":"2025-11-11","time":"16:25:18","cor_ans":true},{"trial_type":"html-keyboard-response","rt":null,"stimulus":"<p style=\"color: green; font-size: 50px; font-weight: bold;\">Correct</p>","response":null,"trial_index":142,"plugin_version":"2.1.0","time_elapsed":238816,"subject_id":"88774","group":"Group2","full_date":"2025-11-11T16:25:18.588Z","date":"2025-11-11","time":"16:25:18"},{"correct_response":"l","task":"test_phase","broad_category":"S","image_png":"S_Dolomite_07.png","image_id":391,"category_name":"Dolomite","category":25,"distinct_rating":1.73,"distinct_type":"Bottom","item_type":"Target","rt":900,"stimulus":"Stimuli_Rocks480/S_Dolomite_07.png","response":"l","trial_type":"image-keyboard-response","trial_index":143,"plugin_version":"2.1.0","time_elapsed":239719,"subject_id":"88774","group":"Group2","full_date":"2025-11-11T16:25:18.588Z","date":"2025-11-11","time":"16:25:18","cor_ans":true},{"trial_type":"html-keyboard-response","rt":null,"stimulus":"<p style=\"color: green; font-size: 50px; font-weight: bold;\">Correct</p>","response":null,"trial_index":144,"plugin_version":"2.1.0","time_elapsed":240233,"subject_id":"88774","group":"Group2","full_date":"2025-11-11T16:25:18.588Z","date":"2025-11-11","time":"16:25:18"},{"correct_response":"l","task":"test_phase","broad_category":"S","image_png":"S_Chert_13.png","image_id":365,"category_name":"Chert","category":23,"distinct_rating":6.57,"distinct_type":"Top","item_type":"Target","rt":3065,"stimulus":"Stimuli_Rocks480/S_Chert_13.png","response":"l","trial_type":"image-keyboard-response","trial_index":145,"plugin_version":"2.1.0","time_elapsed":243300,"subject_id":"88774","group":"Group2","full_date":"2025-11-11T16:25:18.588Z","date":"2025-11-11","time":"16:25:18","cor_ans":true},{"trial_type":"html-keyboard-response","rt":null,"stimulus":"<p style=\"color: green; font-size: 50px; font-weight: bold;\">Correct</p>","response":null,"trial_index":146,"plugin_version":"2.1.0","time_elapsed":243816,"subject_id":"88774","group":"Group2","full_date":"2025-11-11T16:25:18.588Z","date":"2025-11-11","time":"16:25:18"},{"correct_response":"a","task":"test_phase","broad_category":"M","image_png":"M_Marble_06.png","image_id":230,"category_name":"Marble","category":15,"distinct_rating":3.4,"distinct_type":"Bottom","item_type":"Foil","rt":951,"stimulus":"Stimuli_Rocks480/M_Marble_06.png","response":"l","trial_type":"image-keyboard-response","trial_index":147,"plugin_version":"2.1.0","time_elapsed":244770,"subject_id":"88774","group":"Group2","full_date":"2025-11-11T16:25:18.588Z","date":"2025-11-11","time":"16:25:18","cor_ans":false},{"trial_type":"html-keyboard-response","rt":null,"stimulus":"<p style=\"color: red; font-size: 50px; font-weight: bold;\">Incorrect</p>","response":null,"trial_index":148,"plugin_version":"2.1.0","time_elapsed":245283,"subject_id":"88774","group":"Group2","full_date":"2025-11-11T16:25:18.588Z","date":"2025-11-11","time":"16:25:18"},{"correct_response":"a","task":"test_phase","broad_category":"I","image_png":"I_Diorite_05.png","image_id":37,"category_name":"Diorite","category":3,"distinct_rating":3.08,"distinct_type":"Bottom","item_type":"Foil","rt":728,"stimulus":"Stimuli_Rocks480/I_Diorite_05.png","response":"l","trial_type":"image-keyboard-response","trial_index":149,"plugin_version":"2.1.0","time_elapsed":246013,"subject_id":"88774","group":"Group2","full_date":"2025-11-11T16:25:18.588Z","date":"2025-11-11","time":"16:25:18","cor_ans":false},{"trial_type":"html-keyboard-response","rt":null,"stimulus":"<p style=\"color: red; font-size: 50px; font-weight: bold;\">Incorrect</p>","response":null,"trial_index":150,"plugin_version":"2.1.0","time_elapsed":246514,"subject_id":"88774","group":"Group2","full_date":"2025-11-11T16:25:18.588Z","date":"2025-11-11","time":"16:25:18"},{"correct_response":"l","task":"test_phase","broad_category":"S","image_png":"S_Rock Salt_13.png","image_id":445,"category_name":"Rock Salt","category":28,"distinct_rating":7.58,"distinct_type":"Top","item_type":"Target","rt":1100,"stimulus":"Stimuli_Rocks480/S_Rock Salt_13.png","response":"l","trial_type":"image-keyboard-response","trial_index":151,"plugin_version":"2.1.0","time_elapsed":247615,"subject_id":"88774","group":"Group2","full_date":"2025-11-11T16:25:18.588Z","date":"2025-11-11","time":"16:25:18","cor_ans":true},{"trial_type":"html-keyboard-response","rt":null,"stimulus":"<p style=\"color: green; font-size: 50px; font-weight: bold;\">Correct</p>","response":null,"trial_index":152,"plugin_version":"2.1.0","time_elapsed":248130,"subject_id":"88774","group":"Group2","full_date":"2025-11-11T16:25:18.588Z","date":"2025-11-11","time":"16:25:18"},{"correct_response":"l","task":"test_phase","broad_category":"S","image_png":"S_Shale_07.png","image_id":471,"category_name":"Shale","category":30,"distinct_rating":2.73,"distinct_type":"Bottom","item_type":"Target","rt":1845,"stimulus":"Stimuli_Rocks480/S_Shale_07.png","response":"a","trial_type":"image-keyboard-response","trial_index":153,"plugin_version":"2.1.0","time_elapsed":249979,"subject_id":"88774","group":"Group2","full_date":"2025-11-11T16:25:18.588Z","date":"2025-11-11","time":"16:25:18","cor_ans":false},{"trial_type":"html-keyboard-response","rt":null,"stimulus":"<p style=\"color: red; font-size: 50px; font-weight: bold;\">Incorrect</p>","response":null,"trial_index":154,"plugin_version":"2.1.0","time_elapsed":250481,"subject_id":"88774","group":"Group2","full_date":"2025-11-11T16:25:18.588Z","date":"2025-11-11","time":"16:25:18"},{"correct_response":"l","task":"test_phase","broad_category":"I","image_png":"I_Gabbro_14.png","image_id":62,"category_name":"Gabbro","category":4,"distinct_rating":2.95,"distinct_type":"Bottom","item_type":"Target","rt":2080,"stimulus":"Stimuli_Rocks480/I_Gabbro_14.png","response":"a","trial_type":"image-keyboard-response","trial_index":155,"plugin_version":"2.1.0","time_elapsed":252565,"subject_id":"88774","group":"Group2","full_date":"2025-11-11T16:25:18.588Z","date":"2025-11-11","time":"16:25:18","cor_ans":false},{"trial_type":"html-keyboard-response","rt":null,"stimulus":"<p style=\"color: red; font-size: 50px; font-weight: bold;\">Incorrect</p>","response":null,"trial_index":156,"plugin_version":"2.1.0","time_elapsed":253079,"subject_id":"88774","group":"Group2","full_date":"2025-11-11T16:25:18.588Z","date":"2025-11-11","time":"16:25:18"},{"correct_response":"a","task":"test_phase","broad_category":"I","image_png":"I_Basalt_02.png","image_id":18,"category_name":"Basalt","category":2,"distinct_rating":1.84,"distinct_type":"Bottom","item_type":"Foil","rt":1241,"stimulus":"Stimuli_Rocks480/I_Basalt_02.png","response":"l","trial_type":"image-keyboard-response","trial_index":157,"plugin_version":"2.1.0","time_elapsed":254321,"subject_id":"88774","group":"Group2","full_date":"2025-11-11T16:25:18.588Z","date":"2025-11-11","time":"16:25:18","cor_ans":false},{"trial_type":"html-keyboard-response","rt":null,"stimulus":"<p style=\"color: red; font-size: 50px; font-weight: bold;\">Incorrect</p>","response":null,"trial_index":158,"plugin_version":"2.1.0","time_elapsed":254830,"subject_id":"88774","group":"Group2","full_date":"2025-11-11T16:25:18.588Z","date":"2025-11-11","time":"16:25:18"},{"correct_response":"l","task":"test_phase","broad_category":"M","image_png":"M_Quartzite_15.png","image_id":287,"category_name":"Quartzite","category":18,"distinct_rating":2.19,"distinct_type":"Bottom","item_type":"Target","rt":1831,"stimulus":"Stimuli_Rocks480/M_Quartzite_15.png","response":"l","trial_type":"image-keyboard-response","trial_index":159,"plugin_version":"2.1.0","time_elapsed":256663,"subject_id":"88774","group":"Group2","full_date":"2025-11-11T16:25:18.588Z","date":"2025-11-11","time":"16:25:18","cor_ans":true},{"trial_type":"html-keyboard-response","rt":null,"stimulus":"<p style=\"color: green; font-size: 50px; font-weight: bold;\">Correct</p>","response":null,"trial_index":160,"plugin_version":"2.1.0","time_elapsed":257165,"subject_id":"88774","group":"Group2","full_date":"2025-11-11T16:25:18.588Z","date":"2025-11-11","time":"16:25:18"},{"correct_response":"l","task":"test_phase","broad_category":"M","image_png":"M_Marble_02.png","image_id":226,"category_name":"Marble","category":15,"distinct_rating":3.2,"distinct_type":"Bottom","item_type":"Target","rt":1272,"stimulus":"Stimuli_Rocks480/M_Marble_02.png","response":"l","trial_type":"image-keyboard-response","trial_index":161,"plugin_version":"2.1.0","time_elapsed":258439,"subject_id":"88774","group":"Group2","full_date":"2025-11-11T16:25:18.588Z","date":"2025-11-11","time":"16:25:18","cor_ans":true},{"trial_type":"html-keyboard-response","rt":null,"stimulus":"<p style=\"color: green; font-size: 50px; font-weight: bold;\">Correct</p>","response":null,"trial_index":162,"plugin_version":"2.1.0","time_elapsed":258947,"subject_id":"88774","group":"Group2","full_date":"2025-11-11T16:25:18.588Z","date":"2025-11-11","time":"16:25:18"},{"correct_response":"l","task":"test_phase","broad_category":"M","image_png":"M_Slate_10.png","image_id":314,"category_name":"Slate","category":20,"distinct_rating":1.94,"distinct_type":"Bottom","item_type":"Target","rt":4506,"stimulus":"Stimuli_Rocks480/M_Slate_10.png","response":"l","trial_type":"image-keyboard-response","trial_index":163,"plugin_version":"2.1.0","time_elapsed":263455,"subject_id":"88774","group":"Group2","full_date":"2025-11-11T16:25:18.588Z","date":"2025-11-11","time":"16:25:18","cor_ans":true},{"trial_type":"html-keyboard-response","rt":null,"stimulus":"<p style=\"color: green; font-size: 50px; font-weight: bold;\">Correct</p>","response":null,"trial_index":164,"plugin_version":"2.1.0","time_elapsed":263965,"subject_id":"88774","group":"Group2","full_date":"2025-11-11T16:25:18.588Z","date":"2025-11-11","time":"16:25:18"},{"correct_response":"l","task":"test_phase","broad_category":"S","image_png":"S_Sandstone_11.png","image_id":459,"category_name":"Sandstone","category":29,"distinct_rating":1.82,"distinct_type":"Bottom","item_type":"Target","rt":2462,"stimulus":"Stimuli_Rocks480/S_Sandstone_11.png","response":"a","trial_type":"image-keyboard-response","trial_index":165,"plugin_version":"2.1.0","time_elapsed":266429,"subject_id":"88774","group":"Group2","full_date":"2025-11-11T16:25:18.588Z","date":"2025-11-11","time":"16:25:18","cor_ans":false},{"trial_type":"html-keyboard-response","rt":null,"stimulus":"<p style=\"color: red; font-size: 50px; font-weight: bold;\">Incorrect</p>","response":null,"trial_index":166,"plugin_version":"2.1.0","time_elapsed":266931,"subject_id":"88774","group":"Group2","full_date":"2025-11-11T16:25:18.588Z","date":"2025-11-11","time":"16:25:18"},{"correct_response":"a","task":"test_phase","broad_category":"I","image_png":"I_Gabbro_11.png","image_id":59,"category_name":"Gabbro","category":4,"distinct_rating":1.99,"distinct_type":"Bottom","item_type":"Foil","rt":1129,"stimulus":"Stimuli_Rocks480/I_Gabbro_11.png","response":"a","trial_type":"image-keyboard-response","trial_index":167,"plugin_version":"2.1.0","time_elapsed":268063,"subject_id":"88774","group":"Group2","full_date":"2025-11-11T16:25:18.588Z","date":"2025-11-11","time":"16:25:18","cor_ans":true},{"trial_type":"html-keyboard-response","rt":null,"stimulus":"<p style=\"color: green; font-size: 50px; font-weight: bold;\">Correct</p>","response":null,"trial_index":168,"plugin_version":"2.1.0","time_elapsed":268579,"subject_id":"88774","group":"Group2","full_date":"2025-11-11T16:25:18.588Z","date":"2025-11-11","time":"16:25:18"},{"correct_response":"a","task":"test_phase","broad_category":"S","image_png":"S_Rock Gypsum_04.png","image_id":420,"category_name":"Rock Gypsum","category":27,"distinct_rating":7.61,"distinct_type":"Top","item_type":"Foil","rt":1171,"stimulus":"Stimuli_Rocks480/S_Rock Gypsum_04.png","response":"l","trial_type":"image-keyboard-response","trial_index":169,"plugin_version":"2.1.0","time_elapsed":269754,"subject_id":"88774","group":"Group2","full_date":"2025-11-11T16:25:18.588Z","date":"2025-11-11","time":"16:25:18","cor_ans":false},{"trial_type":"html-keyboard-response","rt":null,"stimulus":"<p style=\"color: red; font-size: 50px; font-weight: bold;\">Incorrect</p>","response":null,"trial_index":170,"plugin_version":"2.1.0","time_elapsed":270263,"subject_id":"88774","group":"Group2","full_date":"2025-11-11T16:25:18.588Z","date":"2025-11-11","time":"16:25:18"},{"correct_response":"l","task":"test_phase","broad_category":"I","image_png":"I_Peridotite_13.png","image_id":125,"category_name":"Peridotite","category":8,"distinct_rating":7.28,"distinct_type":"Top","item_type":"Target","rt":1106,"stimulus":"Stimuli_Rocks480/I_Peridotite_13.png","response":"l","trial_type":"image-keyboard-response","trial_index":171,"plugin_version":"2.1.0","time_elapsed":271373,"subject_id":"88774","group":"Group2","full_date":"2025-11-11T16:25:18.588Z","date":"2025-11-11","time":"16:25:18","cor_ans":true},{"trial_type":"html-keyboard-response","rt":null,"stimulus":"<p style=\"color: green; font-size: 50px; font-weight: bold;\">Correct</p>","response":null,"trial_index":172,"plugin_version":"2.1.0","time_elapsed":271880,"subject_id":"88774","group":"Group2","full_date":"2025-11-11T16:25:18.588Z","date":"2025-11-11","time":"16:25:18"},{"correct_response":"a","task":"test_phase","broad_category":"M","image_png":"M_Gneiss_06.png","image_id":198,"category_name":"Gneiss","category":13,"distinct_rating":2.65,"distinct_type":"Bottom","item_type":"Foil","rt":1003,"stimulus":"Stimuli_Rocks480/M_Gneiss_06.png","response":"l","trial_type":"image-keyboard-response","trial_index":173,"plugin_version":"2.1.0","time_elapsed":272887,"subject_id":"88774","group":"Group2","full_date":"2025-11-11T16:25:18.588Z","date":"2025-11-11","time":"16:25:18","cor_ans":false},{"trial_type":"html-keyboard-response","rt":null,"stimulus":"<p style=\"color: red; font-size: 50px; font-weight: bold;\">Incorrect</p>","response":null,"trial_index":174,"plugin_version":"2.1.0","time_elapsed":273397,"subject_id":"88774","group":"Group2","full_date":"2025-11-11T16:25:18.588Z","date":"2025-11-11","time":"16:25:18"},{"correct_response":"a","task":"test_phase","broad_category":"S","image_png":"S_Shale_12.png","image_id":476,"category_name":"Shale","category":30,"distinct_rating":2.48,"distinct_type":"Bottom","item_type":"Foil","rt":712,"stimulus":"Stimuli_Rocks480/S_Shale_12.png","response":"l","trial_type":"image-keyboard-response","trial_index":175,"plugin_version":"2.1.0","time_elapsed":274112,"subject_id":"88774","group":"Group2","full_date":"2025-11-11T16:25:18.588Z","date":"2025-11-11","time":"16:25:18","cor_ans":false},{"trial_type":"html-keyboard-response","rt":null,"stimulus":"<p style=\"color: red; font-size: 50px; font-weight: bold;\">Incorrect</p>","response":null,"trial_index":176,"plugin_version":"2.1.0","time_elapsed":274616,"subject_id":"88774","group":"Group2","full_date":"2025-11-11T16:25:18.588Z","date":"2025-11-11","time":"16:25:18"},{"correct_response":"l","task":"test_phase","broad_category":"I","image_png":"I_Andesite_03.png","image_id":3,"category_name":"Andesite","category":1,"distinct_rating":3.17,"distinct_type":"Bottom","item_type":"Target","rt":733,"stimulus":"Stimuli_Rocks480/I_Andesite_03.png","response":"l","trial_type":"image-keyboard-response","trial_index":177,"plugin_version":"2.1.0","time_elapsed":275352,"subject_id":"88774","group":"Group2","full_date":"2025-11-11T16:25:18.588Z","date":"2025-11-11","time":"16:25:18","cor_ans":true},{"trial_type":"html-keyboard-response","rt":null,"stimulus":"<p style=\"color: green; font-size: 50px; font-weight: bold;\">Correct</p>","response":null,"trial_index":178,"plugin_version":"2.1.0","time_elapsed":275864,"subject_id":"88774","group":"Group2","full_date":"2025-11-11T16:25:18.588Z","date":"2025-11-11","time":"16:25:18"},{"correct_response":"a","task":"test_phase","broad_category":"S","image_png":"S_Sandstone_15.png","image_id":463,"category_name":"Sandstone","category":29,"distinct_rating":2,"distinct_type":"Bottom","item_type":"Foil","rt":1376,"stimulus":"Stimuli_Rocks480/S_Sandstone_15.png","response":"l","trial_type":"image-keyboard-response","trial_index":179,"plugin_version":"2.1.0","time_elapsed":277242,"subject_id":"88774","group":"Group2","full_date":"2025-11-11T16:25:18.588Z","date":"2025-11-11","time":"16:25:18","cor_ans":false},{"trial_type":"html-keyboard-response","rt":null,"stimulus":"<p style=\"color: red; font-size: 50px; font-weight: bold;\">Incorrect</p>","response":null,"trial_index":180,"plugin_version":"2.1.0","time_elapsed":277747,"subject_id":"88774","group":"Group2","full_date":"2025-11-11T16:25:18.588Z","date":"2025-11-11","time":"16:25:18"},{"correct_response":"l","task":"test_phase","broad_category":"S","image_png":"S_Sandstone_04.png","image_id":452,"category_name":"Sandstone","category":29,"distinct_rating":1.8,"distinct_type":"Bottom","item_type":"Target","rt":2140,"stimulus":"Stimuli_Rocks480/S_Sandstone_04.png","response":"a","trial_type":"image-keyboard-response","trial_index":181,"plugin_version":"2.1.0","time_elapsed":279890,"subject_id":"88774","group":"Group2","full_date":"2025-11-11T16:25:18.588Z","date":"2025-11-11","time":"16:25:18","cor_ans":false},{"trial_type":"html-keyboard-response","rt":null,"stimulus":"<p style=\"color: red; font-size: 50px; font-weight: bold;\">Incorrect</p>","response":null,"trial_index":182,"plugin_version":"2.1.0","time_elapsed":280398,"subject_id":"88774","group":"Group2","full_date":"2025-11-11T16:25:18.588Z","date":"2025-11-11","time":"16:25:18"},{"correct_response":"a","task":"test_phase","broad_category":"M","image_png":"M_Gneiss_13.png","image_id":205,"category_name":"Gneiss","category":13,"distinct_rating":3.26,"distinct_type":"Bottom","item_type":"Foil","rt":765,"stimulus":"Stimuli_Rocks480/M_Gneiss_13.png","response":"l","trial_type":"image-keyboard-response","trial_index":183,"plugin_version":"2.1.0","time_elapsed":281166,"subject_id":"88774","group":"Group2","full_date":"2025-11-11T16:25:18.588Z","date":"2025-11-11","time":"16:25:18","cor_ans":false},{"trial_type":"html-keyboard-response","rt":null,"stimulus":"<p style=\"color: red; font-size: 50px; font-weight: bold;\">Incorrect</p>","response":null,"trial_index":184,"plugin_version":"2.1.0","time_elapsed":281678,"subject_id":"88774","group":"Group2","full_date":"2025-11-11T16:25:18.588Z","date":"2025-11-11","time":"16:25:18"},{"correct_response":"l","task":"test_phase","broad_category":"S","image_png":"S_Shale_03.png","image_id":467,"category_name":"Shale","category":30,"distinct_rating":1.95,"distinct_type":"Bottom","item_type":"Target","rt":2647,"stimulus":"Stimuli_Rocks480/S_Shale_03.png","response":"a","trial_type":"image-keyboard-response","trial_index":185,"plugin_version":"2.1.0","time_elapsed":284327,"subject_id":"88774","group":"Group2","full_date":"2025-11-11T16:25:18.588Z","date":"2025-11-11","time":"16:25:18","cor_ans":false},{"trial_type":"html-keyboard-response","rt":null,"stimulus":"<p style=\"color: red; font-size: 50px; font-weight: bold;\">Incorrect</p>","response":null,"trial_index":186,"plugin_version":"2.1.0","time_elapsed":284830,"subject_id":"88774","group":"Group2","full_date":"2025-11-11T16:25:18.588Z","date":"2025-11-11","time":"16:25:18"},{"correct_response":"a","task":"test_phase","broad_category":"I","image_png":"I_Rhyolite_11.png","image_id":155,"category_name":"Rhyolite","category":10,"distinct_rating":1.73,"distinct_type":"Bottom","item_type":"Foil","rt":950,"stimulus":"Stimuli_Rocks480/I_Rhyolite_11.png","response":"l","trial_type":"image-keyboard-response","trial_index":187,"plugin_version":"2.1.0","time_elapsed":285782,"subject_id":"88774","group":"Group2","full_date":"2025-11-11T16:25:18.588Z","date":"2025-11-11","time":"16:25:18","cor_ans":false},{"trial_type":"html-keyboard-response","rt":null,"stimulus":"<p style=\"color: red; font-size: 50px; font-weight: bold;\">Incorrect</p>","response":null,"trial_index":188,"plugin_version":"2.1.0","time_elapsed":286298,"subject_id":"88774","group":"Group2","full_date":"2025-11-11T16:25:18.588Z","date":"2025-11-11","time":"16:25:18"},{"correct_response":"a","task":"test_phase","broad_category":"I","image_png":"I_Basalt_09.png","image_id":25,"category_name":"Basalt","category":2,"distinct_rating":1.89,"distinct_type":"Bottom","item_type":"Foil","rt":889,"stimulus":"Stimuli_Rocks480/I_Basalt_09.png","response":"l","trial_type":"image-keyboard-response","trial_index":189,"plugin_version":"2.1.0","time_elapsed":287190,"subject_id":"88774","group":"Group2","full_date":"2025-11-11T16:25:18.588Z","date":"2025-11-11","time":"16:25:18","cor_ans":false},{"trial_type":"html-keyboard-response","rt":null,"stimulus":"<p style=\"color: red; font-size: 50px; font-weight: bold;\">Incorrect</p>","response":null,"trial_index":190,"plugin_version":"2.1.0","time_elapsed":287697,"subject_id":"88774","group":"Group2","full_date":"2025-11-11T16:25:18.588Z","date":"2025-11-11","time":"16:25:18"},{"correct_response":"a","task":"test_phase","broad_category":"M","image_png":"M_Phyllite_03.png","image_id":259,"category_name":"Phyllite","category":17,"distinct_rating":2.5,"distinct_type":"Bottom","item_type":"Foil","rt":639,"stimulus":"Stimuli_Rocks480/M_Phyllite_03.png","response":"l","trial_type":"image-keyboard-response","trial_index":191,"plugin_version":"2.1.0","time_elapsed":288339,"subject_id":"88774","group":"Group2","full_date":"2025-11-11T16:25:18.588Z","date":"2025-11-11","time":"16:25:18","cor_ans":false},{"trial_type":"html-keyboard-response","rt":null,"stimulus":"<p style=\"color: red; font-size: 50px; font-weight: bold;\">Incorrect</p>","response":null,"trial_index":192,"plugin_version":"2.1.0","time_elapsed":288846,"subject_id":"88774","group":"Group2","full_date":"2025-11-11T16:25:18.588Z","date":"2025-11-11","time":"16:25:18"},{"correct_response":"l","task":"test_phase","broad_category":"M","image_png":"M_Gneiss_15.png","image_id":207,"category_name":"Gneiss","category":13,"distinct_rating":3.11,"distinct_type":"Bottom","item_type":"Target","rt":734,"stimulus":"Stimuli_Rocks480/M_Gneiss_15.png","response":"l","trial_type":"image-keyboard-response","trial_index":193,"plugin_version":"2.1.0","time_elapsed":289583,"subject_id":"88774","group":"Group2","full_date":"2025-11-11T16:25:18.588Z","date":"2025-11-11","time":"16:25:18","cor_ans":true},{"trial_type":"html-keyboard-response","rt":null,"stimulus":"<p style=\"color: green; font-size: 50px; font-weight: bold;\">Correct</p>","response":null,"trial_index":194,"plugin_version":"2.1.0","time_elapsed":290097,"subject_id":"88774","group":"Group2","full_date":"2025-11-11T16:25:18.588Z","date":"2025-11-11","time":"16:25:18"},{"correct_response":"a","task":"test_phase","broad_category":"I","image_png":"I_Pumice_11.png","image_id":139,"category_name":"Pumice","category":9,"distinct_rating":1.74,"distinct_type":"Bottom","item_type":"Foil","rt":1744,"stimulus":"Stimuli_Rocks480/I_Pumice_11.png","response":"a","trial_type":"image-keyboard-response","trial_index":195,"plugin_version":"2.1.0","time_elapsed":291844,"subject_id":"88774","group":"Group2","full_date":"2025-11-11T16:25:18.588Z","date":"2025-11-11","time":"16:25:18","cor_ans":true},{"trial_type":"html-keyboard-response","rt":null,"stimulus":"<p style=\"color: green; font-size: 50px; font-weight: bold;\">Correct</p>","response":null,"trial_index":196,"plugin_version":"2.1.0","time_elapsed":292349,"subject_id":"88774","group":"Group2","full_date":"2025-11-11T16:25:18.588Z","date":"2025-11-11","time":"16:25:18"},{"correct_response":"l","task":"test_phase","broad_category":"I","image_png":"I_Obsidian_06.png","image_id":86,"category_name":"Obsidian","category":6,"distinct_rating":8.01,"distinct_type":"Top","item_type":"Target","rt":1463,"stimulus":"Stimuli_Rocks480/I_Obsidian_06.png","response":"l","trial_type":"image-keyboard-response","trial_index":197,"plugin_version":"2.1.0","time_elapsed":293814,"subject_id":"88774","group":"Group2","full_date":"2025-11-11T16:25:18.588Z","date":"2025-11-11","time":"16:25:18","cor_ans":true},{"trial_type":"html-keyboard-response","rt":null,"stimulus":"<p style=\"color: green; font-size: 50px; font-weight: bold;\">Correct</p>","response":null,"trial_index":198,"plugin_version":"2.1.0","time_elapsed":294329,"subject_id":"88774","group":"Group2","full_date":"2025-11-11T16:25:18.588Z","date":"2025-11-11","time":"16:25:18"},{"correct_response":"l","task":"test_phase","broad_category":"I","image_png":"I_Diorite_15.png","image_id":47,"category_name":"Diorite","category":3,"distinct_rating":3.05,"distinct_type":"Bottom","item_type":"Target","rt":1350,"stimulus":"Stimuli_Rocks480/I_Diorite_15.png","response":"l","trial_type":"image-keyboard-response","trial_index":199,"plugin_version":"2.1.0","time_elapsed":295682,"subject_id":"88774","group":"Group2","full_date":"2025-11-11T16:25:18.588Z","date":"2025-11-11","time":"16:25:18","cor_ans":true},{"trial_type":"html-keyboard-response","rt":null,"stimulus":"<p style=\"color: green; font-size: 50px; font-weight: bold;\">Correct</p>","response":null,"trial_index":200,"plugin_version":"2.1.0","time_elapsed":296195,"subject_id":"88774","group":"Group2","full_date":"2025-11-11T16:25:18.588Z","date":"2025-11-11","time":"16:25:18"},{"correct_response":"a","task":"test_phase","broad_category":"M","image_png":"M_Marble_04.png","image_id":228,"category_name":"Marble","category":15,"distinct_rating":3.15,"distinct_type":"Bottom","item_type":"Foil","rt":1189,"stimulus":"Stimuli_Rocks480/M_Marble_04.png","response":"l","trial_type":"image-keyboard-response","trial_index":201,"plugin_version":"2.1.0","time_elapsed":297387,"subject_id":"88774","group":"Group2","full_date":"2025-11-11T16:25:18.588Z","date":"2025-11-11","time":"16:25:18","cor_ans":false},{"trial_type":"html-keyboard-response","rt":null,"stimulus":"<p style=\"color: red; font-size: 50px; font-weight: bold;\">Incorrect</p>","response":null,"trial_index":202,"plugin_version":"2.1.0","time_elapsed":297898,"subject_id":"88774","group":"Group2","full_date":"2025-11-11T16:25:18.588Z","date":"2025-11-11","time":"16:25:18"},{"correct_response":"a","task":"test_phase","broad_category":"S","image_png":"S_Dolomite_14.png","image_id":398,"category_name":"Dolomite","category":25,"distinct_rating":1.43,"distinct_type":"Bottom","item_type":"Foil","rt":1820,"stimulus":"Stimuli_Rocks480/S_Dolomite_14.png","response":"l","trial_type":"image-keyboard-response","trial_index":203,"plugin_version":"2.1.0","time_elapsed":299720,"subject_id":"88774","group":"Group2","full_date":"2025-11-11T16:25:18.588Z","date":"2025-11-11","time":"16:25:18","cor_ans":false},{"trial_type":"html-keyboard-response","rt":null,"stimulus":"<p style=\"color: red; font-size: 50px; font-weight: bold;\">Incorrect</p>","response":null,"trial_index":204,"plugin_version":"2.1.0","time_elapsed":300228,"subject_id":"88774","group":"Group2","full_date":"2025-11-11T16:25:18.588Z","date":"2025-11-11","time":"16:25:18"},{"correct_response":"l","task":"test_phase","broad_category":"I","image_png":"I_Rhyolite_05.png","image_id":149,"category_name":"Rhyolite","category":10,"distinct_rating":3.02,"distinct_type":"Bottom","item_type":"Target","rt":747,"stimulus":"Stimuli_Rocks480/I_Rhyolite_05.png","response":"l","trial_type":"image-keyboard-response","trial_index":205,"plugin_version":"2.1.0","time_elapsed":300976,"subject_id":"88774","group":"Group2","full_date":"2025-11-11T16:25:18.588Z","date":"2025-11-11","time":"16:25:18","cor_ans":true},{"trial_type":"html-keyboard-response","rt":null,"stimulus":"<p style=\"color: green; font-size: 50px; font-weight: bold;\">Correct</p>","response":null,"trial_index":206,"plugin_version":"2.1.0","time_elapsed":301495,"subject_id":"88774","group":"Group2","full_date":"2025-11-11T16:25:18.588Z","date":"2025-11-11","time":"16:25:18"},{"correct_response":"l","task":"test_phase","broad_category":"I","image_png":"I_Andesite_09.png","image_id":9,"category_name":"Andesite","category":1,"distinct_rating":2.49,"distinct_type":"Bottom","item_type":"Target","rt":1970,"stimulus":"Stimuli_Rocks480/I_Andesite_09.png","response":"l","trial_type":"image-keyboard-response","trial_index":207,"plugin_version":"2.1.0","time_elapsed":303469,"subject_id":"88774","group":"Group2","full_date":"2025-11-11T16:25:18.588Z","date":"2025-11-11","time":"16:25:18","cor_ans":true},{"trial_type":"html-keyboard-response","rt":null,"stimulus":"<p style=\"color: green; font-size: 50px; font-weight: bold;\">Correct</p>","response":null,"trial_index":208,"plugin_version":"2.1.0","time_elapsed":303979,"subject_id":"88774","group":"Group2","full_date":"2025-11-11T16:25:18.588Z","date":"2025-11-11","time":"16:25:18"},{"correct_response":"l","task":"test_phase","broad_category":"I","image_png":"I_Diorite_01.png","image_id":33,"category_name":"Diorite","category":3,"distinct_rating":2.97,"distinct_type":"Bottom","item_type":"Target","rt":1124,"stimulus":"Stimuli_Rocks480/I_Diorite_01.png","response":"l","trial_type":"image-keyboard-response","trial_index":209,"plugin_version":"2.1.0","time_elapsed":305106,"subject_id":"88774","group":"Group2","full_date":"2025-11-11T16:25:18.588Z","date":"2025-11-11","time":"16:25:18","cor_ans":true},{"trial_type":"html-keyboard-response","rt":null,"stimulus":"<p style=\"color: green; font-size: 50px; font-weight: bold;\">Correct</p>","response":null,"trial_index":210,"plugin_version":"2.1.0","time_elapsed":305613,"subject_id":"88774","group":"Group2","full_date":"2025-11-11T16:25:18.588Z","date":"2025-11-11","time":"16:25:18"},{"correct_response":"a","task":"test_phase","broad_category":"I","image_png":"I_Andesite_08.png","image_id":8,"category_name":"Andesite","category":1,"distinct_rating":1.95,"distinct_type":"Bottom","item_type":"Foil","rt":1050,"stimulus":"Stimuli_Rocks480/I_Andesite_08.png","response":"a","trial_type":"image-keyboard-response","trial_index":211,"plugin_version":"2.1.0","time_elapsed":306666,"subject_id":"88774","group":"Group2","full_date":"2025-11-11T16:25:18.588Z","date":"2025-11-11","time":"16:25:18","cor_ans":true},{"trial_type":"html-keyboard-response","rt":null,"stimulus":"<p style=\"color: green; font-size: 50px; font-weight: bold;\">Correct</p>","response":null,"trial_index":212,"plugin_version":"2.1.0","time_elapsed":307179,"subject_id":"88774","group":"Group2","full_date":"2025-11-11T16:25:18.588Z","date":"2025-11-11","time":"16:25:18"},{"correct_response":"l","task":"test_phase","broad_category":"M","image_png":"M_Gneiss_14.png","image_id":206,"category_name":"Gneiss","category":13,"distinct_rating":3.41,"distinct_type":"Bottom","item_type":"Target","rt":1837,"stimulus":"Stimuli_Rocks480/M_Gneiss_14.png","response":"l","trial_type":"image-keyboard-response","trial_index":213,"plugin_version":"2.1.0","time_elapsed":309019,"subject_id":"88774","group":"Group2","full_date":"2025-11-11T16:25:18.588Z","date":"2025-11-11","time":"16:25:18","cor_ans":true},{"trial_type":"html-keyboard-response","rt":null,"stimulus":"<p style=\"color: green; font-size: 50px; font-weight: bold;\">Correct</p>","response":null,"trial_index":214,"plugin_version":"2.1.0","time_elapsed":309529,"subject_id":"88774","group":"Group2","full_date":"2025-11-11T16:25:18.588Z","date":"2025-11-11","time":"16:25:18"},{"correct_response":"l","task":"test_phase","broad_category":"S","image_png":"S_Shale_02.png","image_id":466,"category_name":"Shale","category":30,"distinct_rating":2.9,"distinct_type":"Bottom","item_type":"Target","rt":4098,"stimulus":"Stimuli_Rocks480/S_Shale_02.png","response":"a","trial_type":"image-keyboard-response","trial_index":215,"plugin_version":"2.1.0","time_elapsed":313630,"subject_id":"88774","group":"Group2","full_date":"2025-11-11T16:25:18.588Z","date":"2025-11-11","time":"16:25:18","cor_ans":false},{"trial_type":"html-keyboard-response","rt":null,"stimulus":"<p style=\"color: red; font-size: 50px; font-weight: bold;\">Incorrect</p>","response":null,"trial_index":216,"plugin_version":"2.1.0","time_elapsed":314145,"subject_id":"88774","group":"Group2","full_date":"2025-11-11T16:25:18.588Z","date":"2025-11-11","time":"16:25:18"},{"correct_response":"a","task":"test_phase","broad_category":"S","image_png":"S_Shale_08.png","image_id":472,"category_name":"Shale","category":30,"distinct_rating":2.55,"distinct_type":"Bottom","item_type":"Foil","rt":961,"stimulus":"Stimuli_Rocks480/S_Shale_08.png","response":"l","trial_type":"image-keyboard-response","trial_index":217,"plugin_version":"2.1.0","time_elapsed":315108,"subject_id":"88774","group":"Group2","full_date":"2025-11-11T16:25:18.588Z","date":"2025-11-11","time":"16:25:18","cor_ans":false},{"trial_type":"html-keyboard-response","rt":null,"stimulus":"<p style=\"color: red; font-size: 50px; font-weight: bold;\">Incorrect</p>","response":null,"trial_index":218,"plugin_version":"2.1.0","time_elapsed":315613,"subject_id":"88774","group":"Group2","full_date":"2025-11-11T16:25:18.588Z","date":"2025-11-11","time":"16:25:18"},{"correct_response":"l","task":"test_phase","broad_category":"M","image_png":"M_Slate_14.png","image_id":318,"category_name":"Slate","category":20,"distinct_rating":2.58,"distinct_type":"Bottom","item_type":"Target","rt":962,"stimulus":"Stimuli_Rocks480/M_Slate_14.png","response":"l","trial_type":"image-keyboard-response","trial_index":219,"plugin_version":"2.1.0","time_elapsed":316584,"subject_id":"88774","group":"Group2","full_date":"2025-11-11T16:25:18.588Z","date":"2025-11-11","time":"16:25:18","cor_ans":true},{"trial_type":"html-keyboard-response","rt":null,"stimulus":"<p style=\"color: green; font-size: 50px; font-weight: bold;\">Correct</p>","response":null,"trial_index":220,"plugin_version":"2.1.0","time_elapsed":317096,"subject_id":"88774","group":"Group2","full_date":"2025-11-11T16:25:18.588Z","date":"2025-11-11","time":"16:25:18"},{"correct_response":"a","task":"test_phase","broad_category":"M","image_png":"M_Quartzite_05.png","image_id":277,"category_name":"Quartzite","category":18,"distinct_rating":2.23,"distinct_type":"Bottom","item_type":"Foil","rt":784,"stimulus":"Stimuli_Rocks480/M_Quartzite_05.png","response":"l","trial_type":"image-keyboard-response","trial_index":221,"plugin_version":"2.1.0","time_elapsed":317882,"subject_id":"88774","group":"Group2","full_date":"2025-11-11T16:25:18.588Z","date":"2025-11-11","time":"16:25:18","cor_ans":false},{"trial_type":"html-keyboard-response","rt":null,"stimulus":"<p style=\"color: red; font-size: 50px; font-weight: bold;\">Incorrect</p>","response":null,"trial_index":222,"plugin_version":"2.1.0","time_elapsed":318396,"subject_id":"88774","group":"Group2","full_date":"2025-11-11T16:25:18.588Z","date":"2025-11-11","time":"16:25:18"},{"correct_response":"l","task":"test_phase","broad_category":"I","image_png":"I_Gabbro_02.png","image_id":50,"category_name":"Gabbro","category":4,"distinct_rating":2.73,"distinct_type":"Bottom","item_type":"Target","rt":739,"stimulus":"Stimuli_Rocks480/I_Gabbro_02.png","response":"l","trial_type":"image-keyboard-response","trial_index":223,"plugin_version":"2.1.0","time_elapsed":319138,"subject_id":"88774","group":"Group2","full_date":"2025-11-11T16:25:18.588Z","date":"2025-11-11","time":"16:25:18","cor_ans":true},{"trial_type":"html-keyboard-response","rt":null,"stimulus":"<p style=\"color: green; font-size: 50px; font-weight: bold;\">Correct</p>","response":null,"trial_index":224,"plugin_version":"2.1.0","time_elapsed":319645,"subject_id":"88774","group":"Group2","full_date":"2025-11-11T16:25:18.588Z","date":"2025-11-11","time":"16:25:18"},{"correct_response":"a","task":"test_phase","broad_category":"I","image_png":"I_Basalt_01.png","image_id":17,"category_name":"Basalt","category":2,"distinct_rating":1.92,"distinct_type":"Bottom","item_type":"Foil","rt":1943,"stimulus":"Stimuli_Rocks480/I_Basalt_01.png","response":"a","trial_type":"image-keyboard-response","trial_index":225,"plugin_version":"2.1.0","time_elapsed":321591,"subject_id":"88774","group":"Group2","full_date":"2025-11-11T16:25:18.588Z","date":"2025-11-11","time":"16:25:18","cor_ans":true},{"trial_type":"html-keyboard-response","rt":null,"stimulus":"<p style=\"color: green; font-size: 50px; font-weight: bold;\">Correct</p>","response":null,"trial_index":226,"plugin_version":"2.1.0","time_elapsed":322094,"subject_id":"88774","group":"Group2","full_date":"2025-11-11T16:25:18.588Z","date":"2025-11-11","time":"16:25:18"},{"correct_response":"a","task":"test_phase","broad_category":"S","image_png":"S_Chert_10.png","image_id":362,"category_name":"Chert","category":23,"distinct_rating":7.17,"distinct_type":"Top","item_type":"Foil","rt":1025,"stimulus":"Stimuli_Rocks480/S_Chert_10.png","response":"a","trial_type":"image-keyboard-response","trial_index":227,"plugin_version":"2.1.0","time_elapsed":323120,"subject_id":"88774","group":"Group2","full_date":"2025-11-11T16:25:18.588Z","date":"2025-11-11","time":"16:25:18","cor_ans":true},{"trial_type":"html-keyboard-response","rt":null,"stimulus":"<p style=\"color: green; font-size: 50px; font-weight: bold;\">Correct</p>","response":null,"trial_index":228,"plugin_version":"2.1.0","time_elapsed":323630,"subject_id":"88774","group":"Group2","full_date":"2025-11-11T16:25:18.588Z","date":"2025-11-11","time":"16:25:18"},{"correct_response":"l","task":"test_phase","broad_category":"M","image_png":"M_Gneiss_10.png","image_id":202,"category_name":"Gneiss","category":13,"distinct_rating":3.09,"distinct_type":"Bottom","item_type":"Target","rt":947,"stimulus":"Stimuli_Rocks480/M_Gneiss_10.png","response":"l","trial_type":"image-keyboard-response","trial_index":229,"plugin_version":"2.1.0","time_elapsed":324580,"subject_id":"88774","group":"Group2","full_date":"2025-11-11T16:25:18.588Z","date":"2025-11-11","time":"16:25:18","cor_ans":true},{"trial_type":"html-keyboard-response","rt":null,"stimulus":"<p style=\"color: green; font-size: 50px; font-weight: bold;\">Correct</p>","response":null,"trial_index":230,"plugin_version":"2.1.0","time_elapsed":325092,"subject_id":"88774","group":"Group2","full_date":"2025-11-11T16:25:18.588Z","date":"2025-11-11","time":"16:25:18"},{"correct_response":"l","task":"test_phase","broad_category":"M","image_png":"M_Quartzite_07.png","image_id":279,"category_name":"Quartzite","category":18,"distinct_rating":1.97,"distinct_type":"Bottom","item_type":"Target","rt":883,"stimulus":"Stimuli_Rocks480/M_Quartzite_07.png","response":"l","trial_type":"image-keyboard-response","trial_index":231,"plugin_version":"2.1.0","time_elapsed":325977,"subject_id":"88774","group":"Group2","full_date":"2025-11-11T16:25:18.588Z","date":"2025-11-11","time":"16:25:18","cor_ans":true},{"trial_type":"html-keyboard-response","rt":null,"stimulus":"<p style=\"color: green; font-size: 50px; font-weight: bold;\">Correct</p>","response":null,"trial_index":232,"plugin_version":"2.1.0","time_elapsed":326479,"subject_id":"88774","group":"Group2","full_date":"2025-11-11T16:25:18.588Z","date":"2025-11-11","time":"16:25:18"},{"correct_response":"l","task":"test_phase","broad_category":"I","image_png":"I_Pumice_01.png","image_id":129,"category_name":"Pumice","category":9,"distinct_rating":3.25,"distinct_type":"Bottom","item_type":"Target","rt":1101,"stimulus":"Stimuli_Rocks480/I_Pumice_01.png","response":"a","trial_type":"image-keyboard-response","trial_index":233,"plugin_version":"2.1.0","time_elapsed":327582,"subject_id":"88774","group":"Group2","full_date":"2025-11-11T16:25:18.588Z","date":"2025-11-11","time":"16:25:18","cor_ans":false},{"trial_type":"html-keyboard-response","rt":null,"stimulus":"<p style=\"color: red; font-size: 50px; font-weight: bold;\">Incorrect</p>","response":null,"trial_index":234,"plugin_version":"2.1.0","time_elapsed":328096,"subject_id":"88774","group":"Group2","full_date":"2025-11-11T16:25:18.588Z","date":"2025-11-11","time":"16:25:18"},{"correct_response":"l","task":"test_phase","broad_category":"I","image_png":"I_Rhyolite_10.png","image_id":154,"category_name":"Rhyolite","category":10,"distinct_rating":2.88,"distinct_type":"Bottom","item_type":"Target","rt":903,"stimulus":"Stimuli_Rocks480/I_Rhyolite_10.png","response":"a","trial_type":"image-keyboard-response","trial_index":235,"plugin_version":"2.1.0","time_elapsed":329002,"subject_id":"88774","group":"Group2","full_date":"2025-11-11T16:25:18.588Z","date":"2025-11-11","time":"16:25:18","cor_ans":false},{"trial_type":"html-keyboard-response","rt":null,"stimulus":"<p styl