[{"width":1710,"height":960,"webaudio":true,"browser":"safari","browser_version":"26.1.0","mobile":false,"os":"Mac OS","fullscreen":true,"vsync_rate":59.46,"webcam":true,"microphone":true,"trial_type":"browser-check","trial_index":0,"plugin_version":"2.1.0","time_elapsed":1018,"subject_id":"87713","group":"Group1","full_date":"2025-12-04T16:49:17.211Z","date":"2025-12-04","time":"16:49:17"},{"success":true,"timeout":false,"failed_images":[],"failed_audio":[],"failed_video":[],"trial_type":"preload","trial_index":1,"plugin_version":"2.1.0","time_elapsed":10114,"subject_id":"87713","group":"Group1","full_date":"2025-12-04T16:49:17.211Z","date":"2025-12-04","time":"16:49:17"},{"rt":7290,"url":"SONA_consent_memorability.html","trial_type":"external-html","trial_index":2,"plugin_version":"2.1.0","time_elapsed":17435,"subject_id":"87713","group":"Group1","full_date":"2025-12-04T16:49:17.211Z","date":"2025-12-04","time":"16:49:17"},{"success":true,"rt":1747,"trial_type":"fullscreen","trial_index":3,"plugin_version":"2.1.0","time_elapsed":20188,"subject_id":"87713","group":"Group1","full_date":"2025-12-04T16:49:17.211Z","date":"2025-12-04","time":"16:49:17"},{"rt":17246,"stimulus":"<div style=\"max-width: 760px; margin: auto; font-size: 20px; line-height: 1.5;\">\n      <h1 style=\"text-align:center; font-size: 30px;\">Instructions</h1>\n      <p>\n        Welcome to the study on <b>visual memory</b>. This experiment consists of <b>two phases</b>: \n        a <b>study phase</b> and a <b>test phase</b>.\n      </p>\n      <p>\n        In the study phase, you will see a series of rock images along with their category labels.\n        The images will appear one at a time.\n        <b>Your task</b> is to learn the categories to which the rock images belong \n        and to remember each image as accurately as possible.\n      </p> \n      <p>\n        Note that we will repeat the study phase <b>3 times</b>, \n        so you will have multiple opportunities to see and remember each image.\n      </p>\n      <p>\n        After the study phase, <b>your memory will be tested</b>. \n        Additional instructions for the test phase will be provided at that time.\n      </p>\n      <p>\n        If your computer has multiple <b>language settings</b> (e.g., English and another language),\n        please make sure it is set to English before starting.\n      </p>\n      <p>\n        You can track your progress using the <b>completion bar</b> at the top of the screen. \n        Please note that the bar will refresh when the test phase begins \n        to give you an accurate sense of your progress in both phases.\n      </p> \n      <p>\n        Press the button below when you are ready to begin.\n      </p>\n    </div>","response":0,"trial_type":"html-button-response","trial_index":4,"plugin_version":"2.1.0","time_elapsed":37436,"subject_id":"87713","group":"Group1","full_date":"2025-12-04T16:49:17.211Z","date":"2025-12-04","time":"16:49:17"},{"rt":null,"stimulus":"<p style=\"font-size: 50px; margin: 0; text-align: center;\">+</p>","response":null,"trial_type":"html-keyboard-response","trial_index":5,"plugin_version":"2.1.0","time_elapsed":38441,"subject_id":"87713","group":"Group1","full_date":"2025-12-04T16:49:17.211Z","date":"2025-12-04","time":"16:49:17"},{"task":"memory_phase","broad_category":"S","image_png":"S_Shale_12.png","image_id":476,"category_name":"Shale","category":30,"distinct_rating":2.48,"distinct_type":"Bottom","rt":null,"stimulus":"Stimuli_Rocks480/S_Shale_12.png","response":null,"trial_type":"image-keyboard-response","trial_index":6,"plugin_version":"2.1.0","time_elapsed":40959,"subject_id":"87713","group":"Group1","full_date":"2025-12-04T16:49:17.211Z","date":"2025-12-04","time":"16:49:17"},{"rt":null,"stimulus":"<p style=\"font-size: 50px; margin: 0; text-align: center;\">+</p>","response":null,"trial_type":"html-keyboard-response","trial_index":7,"plugin_version":"2.1.0","time_elapsed":41962,"subject_id":"87713","group":"Group1","full_date":"2025-12-04T16:49:17.211Z","date":"2025-12-04","time":"16:49:17"},{"task":"memory_phase","broad_category":"S","image_png":"S_Rock Gypsum_04.png","image_id":420,"category_name":"Rock Gypsum","category":27,"distinct_rating":7.61,"distinct_type":"Top","rt":null,"stimulus":"Stimuli_Rocks480/S_Rock Gypsum_04.png","response":null,"trial_type":"image-keyboard-response","trial_index":8,"plugin_version":"2.1.0","time_elapsed":44478,"subject_id":"87713","group":"Group1","full_date":"2025-12-04T16:49:17.211Z","date":"2025-12-04","time":"16:49:17"},{"rt":null,"stimulus":"<p style=\"font-size: 50px; margin: 0; text-align: center;\">+</p>","response":null,"trial_type":"html-keyboard-response","trial_index":9,"plugin_version":"2.1.0","time_elapsed":45480,"subject_id":"87713","group":"Group1","full_date":"2025-12-04T16:49:17.211Z","date":"2025-12-04","time":"16:49:17"},{"task":"memory_phase","broad_category":"M","image_png":"M_Phyllite_07.png","image_id":263,"category_name":"Phyllite","category":17,"distinct_rating":2.59,"distinct_type":"Bottom","rt":null,"stimulus":"Stimuli_Rocks480/M_Phyllite_07.png","response":null,"trial_type":"image-keyboard-response","trial_index":10,"plugin_version":"2.1.0","time_elapsed":47993,"subject_id":"87713","group":"Group1","full_date":"2025-12-04T16:49:17.211Z","date":"2025-12-04","time":"16:49:17"},{"rt":null,"stimulus":"<p style=\"font-size: 50px; margin: 0; text-align: center;\">+</p>","response":null,"trial_type":"html-keyboard-response","trial_index":11,"plugin_version":"2.1.0","time_elapsed":48996,"subject_id":"87713","group":"Group1","full_date":"2025-12-04T16:49:17.211Z","date":"2025-12-04","time":"16:49:17"},{"task":"memory_phase","broad_category":"I","image_png":"I_Andesite_10.png","image_id":10,"category_name":"Andesite","category":1,"distinct_rating":3.15,"distinct_type":"Bottom","rt":null,"stimulus":"Stimuli_Rocks480/I_Andesite_10.png","response":null,"trial_type":"image-keyboard-response","trial_index":12,"plugin_version":"2.1.0","time_elapsed":51507,"subject_id":"87713","group":"Group1","full_date":"2025-12-04T16:49:17.211Z","date":"2025-12-04","time":"16:49:17"},{"rt":null,"stimulus":"<p style=\"font-size: 50px; margin: 0; text-align: center;\">+</p>","response":null,"trial_type":"html-keyboard-response","trial_index":13,"plugin_version":"2.1.0","time_elapsed":52509,"subject_id":"87713","group":"Group1","full_date":"2025-12-04T16:49:17.211Z","date":"2025-12-04","time":"16:49:17"},{"task":"memory_phase","broad_category":"S","image_png":"S_Dolomite_13.png","image_id":397,"category_name":"Dolomite","category":25,"distinct_rating":1.77,"distinct_type":"Bottom","rt":null,"stimulus":"Stimuli_Rocks480/S_Dolomite_13.png","response":null,"trial_type":"image-keyboard-response","trial_index":14,"plugin_version":"2.1.0","time_elapsed":55024,"subject_id":"87713","group":"Group1","full_date":"2025-12-04T16:49:17.211Z","date":"2025-12-04","time":"16:49:17"},{"rt":null,"stimulus":"<p style=\"font-size: 50px; margin: 0; text-align: center;\">+</p>","response":null,"trial_type":"html-keyboard-response","trial_index":15,"plugin_version":"2.1.0","time_elapsed":56026,"subject_id":"87713","group":"Group1","full_date":"2025-12-04T16:49:17.211Z","date":"2025-12-04","time":"16:49:17"},{"task":"memory_phase","broad_category":"S","image_png":"S_Rock Salt_01.png","image_id":433,"category_name":"Rock Salt","category":28,"distinct_rating":7.18,"distinct_type":"Top","rt":null,"stimulus":"Stimuli_Rocks480/S_Rock Salt_01.png","response":null,"trial_type":"image-keyboard-response","trial_index":16,"plugin_version":"2.1.0","time_elapsed":58544,"subject_id":"87713","group":"Group1","full_date":"2025-12-04T16:49:17.211Z","date":"2025-12-04","time":"16:49:17"},{"rt":null,"stimulus":"<p style=\"font-size: 50px; margin: 0; text-align: center;\">+</p>","response":null,"trial_type":"html-keyboard-response","trial_index":17,"plugin_version":"2.1.0","time_elapsed":59546,"subject_id":"87713","group":"Group1","full_date":"2025-12-04T16:49:17.211Z","date":"2025-12-04","time":"16:49:17"},{"task":"memory_phase","broad_category":"S","image_png":"S_Breccia_11.png","image_id":347,"category_name":"Breccia","category":22,"distinct_rating":6.7,"distinct_type":"Top","rt":null,"stimulus":"Stimuli_Rocks480/S_Breccia_11.png","response":null,"trial_type":"image-keyboard-response","trial_index":18,"plugin_version":"2.1.0","time_elapsed":62067,"subject_id":"87713","group":"Group1","full_date":"2025-12-04T16:49:17.211Z","date":"2025-12-04","time":"16:49:17"},{"rt":null,"stimulus":"<p style=\"font-size: 50px; margin: 0; text-align: center;\">+</p>","response":null,"trial_type":"html-keyboard-response","trial_index":19,"plugin_version":"2.1.0","time_elapsed":63069,"subject_id":"87713","group":"Group1","full_date":"2025-12-04T16:49:17.211Z","date":"2025-12-04","time":"16:49:17"},{"task":"memory_phase","broad_category":"I","image_png":"I_Gabbro_11.png","image_id":59,"category_name":"Gabbro","category":4,"distinct_rating":1.99,"distinct_type":"Bottom","rt":null,"stimulus":"Stimuli_Rocks480/I_Gabbro_11.png","response":null,"trial_type":"image-keyboard-response","trial_index":20,"plugin_version":"2.1.0","time_elapsed":65582,"subject_id":"87713","group":"Group1","full_date":"2025-12-04T16:49:17.211Z","date":"2025-12-04","time":"16:49:17"},{"rt":null,"stimulus":"<p style=\"font-size: 50px; margin: 0; text-align: center;\">+</p>","response":null,"trial_type":"html-keyboard-response","trial_index":21,"plugin_version":"2.1.0","time_elapsed":66585,"subject_id":"87713","group":"Group1","full_date":"2025-12-04T16:49:17.211Z","date":"2025-12-04","time":"16:49:17"},{"task":"memory_phase","broad_category":"M","image_png":"M_Gneiss_05.png","image_id":197,"category_name":"Gneiss","category":13,"distinct_rating":2.97,"distinct_type":"Bottom","rt":null,"stimulus":"Stimuli_Rocks480/M_Gneiss_05.png","response":null,"trial_type":"image-keyboard-response","trial_index":22,"plugin_version":"2.1.0","time_elapsed":69104,"subject_id":"87713","group":"Group1","full_date":"2025-12-04T16:49:17.211Z","date":"2025-12-04","time":"16:49:17"},{"rt":null,"stimulus":"<p style=\"font-size: 50px; margin: 0; text-align: center;\">+</p>","response":null,"trial_type":"html-keyboard-response","trial_index":23,"plugin_version":"2.1.0","time_elapsed":70106,"subject_id":"87713","group":"Group1","full_date":"2025-12-04T16:49:17.211Z","date":"2025-12-04","time":"16:49:17"},{"task":"memory_phase","broad_category":"S","image_png":"S_Dolomite_14.png","image_id":398,"category_name":"Dolomite","category":25,"distinct_rating":1.43,"distinct_type":"Bottom","rt":null,"stimulus":"Stimuli_Rocks480/S_Dolomite_14.png","response":null,"trial_type":"image-keyboard-response","trial_index":24,"plugin_version":"2.1.0","time_elapsed":72620,"subject_id":"87713","group":"Group1","full_date":"2025-12-04T16:49:17.211Z","date":"2025-12-04","time":"16:49:17"},{"rt":null,"stimulus":"<p style=\"font-size: 50px; margin: 0; text-align: center;\">+</p>","response":null,"trial_type":"html-keyboard-response","trial_index":25,"plugin_version":"2.1.0","time_elapsed":73622,"subject_id":"87713","group":"Group1","full_date":"2025-12-04T16:49:17.211Z","date":"2025-12-04","time":"16:49:17"},{"task":"memory_phase","broad_category":"I","image_png":"I_Gabbro_16.png","image_id":64,"category_name":"Gabbro","category":4,"distinct_rating":2.52,"distinct_type":"Bottom","rt":null,"stimulus":"Stimuli_Rocks480/I_Gabbro_16.png","response":null,"trial_type":"image-keyboard-response","trial_index":26,"plugin_version":"2.1.0","time_elapsed":76137,"subject_id":"87713","group":"Group1","full_date":"2025-12-04T16:49:17.211Z","date":"2025-12-04","time":"16:49:17"},{"rt":null,"stimulus":"<p style=\"font-size: 50px; margin: 0; text-align: center;\">+</p>","response":null,"trial_type":"html-keyboard-response","trial_index":27,"plugin_version":"2.1.0","time_elapsed":77139,"subject_id":"87713","group":"Group1","full_date":"2025-12-04T16:49:17.211Z","date":"2025-12-04","time":"16:49:17"},{"task":"memory_phase","broad_category":"M","image_png":"M_Slate_11.png","image_id":315,"category_name":"Slate","category":20,"distinct_rating":2.75,"distinct_type":"Bottom","rt":null,"stimulus":"Stimuli_Rocks480/M_Slate_11.png","response":null,"trial_type":"image-keyboard-response","trial_index":28,"plugin_version":"2.1.0","time_elapsed":79652,"subject_id":"87713","group":"Group1","full_date":"2025-12-04T16:49:17.211Z","date":"2025-12-04","time":"16:49:17"},{"rt":null,"stimulus":"<p style=\"font-size: 50px; margin: 0; text-align: center;\">+</p>","response":null,"trial_type":"html-keyboard-response","trial_index":29,"plugin_version":"2.1.0","time_elapsed":80655,"subject_id":"87713","group":"Group1","full_date":"2025-12-04T16:49:17.211Z","date":"2025-12-04","time":"16:49:17"},{"task":"memory_phase","broad_category":"S","image_png":"S_Dolomite_12.png","image_id":396,"category_name":"Dolomite","category":25,"distinct_rating":1.85,"distinct_type":"Bottom","rt":null,"stimulus":"Stimuli_Rocks480/S_Dolomite_12.png","response":null,"trial_type":"image-keyboard-response","trial_index":30,"plugin_version":"2.1.0","time_elapsed":83170,"subject_id":"87713","group":"Group1","full_date":"2025-12-04T16:49:17.211Z","date":"2025-12-04","time":"16:49:17"},{"rt":null,"stimulus":"<p style=\"font-size: 50px; margin: 0; text-align: center;\">+</p>","response":null,"trial_type":"html-keyboard-response","trial_index":31,"plugin_version":"2.1.0","time_elapsed":84173,"subject_id":"87713","group":"Group1","full_date":"2025-12-04T16:49:17.211Z","date":"2025-12-04","time":"16:49:17"},{"task":"memory_phase","broad_category":"S","image_png":"S_Shale_08.png","image_id":472,"category_name":"Shale","category":30,"distinct_rating":2.55,"distinct_type":"Bottom","rt":null,"stimulus":"Stimuli_Rocks480/S_Shale_08.png","response":null,"trial_type":"image-keyboard-response","trial_index":32,"plugin_version":"2.1.0","time_elapsed":86688,"subject_id":"87713","group":"Group1","full_date":"2025-12-04T16:49:17.211Z","date":"2025-12-04","time":"16:49:17"},{"rt":null,"stimulus":"<p style=\"font-size: 50px; margin: 0; text-align: center;\">+</p>","response":null,"trial_type":"html-keyboard-response","trial_index":33,"plugin_version":"2.1.0","time_elapsed":87691,"subject_id":"87713","group":"Group1","full_date":"2025-12-04T16:49:17.211Z","date":"2025-12-04","time":"16:49:17"},{"task":"memory_phase","broad_category":"M","image_png":"M_Phyllite_03.png","image_id":259,"category_name":"Phyllite","category":17,"distinct_rating":2.5,"distinct_type":"Bottom","rt":null,"stimulus":"Stimuli_Rocks480/M_Phyllite_03.png","response":null,"trial_type":"image-keyboard-response","trial_index":34,"plugin_version":"2.1.0","time_elapsed":90206,"subject_id":"87713","group":"Group1","full_date":"2025-12-04T16:49:17.211Z","date":"2025-12-04","time":"16:49:17"},{"rt":null,"stimulus":"<p style=\"font-size: 50px; margin: 0; text-align: center;\">+</p>","response":null,"trial_type":"html-keyboard-response","trial_index":35,"plugin_version":"2.1.0","time_elapsed":91208,"subject_id":"87713","group":"Group1","full_date":"2025-12-04T16:49:17.211Z","date":"2025-12-04","time":"16:49:17"},{"task":"memory_phase","broad_category":"I","image_png":"I_Pumice_11.png","image_id":139,"category_name":"Pumice","category":9,"distinct_rating":1.74,"distinct_type":"Bottom","rt":null,"stimulus":"Stimuli_Rocks480/I_Pumice_11.png","response":null,"trial_type":"image-keyboard-response","trial_index":36,"plugin_version":"2.1.0","time_elapsed":93721,"subject_id":"87713","group":"Group1","full_date":"2025-12-04T16:49:17.211Z","date":"2025-12-04","time":"16:49:17"},{"rt":null,"stimulus":"<p style=\"font-size: 50px; margin: 0; text-align: center;\">+</p>","response":null,"trial_type":"html-keyboard-response","trial_index":37,"plugin_version":"2.1.0","time_elapsed":94723,"subject_id":"87713","group":"Group1","full_date":"2025-12-04T16:49:17.211Z","date":"2025-12-04","time":"16:49:17"},{"task":"memory_phase","broad_category":"M","image_png":"M_Marble_04.png","image_id":228,"category_name":"Marble","category":15,"distinct_rating":3.15,"distinct_type":"Bottom","rt":null,"stimulus":"Stimuli_Rocks480/M_Marble_04.png","response":null,"trial_type":"image-keyboard-response","trial_index":38,"plugin_version":"2.1.0","time_elapsed":97237,"subject_id":"87713","group":"Group1","full_date":"2025-12-04T16:49:17.211Z","date":"2025-12-04","time":"16:49:17"},{"rt":null,"stimulus":"<p style=\"font-size: 50px; margin: 0; text-align: center;\">+</p>","response":null,"trial_type":"html-keyboard-response","trial_index":39,"plugin_version":"2.1.0","time_elapsed":98240,"subject_id":"87713","group":"Group1","full_date":"2025-12-04T16:49:17.211Z","date":"2025-12-04","time":"16:49:17"},{"task":"memory_phase","broad_category":"S","image_png":"S_Chert_10.png","image_id":362,"category_name":"Chert","category":23,"distinct_rating":7.17,"distinct_type":"Top","rt":null,"stimulus":"Stimuli_Rocks480/S_Chert_10.png","response":null,"trial_type":"image-keyboard-response","trial_index":40,"plugin_version":"2.1.0","time_elapsed":100757,"subject_id":"87713","group":"Group1","full_date":"2025-12-04T16:49:17.211Z","date":"2025-12-04","time":"16:49:17"},{"rt":null,"stimulus":"<p style=\"font-size: 50px; margin: 0; text-align: center;\">+</p>","response":null,"trial_type":"html-keyboard-response","trial_index":41,"plugin_version":"2.1.0","time_elapsed":101760,"subject_id":"87713","group":"Group1","full_date":"2025-12-04T16:49:17.211Z","date":"2025-12-04","time":"16:49:17"},{"task":"memory_phase","broad_category":"I","image_png":"I_Basalt_09.png","image_id":25,"category_name":"Basalt","category":2,"distinct_rating":1.89,"distinct_type":"Bottom","rt":null,"stimulus":"Stimuli_Rocks480/I_Basalt_09.png","response":null,"trial_type":"image-keyboard-response","trial_index":42,"plugin_version":"2.1.0","time_elapsed":104273,"subject_id":"87713","group":"Group1","full_date":"2025-12-04T16:49:17.211Z","date":"2025-12-04","time":"16:49:17"},{"rt":null,"stimulus":"<p style=\"font-size: 50px; margin: 0; text-align: center;\">+</p>","response":null,"trial_type":"html-keyboard-response","trial_index":43,"plugin_version":"2.1.0","time_elapsed":105275,"subject_id":"87713","group":"Group1","full_date":"2025-12-04T16:49:17.211Z","date":"2025-12-04","time":"16:49:17"},{"task":"memory_phase","broad_category":"I","image_png":"I_Basalt_01.png","image_id":17,"category_name":"Basalt","category":2,"distinct_rating":1.92,"distinct_type":"Bottom","rt":null,"stimulus":"Stimuli_Rocks480/I_Basalt_01.png","response":null,"trial_type":"image-keyboard-response","trial_index":44,"plugin_version":"2.1.0","time_elapsed":107792,"subject_id":"87713","group":"Group1","full_date":"2025-12-04T16:49:17.211Z","date":"2025-12-04","time":"16:49:17"},{"rt":null,"stimulus":"<p style=\"font-size: 50px; margin: 0; text-align: center;\">+</p>","response":null,"trial_type":"html-keyboard-response","trial_index":45,"plugin_version":"2.1.0","time_elapsed":108794,"subject_id":"87713","group":"Group1","full_date":"2025-12-04T16:49:17.211Z","date":"2025-12-04","time":"16:49:17"},{"task":"memory_phase","broad_category":"I","image_png":"I_Andesite_06.png","image_id":6,"category_name":"Andesite","category":1,"distinct_rating":3.17,"distinct_type":"Bottom","rt":null,"stimulus":"Stimuli_Rocks480/I_Andesite_06.png","response":null,"trial_type":"image-keyboard-response","trial_index":46,"plugin_version":"2.1.0","time_elapsed":111311,"subject_id":"87713","group":"Group1","full_date":"2025-12-04T16:49:17.211Z","date":"2025-12-04","time":"16:49:17"},{"rt":null,"stimulus":"<p style=\"font-size: 50px; margin: 0; text-align: center;\">+</p>","response":null,"trial_type":"html-keyboard-response","trial_index":47,"plugin_version":"2.1.0","time_elapsed":112314,"subject_id":"87713","group":"Group1","full_date":"2025-12-04T16:49:17.211Z","date":"2025-12-04","time":"16:49:17"},{"task":"memory_phase","broad_category":"M","image_png":"M_Slate_15.png","image_id":319,"category_name":"Slate","category":20,"distinct_rating":2.13,"distinct_type":"Bottom","rt":null,"stimulus":"Stimuli_Rocks480/M_Slate_15.png","response":null,"trial_type":"image-keyboard-response","trial_index":48,"plugin_version":"2.1.0","time_elapsed":114825,"subject_id":"87713","group":"Group1","full_date":"2025-12-04T16:49:17.211Z","date":"2025-12-04","time":"16:49:17"},{"rt":null,"stimulus":"<p style=\"font-size: 50px; margin: 0; text-align: center;\">+</p>","response":null,"trial_type":"html-keyboard-response","trial_index":49,"plugin_version":"2.1.0","time_elapsed":115828,"subject_id":"87713","group":"Group1","full_date":"2025-12-04T16:49:17.211Z","date":"2025-12-04","time":"16:49:17"},{"task":"memory_phase","broad_category":"S","image_png":"S_Shale_01.png","image_id":465,"category_name":"Shale","category":30,"distinct_rating":2.7,"distinct_type":"Bottom","rt":null,"stimulus":"Stimuli_Rocks480/S_Shale_01.png","response":null,"trial_type":"image-keyboard-response","trial_index":50,"plugin_version":"2.1.0","time_elapsed":118341,"subject_id":"87713","group":"Group1","full_date":"2025-12-04T16:49:17.211Z","date":"2025-12-04","time":"16:49:17"},{"rt":null,"stimulus":"<p style=\"font-size: 50px; margin: 0; text-align: center;\">+</p>","response":null,"trial_type":"html-keyboard-response","trial_index":51,"plugin_version":"2.1.0","time_elapsed":119343,"subject_id":"87713","group":"Group1","full_date":"2025-12-04T16:49:17.211Z","date":"2025-12-04","time":"16:49:17"},{"task":"memory_phase","broad_category":"M","image_png":"M_Gneiss_13.png","image_id":205,"category_name":"Gneiss","category":13,"distinct_rating":3.26,"distinct_type":"Bottom","rt":null,"stimulus":"Stimuli_Rocks480/M_Gneiss_13.png","response":null,"trial_type":"image-keyboard-response","trial_index":52,"plugin_version":"2.1.0","time_elapsed":121855,"subject_id":"87713","group":"Group1","full_date":"2025-12-04T16:49:17.211Z","date":"2025-12-04","time":"16:49:17"},{"rt":null,"stimulus":"<p style=\"font-size: 50px; margin: 0; text-align: center;\">+</p>","response":null,"trial_type":"html-keyboard-response","trial_index":53,"plugin_version":"2.1.0","time_elapsed":122857,"subject_id":"87713","group":"Group1","full_date":"2025-12-04T16:49:17.211Z","date":"2025-12-04","time":"16:49:17"},{"task":"memory_phase","broad_category":"I","image_png":"I_Andesite_08.png","image_id":8,"category_name":"Andesite","category":1,"distinct_rating":1.95,"distinct_type":"Bottom","rt":null,"stimulus":"Stimuli_Rocks480/I_Andesite_08.png","response":null,"trial_type":"image-keyboard-response","trial_index":54,"plugin_version":"2.1.0","time_elapsed":125375,"subject_id":"87713","group":"Group1","full_date":"2025-12-04T16:49:17.211Z","date":"2025-12-04","time":"16:49:17"},{"rt":1626,"stimulus":"<p style=\"max-width: 760px; margin: auto; font-size: 35px; line-height: 1.5;\">Press SPACE to continue study phase</p>","response":" ","trial_type":"html-keyboard-response","trial_index":55,"plugin_version":"2.1.0","time_elapsed":127004,"subject_id":"87713","group":"Group1","full_date":"2025-12-04T16:49:17.211Z","date":"2025-12-04","time":"16:49:17"},{"rt":null,"stimulus":"<p style=\"font-size: 50px; margin: 0; text-align: center;\">+</p>","response":null,"trial_type":"html-keyboard-response","trial_index":56,"plugin_version":"2.1.0","time_elapsed":128008,"subject_id":"87713","group":"Group1","full_date":"2025-12-04T16:49:17.211Z","date":"2025-12-04","time":"16:49:17"},{"task":"memory_phase","broad_category":"I","image_png":"I_Pegmatite_10.png","image_id":106,"category_name":"Pegmatite","category":7,"distinct_rating":7.66,"distinct_type":"Top","rt":null,"stimulus":"Stimuli_Rocks480/I_Pegmatite_10.png","response":null,"trial_type":"image-keyboard-response","trial_index":57,"plugin_version":"2.1.0","time_elapsed":130522,"subject_id":"87713","group":"Group1","full_date":"2025-12-04T16:49:17.211Z","date":"2025-12-04","time":"16:49:17"},{"rt":null,"stimulus":"<p style=\"font-size: 50px; margin: 0; text-align: center;\">+</p>","response":null,"trial_type":"html-keyboard-response","trial_index":58,"plugin_version":"2.1.0","time_elapsed":131525,"subject_id":"87713","group":"Group1","full_date":"2025-12-04T16:49:17.211Z","date":"2025-12-04","time":"16:49:17"},{"task":"memory_phase","broad_category":"I","image_png":"I_Pumice_12.png","image_id":140,"category_name":"Pumice","category":9,"distinct_rating":2.97,"distinct_type":"Bottom","rt":null,"stimulus":"Stimuli_Rocks480/I_Pumice_12.png","response":null,"trial_type":"image-keyboard-response","trial_index":59,"plugin_version":"2.1.0","time_elapsed":134037,"subject_id":"87713","group":"Group1","full_date":"2025-12-04T16:49:17.211Z","date":"2025-12-04","time":"16:49:17"},{"rt":null,"stimulus":"<p style=\"font-size: 50px; margin: 0; text-align: center;\">+</p>","response":null,"trial_type":"html-keyboard-response","trial_index":60,"plugin_version":"2.1.0","time_elapsed":135040,"subject_id":"87713","group":"Group1","full_date":"2025-12-04T16:49:17.211Z","date":"2025-12-04","time":"16:49:17"},{"task":"memory_phase","broad_category":"M","image_png":"M_Phyllite_10.png","image_id":266,"category_name":"Phyllite","category":17,"distinct_rating":2.6,"distinct_type":"Bottom","rt":null,"stimulus":"Stimuli_Rocks480/M_Phyllite_10.png","response":null,"trial_type":"image-keyboard-response","trial_index":61,"plugin_version":"2.1.0","time_elapsed":137553,"subject_id":"87713","group":"Group1","full_date":"2025-12-04T16:49:17.211Z","date":"2025-12-04","time":"16:49:17"},{"rt":null,"stimulus":"<p style=\"font-size: 50px; margin: 0; text-align: center;\">+</p>","response":null,"trial_type":"html-keyboard-response","trial_index":62,"plugin_version":"2.1.0","time_elapsed":138555,"subject_id":"87713","group":"Group1","full_date":"2025-12-04T16:49:17.211Z","date":"2025-12-04","time":"16:49:17"},{"task":"memory_phase","broad_category":"I","image_png":"I_Rhyolite_16.png","image_id":160,"category_name":"Rhyolite","category":10,"distinct_rating":2.19,"distinct_type":"Bottom","rt":null,"stimulus":"Stimuli_Rocks480/I_Rhyolite_16.png","response":null,"trial_type":"image-keyboard-response","trial_index":63,"plugin_version":"2.1.0","time_elapsed":141069,"subject_id":"87713","group":"Group1","full_date":"2025-12-04T16:49:17.211Z","date":"2025-12-04","time":"16:49:17"},{"rt":null,"stimulus":"<p style=\"font-size: 50px; margin: 0; text-align: center;\">+</p>","response":null,"trial_type":"html-keyboard-response","trial_index":64,"plugin_version":"2.1.0","time_elapsed":142071,"subject_id":"87713","group":"Group1","full_date":"2025-12-04T16:49:17.211Z","date":"2025-12-04","time":"16:49:17"},{"task":"memory_phase","broad_category":"S","image_png":"S_Sandstone_15.png","image_id":463,"category_name":"Sandstone","category":29,"distinct_rating":2,"distinct_type":"Bottom","rt":null,"stimulus":"Stimuli_Rocks480/S_Sandstone_15.png","response":null,"trial_type":"image-keyboard-response","trial_index":65,"plugin_version":"2.1.0","time_elapsed":144590,"subject_id":"87713","group":"Group1","full_date":"2025-12-04T16:49:17.211Z","date":"2025-12-04","time":"16:49:17"},{"rt":null,"stimulus":"<p style=\"font-size: 50px; margin: 0; text-align: center;\">+</p>","response":null,"trial_type":"html-keyboard-response","trial_index":66,"plugin_version":"2.1.0","time_elapsed":145592,"subject_id":"87713","group":"Group1","full_date":"2025-12-04T16:49:17.211Z","date":"2025-12-04","time":"16:49:17"},{"task":"memory_phase","broad_category":"I","image_png":"I_Pegmatite_16.png","image_id":112,"category_name":"Pegmatite","category":7,"distinct_rating":7.03,"distinct_type":"Top","rt":null,"stimulus":"Stimuli_Rocks480/I_Pegmatite_16.png","response":null,"trial_type":"image-keyboard-response","trial_index":67,"plugin_version":"2.1.0","time_elapsed":148113,"subject_id":"87713","group":"Group1","full_date":"2025-12-04T16:49:17.211Z","date":"2025-12-04","time":"16:49:17"},{"rt":null,"stimulus":"<p style=\"font-size: 50px; margin: 0; text-align: center;\">+</p>","response":null,"trial_type":"html-keyboard-response","trial_index":68,"plugin_version":"2.1.0","time_elapsed":149116,"subject_id":"87713","group":"Group1","full_date":"2025-12-04T16:49:17.211Z","date":"2025-12-04","time":"16:49:17"},{"task":"memory_phase","broad_category":"I","image_png":"I_Obsidian_05.png","image_id":85,"category_name":"Obsidian","category":6,"distinct_rating":7.32,"distinct_type":"Top","rt":null,"stimulus":"Stimuli_Rocks480/I_Obsidian_05.png","response":null,"trial_type":"image-keyboard-response","trial_index":69,"plugin_version":"2.1.0","time_elapsed":151632,"subject_id":"87713","group":"Group1","full_date":"2025-12-04T16:49:17.211Z","date":"2025-12-04","time":"16:49:17"},{"rt":null,"stimulus":"<p style=\"font-size: 50px; margin: 0; text-align: center;\">+</p>","response":null,"trial_type":"html-keyboard-response","trial_index":70,"plugin_version":"2.1.0","time_elapsed":152635,"subject_id":"87713","group":"Group1","full_date":"2025-12-04T16:49:17.211Z","date":"2025-12-04","time":"16:49:17"},{"task":"memory_phase","broad_category":"M","image_png":"M_Slate_03.png","image_id":307,"category_name":"Slate","category":20,"distinct_rating":1.87,"distinct_type":"Bottom","rt":null,"stimulus":"Stimuli_Rocks480/M_Slate_03.png","response":null,"trial_type":"image-keyboard-response","trial_index":71,"plugin_version":"2.1.0","time_elapsed":155152,"subject_id":"87713","group":"Group1","full_date":"2025-12-04T16:49:17.211Z","date":"2025-12-04","time":"16:49:17"},{"rt":null,"stimulus":"<p style=\"font-size: 50px; margin: 0; text-align: center;\">+</p>","response":null,"trial_type":"html-keyboard-response","trial_index":72,"plugin_version":"2.1.0","time_elapsed":156154,"subject_id":"87713","group":"Group1","full_date":"2025-12-04T16:49:17.211Z","date":"2025-12-04","time":"16:49:17"},{"task":"memory_phase","broad_category":"I","image_png":"I_Rhyolite_11.png","image_id":155,"category_name":"Rhyolite","category":10,"distinct_rating":1.73,"distinct_type":"Bottom","rt":null,"stimulus":"Stimuli_Rocks480/I_Rhyolite_11.png","response":null,"trial_type":"image-keyboard-response","trial_index":73,"plugin_version":"2.1.0","time_elapsed":158668,"subject_id":"87713","group":"Group1","full_date":"2025-12-04T16:49:17.211Z","date":"2025-12-04","time":"16:49:17"},{"rt":null,"stimulus":"<p style=\"font-size: 50px; margin: 0; text-align: center;\">+</p>","response":null,"trial_type":"html-keyboard-response","trial_index":74,"plugin_version":"2.1.0","time_elapsed":159670,"subject_id":"87713","group":"Group1","full_date":"2025-12-04T16:49:17.211Z","date":"2025-12-04","time":"16:49:17"},{"task":"memory_phase","broad_category":"M","image_png":"M_Quartzite_13.png","image_id":285,"category_name":"Quartzite","category":18,"distinct_rating":2.27,"distinct_type":"Bottom","rt":null,"stimulus":"Stimuli_Rocks480/M_Quartzite_13.png","response":null,"trial_type":"image-keyboard-response","trial_index":75,"plugin_version":"2.1.0","time_elapsed":162186,"subject_id":"87713","group":"Group1","full_date":"2025-12-04T16:49:17.211Z","date":"2025-12-04","time":"16:49:17"},{"rt":null,"stimulus":"<p style=\"font-size: 50px; margin: 0; text-align: center;\">+</p>","response":null,"trial_type":"html-keyboard-response","trial_index":76,"plugin_version":"2.1.0","time_elapsed":163188,"subject_id":"87713","group":"Group1","full_date":"2025-12-04T16:49:17.211Z","date":"2025-12-04","time":"16:49:17"},{"task":"memory_phase","broad_category":"I","image_png":"I_Basalt_02.png","image_id":18,"category_name":"Basalt","category":2,"distinct_rating":1.84,"distinct_type":"Bottom","rt":null,"stimulus":"Stimuli_Rocks480/I_Basalt_02.png","response":null,"trial_type":"image-keyboard-response","trial_index":77,"plugin_version":"2.1.0","time_elapsed":165704,"subject_id":"87713","group":"Group1","full_date":"2025-12-04T16:49:17.211Z","date":"2025-12-04","time":"16:49:17"},{"rt":null,"stimulus":"<p style=\"font-size: 50px; margin: 0; text-align: center;\">+</p>","response":null,"trial_type":"html-keyboard-response","trial_index":78,"plugin_version":"2.1.0","time_elapsed":166706,"subject_id":"87713","group":"Group1","full_date":"2025-12-04T16:49:17.211Z","date":"2025-12-04","time":"16:49:17"},{"task":"memory_phase","broad_category":"I","image_png":"I_Rhyolite_14.png","image_id":158,"category_name":"Rhyolite","category":10,"distinct_rating":2.59,"distinct_type":"Bottom","rt":null,"stimulus":"Stimuli_Rocks480/I_Rhyolite_14.png","response":null,"trial_type":"image-keyboard-response","trial_index":79,"plugin_version":"2.1.0","time_elapsed":169219,"subject_id":"87713","group":"Group1","full_date":"2025-12-04T16:49:17.211Z","date":"2025-12-04","time":"16:49:17"},{"rt":null,"stimulus":"<p style=\"font-size: 50px; margin: 0; text-align: center;\">+</p>","response":null,"trial_type":"html-keyboard-response","trial_index":80,"plugin_version":"2.1.0","time_elapsed":170221,"subject_id":"87713","group":"Group1","full_date":"2025-12-04T16:49:17.211Z","date":"2025-12-04","time":"16:49:17"},{"task":"memory_phase","broad_category":"I","image_png":"I_Diorite_05.png","image_id":37,"category_name":"Diorite","category":3,"distinct_rating":3.08,"distinct_type":"Bottom","rt":null,"stimulus":"Stimuli_Rocks480/I_Diorite_05.png","response":null,"trial_type":"image-keyboard-response","trial_index":81,"plugin_version":"2.1.0","time_elapsed":172737,"subject_id":"87713","group":"Group1","full_date":"2025-12-04T16:49:17.211Z","date":"2025-12-04","time":"16:49:17"},{"rt":null,"stimulus":"<p style=\"font-size: 50px; margin: 0; text-align: center;\">+</p>","response":null,"trial_type":"html-keyboard-response","trial_index":82,"plugin_version":"2.1.0","time_elapsed":173739,"subject_id":"87713","group":"Group1","full_date":"2025-12-04T16:49:17.211Z","date":"2025-12-04","time":"16:49:17"},{"task":"memory_phase","broad_category":"M","image_png":"M_Quartzite_08.png","image_id":280,"category_name":"Quartzite","category":18,"distinct_rating":2.15,"distinct_type":"Bottom","rt":null,"stimulus":"Stimuli_Rocks480/M_Quartzite_08.png","response":null,"trial_type":"image-keyboard-response","trial_index":83,"plugin_version":"2.1.0","time_elapsed":176253,"subject_id":"87713","group":"Group1","full_date":"2025-12-04T16:49:17.211Z","date":"2025-12-04","time":"16:49:17"},{"rt":null,"stimulus":"<p style=\"font-size: 50px; margin: 0; text-align: center;\">+</p>","response":null,"trial_type":"html-keyboard-response","trial_index":84,"plugin_version":"2.1.0","time_elapsed":177255,"subject_id":"87713","group":"Group1","full_date":"2025-12-04T16:49:17.211Z","date":"2025-12-04","time":"16:49:17"},{"task":"memory_phase","broad_category":"M","image_png":"M_Marble_16.png","image_id":240,"category_name":"Marble","category":15,"distinct_rating":2.57,"distinct_type":"Bottom","rt":null,"stimulus":"Stimuli_Rocks480/M_Marble_16.png","response":null,"trial_type":"image-keyboard-response","trial_index":85,"plugin_version":"2.1.0","time_elapsed":179770,"subject_id":"87713","group":"Group1","full_date":"2025-12-04T16:49:17.211Z","date":"2025-12-04","time":"16:49:17"},{"rt":null,"stimulus":"<p style=\"font-size: 50px; margin: 0; text-align: center;\">+</p>","response":null,"trial_type":"html-keyboard-response","trial_index":86,"plugin_version":"2.1.0","time_elapsed":180772,"subject_id":"87713","group":"Group1","full_date":"2025-12-04T16:49:17.211Z","date":"2025-12-04","time":"16:49:17"},{"task":"memory_phase","broad_category":"S","image_png":"S_Sandstone_16.png","image_id":464,"category_name":"Sandstone","category":29,"distinct_rating":1.93,"distinct_type":"Bottom","rt":null,"stimulus":"Stimuli_Rocks480/S_Sandstone_16.png","response":null,"trial_type":"image-keyboard-response","trial_index":87,"plugin_version":"2.1.0","time_elapsed":183283,"subject_id":"87713","group":"Group1","full_date":"2025-12-04T16:49:17.211Z","date":"2025-12-04","time":"16:49:17"},{"rt":null,"stimulus":"<p style=\"font-size: 50px; margin: 0; text-align: center;\">+</p>","response":null,"trial_type":"html-keyboard-response","trial_index":88,"plugin_version":"2.1.0","time_elapsed":184285,"subject_id":"87713","group":"Group1","full_date":"2025-12-04T16:49:17.211Z","date":"2025-12-04","time":"16:49:17"},{"task":"memory_phase","broad_category":"I","image_png":"I_Diorite_04.png","image_id":36,"category_name":"Diorite","category":3,"distinct_rating":2.98,"distinct_type":"Bottom","rt":null,"stimulus":"Stimuli_Rocks480/I_Diorite_04.png","response":null,"trial_type":"image-keyboard-response","trial_index":89,"plugin_version":"2.1.0","time_elapsed":186802,"subject_id":"87713","group":"Group1","full_date":"2025-12-04T16:49:17.211Z","date":"2025-12-04","time":"16:49:17"},{"rt":null,"stimulus":"<p style=\"font-size: 50px; margin: 0; text-align: center;\">+</p>","response":null,"trial_type":"html-keyboard-response","trial_index":90,"plugin_version":"2.1.0","time_elapsed":187803,"subject_id":"87713","group":"Group1","full_date":"2025-12-04T16:49:17.211Z","date":"2025-12-04","time":"16:49:17"},{"task":"memory_phase","broad_category":"M","image_png":"M_Marble_06.png","image_id":230,"category_name":"Marble","category":15,"distinct_rating":3.4,"distinct_type":"Bottom","rt":null,"stimulus":"Stimuli_Rocks480/M_Marble_06.png","response":null,"trial_type":"image-keyboard-response","trial_index":91,"plugin_version":"2.1.0","time_elapsed":190319,"subject_id":"87713","group":"Group1","full_date":"2025-12-04T16:49:17.211Z","date":"2025-12-04","time":"16:49:17"},{"rt":null,"stimulus":"<p style=\"font-size: 50px; margin: 0; text-align: center;\">+</p>","response":null,"trial_type":"html-keyboard-response","trial_index":92,"plugin_version":"2.1.0","time_elapsed":191321,"subject_id":"87713","group":"Group1","full_date":"2025-12-04T16:49:17.211Z","date":"2025-12-04","time":"16:49:17"},{"task":"memory_phase","broad_category":"M","image_png":"M_Quartzite_05.png","image_id":277,"category_name":"Quartzite","category":18,"distinct_rating":2.23,"distinct_type":"Bottom","rt":null,"stimulus":"Stimuli_Rocks480/M_Quartzite_05.png","response":null,"trial_type":"image-keyboard-response","trial_index":93,"plugin_version":"2.1.0","time_elapsed":193839,"subject_id":"87713","group":"Group1","full_date":"2025-12-04T16:49:17.211Z","date":"2025-12-04","time":"16:49:17"},{"rt":null,"stimulus":"<p style=\"font-size: 50px; margin: 0; text-align: center;\">+</p>","response":null,"trial_type":"html-keyboard-response","trial_index":94,"plugin_version":"2.1.0","time_elapsed":194841,"subject_id":"87713","group":"Group1","full_date":"2025-12-04T16:49:17.211Z","date":"2025-12-04","time":"16:49:17"},{"task":"memory_phase","broad_category":"I","image_png":"I_Diorite_03.png","image_id":35,"category_name":"Diorite","category":3,"distinct_rating":3.14,"distinct_type":"Bottom","rt":null,"stimulus":"Stimuli_Rocks480/I_Diorite_03.png","response":null,"trial_type":"image-keyboard-response","trial_index":95,"plugin_version":"2.1.0","time_elapsed":197360,"subject_id":"87713","group":"Group1","full_date":"2025-12-04T16:49:17.211Z","date":"2025-12-04","time":"16:49:17"},{"rt":null,"stimulus":"<p style=\"font-size: 50px; margin: 0; text-align: center;\">+</p>","response":null,"trial_type":"html-keyboard-response","trial_index":96,"plugin_version":"2.1.0","time_elapsed":198362,"subject_id":"87713","group":"Group1","full_date":"2025-12-04T16:49:17.211Z","date":"2025-12-04","time":"16:49:17"},{"task":"memory_phase","broad_category":"I","image_png":"I_Pumice_08.png","image_id":136,"category_name":"Pumice","category":9,"distinct_rating":3.1,"distinct_type":"Bottom","rt":null,"stimulus":"Stimuli_Rocks480/I_Pumice_08.png","response":null,"trial_type":"image-keyboard-response","trial_index":97,"plugin_version":"2.1.0","time_elapsed":200876,"subject_id":"87713","group":"Group1","full_date":"2025-12-04T16:49:17.211Z","date":"2025-12-04","time":"16:49:17"},{"rt":null,"stimulus":"<p style=\"font-size: 50px; margin: 0; text-align: center;\">+</p>","response":null,"trial_type":"html-keyboard-response","trial_index":98,"plugin_version":"2.1.0","time_elapsed":201878,"subject_id":"87713","group":"Group1","full_date":"2025-12-04T16:49:17.211Z","date":"2025-12-04","time":"16:49:17"},{"task":"memory_phase","broad_category":"S","image_png":"S_Conglomerate_05.png","image_id":373,"category_name":"Conglomerate","category":24,"distinct_rating":7.32,"distinct_type":"Top","rt":null,"stimulus":"Stimuli_Rocks480/S_Conglomerate_05.png","response":null,"trial_type":"image-keyboard-response","trial_index":99,"plugin_version":"2.1.0","time_elapsed":204393,"subject_id":"87713","group":"Group1","full_date":"2025-12-04T16:49:17.211Z","date":"2025-12-04","time":"16:49:17"},{"rt":null,"stimulus":"<p style=\"font-size: 50px; margin: 0; text-align: center;\">+</p>","response":null,"trial_type":"html-keyboard-response","trial_index":100,"plugin_version":"2.1.0","time_elapsed":205395,"subject_id":"87713","group":"Group1","full_date":"2025-12-04T16:49:17.211Z","date":"2025-12-04","time":"16:49:17"},{"task":"memory_phase","broad_category":"I","image_png":"I_Gabbro_08.png","image_id":56,"category_name":"Gabbro","category":4,"distinct_rating":3.02,"distinct_type":"Bottom","rt":null,"stimulus":"Stimuli_Rocks480/I_Gabbro_08.png","response":null,"trial_type":"image-keyboard-response","trial_index":101,"plugin_version":"2.1.0","time_elapsed":207915,"subject_id":"87713","group":"Group1","full_date":"2025-12-04T16:49:17.211Z","date":"2025-12-04","time":"16:49:17"},{"rt":null,"stimulus":"<p style=\"font-size: 50px; margin: 0; text-align: center;\">+</p>","response":null,"trial_type":"html-keyboard-response","trial_index":102,"plugin_version":"2.1.0","time_elapsed":208916,"subject_id":"87713","group":"Group1","full_date":"2025-12-04T16:49:17.211Z","date":"2025-12-04","time":"16:49:17"},{"task":"memory_phase","broad_category":"S","image_png":"S_Sandstone_03.png","image_id":451,"category_name":"Sandstone","category":29,"distinct_rating":1.86,"distinct_type":"Bottom","rt":null,"stimulus":"Stimuli_Rocks480/S_Sandstone_03.png","response":null,"trial_type":"image-keyboard-response","trial_index":103,"plugin_version":"2.1.0","time_elapsed":211432,"subject_id":"87713","group":"Group1","full_date":"2025-12-04T16:49:17.211Z","date":"2025-12-04","time":"16:49:17"},{"rt":null,"stimulus":"<p style=\"font-size: 50px; margin: 0; text-align: center;\">+</p>","response":null,"trial_type":"html-keyboard-response","trial_index":104,"plugin_version":"2.1.0","time_elapsed":212434,"subject_id":"87713","group":"Group1","full_date":"2025-12-04T16:49:17.211Z","date":"2025-12-04","time":"16:49:17"},{"task":"memory_phase","broad_category":"M","image_png":"M_Gneiss_06.png","image_id":198,"category_name":"Gneiss","category":13,"distinct_rating":2.65,"distinct_type":"Bottom","rt":null,"stimulus":"Stimuli_Rocks480/M_Gneiss_06.png","response":null,"trial_type":"image-keyboard-response","trial_index":105,"plugin_version":"2.1.0","time_elapsed":214951,"subject_id":"87713","group":"Group1","full_date":"2025-12-04T16:49:17.211Z","date":"2025-12-04","time":"16:49:17"},{"rt":2370,"stimulus":"<p style=\"max-width: 760px; margin: auto; font-size: 35px; line-height: 1.5;\">You have completed 1 study phase. Now, we'll show you all the images again 2 more times.<br><br>Press SPACE to continue</p>","response":" ","trial_type":"html-keyboard-response","trial_index":106,"plugin_version":"2.1.0","time_elapsed":217322,"subject_id":"87713","group":"Group1","full_date":"2025-12-04T16:49:17.211Z","date":"2025-12-04","time":"16:49:17"},{"rt":null,"stimulus":"<p style=\"font-size: 50px; margin: 0; text-align: center;\">+</p>","response":null,"trial_type":"html-keyboard-response","trial_index":107,"plugin_version":"2.1.0","time_elapsed":218325,"subject_id":"87713","group":"Group1","full_date":"2025-12-04T16:49:17.211Z","date":"2025-12-04","time":"16:49:17"},{"task":"memory_phase","broad_category":"M","image_png":"M_Phyllite_07.png","image_id":263,"category_name":"Phyllite","category":17,"distinct_rating":2.59,"distinct_type":"Bottom","rt":null,"stimulus":"Stimuli_Rocks480/M_Phyllite_07.png","response":null,"trial_type":"image-keyboard-response","trial_index":108,"plugin_version":"2.1.0","time_elapsed":220838,"subject_id":"87713","group":"Group1","full_date":"2025-12-04T16:49:17.211Z","date":"2025-12-04","time":"16:49:17"},{"rt":null,"stimulus":"<p style=\"font-size: 50px; margin: 0; text-align: center;\">+</p>","response":null,"trial_type":"html-keyboard-response","trial_index":109,"plugin_version":"2.1.0","time_elapsed":221841,"subject_id":"87713","group":"Group1","full_date":"2025-12-04T16:49:17.211Z","date":"2025-12-04","time":"16:49:17"},{"task":"memory_phase","broad_category":"I","image_png":"I_Gabbro_11.png","image_id":59,"category_name":"Gabbro","category":4,"distinct_rating":1.99,"distinct_type":"Bottom","rt":null,"stimulus":"Stimuli_Rocks480/I_Gabbro_11.png","response":null,"trial_type":"image-keyboard-response","trial_index":110,"plugin_version":"2.1.0","time_elapsed":224354,"subject_id":"87713","group":"Group1","full_date":"2025-12-04T16:49:17.211Z","date":"2025-12-04","time":"16:49:17"},{"rt":null,"stimulus":"<p style=\"font-size: 50px; margin: 0; text-align: center;\">+</p>","response":null,"trial_type":"html-keyboard-response","trial_index":111,"plugin_version":"2.1.0","time_elapsed":225356,"subject_id":"87713","group":"Group1","full_date":"2025-12-04T16:49:17.211Z","date":"2025-12-04","time":"16:49:17"},{"task":"memory_phase","broad_category":"S","image_png":"S_Sandstone_03.png","image_id":451,"category_name":"Sandstone","category":29,"distinct_rating":1.86,"distinct_type":"Bottom","rt":null,"stimulus":"Stimuli_Rocks480/S_Sandstone_03.png","response":null,"trial_type":"image-keyboard-response","trial_index":112,"plugin_version":"2.1.0","time_elapsed":227859,"subject_id":"87713","group":"Group1","full_date":"2025-12-04T16:49:17.211Z","date":"2025-12-04","time":"16:49:17"},{"rt":null,"stimulus":"<p style=\"font-size: 50px; margin: 0; text-align: center;\">+</p>","response":null,"trial_type":"html-keyboard-response","trial_index":113,"plugin_version":"2.1.0","time_elapsed":228861,"subject_id":"87713","group":"Group1","full_date":"2025-12-04T16:49:17.211Z","date":"2025-12-04","time":"16:49:17"},{"task":"memory_phase","broad_category":"I","image_png":"I_Basalt_09.png","image_id":25,"category_name":"Basalt","category":2,"distinct_rating":1.89,"distinct_type":"Bottom","rt":null,"stimulus":"Stimuli_Rocks480/I_Basalt_09.png","response":null,"trial_type":"image-keyboard-response","trial_index":114,"plugin_version":"2.1.0","time_elapsed":231374,"subject_id":"87713","group":"Group1","full_date":"2025-12-04T16:49:17.211Z","date":"2025-12-04","time":"16:49:17"},{"rt":null,"stimulus":"<p style=\"font-size: 50px; margin: 0; text-align: center;\">+</p>","response":null,"trial_type":"html-keyboard-response","trial_index":115,"plugin_version":"2.1.0","time_elapsed":232376,"subject_id":"87713","group":"Group1","full_date":"2025-12-04T16:49:17.211Z","date":"2025-12-04","time":"16:49:17"},{"task":"memory_phase","broad_category":"I","image_png":"I_Pumice_11.png","image_id":139,"category_name":"Pumice","category":9,"distinct_rating":1.74,"distinct_type":"Bottom","rt":null,"stimulus":"Stimuli_Rocks480/I_Pumice_11.png","response":null,"trial_type":"image-keyboard-response","trial_index":116,"plugin_version":"2.1.0","time_elapsed":234886,"subject_id":"87713","group":"Group1","full_date":"2025-12-04T16:49:17.211Z","date":"2025-12-04","time":"16:49:17"},{"rt":null,"stimulus":"<p style=\"font-size: 50px; margin: 0; text-align: center;\">+</p>","response":null,"trial_type":"html-keyboard-response","trial_index":117,"plugin_version":"2.1.0","time_elapsed":235888,"subject_id":"87713","group":"Group1","full_date":"2025-12-04T16:49:17.211Z","date":"2025-12-04","time":"16:49:17"},{"task":"memory_phase","broad_category":"S","image_png":"S_Conglomerate_05.png","image_id":373,"category_name":"Conglomerate","category":24,"distinct_rating":7.32,"distinct_type":"Top","rt":null,"stimulus":"Stimuli_Rocks480/S_Conglomerate_05.png","response":null,"trial_type":"image-keyboard-response","trial_index":118,"plugin_version":"2.1.0","time_elapsed":238391,"subject_id":"87713","group":"Group1","full_date":"2025-12-04T16:49:17.211Z","date":"2025-12-04","time":"16:49:17"},{"rt":null,"stimulus":"<p style=\"font-size: 50px; margin: 0; text-align: center;\">+</p>","response":null,"trial_type":"html-keyboard-response","trial_index":119,"plugin_version":"2.1.0","time_elapsed":239393,"subject_id":"87713","group":"Group1","full_date":"2025-12-04T16:49:17.211Z","date":"2025-12-04","time":"16:49:17"},{"task":"memory_phase","broad_category":"M","image_png":"M_Phyllite_10.png","image_id":266,"category_name":"Phyllite","category":17,"distinct_rating":2.6,"distinct_type":"Bottom","rt":null,"stimulus":"Stimuli_Rocks480/M_Phyllite_10.png","response":null,"trial_type":"image-keyboard-response","trial_index":120,"plugin_version":"2.1.0","time_elapsed":241907,"subject_id":"87713","group":"Group1","full_date":"2025-12-04T16:49:17.211Z","date":"2025-12-04","time":"16:49:17"},{"rt":null,"stimulus":"<p style=\"font-size: 50px; margin: 0; text-align: center;\">+</p>","response":null,"trial_type":"html-keyboard-response","trial_index":121,"plugin_version":"2.1.0","time_elapsed":242909,"subject_id":"87713","group":"Group1","full_date":"2025-12-04T16:49:17.211Z","date":"2025-12-04","time":"16:49:17"},{"task":"memory_phase","broad_category":"I","image_png":"I_Rhyolite_16.png","image_id":160,"category_name":"Rhyolite","category":10,"distinct_rating":2.19,"distinct_type":"Bottom","rt":null,"stimulus":"Stimuli_Rocks480/I_Rhyolite_16.png","response":null,"trial_type":"image-keyboard-response","trial_index":122,"plugin_version":"2.1.0","time_elapsed":245420,"subject_id":"87713","group":"Group1","full_date":"2025-12-04T16:49:17.211Z","date":"2025-12-04","time":"16:49:17"},{"rt":null,"stimulus":"<p style=\"font-size: 50px; margin: 0; text-align: center;\">+</p>","response":null,"trial_type":"html-keyboard-response","trial_index":123,"plugin_version":"2.1.0","time_elapsed":246422,"subject_id":"87713","group":"Group1","full_date":"2025-12-04T16:49:17.211Z","date":"2025-12-04","time":"16:49:17"},{"task":"memory_phase","broad_category":"I","image_png":"I_Rhyolite_14.png","image_id":158,"category_name":"Rhyolite","category":10,"distinct_rating":2.59,"distinct_type":"Bottom","rt":null,"stimulus":"Stimuli_Rocks480/I_Rhyolite_14.png","response":null,"trial_type":"image-keyboard-response","trial_index":124,"plugin_version":"2.1.0","time_elapsed":248937,"subject_id":"87713","group":"Group1","full_date":"2025-12-04T16:49:17.211Z","date":"2025-12-04","time":"16:49:17"},{"rt":null,"stimulus":"<p style=\"font-size: 50px; margin: 0; text-align: center;\">+</p>","response":null,"trial_type":"html-keyboard-response","trial_index":125,"plugin_version":"2.1.0","time_elapsed":249939,"subject_id":"87713","group":"Group1","full_date":"2025-12-04T16:49:17.211Z","date":"2025-12-04","time":"16:49:17"},{"task":"memory_phase","broad_category":"I","image_png":"I_Pegmatite_16.png","image_id":112,"category_name":"Pegmatite","category":7,"distinct_rating":7.03,"distinct_type":"Top","rt":null,"stimulus":"Stimuli_Rocks480/I_Pegmatite_16.png","response":null,"trial_type":"image-keyboard-response","trial_index":126,"plugin_version":"2.1.0","time_elapsed":252453,"subject_id":"87713","group":"Group1","full_date":"2025-12-04T16:49:17.211Z","date":"2025-12-04","time":"16:49:17"},{"rt":null,"stimulus":"<p style=\"font-size: 50px; margin: 0; text-align: center;\">+</p>","response":null,"trial_type":"html-keyboard-response","trial_index":127,"plugin_version":"2.1.0","time_elapsed":253455,"subject_id":"87713","group":"Group1","full_date":"2025-12-04T16:49:17.211Z","date":"2025-12-04","time":"16:49:17"},{"task":"memory_phase","broad_category":"M","image_png":"M_Slate_03.png","image_id":307,"category_name":"Slate","category":20,"distinct_rating":1.87,"distinct_type":"Bottom","rt":null,"stimulus":"Stimuli_Rocks480/M_Slate_03.png","response":null,"trial_type":"image-keyboard-response","trial_index":128,"plugin_version":"2.1.0","time_elapsed":255970,"subject_id":"87713","group":"Group1","full_date":"2025-12-04T16:49:17.211Z","date":"2025-12-04","time":"16:49:17"},{"rt":null,"stimulus":"<p style=\"font-size: 50px; margin: 0; text-align: center;\">+</p>","response":null,"trial_type":"html-keyboard-response","trial_index":129,"plugin_version":"2.1.0","time_elapsed":256972,"subject_id":"87713","group":"Group1","full_date":"2025-12-04T16:49:17.211Z","date":"2025-12-04","time":"16:49:17"},{"task":"memory_phase","broad_category":"I","image_png":"I_Obsidian_05.png","image_id":85,"category_name":"Obsidian","category":6,"distinct_rating":7.32,"distinct_type":"Top","rt":null,"stimulus":"Stimuli_Rocks480/I_Obsidian_05.png","response":null,"trial_type":"image-keyboard-response","trial_index":130,"plugin_version":"2.1.0","time_elapsed":259488,"subject_id":"87713","group":"Group1","full_date":"2025-12-04T16:49:17.211Z","date":"2025-12-04","time":"16:49:17"},{"rt":null,"stimulus":"<p style=\"font-size: 50px; margin: 0; text-align: center;\">+</p>","response":null,"trial_type":"html-keyboard-response","trial_index":131,"plugin_version":"2.1.0","time_elapsed":260490,"subject_id":"87713","group":"Group1","full_date":"2025-12-04T16:49:17.211Z","date":"2025-12-04","time":"16:49:17"},{"task":"memory_phase","broad_category":"S","image_png":"S_Shale_12.png","image_id":476,"category_name":"Shale","category":30,"distinct_rating":2.48,"distinct_type":"Bottom","rt":null,"stimulus":"Stimuli_Rocks480/S_Shale_12.png","response":null,"trial_type":"image-keyboard-response","trial_index":132,"plugin_version":"2.1.0","time_elapsed":263006,"subject_id":"87713","group":"Group1","full_date":"2025-12-04T16:49:17.211Z","date":"2025-12-04","time":"16:49:17"},{"rt":null,"stimulus":"<p style=\"font-size: 50px; margin: 0; text-align: center;\">+</p>","response":null,"trial_type":"html-keyboard-response","trial_index":133,"plugin_version":"2.1.0","time_elapsed":264008,"subject_id":"87713","group":"Group1","full_date":"2025-12-04T16:49:17.211Z","date":"2025-12-04","time":"16:49:17"},{"task":"memory_phase","broad_category":"M","image_png":"M_Quartzite_13.png","image_id":285,"category_name":"Quartzite","category":18,"distinct_rating":2.27,"distinct_type":"Bottom","rt":null,"stimulus":"Stimuli_Rocks480/M_Quartzite_13.png","response":null,"trial_type":"image-keyboard-response","trial_index":134,"plugin_version":"2.1.0","time_elapsed":266523,"subject_id":"87713","group":"Group1","full_date":"2025-12-04T16:49:17.211Z","date":"2025-12-04","time":"16:49:17"},{"rt":null,"stimulus":"<p style=\"font-size: 50px; margin: 0; text-align: center;\">+</p>","response":null,"trial_type":"html-keyboard-response","trial_index":135,"plugin_version":"2.1.0","time_elapsed":267525,"subject_id":"87713","group":"Group1","full_date":"2025-12-04T16:49:17.211Z","date":"2025-12-04","time":"16:49:17"},{"task":"memory_phase","broad_category":"I","image_png":"I_Pegmatite_10.png","image_id":106,"category_name":"Pegmatite","category":7,"distinct_rating":7.66,"distinct_type":"Top","rt":null,"stimulus":"Stimuli_Rocks480/I_Pegmatite_10.png","response":null,"trial_type":"image-keyboard-response","trial_index":136,"plugin_version":"2.1.0","time_elapsed":270040,"subject_id":"87713","group":"Group1","full_date":"2025-12-04T16:49:17.211Z","date":"2025-12-04","time":"16:49:17"},{"rt":null,"stimulus":"<p style=\"font-size: 50px; margin: 0; text-align: center;\">+</p>","response":null,"trial_type":"html-keyboard-response","trial_index":137,"plugin_version":"2.1.0","time_elapsed":271042,"subject_id":"87713","group":"Group1","full_date":"2025-12-04T16:49:17.211Z","date":"2025-12-04","time":"16:49:17"},{"task":"memory_phase","broad_category":"M","image_png":"M_Slate_11.png","image_id":315,"category_name":"Slate","category":20,"distinct_rating":2.75,"distinct_type":"Bottom","rt":null,"stimulus":"Stimuli_Rocks480/M_Slate_11.png","response":null,"trial_type":"image-keyboard-response","trial_index":138,"plugin_version":"2.1.0","time_elapsed":273555,"subject_id":"87713","group":"Group1","full_date":"2025-12-04T16:49:17.211Z","date":"2025-12-04","time":"16:49:17"},{"rt":null,"stimulus":"<p style=\"font-size: 50px; margin: 0; text-align: center;\">+</p>","response":null,"trial_type":"html-keyboard-response","trial_index":139,"plugin_version":"2.1.0","time_elapsed":274557,"subject_id":"87713","group":"Group1","full_date":"2025-12-04T16:49:17.211Z","date":"2025-12-04","time":"16:49:17"},{"task":"memory_phase","broad_category":"I","image_png":"I_Rhyolite_11.png","image_id":155,"category_name":"Rhyolite","category":10,"distinct_rating":1.73,"distinct_type":"Bottom","rt":null,"stimulus":"Stimuli_Rocks480/I_Rhyolite_11.png","response":null,"trial_type":"image-keyboard-response","trial_index":140,"plugin_version":"2.1.0","time_elapsed":277069,"subject_id":"87713","group":"Group1","full_date":"2025-12-04T16:49:17.211Z","date":"2025-12-04","time":"16:49:17"},{"rt":null,"stimulus":"<p style=\"font-size: 50px; margin: 0; text-align: center;\">+</p>","response":null,"trial_type":"html-keyboard-response","trial_index":141,"plugin_version":"2.1.0","time_elapsed":278071,"subject_id":"87713","group":"Group1","full_date":"2025-12-04T16:49:17.211Z","date":"2025-12-04","time":"16:49:17"},{"task":"memory_phase","broad_category":"S","image_png":"S_Chert_10.png","image_id":362,"category_name":"Chert","category":23,"distinct_rating":7.17,"distinct_type":"Top","rt":null,"stimulus":"Stimuli_Rocks480/S_Chert_10.png","response":null,"trial_type":"image-keyboard-response","trial_index":142,"plugin_version":"2.1.0","time_elapsed":280585,"subject_id":"87713","group":"Group1","full_date":"2025-12-04T16:49:17.211Z","date":"2025-12-04","time":"16:49:17"},{"rt":null,"stimulus":"<p style=\"font-size: 50px; margin: 0; text-align: center;\">+</p>","response":null,"trial_type":"html-keyboard-response","trial_index":143,"plugin_version":"2.1.0","time_elapsed":281587,"subject_id":"87713","group":"Group1","full_date":"2025-12-04T16:49:17.211Z","date":"2025-12-04","time":"16:49:17"},{"task":"memory_phase","broad_category":"I","image_png":"I_Diorite_05.png","image_id":37,"category_name":"Diorite","category":3,"distinct_rating":3.08,"distinct_type":"Bottom","rt":null,"stimulus":"Stimuli_Rocks480/I_Diorite_05.png","response":null,"trial_type":"image-keyboard-response","trial_index":144,"plugin_version":"2.1.0","time_elapsed":284102,"subject_id":"87713","group":"Group1","full_date":"2025-12-04T16:49:17.211Z","date":"2025-12-04","time":"16:49:17"},{"rt":null,"stimulus":"<p style=\"font-size: 50px; margin: 0; text-align: center;\">+</p>","response":null,"trial_type":"html-keyboard-response","trial_index":145,"plugin_version":"2.1.0","time_elapsed":285104,"subject_id":"87713","group":"Group1","full_date":"2025-12-04T16:49:17.211Z","date":"2025-12-04","time":"16:49:17"},{"task":"memory_phase","broad_category":"I","image_png":"I_Diorite_03.png","image_id":35,"category_name":"Diorite","category":3,"distinct_rating":3.14,"distinct_type":"Bottom","rt":null,"stimulus":"Stimuli_Rocks480/I_Diorite_03.png","response":null,"trial_type":"image-keyboard-response","trial_index":146,"plugin_version":"2.1.0","time_elapsed":287607,"subject_id":"87713","group":"Group1","full_date":"2025-12-04T16:49:17.211Z","date":"2025-12-04","time":"16:49:17"},{"rt":null,"stimulus":"<p style=\"font-size: 50px; margin: 0; text-align: center;\">+</p>","response":null,"trial_type":"html-keyboard-response","trial_index":147,"plugin_version":"2.1.0","time_elapsed":288608,"subject_id":"87713","group":"Group1","full_date":"2025-12-04T16:49:17.211Z","date":"2025-12-04","time":"16:49:17"},{"task":"memory_phase","broad_category":"S","image_png":"S_Shale_01.png","image_id":465,"category_name":"Shale","category":30,"distinct_rating":2.7,"distinct_type":"Bottom","rt":null,"stimulus":"Stimuli_Rocks480/S_Shale_01.png","response":null,"trial_type":"image-keyboard-response","trial_index":148,"plugin_version":"2.1.0","time_elapsed":291123,"subject_id":"87713","group":"Group1","full_date":"2025-12-04T16:49:17.211Z","date":"2025-12-04","time":"16:49:17"},{"rt":null,"stimulus":"<p style=\"font-size: 50px; margin: 0; text-align: center;\">+</p>","response":null,"trial_type":"html-keyboard-response","trial_index":149,"plugin_version":"2.1.0","time_elapsed":292125,"subject_id":"87713","group":"Group1","full_date":"2025-12-04T16:49:17.211Z","date":"2025-12-04","time":"16:49:17"},{"task":"memory_phase","broad_category":"S","image_png":"S_Dolomite_14.png","image_id":398,"category_name":"Dolomite","category":25,"distinct_rating":1.43,"distinct_type":"Bottom","rt":null,"stimulus":"Stimuli_Rocks480/S_Dolomite_14.png","response":null,"trial_type":"image-keyboard-response","trial_index":150,"plugin_version":"2.1.0","time_elapsed":294640,"subject_id":"87713","group":"Group1","full_date":"2025-12-04T16:49:17.211Z","date":"2025-12-04","time":"16:49:17"},{"rt":null,"stimulus":"<p style=\"font-size: 50px; margin: 0; text-align: center;\">+</p>","response":null,"trial_type":"html-keyboard-response","trial_index":151,"plugin_version":"2.1.0","time_elapsed":295642,"subject_id":"87713","group":"Group1","full_date":"2025-12-04T16:49:17.211Z","date":"2025-12-04","time":"16:49:17"},{"task":"memory_phase","broad_category":"M","image_png":"M_Gneiss_05.png","image_id":197,"category_name":"Gneiss","category":13,"distinct_rating":2.97,"distinct_type":"Bottom","rt":null,"stimulus":"Stimuli_Rocks480/M_Gneiss_05.png","response":null,"trial_type":"image-keyboard-response","trial_index":152,"plugin_version":"2.1.0","time_elapsed":298164,"subject_id":"87713","group":"Group1","full_date":"2025-12-04T16:49:17.211Z","date":"2025-12-04","time":"16:49:17"},{"rt":null,"stimulus":"<p style=\"font-size: 50px; margin: 0; text-align: center;\">+</p>","response":null,"trial_type":"html-keyboard-response","trial_index":153,"plugin_version":"2.1.0","time_elapsed":299166,"subject_id":"87713","group":"Group1","full_date":"2025-12-04T16:49:17.211Z","date":"2025-12-04","time":"16:49:17"},{"task":"memory_phase","broad_category":"S","image_png":"S_Rock Gypsum_04.png","image_id":420,"category_name":"Rock Gypsum","category":27,"distinct_rating":7.61,"distinct_type":"Top","rt":null,"stimulus":"Stimuli_Rocks480/S_Rock Gypsum_04.png","response":null,"trial_type":"image-keyboard-response","trial_index":154,"plugin_version":"2.1.0","time_elapsed":301682,"subject_id":"87713","group":"Group1","full_date":"2025-12-04T16:49:17.211Z","date":"2025-12-04","time":"16:49:17"},{"rt":null,"stimulus":"<p style=\"font-size: 50px; margin: 0; text-align: center;\">+</p>","response":null,"trial_type":"html-keyboard-response","trial_index":155,"plugin_version":"2.1.0","time_elapsed":302684,"subject_id":"87713","group":"Group1","full_date":"2025-12-04T16:49:17.211Z","date":"2025-12-04","time":"16:49:17"},{"task":"memory_phase","broad_category":"M","image_png":"M_Slate_15.png","image_id":319,"category_name":"Slate","category":20,"distinct_rating":2.13,"distinct_type":"Bottom","rt":null,"stimulus":"Stimuli_Rocks480/M_Slate_15.png","response":null,"trial_type":"image-keyboard-response","trial_index":156,"plugin_version":"2.1.0","time_elapsed":305196,"subject_id":"87713","group":"Group1","full_date":"2025-12-04T16:49:17.211Z","date":"2025-12-04","time":"16:49:17"},{"rt":957,"stimulus":"<p style=\"max-width: 760px; margin: auto; font-size: 35px; line-height: 1.5;\">Press SPACE to continue study phase</p>","response":" ","trial_type":"html-keyboard-response","trial_index":157,"plugin_version":"2.1.0","time_elapsed":306155,"subject_id":"87713","group":"Group1","full_date":"2025-12-04T16:49:17.211Z","date":"2025-12-04","time":"16:49:17"},{"rt":null,"stimulus":"<p style=\"font-size: 50px; margin: 0; text-align: center;\">+</p>","response":null,"trial_type":"html-keyboard-response","trial_index":158,"plugin_version":"2.1.0","time_elapsed":307158,"subject_id":"87713","group":"Group1","full_date":"2025-12-04T16:49:17.211Z","date":"2025-12-04","time":"16:49:17"},{"task":"memory_phase","broad_category":"I","image_png":"I_Diorite_04.png","image_id":36,"category_name":"Diorite","category":3,"distinct_rating":2.98,"distinct_type":"Bottom","rt":null,"stimulus":"Stimuli_Rocks480/I_Diorite_04.png","response":null,"trial_type":"image-keyboard-response","trial_index":159,"plugin_version":"2.1.0","time_elapsed":309674,"subject_id":"87713","group":"Group1","full_date":"2025-12-04T16:49:17.211Z","date":"2025-12-04","time":"16:49:17"},{"rt":null,"stimulus":"<p style=\"font-size: 50px; margin: 0; text-align: center;\">+</p>","response":null,"trial_type":"html-keyboard-response","trial_index":160,"plugin_version":"2.1.0","time_elapsed":310676,"subject_id":"87713","group":"Group1","full_date":"2025-12-04T16:49:17.211Z","date":"2025-12-04","time":"16:49:17"},{"task":"memory_phase","broad_category":"I","image_png":"I_Basalt_01.png","image_id":17,"category_name":"Basalt","category":2,"distinct_rating":1.92,"distinct_type":"Bottom","rt":null,"stimulus":"Stimuli_Rocks480/I_Basalt_01.png","response":null,"trial_type":"image-keyboard-response","trial_index":161,"plugin_version":"2.1.0","time_elapsed":313195,"subject_id":"87713","group":"Group1","full_date":"2025-12-04T16:49:17.211Z","date":"2025-12-04","time":"16:49:17"},{"rt":null,"stimulus":"<p style=\"font-size: 50px; margin: 0; text-align: center;\">+</p>","response":null,"trial_type":"html-keyboard-response","trial_index":162,"plugin_version":"2.1.0","time_elapsed":314197,"subject_id":"87713","group":"Group1","full_date":"2025-12-04T16:49:17.211Z","date":"2025-12-04","time":"16:49:17"},{"task":"memory_phase","broad_category":"I","image_png":"I_Andesite_10.png","image_id":10,"category_name":"Andesite","category":1,"distinct_rating":3.15,"distinct_type":"Bottom","rt":null,"stimulus":"Stimuli_Rocks480/I_Andesite_10.png","response":null,"trial_type":"image-keyboard-response","trial_index":163,"plugin_version":"2.1.0","time_elapsed":316708,"subject_id":"87713","group":"Group1","full_date":"2025-12-04T16:49:17.211Z","date":"2025-12-04","time":"16:49:17"},{"rt":null,"stimulus":"<p style=\"font-size: 50px; margin: 0; text-align: center;\">+</p>","response":null,"trial_type":"html-keyboard-response","trial_index":164,"plugin_version":"2.1.0","time_elapsed":317710,"subject_id":"87713","group":"Group1","full_date":"2025-12-04T16:49:17.211Z","date":"2025-12-04","time":"16:49:17"},{"task":"memory_phase","broad_category":"I","image_png":"I_Pumice_08.png","image_id":136,"category_name":"Pumice","category":9,"distinct_rating":3.1,"distinct_type":"Bottom","rt":null,"stimulus":"Stimuli_Rocks480/I_Pumice_08.png","response":null,"trial_type":"image-keyboard-response","trial_index":165,"plugin_version":"2.1.0","time_elapsed":320213,"subject_id":"87713","group":"Group1","full_date":"2025-12-04T16:49:17.211Z","date":"2025-12-04","time":"16:49:17"},{"rt":null,"stimulus":"<p style=\"font-size: 50px; margin: 0; text-align: center;\">+</p>","response":null,"trial_type":"html-keyboard-response","trial_index":166,"plugin_version":"2.1.0","time_elapsed":321215,"subject_id":"87713","group":"Group1","full_date":"2025-12-04T16:49:17.211Z","date":"2025-12-04","time":"16:49:17"},{"task":"memory_phase","broad_category":"M","image_png":"M_Gneiss_13.png","image_id":205,"category_name":"Gneiss","category":13,"distinct_rating":3.26,"distinct_type":"Bottom","rt":null,"stimulus":"Stimuli_Rocks480/M_Gneiss_13.png","response":null,"trial_type":"image-keyboard-response","trial_index":167,"plugin_version":"2.1.0","time_elapsed":323728,"subject_id":"87713","group":"Group1","full_date":"2025-12-04T16:49:17.211Z","date":"2025-12-04","time":"16:49:17"},{"rt":null,"stimulus":"<p style=\"font-size: 50px; margin: 0; text-align: center;\">+</p>","response":null,"trial_type":"html-keyboard-response","trial_index":168,"plugin_version":"2.1.0","time_elapsed":324730,"subject_id":"87713","group":"Group1","full_date":"2025-12-04T16:49:17.211Z","date":"2025-12-04","time":"16:49:17"},{"task":"memory_phase","broad_category":"M","image_png":"M_Quartzite_08.png","image_id":280,"category_name":"Quartzite","category":18,"distinct_rating":2.15,"distinct_type":"Bottom","rt":null,"stimulus":"Stimuli_Rocks480/M_Quartzite_08.png","response":null,"trial_type":"image-keyboard-response","trial_index":169,"plugin_version":"2.1.0","time_elapsed":327245,"subject_id":"87713","group":"Group1","full_date":"2025-12-04T16:49:17.211Z","date":"2025-12-04","time":"16:49:17"},{"rt":null,"stimulus":"<p style=\"font-size: 50px; margin: 0; text-align: center;\">+</p>","response":null,"trial_type":"html-keyboard-response","trial_index":170,"plugin_version":"2.1.0","time_elapsed":328247,"subject_id":"87713","group":"Group1","full_date":"2025-12-04T16:49:17.211Z","date":"2025-12-04","time":"16:49:17"},{"task":"memory_phase","broad_category":"S","image_png":"S_Sandstone_15.png","image_id":463,"category_name":"Sandstone","category":29,"distinct_rating":2,"distinct_type":"Bottom","rt":null,"stimulus":"Stimuli_Rocks480/S_Sandstone_15.png","response":null,"trial_type":"image-keyboard-response","trial_index":171,"plugin_version":"2.1.0","time_elapsed":330764,"subject_id":"87713","group":"Group1","full_date":"2025-12-04T16:49:17.211Z","date":"2025-12-04","time":"16:49:17"},{"rt":null,"stimulus":"<p style=\"font-size: 50px; margin: 0; text-align: center;\">+</p>","response":null,"trial_type":"html-keyboard-response","trial_index":172,"plugin_version":"2.1.0","time_elapsed":331767,"subject_id":"87713","group":"Group1","full_date":"2025-12-04T16:49:17.211Z","date":"2025-12-04","time":"16:49:17"},{"task":"memory_phase","broad_category":"S","image_png":"S_Dolomite_12.png","image_id":396,"category_name":"Dolomite","category":25,"distinct_rating":1.85,"distinct_type":"Bottom","rt":null,"stimulus":"Stimuli_Rocks480/S_Dolomite_12.png","response":null,"trial_type":"image-keyboard-response","trial_index":173,"plugin_version":"2.1.0","time_elapsed":334285,"subject_id":"87713","group":"Group1","full_date":"2025-12-04T16:49:17.211Z","date":"2025-12-04","time":"16:49:17"},{"rt":null,"stimulus":"<p style=\"font-size: 50px; margin: 0; text-align: center;\">+</p>","response":null,"trial_type":"html-keyboard-response","trial_index":174,"plugin_version":"2.1.0","time_elapsed":335288,"subject_id":"87713","group":"Group1","full_date":"2025-12-04T16:49:17.211Z","date":"2025-12-04","time":"16:49:17"},{"task":"memory_phase","broad_category":"M","image_png":"M_Gneiss_06.png","image_id":198,"category_name":"Gneiss","category":13,"distinct_rating":2.65,"distinct_type":"Bottom","rt":null,"stimulus":"Stimuli_Rocks480/M_Gneiss_06.png","response":null,"trial_type":"image-keyboard-response","trial_index":175,"plugin_version":"2.1.0","time_elapsed":337808,"subject_id":"87713","group":"Group1","full_date":"2025-12-04T16:49:17.211Z","date":"2025-12-04","time":"16:49:17"},{"rt":null,"stimulus":"<p style=\"font-size: 50px; margin: 0; text-align: center;\">+</p>","response":null,"trial_type":"html-keyboard-response","trial_index":176,"plugin_version":"2.1.0","time_elapsed":338810,"subject_id":"87713","group":"Group1","full_date":"2025-12-04T16:49:17.211Z","date":"2025-12-04","time":"16:49:17"},{"task":"memory_phase","broad_category":"I","image_png":"I_Pumice_12.png","image_id":140,"category_name":"Pumice","category":9,"distinct_rating":2.97,"distinct_type":"Bottom","rt":null,"stimulus":"Stimuli_Rocks480/I_Pumice_12.png","response":null,"trial_type":"image-keyboard-response","trial_index":177,"plugin_version":"2.1.0","time_elapsed":341324,"subject_id":"87713","group":"Group1","full_date":"2025-12-04T16:49:17.211Z","date":"2025-12-04","time":"16:49:17"},{"rt":null,"stimulus":"<p style=\"font-size: 50px; margin: 0; text-align: center;\">+</p>","response":null,"trial_type":"html-keyboard-response","trial_index":178,"plugin_version":"2.1.0","time_elapsed":342326,"subject_id":"87713","group":"Group1","full_date":"2025-12-04T16:49:17.211Z","date":"2025-12-04","time":"16:49:17"},{"task":"memory_phase","broad_category":"M","image_png":"M_Marble_06.png","image_id":230,"category_name":"Marble","category":15,"distinct_rating":3.4,"distinct_type":"Bottom","rt":null,"stimulus":"Stimuli_Rocks480/M_Marble_06.png","response":null,"trial_type":"image-keyboard-response","trial_index":179,"plugin_version":"2.1.0","time_elapsed":344839,"subject_id":"87713","group":"Group1","full_date":"2025-12-04T16:49:17.211Z","date":"2025-12-04","time":"16:49:17"},{"rt":null,"stimulus":"<p style=\"font-size: 50px; margin: 0; text-align: center;\">+</p>","response":null,"trial_type":"html-keyboard-response","trial_index":180,"plugin_version":"2.1.0","time_elapsed":345842,"subject_id":"87713","group":"Group1","full_date":"2025-12-04T16:49:17.211Z","date":"2025-12-04","time":"16:49:17"},{"task":"memory_phase","broad_category":"I","image_png":"I_Gabbro_08.png","image_id":56,"category_name":"Gabbro","category":4,"distinct_rating":3.02,"distinct_type":"Bottom","rt":null,"stimulus":"Stimuli_Rocks480/I_Gabbro_08.png","response":null,"trial_type":"image-keyboard-response","trial_index":181,"plugin_version":"2.1.0","time_elapsed":348354,"subject_id":"87713","group":"Group1","full_date":"2025-12-04T16:49:17.211Z","date":"2025-12-04","time":"16:49:17"},{"rt":null,"stimulus":"<p style=\"font-size: 50px; margin: 0; text-align: center;\">+</p>","response":null,"trial_type":"html-keyboard-response","trial_index":182,"plugin_version":"2.1.0","time_elapsed":349356,"subject_id":"87713","group":"Group1","full_date":"2025-12-04T16:49:17.211Z","date":"2025-12-04","time":"16:49:17"},{"task":"memory_phase","broad_category":"M","image_png":"M_Phyllite_03.png","image_id":259,"category_name":"Phyllite","category":17,"distinct_rating":2.5,"distinct_type":"Bottom","rt":null,"stimulus":"Stimuli_Rocks480/M_Phyllite_03.png","response":null,"trial_type":"image-keyboard-response","trial_index":183,"plugin_version":"2.1.0","time_elapsed":351869,"subject_id":"87713","group":"Group1","full_date":"2025-12-04T16:49:17.211Z","date":"2025-12-04","time":"16:49:17"},{"rt":null,"stimulus":"<p style=\"font-size: 50px; margin: 0; text-align: center;\">+</p>","response":null,"trial_type":"html-keyboard-response","trial_index":184,"plugin_version":"2.1.0","time_elapsed":352871,"subject_id":"87713","group":"Group1","full_date":"2025-12-04T16:49:17.211Z","date":"2025-12-04","time":"16:49:17"},{"task":"memory_phase","broad_category":"I","image_png":"I_Andesite_06.png","image_id":6,"category_name":"Andesite","category":1,"distinct_rating":3.17,"distinct_type":"Bottom","rt":null,"stimulus":"Stimuli_Rocks480/I_Andesite_06.png","response":null,"trial_type":"image-keyboard-response","trial_index":185,"plugin_version":"2.1.0","time_elapsed":355387,"subject_id":"87713","group":"Group1","full_date":"2025-12-04T16:49:17.211Z","date":"2025-12-04","time":"16:49:17"},{"rt":null,"stimulus":"<p style=\"font-size: 50px; margin: 0; text-align: center;\">+</p>","response":null,"trial_type":"html-keyboard-response","trial_index":186,"plugin_version":"2.1.0","time_elapsed":356390,"subject_id":"87713","group":"Group1","full_date":"2025-12-04T16:49:17.211Z","date":"2025-12-04","time":"16:49:17"},{"task":"memory_phase","broad_category":"S","image_png":"S_Rock Salt_01.png","image_id":433,"category_name":"Rock Salt","category":28,"distinct_rating":7.18,"distinct_type":"Top","rt":null,"stimulus":"Stimuli_Rocks480/S_Rock Salt_01.png","response":null,"trial_type":"image-keyboard-response","trial_index":187,"plugin_version":"2.1.0","time_elapsed":358907,"subject_id":"87713","group":"Group1","full_date":"2025-12-04T16:49:17.211Z","date":"2025-12-04","time":"16:49:17"},{"rt":null,"stimulus":"<p style=\"font-size: 50px; margin: 0; text-align: center;\">+</p>","response":null,"trial_type":"html-keyboard-response","trial_index":188,"plugin_version":"2.1.0","time_elapsed":359909,"subject_id":"87713","group":"Group1","full_date":"2025-12-04T16:49:17.211Z","date":"2025-12-04","time":"16:49:17"},{"task":"memory_phase","broad_category":"S","image_png":"S_Sandstone_16.png","image_id":464,"category_name":"Sandstone","category":29,"distinct_rating":1.93,"distinct_type":"Bottom","rt":null,"stimulus":"Stimuli_Rocks480/S_Sandstone_16.png","response":null,"trial_type":"image-keyboard-response","trial_index":189,"plugin_version":"2.1.0","time_elapsed":362419,"subject_id":"87713","group":"Group1","full_date":"2025-12-04T16:49:17.211Z","date":"2025-12-04","time":"16:49:17"},{"rt":null,"stimulus":"<p style=\"font-size: 50px; margin: 0; text-align: center;\">+</p>","response":null,"trial_type":"html-keyboard-response","trial_index":190,"plugin_version":"2.1.0","time_elapsed":363421,"subject_id":"87713","group":"Group1","full_date":"2025-12-04T16:49:17.211Z","date":"2025-12-04","time":"16:49:17"},{"task":"memory_phase","broad_category":"S","image_png":"S_Shale_08.png","image_id":472,"category_name":"Shale","category":30,"distinct_rating":2.55,"distinct_type":"Bottom","rt":null,"stimulus":"Stimuli_Rocks480/S_Shale_08.png","response":null,"trial_type":"image-keyboard-response","trial_index":191,"plugin_version":"2.1.0","time_elapsed":365938,"subject_id":"87713","group":"Group1","full_date":"2025-12-04T16:49:17.211Z","date":"2025-12-04","time":"16:49:17"},{"rt":null,"stimulus":"<p style=\"font-size: 50px; margin: 0; text-align: center;\">+</p>","response":null,"trial_type":"html-keyboard-response","trial_index":192,"plugin_version":"2.1.0","time_elapsed":366940,"subject_id":"87713","group":"Group1","full_date":"2025-12-04T16:49:17.211Z","date":"2025-12-04","time":"16:49:17"},{"task":"memory_phase","broad_category":"I","image_png":"I_Andesite_08.png","image_id":8,"category_name":"Andesite","category":1,"distinct_rating":1.95,"distinct_type":"Bottom","rt":null,"stimulus":"Stimuli_Rocks480/I_Andesite_08.png","response":null,"trial_type":"image-keyboard-response","trial_index":193,"plugin_version":"2.1.0","time_elapsed":369456,"subject_id":"87713","group":"Group1","full_date":"2025-12-04T16:49:17.211Z","date":"2025-12-04","time":"16:49:17"},{"rt":null,"stimulus":"<p style=\"font-size: 50px; margin: 0; text-align: center;\">+</p>","response":null,"trial_type":"html-keyboard-response","trial_index":194,"plugin_version":"2.1.0","time_elapsed":370458,"subject_id":"87713","group":"Group1","full_date":"2025-12-04T16:49:17.211Z","date":"2025-12-04","time":"16:49:17"},{"task":"memory_phase","broad_category":"M","image_png":"M_Marble_16.png","image_id":240,"category_name":"Marble","category":15,"distinct_rating":2.57,"distinct_type":"Bottom","rt":null,"stimulus":"Stimuli_Rocks480/M_Marble_16.png","response":null,"trial_type":"image-keyboard-response","trial_index":195,"plugin_version":"2.1.0","time_elapsed":372974,"subject_id":"87713","group":"Group1","full_date":"2025-12-04T16:49:17.211Z","date":"2025-12-04","time":"16:49:17"},{"rt":null,"stimulus":"<p style=\"font-size: 50px; margin: 0; text-align: center;\">+</p>","response":null,"trial_type":"html-keyboard-response","trial_index":196,"plugin_version":"2.1.0","time_elapsed":373976,"subject_id":"87713","group":"Group1","full_date":"2025-12-04T16:49:17.211Z","date":"2025-12-04","time":"16:49:17"},{"task":"memory_phase","broad_category":"I","image_png":"I_Gabbro_16.png","image_id":64,"category_name":"Gabbro","category":4,"distinct_rating":2.52,"distinct_type":"Bottom","rt":null,"stimulus":"Stimuli_Rocks480/I_Gabbro_16.png","response":null,"trial_type":"image-keyboard-response","trial_index":197,"plugin_version":"2.1.0","time_elapsed":376490,"subject_id":"87713","group":"Group1","full_date":"2025-12-04T16:49:17.211Z","date":"2025-12-04","time":"16:49:17"},{"rt":null,"stimulus":"<p style=\"font-size: 50px; margin: 0; text-align: center;\">+</p>","response":null,"trial_type":"html-keyboard-response","trial_index":198,"plugin_version":"2.1.0","time_elapsed":377492,"subject_id":"87713","group":"Group1","full_date":"2025-12-04T16:49:17.211Z","date":"2025-12-04","time":"16:49:17"},{"task":"memory_phase","broad_category":"M","image_png":"M_Marble_04.png","image_id":228,"category_name":"Marble","category":15,"distinct_rating":3.15,"distinct_type":"Bottom","rt":null,"stimulus":"Stimuli_Rocks480/M_Marble_04.png","response":null,"trial_type":"image-keyboard-response","trial_index":199,"plugin_version":"2.1.0","time_elapsed":380008,"subject_id":"87713","group":"Group1","full_date":"2025-12-04T16:49:17.211Z","date":"2025-12-04","time":"16:49:17"},{"rt":null,"stimulus":"<p style=\"font-size: 50px; margin: 0; text-align: center;\">+</p>","response":null,"trial_type":"html-keyboard-response","trial_index":200,"plugin_version":"2.1.0","time_elapsed":381010,"subject_id":"87713","group":"Group1","full_date":"2025-12-04T16:49:17.211Z","date":"2025-12-04","time":"16:49:17"},{"task":"memory_phase","broad_category":"I","image_png":"I_Basalt_02.png","image_id":18,"category_name":"Basalt","category":2,"distinct_rating":1.84,"distinct_type":"Bottom","rt":null,"stimulus":"Stimuli_Rocks480/I_Basalt_02.png","response":null,"trial_type":"image-keyboard-response","trial_index":201,"plugin_version":"2.1.0","time_elapsed":383526,"subject_id":"87713","group":"Group1","full_date":"2025-12-04T16:49:17.211Z","date":"2025-12-04","time":"16:49:17"},{"rt":null,"stimulus":"<p style=\"font-size: 50px; margin: 0; text-align: center;\">+</p>","response":null,"trial_type":"html-keyboard-response","trial_index":202,"plugin_version":"2.1.0","time_elapsed":384528,"subject_id":"87713","group":"Group1","full_date":"2025-12-04T16:49:17.211Z","date":"2025-12-04","time":"16:49:17"},{"task":"memory_phase","broad_category":"M","image_png":"M_Quartzite_05.png","image_id":277,"category_name":"Quartzite","category":18,"distinct_rating":2.23,"distinct_type":"Bottom","rt":null,"stimulus":"Stimuli_Rocks480/M_Quartzite_05.png","response":null,"trial_type":"image-keyboard-response","trial_index":203,"plugin_version":"2.1.0","time_elapsed":387044,"subject_id":"87713","group":"Group1","full_date":"2025-12-04T16:49:17.211Z","date":"2025-12-04","time":"16:49:17"},{"rt":null,"stimulus":"<p style=\"font-size: 50px; margin: 0; text-align: center;\">+</p>","response":null,"trial_type":"html-keyboard-response","trial_index":204,"plugin_version":"2.1.0","time_elapsed":388046,"subject_id":"87713","group":"Group1","full_date":"2025-12-04T16:49:17.211Z","date":"2025-12-04","time":"16:49:17"},{"task":"memory_phase","broad_category":"S","image_png":"S_Breccia_11.png","image_id":347,"category_name":"Breccia","category":22,"distinct_rating":6.7,"distinct_type":"Top","rt":null,"stimulus":"Stimuli_Rocks480/S_Breccia_11.png","response":null,"trial_type":"image-keyboard-response","trial_index":205,"plugin_version":"2.1.0","time_elapsed":390567,"subject_id":"87713","group":"Group1","full_date":"2025-12-04T16:49:17.211Z","date":"2025-12-04","time":"16:49:17"},{"rt":null,"stimulus":"<p style=\"font-size: 50px; margin: 0; text-align: center;\">+</p>","response":null,"trial_type":"html-keyboard-response","trial_index":206,"plugin_version":"2.1.0","time_elapsed":391568,"subject_id":"87713","group":"Group1","full_date":"2025-12-04T16:49:17.211Z","date":"2025-12-04","time":"16:49:17"},{"task":"memory_phase","broad_category":"S","image_png":"S_Dolomite_13.png","image_id":397,"category_name":"Dolomite","category":25,"distinct_rating":1.77,"distinct_type":"Bottom","rt":null,"stimulus":"Stimuli_Rocks480/S_Dolomite_13.png","response":null,"trial_type":"image-keyboard-response","trial_index":207,"plugin_version":"2.1.0","time_elapsed":394083,"subject_id":"87713","group":"Group1","full_date":"2025-12-04T16:49:17.211Z","date":"2025-12-04","time":"16:49:17"},{"rt":7141,"stimulus":"<p style=\"max-width: 760px; margin: auto; font-size: 35px; line-height: 1.5;\">You have completed 2 study phases. Now, we'll show you all the images again 1 more time.<br><br>Press SPACE to continue</p>","response":" ","trial_type":"html-keyboard-response","trial_index":208,"plugin_version":"2.1.0","time_elapsed":401226,"subject_id":"87713","group":"Group1","full_date":"2025-12-04T16:49:17.211Z","date":"2025-12-04","time":"16:49:17"},{"rt":null,"stimulus":"<p style=\"font-size: 50px; margin: 0; text-align: center;\">+</p>","response":null,"trial_type":"html-keyboard-response","trial_index":209,"plugin_version":"2.1.0","time_elapsed":402229,"subject_id":"87713","group":"Group1","full_date":"2025-12-04T16:49:17.211Z","date":"2025-12-04","time":"16:49:17"},{"task":"memory_phase","broad_category":"S","image_png":"S_Sandstone_03.png","image_id":451,"category_name":"Sandstone","category":29,"distinct_rating":1.86,"distinct_type":"Bottom","rt":null,"stimulus":"Stimuli_Rocks480/S_Sandstone_03.png","response":null,"trial_type":"image-keyboard-response","trial_index":210,"plugin_version":"2.1.0","time_elapsed":404745,"subject_id":"87713","group":"Group1","full_date":"2025-12-04T16:49:17.211Z","date":"2025-12-04","time":"16:49:17"},{"rt":null,"stimulus":"<p style=\"font-size: 50px; margin: 0; text-align: center;\">+</p>","response":null,"trial_type":"html-keyboard-response","trial_index":211,"plugin_version":"2.1.0","time_elapsed":405747,"subject_id":"87713","group":"Group1","full_date":"2025-12-04T16:49:17.211Z","date":"2025-12-04","time":"16:49:17"},{"task":"memory_phase","broad_category":"M","image_png":"M_Slate_15.png","image_id":319,"category_name":"Slate","category":20,"distinct_rating":2.13,"distinct_type":"Bottom","rt":null,"stimulus":"Stimuli_Rocks480/M_Slate_15.png","response":null,"trial_type":"image-keyboard-response","trial_index":212,"plugin_version":"2.1.0","time_elapsed":408259,"subject_id":"87713","group":"Group1","full_date":"2025-12-04T16:49:17.211Z","date":"2025-12-04","time":"16:49:17"},{"rt":null,"stimulus":"<p style=\"font-size: 50px; margin: 0; text-align: center;\">+</p>","response":null,"trial_type":"html-keyboard-response","trial_index":213,"plugin_version":"2.1.0","time_elapsed":409262,"subject_id":"87713","group":"Group1","full_date":"2025-12-04T16:49:17.211Z","date":"2025-12-04","time":"16:49:17"},{"task":"memory_phase","broad_category":"I","image_png":"I_Gabbro_08.png","image_id":56,"category_name":"Gabbro","category":4,"distinct_rating":3.02,"distinct_type":"Bottom","rt":null,"stimulus":"Stimuli_Rocks480/I_Gabbro_08.png","response":null,"trial_type":"image-keyboard-response","trial_index":214,"plugin_version":"2.1.0","time_elapsed":411775,"subject_id":"87713","group":"Group1","full_date":"2025-12-04T16:49:17.211Z","date":"2025-12-04","time":"16:49:17"},{"rt":null,"stimulus":"<p style=\"font-size: 50px; margin: 0; text-align: center;\">+</p>","response":null,"trial_type":"html-keyboard-response","trial_index":215,"plugin_version":"2.1.0","time_elapsed":412777,"subject_id":"87713","group":"Group1","full_date":"2025-12-04T16:49:17.211Z","date":"2025-12-04","time":"16:49:17"},{"task":"memory_phase","broad_category":"S","image_png":"S_Dolomite_12.png","image_id":396,"category_name":"Dolomite","category":25,"distinct_rating":1.85,"distinct_type":"Bottom","rt":null,"stimulus":"Stimuli_Rocks480/S_Dolomite_12.png","response":null,"trial_type":"image-keyboard-response","trial_index":216,"plugin_version":"2.1.0","time_elapsed":415292,"subject_id":"87713","group":"Group1","full_date":"2025-12-04T16:49:17.211Z","date":"2025-12-04","time":"16:49:17"},{"rt":null,"stimulus":"<p style=\"font-size: 50px; margin: 0; text-align: center;\">+</p>","response":null,"trial_type":"html-keyboard-response","trial_index":217,"plugin_version":"2.1.0","time_elapsed":416294,"subject_id":"87713","group":"Group1","full_date":"2025-12-04T16:49:17.211Z","date":"2025-12-04","time":"16:49:17"},{"task":"memory_phase","broad_category":"M","image_png":"M_Quartzite_13.png","image_id":285,"category_name":"Quartzite","category":18,"distinct_rating":2.27,"distinct_type":"Bottom","rt":null,"stimulus":"Stimuli_Rocks480/M_Quartzite_13.png","response":null,"trial_type":"image-keyboard-response","trial_index":218,"plugin_version":"2.1.0","time_elapsed":418812,"subject_id":"87713","group":"Group1","full_date":"2025-12-04T16:49:17.211Z","date":"2025-12-04","time":"16:49:17"},{"rt":null,"stimulus":"<p style=\"font-size: 50px; margin: 0; text-align: center;\">+</p>","response":null,"trial_type":"html-keyboard-response","trial_index":219,"plugin_version":"2.1.0","time_elapsed":419814,"subject_id":"87713","group":"Group1","full_date":"2025-12-04T16:49:17.211Z","date":"2025-12-04","time":"16:49:17"},{"task":"memory_phase","broad_category":"I","image_png":"I_Rhyolite_16.png","image_id":160,"category_name":"Rhyolite","category":10,"distinct_rating":2.19,"distinct_type":"Bottom","rt":null,"stimulus":"Stimuli_Rocks480/I_Rhyolite_16.png","response":null,"trial_type":"image-keyboard-response","trial_index":220,"plugin_version":"2.1.0","time_elapsed":422329,"subject_id":"87713","group":"Group1","full_date":"2025-12-04T16:49:17.211Z","date":"2025-12-04","time":"16:49:17"},{"rt":null,"stimulus":"<p style=\"font-size: 50px; margin: 0; text-align: center;\">+</p>","response":null,"trial_type":"html-keyboard-response","trial_index":221,"plugin_version":"2.1.0","time_elapsed":423332,"subject_id":"87713","group":"Group1","full_date":"2025-12-04T16:49:17.211Z","date":"2025-12-04","time":"16:49:17"},{"task":"memory_phase","broad_category":"M","image_png":"M_Gneiss_13.png","image_id":205,"category_name":"Gneiss","category":13,"distinct_rating":3.26,"distinct_type":"Bottom","rt":null,"stimulus":"Stimuli_Rocks480/M_Gneiss_13.png","response":null,"trial_type":"image-keyboard-response","trial_index":222,"plugin_version":"2.1.0","time_elapsed":425846,"subject_id":"87713","group":"Group1","full_date":"2025-12-04T16:49:17.211Z","date":"2025-12-04","time":"16:49:17"},{"rt":null,"stimulus":"<p style=\"font-size: 50px; margin: 0; text-align: center;\">+</p>","response":null,"trial_type":"html-keyboard-response","trial_index":223,"plugin_version":"2.1.0","time_elapsed":426848,"subject_id":"87713","group":"Group1","full_date":"2025-12-04T16:49:17.211Z","date":"2025-12-04","time":"16:49:17"},{"task":"memory_phase","broad_category":"I","image_png":"I_Pumice_08.png","image_id":136,"category_name":"Pumice","category":9,"distinct_rating":3.1,"distinct_type":"Bottom","rt":null,"stimulus":"Stimuli_Rocks480/I_Pumice_08.png","response":null,"trial_type":"image-keyboard-response","trial_index":224,"plugin_version":"2.1.0","time_elapsed":429362,"subject_id":"87713","group":"Group1","full_date":"2025-12-04T16:49:17.211Z","date":"2025-12-04","time":"16:49:17"},{"rt":null,"stimulus":"<p style=\"font-size: 50px; margin: 0; text-align: center;\">+</p>","response":null,"trial_type":"html-keyboard-response","trial_index":225,"plugin_version":"2.1.0","time_elapsed":430364,"subject_id":"87713","group":"Group1","full_date":"2025-12-04T16:49:17.211Z","date":"2025-12-04","time":"16:49:17"},{"task":"memory_phase","broad_category":"M","image_png":"M_Phyllite_07.png","image_id":263,"category_name":"Phyllite","category":17,"distinct_rating":2.59,"distinct_type":"Bottom","rt":null,"stimulus":"Stimuli_Rocks480/M_Phyllite_07.png","response":null,"trial_type":"image-keyboard-response","trial_index":226,"plugin_version":"2.1.0","time_elapsed":432877,"subject_id":"87713","group":"Group1","full_date":"2025-12-04T16:49:17.211Z","date":"2025-12-04","time":"16:49:17"},{"rt":null,"stimulus":"<p style=\"font-size: 50px; margin: 0; text-align: center;\">+</p>","response":null,"trial_type":"html-keyboard-response","trial_index":227,"plugin_version":"2.1.0","time_elapsed":433879,"subject_id":"87713","group":"Group1","full_date":"2025-12-04T16:49:17.211Z","date":"2025-12-04","time":"16:49:17"},{"task":"memory_phase","broad_category":"S","image_png":"S_Shale_01.png","image_id":465,"category_name":"Shale","category":30,"distinct_rating":2.7,"distinct_type":"Bottom","rt":null,"stimulus":"Stimuli_Rocks480/S_Shale_01.png","response":null,"trial_type":"image-keyboard-response","trial_index":228,"plugin_version":"2.1.0","time_elapsed":436394,"subject_id":"87713","group":"Group1","full_date":"2025-12-04T16:49:17.211Z","date":"2025-12-04","time":"16:49:17"},{"rt":null,"stimulus":"<p style=\"font-size: 50px; margin: 0; text-align: center;\">+</p>","response":null,"trial_type":"html-keyboard-response","trial_index":229,"plugin_version":"2.1.0","time_elapsed":437396,"subject_id":"87713","group":"Group1","full_date":"2025-12-04T16:49:17.211Z","date":"2025-12-04","time":"16:49:17"},{"task":"memory_phase","broad_category":"I","image_png":"I_Pegmatite_16.png","image_id":112,"category_name":"Pegmatite","category":7,"distinct_rating":7.03,"distinct_type":"Top","rt":null,"stimulus":"Stimuli_Rocks480/I_Pegmatite_16.png","response":null,"trial_type":"image-keyboard-response","trial_index":230,"plugin_version":"2.1.0","time_elapsed":439913,"subject_id":"87713","group":"Group1","full_date":"2025-12-04T16:49:17.211Z","date":"2025-12-04","time":"16:49:17"},{"rt":null,"stimulus":"<p style=\"font-size: 50px; margin: 0; text-align: center;\">+</p>","response":null,"trial_type":"html-keyboard-response","trial_index":231,"plugin_version":"2.1.0","time_elapsed":440916,"subject_id":"87713","group":"Group1","full_date":"2025-12-04T16:49:17.211Z","date":"2025-12-04","time":"16:49:17"},{"task":"memory_phase","broad_category":"M","image_png":"M_Phyllite_10.png","image_id":266,"category_name":"Phyllite","category":17,"distinct_rating":2.6,"distinct_type":"Bottom","rt":null,"stimulus":"Stimuli_Rocks480/M_Phyllite_10.png","response":null,"trial_type":"image-keyboard-response","trial_index":232,"plugin_version":"2.1.0","time_elapsed":443430,"subject_id":"87713","group":"Group1","full_date":"2025-12-04T16:49:17.211Z","date":"2025-12-04","time":"16:49:17"},{"rt":null,"stimulus":"<p style=\"font-size: 50px; margin: 0; text-align: center;\">+</p>","response":null,"trial_type":"html-keyboard-response","trial_index":233,"plugin_version":"2.1.0","time_elapsed":444432,"subject_id":"87713","group":"Group1","full_date":"2025-12-04T16:49:17.211Z","date":"2025-12-04","time":"16:49:17"},{"task":"memory_phase","broad_category":"I","image_png":"I_Gabbro_11.png","image_id":59,"category_name":"Gabbro","category":4,"distinct_rating":1.99,"distinct_type":"Bottom","rt":null,"stimulus":"Stimuli_Rocks480/I_Gabbro_11.png","response":null,"trial_type":"image-keyboard-response","trial_index":234,"plugin_version":"2.1.0","time_elapsed":446945,"subject_id":"87713","group":"Group1","full_date":"2025-12-04T16:49:17.211Z","date":"2025-12-04","time":"16:49:17"},{"rt":null,"stimulus":"<p style=\"font-size: 50px; margin: 0; text-align: center;\">+</p>","response":null,"trial_type":"html-keyboard-response","trial_index":235,"plugin_version":"2.1.0","time_elapsed":447947,"subject_id":"87713","group":"Group1","full_date":"2025-12-04T16:49:17.211Z","date":"2025-12-04","time":"16:49:17"},{"task":"memory_phase","broad_category":"I","image_png":"I_Diorite_05.png","image_id":37,"category_name":"Diorite","category":3,"distinct_rating":3.08,"distinct_type":"Bottom","rt":null,"stimulus":"Stimuli_Rocks480/I_Diorite_05.png","response":null,"trial_type":"image-keyboard-response","trial_index":236,"plugin_version":"2.1.0","time_elapsed":450463,"subject_id":"87713","group":"Group1","full_date":"2025-12-04T16:49:17.211Z","date":"2025-12-04","time":"16:49:17"},{"rt":null,"stimulus":"<p style=\"font-size: 50px; margin: 0; text-align: center;\">+</p>","response":null,"trial_type":"html-keyboard-response","trial_index":237,"plugin_version":"2.1.0","time_elapsed":451465,"subject_id":"87713","group":"Group1","full_date":"2025-12-04T16:49:17.211Z","date":"2025-12-04","time":"16:49:17"},{"task":"memory_phase","broad_category":"M","image_png":"M_Marble_16.png","image_id":240,"category_name":"Marble","category":15,"distinct_rating":2.57,"distinct_type":"Bottom","rt":null,"stimulus":"Stimuli_Rocks480/M_Marble_16.png","response":null,"trial_type":"image-keyboard-response","trial_index":238,"plugin_version":"2.1.0","time_elapsed":453968,"subject_id":"87713","group":"Group1","full_date":"2025-12-04T16:49:17.211Z","date":"2025-12-04","time":"16:49:17"},{"rt":null,"stimulus":"<p style=\"font-size: 50px; margin: 0; text-align: center;\">+</p>","response":null,"trial_type":"html-keyboard-response","trial_index":239,"plugin_version":"2.1.0","time_elapsed":454970,"subject_id":"87713","group":"Group1","full_date":"2025-12-04T16:49:17.211Z","date":"2025-12-04","time":"16:49:17"},{"task":"memory_phase","broad_category":"I","image_png":"I_Gabbro_16.png","image_id":64,"category_name":"Gabbro","category":4,"distinct_rating":2.52,"distinct_type":"Bottom","rt":null,"stimulus":"Stimuli_Rocks480/I_Gabbro_16.png","response":null,"trial_type":"image-keyboard-response","trial_index":240,"plugin_version":"2.1.0","time_elapsed":457473,"subject_id":"87713","group":"Group1","full_date":"2025-12-04T16:49:17.211Z","date":"2025-12-04","time":"16:49:17"},{"rt":null,"stimulus":"<p style=\"font-size: 50px; margin: 0; text-align: center;\">+</p>","response":null,"trial_type":"html-keyboard-response","trial_index":241,"plugin_version":"2.1.0","time_elapsed":458475,"subject_id":"87713","group":"Group1","full_date":"2025-12-04T16:49:17.211Z","date":"2025-12-04","time":"16:49:17"},{"task":"memory_phase","broad_category":"I","image_png":"I_Basalt_02.png","image_id":18,"category_name":"Basalt","category":2,"distinct_rating":1.84,"distinct_type":"Bottom","rt":null,"stimulus":"Stimuli_Rocks480/I_Basalt_02.png","response":null,"trial_type":"image-keyboard-response","trial_index":242,"plugin_version":"2.1.0","time_elapsed":460978,"subject_id":"87713","group":"Group1","full_date":"2025-12-04T16:49:17.211Z","date":"2025-12-04","time":"16:49:17"},{"rt":null,"stimulus":"<p style=\"font-size: 50px; margin: 0; text-align: center;\">+</p>","response":null,"trial_type":"html-keyboard-response","trial_index":243,"plugin_version":"2.1.0","time_elapsed":461980,"subject_id":"87713","group":"Group1","full_date":"2025-12-04T16:49:17.211Z","date":"2025-12-04","time":"16:49:17"},{"task":"memory_phase","broad_category":"S","image_png":"S_Rock Gypsum_04.png","image_id":420,"category_name":"Rock Gypsum","category":27,"distinct_rating":7.61,"distinct_type":"Top","rt":null,"stimulus":"Stimuli_Rocks480/S_Rock Gypsum_04.png","response":null,"trial_type":"image-keyboard-response","trial_index":244,"plugin_version":"2.1.0","time_elapsed":464494,"subject_id":"87713","group":"Group1","full_date":"2025-12-04T16:49:17.211Z","date":"2025-12-04","time":"16:49:17"},{"rt":null,"stimulus":"<p style=\"font-size: 50px; margin: 0; text-align: center;\">+</p>","response":null,"trial_type":"html-keyboard-response","trial_index":245,"plugin_version":"2.1.0","time_elapsed":465497,"subject_id":"87713","group":"Group1","full_date":"2025-12-04T16:49:17.211Z","date":"2025-12-04","time":"16:49:17"},{"task":"memory_phase","broad_category":"S","image_png":"S_Chert_10.png","image_id":362,"category_name":"Chert","category":23,"distinct_rating":7.17,"distinct_type":"Top","rt":null,"stimulus":"Stimuli_Rocks480/S_Chert_10.png","response":null,"trial_type":"image-keyboard-response","trial_index":246,"plugin_version":"2.1.0","time_elapsed":468012,"subject_id":"87713","group":"Group1","full_date":"2025-12-04T16:49:17.211Z","date":"2025-12-04","time":"16:49:17"},{"rt":null,"stimulus":"<p style=\"font-size: 50px; margin: 0; text-align: center;\">+</p>","response":null,"trial_type":"html-keyboard-response","trial_index":247,"plugin_version":"2.1.0","time_elapsed":469014,"subject_id":"87713","group":"Group1","full_date":"2025-12-04T16:49:17.211Z","date":"2025-12-04","time":"16:49:17"},{"task":"memory_phase","broad_category":"I","image_png":"I_Andesite_08.png","image_id":8,"category_name":"Andesite","category":1,"distinct_rating":1.95,"distinct_type":"Bottom","rt":null,"stimulus":"Stimuli_Rocks480/I_Andesite_08.png","response":null,"trial_type":"image-keyboard-response","trial_index":248,"plugin_version":"2.1.0","time_elapsed":471517,"subject_id":"87713","group":"Group1","ful