[{"width":1272,"height":674,"webaudio":true,"browser":"edge-chromium","browser_version":"142.0.0","mobile":false,"os":"Windows 10","fullscreen":true,"vsync_rate":60.36,"webcam":true,"microphone":true,"trial_type":"browser-check","trial_index":0,"plugin_version":"2.1.0","time_elapsed":1012,"subject_id":"86431","group":"Group1","full_date":"2025-12-04T16:47:12.285Z","date":"2025-12-04","time":"16:47:12"},{"success":true,"timeout":false,"failed_images":[],"failed_audio":[],"failed_video":[],"trial_type":"preload","trial_index":1,"plugin_version":"2.1.0","time_elapsed":2903,"subject_id":"86431","group":"Group1","full_date":"2025-12-04T16:47:12.285Z","date":"2025-12-04","time":"16:47:12"},{"rt":7590,"url":"SONA_consent_memorability.html","trial_type":"external-html","trial_index":2,"plugin_version":"2.1.0","time_elapsed":10540,"subject_id":"86431","group":"Group1","full_date":"2025-12-04T16:47:12.285Z","date":"2025-12-04","time":"16:47:12"},{"success":true,"rt":1882,"trial_type":"fullscreen","trial_index":3,"plugin_version":"2.1.0","time_elapsed":13430,"subject_id":"86431","group":"Group1","full_date":"2025-12-04T16:47:12.285Z","date":"2025-12-04","time":"16:47:12"},{"rt":20385,"stimulus":"<div style=\"max-width: 760px; margin: auto; font-size: 20px; line-height: 1.5;\">\n      <h1 style=\"text-align:center; font-size: 30px;\">Instructions</h1>\n      <p>\n        Welcome to the study on <b>visual memory</b>. This experiment consists of <b>two phases</b>: \n        a <b>study phase</b> and a <b>test phase</b>.\n      </p>\n      <p>\n        In the study phase, you will see a series of rock images along with their category labels.\n        The images will appear one at a time.\n        <b>Your task</b> is to learn the categories to which the rock images belong \n        and to remember each image as accurately as possible.\n      </p> \n      <p>\n        Note that we will repeat the study phase <b>3 times</b>, \n        so you will have multiple opportunities to see and remember each image.\n      </p>\n      <p>\n        After the study phase, <b>your memory will be tested</b>. \n        Additional instructions for the test phase will be provided at that time.\n      </p>\n      <p>\n        If your computer has multiple <b>language settings</b> (e.g., English and another language),\n        please make sure it is set to English before starting.\n      </p>\n      <p>\n        You can track your progress using the <b>completion bar</b> at the top of the screen. \n        Please note that the bar will refresh when the test phase begins \n        to give you an accurate sense of your progress in both phases.\n      </p> \n      <p>\n        Press the button below when you are ready to begin.\n      </p>\n    </div>","response":0,"trial_type":"html-button-response","trial_index":4,"plugin_version":"2.1.0","time_elapsed":33820,"subject_id":"86431","group":"Group1","full_date":"2025-12-04T16:47:12.285Z","date":"2025-12-04","time":"16:47:12"},{"rt":null,"stimulus":"<p style=\"font-size: 50px; margin: 0; text-align: center;\">+</p>","response":null,"trial_type":"html-keyboard-response","trial_index":5,"plugin_version":"2.1.0","time_elapsed":34825,"subject_id":"86431","group":"Group1","full_date":"2025-12-04T16:47:12.285Z","date":"2025-12-04","time":"16:47:12"},{"task":"memory_phase","broad_category":"I","image_png":"I_Pegmatite_16.png","image_id":112,"category_name":"Pegmatite","category":7,"distinct_rating":7.03,"distinct_type":"Top","rt":null,"stimulus":"Stimuli_Rocks480/I_Pegmatite_16.png","response":null,"trial_type":"image-keyboard-response","trial_index":6,"plugin_version":"2.1.0","time_elapsed":37341,"subject_id":"86431","group":"Group1","full_date":"2025-12-04T16:47:12.285Z","date":"2025-12-04","time":"16:47:12"},{"rt":null,"stimulus":"<p style=\"font-size: 50px; margin: 0; text-align: center;\">+</p>","response":null,"trial_type":"html-keyboard-response","trial_index":7,"plugin_version":"2.1.0","time_elapsed":38343,"subject_id":"86431","group":"Group1","full_date":"2025-12-04T16:47:12.285Z","date":"2025-12-04","time":"16:47:12"},{"task":"memory_phase","broad_category":"M","image_png":"M_Phyllite_07.png","image_id":263,"category_name":"Phyllite","category":17,"distinct_rating":2.59,"distinct_type":"Bottom","rt":null,"stimulus":"Stimuli_Rocks480/M_Phyllite_07.png","response":null,"trial_type":"image-keyboard-response","trial_index":8,"plugin_version":"2.1.0","time_elapsed":40860,"subject_id":"86431","group":"Group1","full_date":"2025-12-04T16:47:12.285Z","date":"2025-12-04","time":"16:47:12"},{"rt":null,"stimulus":"<p style=\"font-size: 50px; margin: 0; text-align: center;\">+</p>","response":null,"trial_type":"html-keyboard-response","trial_index":9,"plugin_version":"2.1.0","time_elapsed":41878,"subject_id":"86431","group":"Group1","full_date":"2025-12-04T16:47:12.285Z","date":"2025-12-04","time":"16:47:12"},{"task":"memory_phase","broad_category":"I","image_png":"I_Gabbro_08.png","image_id":56,"category_name":"Gabbro","category":4,"distinct_rating":3.02,"distinct_type":"Bottom","rt":null,"stimulus":"Stimuli_Rocks480/I_Gabbro_08.png","response":null,"trial_type":"image-keyboard-response","trial_index":10,"plugin_version":"2.1.0","time_elapsed":44385,"subject_id":"86431","group":"Group1","full_date":"2025-12-04T16:47:12.285Z","date":"2025-12-04","time":"16:47:12"},{"rt":null,"stimulus":"<p style=\"font-size: 50px; margin: 0; text-align: center;\">+</p>","response":null,"trial_type":"html-keyboard-response","trial_index":11,"plugin_version":"2.1.0","time_elapsed":45401,"subject_id":"86431","group":"Group1","full_date":"2025-12-04T16:47:12.285Z","date":"2025-12-04","time":"16:47:12"},{"task":"memory_phase","broad_category":"S","image_png":"S_Rock Salt_01.png","image_id":433,"category_name":"Rock Salt","category":28,"distinct_rating":7.18,"distinct_type":"Top","rt":null,"stimulus":"Stimuli_Rocks480/S_Rock Salt_01.png","response":null,"trial_type":"image-keyboard-response","trial_index":12,"plugin_version":"2.1.0","time_elapsed":47911,"subject_id":"86431","group":"Group1","full_date":"2025-12-04T16:47:12.285Z","date":"2025-12-04","time":"16:47:12"},{"rt":null,"stimulus":"<p style=\"font-size: 50px; margin: 0; text-align: center;\">+</p>","response":null,"trial_type":"html-keyboard-response","trial_index":13,"plugin_version":"2.1.0","time_elapsed":48927,"subject_id":"86431","group":"Group1","full_date":"2025-12-04T16:47:12.285Z","date":"2025-12-04","time":"16:47:12"},{"task":"memory_phase","broad_category":"M","image_png":"M_Marble_06.png","image_id":230,"category_name":"Marble","category":15,"distinct_rating":3.4,"distinct_type":"Bottom","rt":null,"stimulus":"Stimuli_Rocks480/M_Marble_06.png","response":null,"trial_type":"image-keyboard-response","trial_index":14,"plugin_version":"2.1.0","time_elapsed":51440,"subject_id":"86431","group":"Group1","full_date":"2025-12-04T16:47:12.285Z","date":"2025-12-04","time":"16:47:12"},{"rt":null,"stimulus":"<p style=\"font-size: 50px; margin: 0; text-align: center;\">+</p>","response":null,"trial_type":"html-keyboard-response","trial_index":15,"plugin_version":"2.1.0","time_elapsed":52454,"subject_id":"86431","group":"Group1","full_date":"2025-12-04T16:47:12.285Z","date":"2025-12-04","time":"16:47:12"},{"task":"memory_phase","broad_category":"M","image_png":"M_Slate_03.png","image_id":307,"category_name":"Slate","category":20,"distinct_rating":1.87,"distinct_type":"Bottom","rt":null,"stimulus":"Stimuli_Rocks480/M_Slate_03.png","response":null,"trial_type":"image-keyboard-response","trial_index":16,"plugin_version":"2.1.0","time_elapsed":54959,"subject_id":"86431","group":"Group1","full_date":"2025-12-04T16:47:12.285Z","date":"2025-12-04","time":"16:47:12"},{"rt":null,"stimulus":"<p style=\"font-size: 50px; margin: 0; text-align: center;\">+</p>","response":null,"trial_type":"html-keyboard-response","trial_index":17,"plugin_version":"2.1.0","time_elapsed":55975,"subject_id":"86431","group":"Group1","full_date":"2025-12-04T16:47:12.285Z","date":"2025-12-04","time":"16:47:12"},{"task":"memory_phase","broad_category":"I","image_png":"I_Basalt_02.png","image_id":18,"category_name":"Basalt","category":2,"distinct_rating":1.84,"distinct_type":"Bottom","rt":null,"stimulus":"Stimuli_Rocks480/I_Basalt_02.png","response":null,"trial_type":"image-keyboard-response","trial_index":18,"plugin_version":"2.1.0","time_elapsed":58483,"subject_id":"86431","group":"Group1","full_date":"2025-12-04T16:47:12.285Z","date":"2025-12-04","time":"16:47:12"},{"rt":null,"stimulus":"<p style=\"font-size: 50px; margin: 0; text-align: center;\">+</p>","response":null,"trial_type":"html-keyboard-response","trial_index":19,"plugin_version":"2.1.0","time_elapsed":59493,"subject_id":"86431","group":"Group1","full_date":"2025-12-04T16:47:12.285Z","date":"2025-12-04","time":"16:47:12"},{"task":"memory_phase","broad_category":"I","image_png":"I_Rhyolite_16.png","image_id":160,"category_name":"Rhyolite","category":10,"distinct_rating":2.19,"distinct_type":"Bottom","rt":null,"stimulus":"Stimuli_Rocks480/I_Rhyolite_16.png","response":null,"trial_type":"image-keyboard-response","trial_index":20,"plugin_version":"2.1.0","time_elapsed":61999,"subject_id":"86431","group":"Group1","full_date":"2025-12-04T16:47:12.285Z","date":"2025-12-04","time":"16:47:12"},{"rt":null,"stimulus":"<p style=\"font-size: 50px; margin: 0; text-align: center;\">+</p>","response":null,"trial_type":"html-keyboard-response","trial_index":21,"plugin_version":"2.1.0","time_elapsed":63009,"subject_id":"86431","group":"Group1","full_date":"2025-12-04T16:47:12.285Z","date":"2025-12-04","time":"16:47:12"},{"task":"memory_phase","broad_category":"I","image_png":"I_Andesite_08.png","image_id":8,"category_name":"Andesite","category":1,"distinct_rating":1.95,"distinct_type":"Bottom","rt":null,"stimulus":"Stimuli_Rocks480/I_Andesite_08.png","response":null,"trial_type":"image-keyboard-response","trial_index":22,"plugin_version":"2.1.0","time_elapsed":65526,"subject_id":"86431","group":"Group1","full_date":"2025-12-04T16:47:12.285Z","date":"2025-12-04","time":"16:47:12"},{"rt":null,"stimulus":"<p style=\"font-size: 50px; margin: 0; text-align: center;\">+</p>","response":null,"trial_type":"html-keyboard-response","trial_index":23,"plugin_version":"2.1.0","time_elapsed":66534,"subject_id":"86431","group":"Group1","full_date":"2025-12-04T16:47:12.285Z","date":"2025-12-04","time":"16:47:12"},{"task":"memory_phase","broad_category":"M","image_png":"M_Quartzite_13.png","image_id":285,"category_name":"Quartzite","category":18,"distinct_rating":2.27,"distinct_type":"Bottom","rt":null,"stimulus":"Stimuli_Rocks480/M_Quartzite_13.png","response":null,"trial_type":"image-keyboard-response","trial_index":24,"plugin_version":"2.1.0","time_elapsed":69047,"subject_id":"86431","group":"Group1","full_date":"2025-12-04T16:47:12.285Z","date":"2025-12-04","time":"16:47:12"},{"rt":null,"stimulus":"<p style=\"font-size: 50px; margin: 0; text-align: center;\">+</p>","response":null,"trial_type":"html-keyboard-response","trial_index":25,"plugin_version":"2.1.0","time_elapsed":70057,"subject_id":"86431","group":"Group1","full_date":"2025-12-04T16:47:12.285Z","date":"2025-12-04","time":"16:47:12"},{"task":"memory_phase","broad_category":"I","image_png":"I_Basalt_09.png","image_id":25,"category_name":"Basalt","category":2,"distinct_rating":1.89,"distinct_type":"Bottom","rt":null,"stimulus":"Stimuli_Rocks480/I_Basalt_09.png","response":null,"trial_type":"image-keyboard-response","trial_index":26,"plugin_version":"2.1.0","time_elapsed":72571,"subject_id":"86431","group":"Group1","full_date":"2025-12-04T16:47:12.285Z","date":"2025-12-04","time":"16:47:12"},{"rt":null,"stimulus":"<p style=\"font-size: 50px; margin: 0; text-align: center;\">+</p>","response":null,"trial_type":"html-keyboard-response","trial_index":27,"plugin_version":"2.1.0","time_elapsed":73576,"subject_id":"86431","group":"Group1","full_date":"2025-12-04T16:47:12.285Z","date":"2025-12-04","time":"16:47:12"},{"task":"memory_phase","broad_category":"I","image_png":"I_Basalt_01.png","image_id":17,"category_name":"Basalt","category":2,"distinct_rating":1.92,"distinct_type":"Bottom","rt":null,"stimulus":"Stimuli_Rocks480/I_Basalt_01.png","response":null,"trial_type":"image-keyboard-response","trial_index":28,"plugin_version":"2.1.0","time_elapsed":76094,"subject_id":"86431","group":"Group1","full_date":"2025-12-04T16:47:12.285Z","date":"2025-12-04","time":"16:47:12"},{"rt":null,"stimulus":"<p style=\"font-size: 50px; margin: 0; text-align: center;\">+</p>","response":null,"trial_type":"html-keyboard-response","trial_index":29,"plugin_version":"2.1.0","time_elapsed":77097,"subject_id":"86431","group":"Group1","full_date":"2025-12-04T16:47:12.285Z","date":"2025-12-04","time":"16:47:12"},{"task":"memory_phase","broad_category":"M","image_png":"M_Slate_11.png","image_id":315,"category_name":"Slate","category":20,"distinct_rating":2.75,"distinct_type":"Bottom","rt":null,"stimulus":"Stimuli_Rocks480/M_Slate_11.png","response":null,"trial_type":"image-keyboard-response","trial_index":30,"plugin_version":"2.1.0","time_elapsed":79616,"subject_id":"86431","group":"Group1","full_date":"2025-12-04T16:47:12.285Z","date":"2025-12-04","time":"16:47:12"},{"rt":null,"stimulus":"<p style=\"font-size: 50px; margin: 0; text-align: center;\">+</p>","response":null,"trial_type":"html-keyboard-response","trial_index":31,"plugin_version":"2.1.0","time_elapsed":80619,"subject_id":"86431","group":"Group1","full_date":"2025-12-04T16:47:12.285Z","date":"2025-12-04","time":"16:47:12"},{"task":"memory_phase","broad_category":"S","image_png":"S_Shale_12.png","image_id":476,"category_name":"Shale","category":30,"distinct_rating":2.48,"distinct_type":"Bottom","rt":null,"stimulus":"Stimuli_Rocks480/S_Shale_12.png","response":null,"trial_type":"image-keyboard-response","trial_index":32,"plugin_version":"2.1.0","time_elapsed":83129,"subject_id":"86431","group":"Group1","full_date":"2025-12-04T16:47:12.285Z","date":"2025-12-04","time":"16:47:12"},{"rt":null,"stimulus":"<p style=\"font-size: 50px; margin: 0; text-align: center;\">+</p>","response":null,"trial_type":"html-keyboard-response","trial_index":33,"plugin_version":"2.1.0","time_elapsed":84132,"subject_id":"86431","group":"Group1","full_date":"2025-12-04T16:47:12.285Z","date":"2025-12-04","time":"16:47:12"},{"task":"memory_phase","broad_category":"I","image_png":"I_Pumice_12.png","image_id":140,"category_name":"Pumice","category":9,"distinct_rating":2.97,"distinct_type":"Bottom","rt":null,"stimulus":"Stimuli_Rocks480/I_Pumice_12.png","response":null,"trial_type":"image-keyboard-response","trial_index":34,"plugin_version":"2.1.0","time_elapsed":86649,"subject_id":"86431","group":"Group1","full_date":"2025-12-04T16:47:12.285Z","date":"2025-12-04","time":"16:47:12"},{"rt":null,"stimulus":"<p style=\"font-size: 50px; margin: 0; text-align: center;\">+</p>","response":null,"trial_type":"html-keyboard-response","trial_index":35,"plugin_version":"2.1.0","time_elapsed":87664,"subject_id":"86431","group":"Group1","full_date":"2025-12-04T16:47:12.285Z","date":"2025-12-04","time":"16:47:12"},{"task":"memory_phase","broad_category":"M","image_png":"M_Quartzite_08.png","image_id":280,"category_name":"Quartzite","category":18,"distinct_rating":2.15,"distinct_type":"Bottom","rt":null,"stimulus":"Stimuli_Rocks480/M_Quartzite_08.png","response":null,"trial_type":"image-keyboard-response","trial_index":36,"plugin_version":"2.1.0","time_elapsed":90178,"subject_id":"86431","group":"Group1","full_date":"2025-12-04T16:47:12.285Z","date":"2025-12-04","time":"16:47:12"},{"rt":null,"stimulus":"<p style=\"font-size: 50px; margin: 0; text-align: center;\">+</p>","response":null,"trial_type":"html-keyboard-response","trial_index":37,"plugin_version":"2.1.0","time_elapsed":91191,"subject_id":"86431","group":"Group1","full_date":"2025-12-04T16:47:12.285Z","date":"2025-12-04","time":"16:47:12"},{"task":"memory_phase","broad_category":"S","image_png":"S_Sandstone_15.png","image_id":463,"category_name":"Sandstone","category":29,"distinct_rating":2,"distinct_type":"Bottom","rt":null,"stimulus":"Stimuli_Rocks480/S_Sandstone_15.png","response":null,"trial_type":"image-keyboard-response","trial_index":38,"plugin_version":"2.1.0","time_elapsed":93695,"subject_id":"86431","group":"Group1","full_date":"2025-12-04T16:47:12.285Z","date":"2025-12-04","time":"16:47:12"},{"rt":null,"stimulus":"<p style=\"font-size: 50px; margin: 0; text-align: center;\">+</p>","response":null,"trial_type":"html-keyboard-response","trial_index":39,"plugin_version":"2.1.0","time_elapsed":94698,"subject_id":"86431","group":"Group1","full_date":"2025-12-04T16:47:12.285Z","date":"2025-12-04","time":"16:47:12"},{"task":"memory_phase","broad_category":"M","image_png":"M_Phyllite_10.png","image_id":266,"category_name":"Phyllite","category":17,"distinct_rating":2.6,"distinct_type":"Bottom","rt":null,"stimulus":"Stimuli_Rocks480/M_Phyllite_10.png","response":null,"trial_type":"image-keyboard-response","trial_index":40,"plugin_version":"2.1.0","time_elapsed":97203,"subject_id":"86431","group":"Group1","full_date":"2025-12-04T16:47:12.285Z","date":"2025-12-04","time":"16:47:12"},{"rt":null,"stimulus":"<p style=\"font-size: 50px; margin: 0; text-align: center;\">+</p>","response":null,"trial_type":"html-keyboard-response","trial_index":41,"plugin_version":"2.1.0","time_elapsed":98222,"subject_id":"86431","group":"Group1","full_date":"2025-12-04T16:47:12.285Z","date":"2025-12-04","time":"16:47:12"},{"task":"memory_phase","broad_category":"S","image_png":"S_Shale_01.png","image_id":465,"category_name":"Shale","category":30,"distinct_rating":2.7,"distinct_type":"Bottom","rt":null,"stimulus":"Stimuli_Rocks480/S_Shale_01.png","response":null,"trial_type":"image-keyboard-response","trial_index":42,"plugin_version":"2.1.0","time_elapsed":100729,"subject_id":"86431","group":"Group1","full_date":"2025-12-04T16:47:12.285Z","date":"2025-12-04","time":"16:47:12"},{"rt":null,"stimulus":"<p style=\"font-size: 50px; margin: 0; text-align: center;\">+</p>","response":null,"trial_type":"html-keyboard-response","trial_index":43,"plugin_version":"2.1.0","time_elapsed":101732,"subject_id":"86431","group":"Group1","full_date":"2025-12-04T16:47:12.285Z","date":"2025-12-04","time":"16:47:12"},{"task":"memory_phase","broad_category":"I","image_png":"I_Rhyolite_14.png","image_id":158,"category_name":"Rhyolite","category":10,"distinct_rating":2.59,"distinct_type":"Bottom","rt":null,"stimulus":"Stimuli_Rocks480/I_Rhyolite_14.png","response":null,"trial_type":"image-keyboard-response","trial_index":44,"plugin_version":"2.1.0","time_elapsed":104245,"subject_id":"86431","group":"Group1","full_date":"2025-12-04T16:47:12.285Z","date":"2025-12-04","time":"16:47:12"},{"rt":null,"stimulus":"<p style=\"font-size: 50px; margin: 0; text-align: center;\">+</p>","response":null,"trial_type":"html-keyboard-response","trial_index":45,"plugin_version":"2.1.0","time_elapsed":105247,"subject_id":"86431","group":"Group1","full_date":"2025-12-04T16:47:12.285Z","date":"2025-12-04","time":"16:47:12"},{"task":"memory_phase","broad_category":"S","image_png":"S_Dolomite_13.png","image_id":397,"category_name":"Dolomite","category":25,"distinct_rating":1.77,"distinct_type":"Bottom","rt":null,"stimulus":"Stimuli_Rocks480/S_Dolomite_13.png","response":null,"trial_type":"image-keyboard-response","trial_index":46,"plugin_version":"2.1.0","time_elapsed":107752,"subject_id":"86431","group":"Group1","full_date":"2025-12-04T16:47:12.285Z","date":"2025-12-04","time":"16:47:12"},{"rt":null,"stimulus":"<p style=\"font-size: 50px; margin: 0; text-align: center;\">+</p>","response":null,"trial_type":"html-keyboard-response","trial_index":47,"plugin_version":"2.1.0","time_elapsed":108767,"subject_id":"86431","group":"Group1","full_date":"2025-12-04T16:47:12.285Z","date":"2025-12-04","time":"16:47:12"},{"task":"memory_phase","broad_category":"S","image_png":"S_Breccia_11.png","image_id":347,"category_name":"Breccia","category":22,"distinct_rating":6.7,"distinct_type":"Top","rt":null,"stimulus":"Stimuli_Rocks480/S_Breccia_11.png","response":null,"trial_type":"image-keyboard-response","trial_index":48,"plugin_version":"2.1.0","time_elapsed":111286,"subject_id":"86431","group":"Group1","full_date":"2025-12-04T16:47:12.285Z","date":"2025-12-04","time":"16:47:12"},{"rt":null,"stimulus":"<p style=\"font-size: 50px; margin: 0; text-align: center;\">+</p>","response":null,"trial_type":"html-keyboard-response","trial_index":49,"plugin_version":"2.1.0","time_elapsed":112288,"subject_id":"86431","group":"Group1","full_date":"2025-12-04T16:47:12.285Z","date":"2025-12-04","time":"16:47:12"},{"task":"memory_phase","broad_category":"S","image_png":"S_Dolomite_14.png","image_id":398,"category_name":"Dolomite","category":25,"distinct_rating":1.43,"distinct_type":"Bottom","rt":null,"stimulus":"Stimuli_Rocks480/S_Dolomite_14.png","response":null,"trial_type":"image-keyboard-response","trial_index":50,"plugin_version":"2.1.0","time_elapsed":114794,"subject_id":"86431","group":"Group1","full_date":"2025-12-04T16:47:12.285Z","date":"2025-12-04","time":"16:47:12"},{"rt":null,"stimulus":"<p style=\"font-size: 50px; margin: 0; text-align: center;\">+</p>","response":null,"trial_type":"html-keyboard-response","trial_index":51,"plugin_version":"2.1.0","time_elapsed":115797,"subject_id":"86431","group":"Group1","full_date":"2025-12-04T16:47:12.285Z","date":"2025-12-04","time":"16:47:12"},{"task":"memory_phase","broad_category":"I","image_png":"I_Andesite_10.png","image_id":10,"category_name":"Andesite","category":1,"distinct_rating":3.15,"distinct_type":"Bottom","rt":null,"stimulus":"Stimuli_Rocks480/I_Andesite_10.png","response":null,"trial_type":"image-keyboard-response","trial_index":52,"plugin_version":"2.1.0","time_elapsed":118306,"subject_id":"86431","group":"Group1","full_date":"2025-12-04T16:47:12.285Z","date":"2025-12-04","time":"16:47:12"},{"rt":null,"stimulus":"<p style=\"font-size: 50px; margin: 0; text-align: center;\">+</p>","response":null,"trial_type":"html-keyboard-response","trial_index":53,"plugin_version":"2.1.0","time_elapsed":119308,"subject_id":"86431","group":"Group1","full_date":"2025-12-04T16:47:12.285Z","date":"2025-12-04","time":"16:47:12"},{"task":"memory_phase","broad_category":"I","image_png":"I_Gabbro_11.png","image_id":59,"category_name":"Gabbro","category":4,"distinct_rating":1.99,"distinct_type":"Bottom","rt":null,"stimulus":"Stimuli_Rocks480/I_Gabbro_11.png","response":null,"trial_type":"image-keyboard-response","trial_index":54,"plugin_version":"2.1.0","time_elapsed":121824,"subject_id":"86431","group":"Group1","full_date":"2025-12-04T16:47:12.285Z","date":"2025-12-04","time":"16:47:12"},{"rt":4475,"stimulus":"<p style=\"max-width: 760px; margin: auto; font-size: 35px; line-height: 1.5;\">Press SPACE to continue study phase</p>","response":" ","trial_type":"html-keyboard-response","trial_index":55,"plugin_version":"2.1.0","time_elapsed":126302,"subject_id":"86431","group":"Group1","full_date":"2025-12-04T16:47:12.285Z","date":"2025-12-04","time":"16:47:12"},{"rt":null,"stimulus":"<p style=\"font-size: 50px; margin: 0; text-align: center;\">+</p>","response":null,"trial_type":"html-keyboard-response","trial_index":56,"plugin_version":"2.1.0","time_elapsed":127320,"subject_id":"86431","group":"Group1","full_date":"2025-12-04T16:47:12.285Z","date":"2025-12-04","time":"16:47:12"},{"task":"memory_phase","broad_category":"S","image_png":"S_Sandstone_16.png","image_id":464,"category_name":"Sandstone","category":29,"distinct_rating":1.93,"distinct_type":"Bottom","rt":null,"stimulus":"Stimuli_Rocks480/S_Sandstone_16.png","response":null,"trial_type":"image-keyboard-response","trial_index":57,"plugin_version":"2.1.0","time_elapsed":129839,"subject_id":"86431","group":"Group1","full_date":"2025-12-04T16:47:12.285Z","date":"2025-12-04","time":"16:47:12"},{"rt":null,"stimulus":"<p style=\"font-size: 50px; margin: 0; text-align: center;\">+</p>","response":null,"trial_type":"html-keyboard-response","trial_index":58,"plugin_version":"2.1.0","time_elapsed":130841,"subject_id":"86431","group":"Group1","full_date":"2025-12-04T16:47:12.285Z","date":"2025-12-04","time":"16:47:12"},{"task":"memory_phase","broad_category":"I","image_png":"I_Pegmatite_10.png","image_id":106,"category_name":"Pegmatite","category":7,"distinct_rating":7.66,"distinct_type":"Top","rt":null,"stimulus":"Stimuli_Rocks480/I_Pegmatite_10.png","response":null,"trial_type":"image-keyboard-response","trial_index":59,"plugin_version":"2.1.0","time_elapsed":133356,"subject_id":"86431","group":"Group1","full_date":"2025-12-04T16:47:12.285Z","date":"2025-12-04","time":"16:47:12"},{"rt":null,"stimulus":"<p style=\"font-size: 50px; margin: 0; text-align: center;\">+</p>","response":null,"trial_type":"html-keyboard-response","trial_index":60,"plugin_version":"2.1.0","time_elapsed":134362,"subject_id":"86431","group":"Group1","full_date":"2025-12-04T16:47:12.285Z","date":"2025-12-04","time":"16:47:12"},{"task":"memory_phase","broad_category":"S","image_png":"S_Sandstone_03.png","image_id":451,"category_name":"Sandstone","category":29,"distinct_rating":1.86,"distinct_type":"Bottom","rt":null,"stimulus":"Stimuli_Rocks480/S_Sandstone_03.png","response":null,"trial_type":"image-keyboard-response","trial_index":61,"plugin_version":"2.1.0","time_elapsed":136874,"subject_id":"86431","group":"Group1","full_date":"2025-12-04T16:47:12.285Z","date":"2025-12-04","time":"16:47:12"},{"rt":null,"stimulus":"<p style=\"font-size: 50px; margin: 0; text-align: center;\">+</p>","response":null,"trial_type":"html-keyboard-response","trial_index":62,"plugin_version":"2.1.0","time_elapsed":137879,"subject_id":"86431","group":"Group1","full_date":"2025-12-04T16:47:12.285Z","date":"2025-12-04","time":"16:47:12"},{"task":"memory_phase","broad_category":"S","image_png":"S_Shale_08.png","image_id":472,"category_name":"Shale","category":30,"distinct_rating":2.55,"distinct_type":"Bottom","rt":null,"stimulus":"Stimuli_Rocks480/S_Shale_08.png","response":null,"trial_type":"image-keyboard-response","trial_index":63,"plugin_version":"2.1.0","time_elapsed":140383,"subject_id":"86431","group":"Group1","full_date":"2025-12-04T16:47:12.285Z","date":"2025-12-04","time":"16:47:12"},{"rt":null,"stimulus":"<p style=\"font-size: 50px; margin: 0; text-align: center;\">+</p>","response":null,"trial_type":"html-keyboard-response","trial_index":64,"plugin_version":"2.1.0","time_elapsed":141402,"subject_id":"86431","group":"Group1","full_date":"2025-12-04T16:47:12.285Z","date":"2025-12-04","time":"16:47:12"},{"task":"memory_phase","broad_category":"I","image_png":"I_Gabbro_16.png","image_id":64,"category_name":"Gabbro","category":4,"distinct_rating":2.52,"distinct_type":"Bottom","rt":null,"stimulus":"Stimuli_Rocks480/I_Gabbro_16.png","response":null,"trial_type":"image-keyboard-response","trial_index":65,"plugin_version":"2.1.0","time_elapsed":143908,"subject_id":"86431","group":"Group1","full_date":"2025-12-04T16:47:12.285Z","date":"2025-12-04","time":"16:47:12"},{"rt":null,"stimulus":"<p style=\"font-size: 50px; margin: 0; text-align: center;\">+</p>","response":null,"trial_type":"html-keyboard-response","trial_index":66,"plugin_version":"2.1.0","time_elapsed":144911,"subject_id":"86431","group":"Group1","full_date":"2025-12-04T16:47:12.285Z","date":"2025-12-04","time":"16:47:12"},{"task":"memory_phase","broad_category":"I","image_png":"I_Rhyolite_11.png","image_id":155,"category_name":"Rhyolite","category":10,"distinct_rating":1.73,"distinct_type":"Bottom","rt":null,"stimulus":"Stimuli_Rocks480/I_Rhyolite_11.png","response":null,"trial_type":"image-keyboard-response","trial_index":67,"plugin_version":"2.1.0","time_elapsed":147430,"subject_id":"86431","group":"Group1","full_date":"2025-12-04T16:47:12.285Z","date":"2025-12-04","time":"16:47:12"},{"rt":null,"stimulus":"<p style=\"font-size: 50px; margin: 0; text-align: center;\">+</p>","response":null,"trial_type":"html-keyboard-response","trial_index":68,"plugin_version":"2.1.0","time_elapsed":148441,"subject_id":"86431","group":"Group1","full_date":"2025-12-04T16:47:12.285Z","date":"2025-12-04","time":"16:47:12"},{"task":"memory_phase","broad_category":"M","image_png":"M_Slate_15.png","image_id":319,"category_name":"Slate","category":20,"distinct_rating":2.13,"distinct_type":"Bottom","rt":null,"stimulus":"Stimuli_Rocks480/M_Slate_15.png","response":null,"trial_type":"image-keyboard-response","trial_index":69,"plugin_version":"2.1.0","time_elapsed":150946,"subject_id":"86431","group":"Group1","full_date":"2025-12-04T16:47:12.285Z","date":"2025-12-04","time":"16:47:12"},{"rt":null,"stimulus":"<p style=\"font-size: 50px; margin: 0; text-align: center;\">+</p>","response":null,"trial_type":"html-keyboard-response","trial_index":70,"plugin_version":"2.1.0","time_elapsed":151964,"subject_id":"86431","group":"Group1","full_date":"2025-12-04T16:47:12.285Z","date":"2025-12-04","time":"16:47:12"},{"task":"memory_phase","broad_category":"M","image_png":"M_Gneiss_06.png","image_id":198,"category_name":"Gneiss","category":13,"distinct_rating":2.65,"distinct_type":"Bottom","rt":null,"stimulus":"Stimuli_Rocks480/M_Gneiss_06.png","response":null,"trial_type":"image-keyboard-response","trial_index":71,"plugin_version":"2.1.0","time_elapsed":154482,"subject_id":"86431","group":"Group1","full_date":"2025-12-04T16:47:12.285Z","date":"2025-12-04","time":"16:47:12"},{"rt":null,"stimulus":"<p style=\"font-size: 50px; margin: 0; text-align: center;\">+</p>","response":null,"trial_type":"html-keyboard-response","trial_index":72,"plugin_version":"2.1.0","time_elapsed":155485,"subject_id":"86431","group":"Group1","full_date":"2025-12-04T16:47:12.285Z","date":"2025-12-04","time":"16:47:12"},{"task":"memory_phase","broad_category":"I","image_png":"I_Obsidian_05.png","image_id":85,"category_name":"Obsidian","category":6,"distinct_rating":7.32,"distinct_type":"Top","rt":null,"stimulus":"Stimuli_Rocks480/I_Obsidian_05.png","response":null,"trial_type":"image-keyboard-response","trial_index":73,"plugin_version":"2.1.0","time_elapsed":158001,"subject_id":"86431","group":"Group1","full_date":"2025-12-04T16:47:12.285Z","date":"2025-12-04","time":"16:47:12"},{"rt":null,"stimulus":"<p style=\"font-size: 50px; margin: 0; text-align: center;\">+</p>","response":null,"trial_type":"html-keyboard-response","trial_index":74,"plugin_version":"2.1.0","time_elapsed":159010,"subject_id":"86431","group":"Group1","full_date":"2025-12-04T16:47:12.285Z","date":"2025-12-04","time":"16:47:12"},{"task":"memory_phase","broad_category":"M","image_png":"M_Gneiss_05.png","image_id":197,"category_name":"Gneiss","category":13,"distinct_rating":2.97,"distinct_type":"Bottom","rt":null,"stimulus":"Stimuli_Rocks480/M_Gneiss_05.png","response":null,"trial_type":"image-keyboard-response","trial_index":75,"plugin_version":"2.1.0","time_elapsed":161524,"subject_id":"86431","group":"Group1","full_date":"2025-12-04T16:47:12.285Z","date":"2025-12-04","time":"16:47:12"},{"rt":null,"stimulus":"<p style=\"font-size: 50px; margin: 0; text-align: center;\">+</p>","response":null,"trial_type":"html-keyboard-response","trial_index":76,"plugin_version":"2.1.0","time_elapsed":162531,"subject_id":"86431","group":"Group1","full_date":"2025-12-04T16:47:12.285Z","date":"2025-12-04","time":"16:47:12"},{"task":"memory_phase","broad_category":"I","image_png":"I_Diorite_04.png","image_id":36,"category_name":"Diorite","category":3,"distinct_rating":2.98,"distinct_type":"Bottom","rt":null,"stimulus":"Stimuli_Rocks480/I_Diorite_04.png","response":null,"trial_type":"image-keyboard-response","trial_index":77,"plugin_version":"2.1.0","time_elapsed":165044,"subject_id":"86431","group":"Group1","full_date":"2025-12-04T16:47:12.285Z","date":"2025-12-04","time":"16:47:12"},{"rt":null,"stimulus":"<p style=\"font-size: 50px; margin: 0; text-align: center;\">+</p>","response":null,"trial_type":"html-keyboard-response","trial_index":78,"plugin_version":"2.1.0","time_elapsed":166050,"subject_id":"86431","group":"Group1","full_date":"2025-12-04T16:47:12.285Z","date":"2025-12-04","time":"16:47:12"},{"task":"memory_phase","broad_category":"I","image_png":"I_Andesite_06.png","image_id":6,"category_name":"Andesite","category":1,"distinct_rating":3.17,"distinct_type":"Bottom","rt":null,"stimulus":"Stimuli_Rocks480/I_Andesite_06.png","response":null,"trial_type":"image-keyboard-response","trial_index":79,"plugin_version":"2.1.0","time_elapsed":168556,"subject_id":"86431","group":"Group1","full_date":"2025-12-04T16:47:12.285Z","date":"2025-12-04","time":"16:47:12"},{"rt":null,"stimulus":"<p style=\"font-size: 50px; margin: 0; text-align: center;\">+</p>","response":null,"trial_type":"html-keyboard-response","trial_index":80,"plugin_version":"2.1.0","time_elapsed":169572,"subject_id":"86431","group":"Group1","full_date":"2025-12-04T16:47:12.285Z","date":"2025-12-04","time":"16:47:12"},{"task":"memory_phase","broad_category":"S","image_png":"S_Chert_10.png","image_id":362,"category_name":"Chert","category":23,"distinct_rating":7.17,"distinct_type":"Top","rt":null,"stimulus":"Stimuli_Rocks480/S_Chert_10.png","response":null,"trial_type":"image-keyboard-response","trial_index":81,"plugin_version":"2.1.0","time_elapsed":172087,"subject_id":"86431","group":"Group1","full_date":"2025-12-04T16:47:12.285Z","date":"2025-12-04","time":"16:47:12"},{"rt":null,"stimulus":"<p style=\"font-size: 50px; margin: 0; text-align: center;\">+</p>","response":null,"trial_type":"html-keyboard-response","trial_index":82,"plugin_version":"2.1.0","time_elapsed":173104,"subject_id":"86431","group":"Group1","full_date":"2025-12-04T16:47:12.285Z","date":"2025-12-04","time":"16:47:12"},{"task":"memory_phase","broad_category":"M","image_png":"M_Quartzite_05.png","image_id":277,"category_name":"Quartzite","category":18,"distinct_rating":2.23,"distinct_type":"Bottom","rt":null,"stimulus":"Stimuli_Rocks480/M_Quartzite_05.png","response":null,"trial_type":"image-keyboard-response","trial_index":83,"plugin_version":"2.1.0","time_elapsed":175613,"subject_id":"86431","group":"Group1","full_date":"2025-12-04T16:47:12.285Z","date":"2025-12-04","time":"16:47:12"},{"rt":null,"stimulus":"<p style=\"font-size: 50px; margin: 0; text-align: center;\">+</p>","response":null,"trial_type":"html-keyboard-response","trial_index":84,"plugin_version":"2.1.0","time_elapsed":176624,"subject_id":"86431","group":"Group1","full_date":"2025-12-04T16:47:12.285Z","date":"2025-12-04","time":"16:47:12"},{"task":"memory_phase","broad_category":"I","image_png":"I_Pumice_08.png","image_id":136,"category_name":"Pumice","category":9,"distinct_rating":3.1,"distinct_type":"Bottom","rt":null,"stimulus":"Stimuli_Rocks480/I_Pumice_08.png","response":null,"trial_type":"image-keyboard-response","trial_index":85,"plugin_version":"2.1.0","time_elapsed":179136,"subject_id":"86431","group":"Group1","full_date":"2025-12-04T16:47:12.285Z","date":"2025-12-04","time":"16:47:12"},{"rt":null,"stimulus":"<p style=\"font-size: 50px; margin: 0; text-align: center;\">+</p>","response":null,"trial_type":"html-keyboard-response","trial_index":86,"plugin_version":"2.1.0","time_elapsed":180138,"subject_id":"86431","group":"Group1","full_date":"2025-12-04T16:47:12.285Z","date":"2025-12-04","time":"16:47:12"},{"task":"memory_phase","broad_category":"M","image_png":"M_Phyllite_03.png","image_id":259,"category_name":"Phyllite","category":17,"distinct_rating":2.5,"distinct_type":"Bottom","rt":null,"stimulus":"Stimuli_Rocks480/M_Phyllite_03.png","response":null,"trial_type":"image-keyboard-response","trial_index":87,"plugin_version":"2.1.0","time_elapsed":182642,"subject_id":"86431","group":"Group1","full_date":"2025-12-04T16:47:12.285Z","date":"2025-12-04","time":"16:47:12"},{"rt":null,"stimulus":"<p style=\"font-size: 50px; margin: 0; text-align: center;\">+</p>","response":null,"trial_type":"html-keyboard-response","trial_index":88,"plugin_version":"2.1.0","time_elapsed":183645,"subject_id":"86431","group":"Group1","full_date":"2025-12-04T16:47:12.285Z","date":"2025-12-04","time":"16:47:12"},{"task":"memory_phase","broad_category":"M","image_png":"M_Gneiss_13.png","image_id":205,"category_name":"Gneiss","category":13,"distinct_rating":3.26,"distinct_type":"Bottom","rt":null,"stimulus":"Stimuli_Rocks480/M_Gneiss_13.png","response":null,"trial_type":"image-keyboard-response","trial_index":89,"plugin_version":"2.1.0","time_elapsed":186157,"subject_id":"86431","group":"Group1","full_date":"2025-12-04T16:47:12.285Z","date":"2025-12-04","time":"16:47:12"},{"rt":null,"stimulus":"<p style=\"font-size: 50px; margin: 0; text-align: center;\">+</p>","response":null,"trial_type":"html-keyboard-response","trial_index":90,"plugin_version":"2.1.0","time_elapsed":187160,"subject_id":"86431","group":"Group1","full_date":"2025-12-04T16:47:12.285Z","date":"2025-12-04","time":"16:47:12"},{"task":"memory_phase","broad_category":"S","image_png":"S_Conglomerate_05.png","image_id":373,"category_name":"Conglomerate","category":24,"distinct_rating":7.32,"distinct_type":"Top","rt":null,"stimulus":"Stimuli_Rocks480/S_Conglomerate_05.png","response":null,"trial_type":"image-keyboard-response","trial_index":91,"plugin_version":"2.1.0","time_elapsed":189671,"subject_id":"86431","group":"Group1","full_date":"2025-12-04T16:47:12.285Z","date":"2025-12-04","time":"16:47:12"},{"rt":null,"stimulus":"<p style=\"font-size: 50px; margin: 0; text-align: center;\">+</p>","response":null,"trial_type":"html-keyboard-response","trial_index":92,"plugin_version":"2.1.0","time_elapsed":190686,"subject_id":"86431","group":"Group1","full_date":"2025-12-04T16:47:12.285Z","date":"2025-12-04","time":"16:47:12"},{"task":"memory_phase","broad_category":"M","image_png":"M_Marble_04.png","image_id":228,"category_name":"Marble","category":15,"distinct_rating":3.15,"distinct_type":"Bottom","rt":null,"stimulus":"Stimuli_Rocks480/M_Marble_04.png","response":null,"trial_type":"image-keyboard-response","trial_index":93,"plugin_version":"2.1.0","time_elapsed":193196,"subject_id":"86431","group":"Group1","full_date":"2025-12-04T16:47:12.285Z","date":"2025-12-04","time":"16:47:12"},{"rt":null,"stimulus":"<p style=\"font-size: 50px; margin: 0; text-align: center;\">+</p>","response":null,"trial_type":"html-keyboard-response","trial_index":94,"plugin_version":"2.1.0","time_elapsed":194208,"subject_id":"86431","group":"Group1","full_date":"2025-12-04T16:47:12.285Z","date":"2025-12-04","time":"16:47:12"},{"task":"memory_phase","broad_category":"I","image_png":"I_Diorite_03.png","image_id":35,"category_name":"Diorite","category":3,"distinct_rating":3.14,"distinct_type":"Bottom","rt":null,"stimulus":"Stimuli_Rocks480/I_Diorite_03.png","response":null,"trial_type":"image-keyboard-response","trial_index":95,"plugin_version":"2.1.0","time_elapsed":196726,"subject_id":"86431","group":"Group1","full_date":"2025-12-04T16:47:12.285Z","date":"2025-12-04","time":"16:47:12"},{"rt":null,"stimulus":"<p style=\"font-size: 50px; margin: 0; text-align: center;\">+</p>","response":null,"trial_type":"html-keyboard-response","trial_index":96,"plugin_version":"2.1.0","time_elapsed":197729,"subject_id":"86431","group":"Group1","full_date":"2025-12-04T16:47:12.285Z","date":"2025-12-04","time":"16:47:12"},{"task":"memory_phase","broad_category":"S","image_png":"S_Rock Gypsum_04.png","image_id":420,"category_name":"Rock Gypsum","category":27,"distinct_rating":7.61,"distinct_type":"Top","rt":null,"stimulus":"Stimuli_Rocks480/S_Rock Gypsum_04.png","response":null,"trial_type":"image-keyboard-response","trial_index":97,"plugin_version":"2.1.0","time_elapsed":200248,"subject_id":"86431","group":"Group1","full_date":"2025-12-04T16:47:12.285Z","date":"2025-12-04","time":"16:47:12"},{"rt":null,"stimulus":"<p style=\"font-size: 50px; margin: 0; text-align: center;\">+</p>","response":null,"trial_type":"html-keyboard-response","trial_index":98,"plugin_version":"2.1.0","time_elapsed":201251,"subject_id":"86431","group":"Group1","full_date":"2025-12-04T16:47:12.285Z","date":"2025-12-04","time":"16:47:12"},{"task":"memory_phase","broad_category":"I","image_png":"I_Pumice_11.png","image_id":139,"category_name":"Pumice","category":9,"distinct_rating":1.74,"distinct_type":"Bottom","rt":null,"stimulus":"Stimuli_Rocks480/I_Pumice_11.png","response":null,"trial_type":"image-keyboard-response","trial_index":99,"plugin_version":"2.1.0","time_elapsed":203756,"subject_id":"86431","group":"Group1","full_date":"2025-12-04T16:47:12.285Z","date":"2025-12-04","time":"16:47:12"},{"rt":null,"stimulus":"<p style=\"font-size: 50px; margin: 0; text-align: center;\">+</p>","response":null,"trial_type":"html-keyboard-response","trial_index":100,"plugin_version":"2.1.0","time_elapsed":204764,"subject_id":"86431","group":"Group1","full_date":"2025-12-04T16:47:12.285Z","date":"2025-12-04","time":"16:47:12"},{"task":"memory_phase","broad_category":"S","image_png":"S_Dolomite_12.png","image_id":396,"category_name":"Dolomite","category":25,"distinct_rating":1.85,"distinct_type":"Bottom","rt":null,"stimulus":"Stimuli_Rocks480/S_Dolomite_12.png","response":null,"trial_type":"image-keyboard-response","trial_index":101,"plugin_version":"2.1.0","time_elapsed":207273,"subject_id":"86431","group":"Group1","full_date":"2025-12-04T16:47:12.285Z","date":"2025-12-04","time":"16:47:12"},{"rt":null,"stimulus":"<p style=\"font-size: 50px; margin: 0; text-align: center;\">+</p>","response":null,"trial_type":"html-keyboard-response","trial_index":102,"plugin_version":"2.1.0","time_elapsed":208280,"subject_id":"86431","group":"Group1","full_date":"2025-12-04T16:47:12.285Z","date":"2025-12-04","time":"16:47:12"},{"task":"memory_phase","broad_category":"I","image_png":"I_Diorite_05.png","image_id":37,"category_name":"Diorite","category":3,"distinct_rating":3.08,"distinct_type":"Bottom","rt":null,"stimulus":"Stimuli_Rocks480/I_Diorite_05.png","response":null,"trial_type":"image-keyboard-response","trial_index":103,"plugin_version":"2.1.0","time_elapsed":210792,"subject_id":"86431","group":"Group1","full_date":"2025-12-04T16:47:12.285Z","date":"2025-12-04","time":"16:47:12"},{"rt":null,"stimulus":"<p style=\"font-size: 50px; margin: 0; text-align: center;\">+</p>","response":null,"trial_type":"html-keyboard-response","trial_index":104,"plugin_version":"2.1.0","time_elapsed":211806,"subject_id":"86431","group":"Group1","full_date":"2025-12-04T16:47:12.285Z","date":"2025-12-04","time":"16:47:12"},{"task":"memory_phase","broad_category":"M","image_png":"M_Marble_16.png","image_id":240,"category_name":"Marble","category":15,"distinct_rating":2.57,"distinct_type":"Bottom","rt":null,"stimulus":"Stimuli_Rocks480/M_Marble_16.png","response":null,"trial_type":"image-keyboard-response","trial_index":105,"plugin_version":"2.1.0","time_elapsed":214318,"subject_id":"86431","group":"Group1","full_date":"2025-12-04T16:47:12.285Z","date":"2025-12-04","time":"16:47:12"},{"rt":38414,"stimulus":"<p style=\"max-width: 760px; margin: auto; font-size: 35px; line-height: 1.5;\">You have completed 1 study phase. Now, we'll show you all the images again 2 more times.<br><br>Press SPACE to continue</p>","response":" ","trial_type":"html-keyboard-response","trial_index":106,"plugin_version":"2.1.0","time_elapsed":252735,"subject_id":"86431","group":"Group1","full_date":"2025-12-04T16:47:12.285Z","date":"2025-12-04","time":"16:47:12"},{"rt":null,"stimulus":"<p style=\"font-size: 50px; margin: 0; text-align: center;\">+</p>","response":null,"trial_type":"html-keyboard-response","trial_index":107,"plugin_version":"2.1.0","time_elapsed":253748,"subject_id":"86431","group":"Group1","full_date":"2025-12-04T16:47:12.285Z","date":"2025-12-04","time":"16:47:12"},{"task":"memory_phase","broad_category":"I","image_png":"I_Gabbro_11.png","image_id":59,"category_name":"Gabbro","category":4,"distinct_rating":1.99,"distinct_type":"Bottom","rt":null,"stimulus":"Stimuli_Rocks480/I_Gabbro_11.png","response":null,"trial_type":"image-keyboard-response","trial_index":108,"plugin_version":"2.1.0","time_elapsed":256267,"subject_id":"86431","group":"Group1","full_date":"2025-12-04T16:47:12.285Z","date":"2025-12-04","time":"16:47:12"},{"rt":null,"stimulus":"<p style=\"font-size: 50px; margin: 0; text-align: center;\">+</p>","response":null,"trial_type":"html-keyboard-response","trial_index":109,"plugin_version":"2.1.0","time_elapsed":257270,"subject_id":"86431","group":"Group1","full_date":"2025-12-04T16:47:12.285Z","date":"2025-12-04","time":"16:47:12"},{"task":"memory_phase","broad_category":"M","image_png":"M_Gneiss_13.png","image_id":205,"category_name":"Gneiss","category":13,"distinct_rating":3.26,"distinct_type":"Bottom","rt":null,"stimulus":"Stimuli_Rocks480/M_Gneiss_13.png","response":null,"trial_type":"image-keyboard-response","trial_index":110,"plugin_version":"2.1.0","time_elapsed":259773,"subject_id":"86431","group":"Group1","full_date":"2025-12-04T16:47:12.285Z","date":"2025-12-04","time":"16:47:12"},{"rt":null,"stimulus":"<p style=\"font-size: 50px; margin: 0; text-align: center;\">+</p>","response":null,"trial_type":"html-keyboard-response","trial_index":111,"plugin_version":"2.1.0","time_elapsed":260789,"subject_id":"86431","group":"Group1","full_date":"2025-12-04T16:47:12.285Z","date":"2025-12-04","time":"16:47:12"},{"task":"memory_phase","broad_category":"I","image_png":"I_Basalt_01.png","image_id":17,"category_name":"Basalt","category":2,"distinct_rating":1.92,"distinct_type":"Bottom","rt":null,"stimulus":"Stimuli_Rocks480/I_Basalt_01.png","response":null,"trial_type":"image-keyboard-response","trial_index":112,"plugin_version":"2.1.0","time_elapsed":263306,"subject_id":"86431","group":"Group1","full_date":"2025-12-04T16:47:12.285Z","date":"2025-12-04","time":"16:47:12"},{"rt":null,"stimulus":"<p style=\"font-size: 50px; margin: 0; text-align: center;\">+</p>","response":null,"trial_type":"html-keyboard-response","trial_index":113,"plugin_version":"2.1.0","time_elapsed":264316,"subject_id":"86431","group":"Group1","full_date":"2025-12-04T16:47:12.285Z","date":"2025-12-04","time":"16:47:12"},{"task":"memory_phase","broad_category":"S","image_png":"S_Sandstone_16.png","image_id":464,"category_name":"Sandstone","category":29,"distinct_rating":1.93,"distinct_type":"Bottom","rt":null,"stimulus":"Stimuli_Rocks480/S_Sandstone_16.png","response":null,"trial_type":"image-keyboard-response","trial_index":114,"plugin_version":"2.1.0","time_elapsed":266836,"subject_id":"86431","group":"Group1","full_date":"2025-12-04T16:47:12.285Z","date":"2025-12-04","time":"16:47:12"},{"rt":null,"stimulus":"<p style=\"font-size: 50px; margin: 0; text-align: center;\">+</p>","response":null,"trial_type":"html-keyboard-response","trial_index":115,"plugin_version":"2.1.0","time_elapsed":267842,"subject_id":"86431","group":"Group1","full_date":"2025-12-04T16:47:12.285Z","date":"2025-12-04","time":"16:47:12"},{"task":"memory_phase","broad_category":"M","image_png":"M_Slate_03.png","image_id":307,"category_name":"Slate","category":20,"distinct_rating":1.87,"distinct_type":"Bottom","rt":null,"stimulus":"Stimuli_Rocks480/M_Slate_03.png","response":null,"trial_type":"image-keyboard-response","trial_index":116,"plugin_version":"2.1.0","time_elapsed":270352,"subject_id":"86431","group":"Group1","full_date":"2025-12-04T16:47:12.285Z","date":"2025-12-04","time":"16:47:12"},{"rt":null,"stimulus":"<p style=\"font-size: 50px; margin: 0; text-align: center;\">+</p>","response":null,"trial_type":"html-keyboard-response","trial_index":117,"plugin_version":"2.1.0","time_elapsed":271369,"subject_id":"86431","group":"Group1","full_date":"2025-12-04T16:47:12.285Z","date":"2025-12-04","time":"16:47:12"},{"task":"memory_phase","broad_category":"S","image_png":"S_Sandstone_03.png","image_id":451,"category_name":"Sandstone","category":29,"distinct_rating":1.86,"distinct_type":"Bottom","rt":null,"stimulus":"Stimuli_Rocks480/S_Sandstone_03.png","response":null,"trial_type":"image-keyboard-response","trial_index":118,"plugin_version":"2.1.0","time_elapsed":273886,"subject_id":"86431","group":"Group1","full_date":"2025-12-04T16:47:12.285Z","date":"2025-12-04","time":"16:47:12"},{"rt":null,"stimulus":"<p style=\"font-size: 50px; margin: 0; text-align: center;\">+</p>","response":null,"trial_type":"html-keyboard-response","trial_index":119,"plugin_version":"2.1.0","time_elapsed":274898,"subject_id":"86431","group":"Group1","full_date":"2025-12-04T16:47:12.285Z","date":"2025-12-04","time":"16:47:12"},{"task":"memory_phase","broad_category":"I","image_png":"I_Gabbro_16.png","image_id":64,"category_name":"Gabbro","category":4,"distinct_rating":2.52,"distinct_type":"Bottom","rt":null,"stimulus":"Stimuli_Rocks480/I_Gabbro_16.png","response":null,"trial_type":"image-keyboard-response","trial_index":120,"plugin_version":"2.1.0","time_elapsed":277406,"subject_id":"86431","group":"Group1","full_date":"2025-12-04T16:47:12.285Z","date":"2025-12-04","time":"16:47:12"},{"rt":null,"stimulus":"<p style=\"font-size: 50px; margin: 0; text-align: center;\">+</p>","response":null,"trial_type":"html-keyboard-response","trial_index":121,"plugin_version":"2.1.0","time_elapsed":278413,"subject_id":"86431","group":"Group1","full_date":"2025-12-04T16:47:12.285Z","date":"2025-12-04","time":"16:47:12"},{"task":"memory_phase","broad_category":"S","image_png":"S_Shale_12.png","image_id":476,"category_name":"Shale","category":30,"distinct_rating":2.48,"distinct_type":"Bottom","rt":null,"stimulus":"Stimuli_Rocks480/S_Shale_12.png","response":null,"trial_type":"image-keyboard-response","trial_index":122,"plugin_version":"2.1.0","time_elapsed":280931,"subject_id":"86431","group":"Group1","full_date":"2025-12-04T16:47:12.285Z","date":"2025-12-04","time":"16:47:12"},{"rt":null,"stimulus":"<p style=\"font-size: 50px; margin: 0; text-align: center;\">+</p>","response":null,"trial_type":"html-keyboard-response","trial_index":123,"plugin_version":"2.1.0","time_elapsed":281949,"subject_id":"86431","group":"Group1","full_date":"2025-12-04T16:47:12.285Z","date":"2025-12-04","time":"16:47:12"},{"task":"memory_phase","broad_category":"S","image_png":"S_Dolomite_14.png","image_id":398,"category_name":"Dolomite","category":25,"distinct_rating":1.43,"distinct_type":"Bottom","rt":null,"stimulus":"Stimuli_Rocks480/S_Dolomite_14.png","response":null,"trial_type":"image-keyboard-response","trial_index":124,"plugin_version":"2.1.0","time_elapsed":284453,"subject_id":"86431","group":"Group1","full_date":"2025-12-04T16:47:12.285Z","date":"2025-12-04","time":"16:47:12"},{"rt":null,"stimulus":"<p style=\"font-size: 50px; margin: 0; text-align: center;\">+</p>","response":null,"trial_type":"html-keyboard-response","trial_index":125,"plugin_version":"2.1.0","time_elapsed":285462,"subject_id":"86431","group":"Group1","full_date":"2025-12-04T16:47:12.285Z","date":"2025-12-04","time":"16:47:12"},{"task":"memory_phase","broad_category":"S","image_png":"S_Conglomerate_05.png","image_id":373,"category_name":"Conglomerate","category":24,"distinct_rating":7.32,"distinct_type":"Top","rt":null,"stimulus":"Stimuli_Rocks480/S_Conglomerate_05.png","response":null,"trial_type":"image-keyboard-response","trial_index":126,"plugin_version":"2.1.0","time_elapsed":287966,"subject_id":"86431","group":"Group1","full_date":"2025-12-04T16:47:12.285Z","date":"2025-12-04","time":"16:47:12"},{"rt":null,"stimulus":"<p style=\"font-size: 50px; margin: 0; text-align: center;\">+</p>","response":null,"trial_type":"html-keyboard-response","trial_index":127,"plugin_version":"2.1.0","time_elapsed":288977,"subject_id":"86431","group":"Group1","full_date":"2025-12-04T16:47:12.285Z","date":"2025-12-04","time":"16:47:12"},{"task":"memory_phase","broad_category":"I","image_png":"I_Rhyolite_16.png","image_id":160,"category_name":"Rhyolite","category":10,"distinct_rating":2.19,"distinct_type":"Bottom","rt":null,"stimulus":"Stimuli_Rocks480/I_Rhyolite_16.png","response":null,"trial_type":"image-keyboard-response","trial_index":128,"plugin_version":"2.1.0","time_elapsed":291496,"subject_id":"86431","group":"Group1","full_date":"2025-12-04T16:47:12.285Z","date":"2025-12-04","time":"16:47:12"},{"rt":null,"stimulus":"<p style=\"font-size: 50px; margin: 0; text-align: center;\">+</p>","response":null,"trial_type":"html-keyboard-response","trial_index":129,"plugin_version":"2.1.0","time_elapsed":292512,"subject_id":"86431","group":"Group1","full_date":"2025-12-04T16:47:12.285Z","date":"2025-12-04","time":"16:47:12"},{"task":"memory_phase","broad_category":"I","image_png":"I_Diorite_03.png","image_id":35,"category_name":"Diorite","category":3,"distinct_rating":3.14,"distinct_type":"Bottom","rt":null,"stimulus":"Stimuli_Rocks480/I_Diorite_03.png","response":null,"trial_type":"image-keyboard-response","trial_index":130,"plugin_version":"2.1.0","time_elapsed":295031,"subject_id":"86431","group":"Group1","full_date":"2025-12-04T16:47:12.285Z","date":"2025-12-04","time":"16:47:12"},{"rt":null,"stimulus":"<p style=\"font-size: 50px; margin: 0; text-align: center;\">+</p>","response":null,"trial_type":"html-keyboard-response","trial_index":131,"plugin_version":"2.1.0","time_elapsed":296035,"subject_id":"86431","group":"Group1","full_date":"2025-12-04T16:47:12.285Z","date":"2025-12-04","time":"16:47:12"},{"task":"memory_phase","broad_category":"S","image_png":"S_Rock Gypsum_04.png","image_id":420,"category_name":"Rock Gypsum","category":27,"distinct_rating":7.61,"distinct_type":"Top","rt":null,"stimulus":"Stimuli_Rocks480/S_Rock Gypsum_04.png","response":null,"trial_type":"image-keyboard-response","trial_index":132,"plugin_version":"2.1.0","time_elapsed":298545,"subject_id":"86431","group":"Group1","full_date":"2025-12-04T16:47:12.285Z","date":"2025-12-04","time":"16:47:12"},{"rt":null,"stimulus":"<p style=\"font-size: 50px; margin: 0; text-align: center;\">+</p>","response":null,"trial_type":"html-keyboard-response","trial_index":133,"plugin_version":"2.1.0","time_elapsed":299553,"subject_id":"86431","group":"Group1","full_date":"2025-12-04T16:47:12.285Z","date":"2025-12-04","time":"16:47:12"},{"task":"memory_phase","broad_category":"S","image_png":"S_Rock Salt_01.png","image_id":433,"category_name":"Rock Salt","category":28,"distinct_rating":7.18,"distinct_type":"Top","rt":null,"stimulus":"Stimuli_Rocks480/S_Rock Salt_01.png","response":null,"trial_type":"image-keyboard-response","trial_index":134,"plugin_version":"2.1.0","time_elapsed":302066,"subject_id":"86431","group":"Group1","full_date":"2025-12-04T16:47:12.285Z","date":"2025-12-04","time":"16:47:12"},{"rt":null,"stimulus":"<p style=\"font-size: 50px; margin: 0; text-align: center;\">+</p>","response":null,"trial_type":"html-keyboard-response","trial_index":135,"plugin_version":"2.1.0","time_elapsed":303072,"subject_id":"86431","group":"Group1","full_date":"2025-12-04T16:47:12.285Z","date":"2025-12-04","time":"16:47:12"},{"task":"memory_phase","broad_category":"I","image_png":"I_Andesite_08.png","image_id":8,"category_name":"Andesite","category":1,"distinct_rating":1.95,"distinct_type":"Bottom","rt":null,"stimulus":"Stimuli_Rocks480/I_Andesite_08.png","response":null,"trial_type":"image-keyboard-response","trial_index":136,"plugin_version":"2.1.0","time_elapsed":305592,"subject_id":"86431","group":"Group1","full_date":"2025-12-04T16:47:12.285Z","date":"2025-12-04","time":"16:47:12"},{"rt":null,"stimulus":"<p style=\"font-size: 50px; margin: 0; text-align: center;\">+</p>","response":null,"trial_type":"html-keyboard-response","trial_index":137,"plugin_version":"2.1.0","time_elapsed":306607,"subject_id":"86431","group":"Group1","full_date":"2025-12-04T16:47:12.285Z","date":"2025-12-04","time":"16:47:12"},{"task":"memory_phase","broad_category":"I","image_png":"I_Obsidian_05.png","image_id":85,"category_name":"Obsidian","category":6,"distinct_rating":7.32,"distinct_type":"Top","rt":null,"stimulus":"Stimuli_Rocks480/I_Obsidian_05.png","response":null,"trial_type":"image-keyboard-response","trial_index":138,"plugin_version":"2.1.0","time_elapsed":309127,"subject_id":"86431","group":"Group1","full_date":"2025-12-04T16:47:12.285Z","date":"2025-12-04","time":"16:47:12"},{"rt":null,"stimulus":"<p style=\"font-size: 50px; margin: 0; text-align: center;\">+</p>","response":null,"trial_type":"html-keyboard-response","trial_index":139,"plugin_version":"2.1.0","time_elapsed":310133,"subject_id":"86431","group":"Group1","full_date":"2025-12-04T16:47:12.285Z","date":"2025-12-04","time":"16:47:12"},{"task":"memory_phase","broad_category":"S","image_png":"S_Shale_08.png","image_id":472,"category_name":"Shale","category":30,"distinct_rating":2.55,"distinct_type":"Bottom","rt":null,"stimulus":"Stimuli_Rocks480/S_Shale_08.png","response":null,"trial_type":"image-keyboard-response","trial_index":140,"plugin_version":"2.1.0","time_elapsed":312645,"subject_id":"86431","group":"Group1","full_date":"2025-12-04T16:47:12.285Z","date":"2025-12-04","time":"16:47:12"},{"rt":null,"stimulus":"<p style=\"font-size: 50px; margin: 0; text-align: center;\">+</p>","response":null,"trial_type":"html-keyboard-response","trial_index":141,"plugin_version":"2.1.0","time_elapsed":313654,"subject_id":"86431","group":"Group1","full_date":"2025-12-04T16:47:12.285Z","date":"2025-12-04","time":"16:47:12"},{"task":"memory_phase","broad_category":"I","image_png":"I_Gabbro_08.png","image_id":56,"category_name":"Gabbro","category":4,"distinct_rating":3.02,"distinct_type":"Bottom","rt":null,"stimulus":"Stimuli_Rocks480/I_Gabbro_08.png","response":null,"trial_type":"image-keyboard-response","trial_index":142,"plugin_version":"2.1.0","time_elapsed":316158,"subject_id":"86431","group":"Group1","full_date":"2025-12-04T16:47:12.285Z","date":"2025-12-04","time":"16:47:12"},{"rt":null,"stimulus":"<p style=\"font-size: 50px; margin: 0; text-align: center;\">+</p>","response":null,"trial_type":"html-keyboard-response","trial_index":143,"plugin_version":"2.1.0","time_elapsed":317167,"subject_id":"86431","group":"Group1","full_date":"2025-12-04T16:47:12.285Z","date":"2025-12-04","time":"16:47:12"},{"task":"memory_phase","broad_category":"I","image_png":"I_Rhyolite_14.png","image_id":158,"category_name":"Rhyolite","category":10,"distinct_rating":2.59,"distinct_type":"Bottom","rt":null,"stimulus":"Stimuli_Rocks480/I_Rhyolite_14.png","response":null,"trial_type":"image-keyboard-response","trial_index":144,"plugin_version":"2.1.0","time_elapsed":319672,"subject_id":"86431","group":"Group1","full_date":"2025-12-04T16:47:12.285Z","date":"2025-12-04","time":"16:47:12"},{"rt":null,"stimulus":"<p style=\"font-size: 50px; margin: 0; text-align: center;\">+</p>","response":null,"trial_type":"html-keyboard-response","trial_index":145,"plugin_version":"2.1.0","time_elapsed":320688,"subject_id":"86431","group":"Group1","full_date":"2025-12-04T16:47:12.285Z","date":"2025-12-04","time":"16:47:12"},{"task":"memory_phase","broad_category":"S","image_png":"S_Shale_01.png","image_id":465,"category_name":"Shale","category":30,"distinct_rating":2.7,"distinct_type":"Bottom","rt":null,"stimulus":"Stimuli_Rocks480/S_Shale_01.png","response":null,"trial_type":"image-keyboard-response","trial_index":146,"plugin_version":"2.1.0","time_elapsed":323200,"subject_id":"86431","group":"Group1","full_date":"2025-12-04T16:47:12.285Z","date":"2025-12-04","time":"16:47:12"},{"rt":null,"stimulus":"<p style=\"font-size: 50px; margin: 0; text-align: center;\">+</p>","response":null,"trial_type":"html-keyboard-response","trial_index":147,"plugin_version":"2.1.0","time_elapsed":324218,"subject_id":"86431","group":"Group1","full_date":"2025-12-04T16:47:12.285Z","date":"2025-12-04","time":"16:47:12"},{"task":"memory_phase","broad_category":"M","image_png":"M_Gneiss_05.png","image_id":197,"category_name":"Gneiss","category":13,"distinct_rating":2.97,"distinct_type":"Bottom","rt":null,"stimulus":"Stimuli_Rocks480/M_Gneiss_05.png","response":null,"trial_type":"image-keyboard-response","trial_index":148,"plugin_version":"2.1.0","time_elapsed":326729,"subject_id":"86431","group":"Group1","full_date":"2025-12-04T16:47:12.285Z","date":"2025-12-04","time":"16:47:12"},{"rt":null,"stimulus":"<p style=\"font-size: 50px; margin: 0; text-align: center;\">+</p>","response":null,"trial_type":"html-keyboard-response","trial_index":149,"plugin_version":"2.1.0","time_elapsed":327737,"subject_id":"86431","group":"Group1","full_date":"2025-12-04T16:47:12.285Z","date":"2025-12-04","time":"16:47:12"},{"task":"memory_phase","broad_category":"M","image_png":"M_Phyllite_10.png","image_id":266,"category_name":"Phyllite","category":17,"distinct_rating":2.6,"distinct_type":"Bottom","rt":null,"stimulus":"Stimuli_Rocks480/M_Phyllite_10.png","response":null,"trial_type":"image-keyboard-response","trial_index":150,"plugin_version":"2.1.0","time_elapsed":330252,"subject_id":"86431","group":"Group1","full_date":"2025-12-04T16:47:12.285Z","date":"2025-12-04","time":"16:47:12"},{"rt":null,"stimulus":"<p style=\"font-size: 50px; margin: 0; text-align: center;\">+</p>","response":null,"trial_type":"html-keyboard-response","trial_index":151,"plugin_version":"2.1.0","time_elapsed":331264,"subject_id":"86431","group":"Group1","full_date":"2025-12-04T16:47:12.285Z","date":"2025-12-04","time":"16:47:12"},{"task":"memory_phase","broad_category":"M","image_png":"M_Phyllite_03.png","image_id":259,"category_name":"Phyllite","category":17,"distinct_rating":2.5,"distinct_type":"Bottom","rt":null,"stimulus":"Stimuli_Rocks480/M_Phyllite_03.png","response":null,"trial_type":"image-keyboard-response","trial_index":152,"plugin_version":"2.1.0","time_elapsed":333775,"subject_id":"86431","group":"Group1","full_date":"2025-12-04T16:47:12.285Z","date":"2025-12-04","time":"16:47:12"},{"rt":null,"stimulus":"<p style=\"font-size: 50px; margin: 0; text-align: center;\">+</p>","response":null,"trial_type":"html-keyboard-response","trial_index":153,"plugin_version":"2.1.0","time_elapsed":334791,"subject_id":"86431","group":"Group1","full_date":"2025-12-04T16:47:12.285Z","date":"2025-12-04","time":"16:47:12"},{"task":"memory_phase","broad_category":"M","image_png":"M_Slate_11.png","image_id":315,"category_name":"Slate","category":20,"distinct_rating":2.75,"distinct_type":"Bottom","rt":null,"stimulus":"Stimuli_Rocks480/M_Slate_11.png","response":null,"trial_type":"image-keyboard-response","trial_index":154,"plugin_version":"2.1.0","time_elapsed":337295,"subject_id":"86431","group":"Group1","full_date":"2025-12-04T16:47:12.285Z","date":"2025-12-04","time":"16:47:12"},{"rt":null,"stimulus":"<p style=\"font-size: 50px; margin: 0; text-align: center;\">+</p>","response":null,"trial_type":"html-keyboard-response","trial_index":155,"plugin_version":"2.1.0","time_elapsed":338303,"subject_id":"86431","group":"Group1","full_date":"2025-12-04T16:47:12.285Z","date":"2025-12-04","time":"16:47:12"},{"task":"memory_phase","broad_category":"S","image_png":"S_Chert_10.png","image_id":362,"category_name":"Chert","category":23,"distinct_rating":7.17,"distinct_type":"Top","rt":null,"stimulus":"Stimuli_Rocks480/S_Chert_10.png","response":null,"trial_type":"image-keyboard-response","trial_index":156,"plugin_version":"2.1.0","time_elapsed":340808,"subject_id":"86431","group":"Group1","full_date":"2025-12-04T16:47:12.285Z","date":"2025-12-04","time":"16:47:12"},{"rt":3985,"stimulus":"<p style=\"max-width: 760px; margin: auto; font-size: 35px; line-height: 1.5;\">Press SPACE to continue study phase</p>","response":" ","trial_type":"html-keyboard-response","trial_index":157,"plugin_version":"2.1.0","time_elapsed":344795,"subject_id":"86431","group":"Group1","full_date":"2025-12-04T16:47:12.285Z","date":"2025-12-04","time":"16:47:12"},{"rt":null,"stimulus":"<p style=\"font-size: 50px; margin: 0; text-align: center;\">+</p>","response":null,"trial_type":"html-keyboard-response","trial_index":158,"plugin_version":"2.1.0","time_elapsed":345803,"subject_id":"86431","group":"Group1","full_date":"2025-12-04T16:47:12.285Z","date":"2025-12-04","time":"16:47:12"},{"task":"memory_phase","broad_category":"M","image_png":"M_Marble_04.png","image_id":228,"category_name":"Marble","category":15,"distinct_rating":3.15,"distinct_type":"Bottom","rt":null,"stimulus":"Stimuli_Rocks480/M_Marble_04.png","response":null,"trial_type":"image-keyboard-response","trial_index":159,"plugin_version":"2.1.0","time_elapsed":348312,"subject_id":"86431","group":"Group1","full_date":"2025-12-04T16:47:12.285Z","date":"2025-12-04","time":"16:47:12"},{"rt":null,"stimulus":"<p style=\"font-size: 50px; margin: 0; text-align: center;\">+</p>","response":null,"trial_type":"html-keyboard-response","trial_index":160,"plugin_version":"2.1.0","time_elapsed":349323,"subject_id":"86431","group":"Group1","full_date":"2025-12-04T16:47:12.285Z","date":"2025-12-04","time":"16:47:12"},{"task":"memory_phase","broad_category":"M","image_png":"M_Phyllite_07.png","image_id":263,"category_name":"Phyllite","category":17,"distinct_rating":2.59,"distinct_type":"Bottom","rt":null,"stimulus":"Stimuli_Rocks480/M_Phyllite_07.png","response":null,"trial_type":"image-keyboard-response","trial_index":161,"plugin_version":"2.1.0","time_elapsed":351831,"subject_id":"86431","group":"Group1","full_date":"2025-12-04T16:47:12.285Z","date":"2025-12-04","time":"16:47:12"},{"rt":null,"stimulus":"<p style=\"font-size: 50px; margin: 0; text-align: center;\">+</p>","response":null,"trial_type":"html-keyboard-response","trial_index":162,"plugin_version":"2.1.0","time_elapsed":352840,"subject_id":"86431","group":"Group1","full_date":"2025-12-04T16:47:12.285Z","date":"2025-12-04","time":"16:47:12"},{"task":"memory_phase","broad_category":"S","image_png":"S_Dolomite_13.png","image_id":397,"category_name":"Dolomite","category":25,"distinct_rating":1.77,"distinct_type":"Bottom","rt":null,"stimulus":"Stimuli_Rocks480/S_Dolomite_13.png","response":null,"trial_type":"image-keyboard-response","trial_index":163,"plugin_version":"2.1.0","time_elapsed":355343,"subject_id":"86431","group":"Group1","full_date":"2025-12-04T16:47:12.285Z","date":"2025-12-04","time":"16:47:12"},{"rt":null,"stimulus":"<p style=\"font-size: 50px; margin: 0; text-align: center;\">+</p>","response":null,"trial_type":"html-keyboard-response","trial_index":164,"plugin_version":"2.1.0","time_elapsed":356350,"subject_id":"86431","group":"Group1","full_date":"2025-12-04T16:47:12.285Z","date":"2025-12-04","time":"16:47:12"},{"task":"memory_phase","broad_category":"I","image_png":"I_Andesite_10.png","image_id":10,"category_name":"Andesite","category":1,"distinct_rating":3.15,"distinct_type":"Bottom","rt":null,"stimulus":"Stimuli_Rocks480/I_Andesite_10.png","response":null,"trial_type":"image-keyboard-response","trial_index":165,"plugin_version":"2.1.0","time_elapsed":358868,"subject_id":"86431","group":"Group1","full_date":"2025-12-04T16:47:12.285Z","date":"2025-12-04","time":"16:47:12"},{"rt":null,"stimulus":"<p style=\"font-size: 50px; margin: 0; text-align: center;\">+</p>","response":null,"trial_type":"html-keyboard-response","trial_index":166,"plugin_version":"2.1.0","time_elapsed":359884,"subject_id":"86431","group":"Group1","full_date":"2025-12-04T16:47:12.285Z","date":"2025-12-04","time":"16:47:12"},{"task":"memory_phase","broad_category":"M","image_png":"M_Marble_06.png","image_id":230,"category_name":"Marble","category":15,"distinct_rating":3.4,"distinct_type":"Bottom","rt":null,"stimulus":"Stimuli_Rocks480/M_Marble_06.png","response":null,"trial_type":"image-keyboard-response","trial_index":167,"plugin_version":"2.1.0","time_elapsed":362389,"subject_id":"86431","group":"Group1","full_date":"2025-12-04T16:47:12.285Z","date":"2025-12-04","time":"16:47:12"},{"rt":null,"stimulus":"<p style=\"font-size: 50px; margin: 0; text-align: center;\">+</p>","response":null,"trial_type":"html-keyboard-response","trial_index":168,"plugin_version":"2.1.0","time_elapsed":363420,"subject_id":"86431","group":"Group1","full_date":"2025-12-04T16:47:12.285Z","date":"2025-12-04","time":"16:47:12"},{"task":"memory_phase","broad_category":"I","image_png":"I_Rhyolite_11.png","image_id":155,"category_name":"Rhyolite","category":10,"distinct_rating":1.73,"distinct_type":"Bottom","rt":null,"stimulus":"Stimuli_Rocks480/I_Rhyolite_11.png","response":null,"trial_type":"image-keyboard-response","trial_index":169,"plugin_version":"2.1.0","time_elapsed":365928,"subject_id":"86431","group":"Group1","full_date":"2025-12-04T16:47:12.285Z","date":"2025-12-04","time":"16:47:12"},{"rt":null,"stimulus":"<p style=\"font-size: 50px; margin: 0; text-align: center;\">+</p>","response":null,"trial_type":"html-keyboard-response","trial_index":170,"plugin_version":"2.1.0","time_elapsed":366931,"subject_id":"86431","group":"Group1","full_date":"2025-12-04T16:47:12.285Z","date":"2025-12-04","time":"16:47:12"},{"task":"memory_phase","broad_category":"M","image_png":"M_Quartzite_08.png","image_id":280,"category_name":"Quartzite","category":18,"distinct_rating":2.15,"distinct_type":"Bottom","rt":null,"stimulus":"Stimuli_Rocks480/M_Quartzite_08.png","response":null,"trial_type":"image-keyboard-response","trial_index":171,"plugin_version":"2.1.0","time_elapsed":369447,"subject_id":"86431","group":"Group1","full_date":"2025-12-04T16:47:12.285Z","date":"2025-12-04","time":"16:47:12"},{"rt":null,"stimulus":"<p style=\"font-size: 50px; margin: 0; text-align: center;\">+</p>","response":null,"trial_type":"html-keyboard-response","trial_index":172,"plugin_version":"2.1.0","time_elapsed":370463,"subject_id":"86431","group":"Group1","full_date":"2025-12-04T16:47:12.285Z","date":"2025-12-04","time":"16:47:12"},{"task":"memory_phase","broad_category":"M","image_png":"M_Quartzite_13.png","image_id":285,"category_name":"Quartzite","category":18,"distinct_rating":2.27,"distinct_type":"Bottom","rt":null,"stimulus":"Stimuli_Rocks480/M_Quartzite_13.png","response":null,"trial_type":"image-keyboard-response","trial_index":173,"plugin_version":"2.1.0","time_elapsed":372973,"subject_id":"86431","group":"Group1","full_date":"2025-12-04T16:47:12.285Z","date":"2025-12-04","time":"16:47:12"},{"rt":null,"stimulus":"<p style=\"font-size: 50px; margin: 0; text-align: center;\">+</p>","response":null,"trial_type":"html-keyboard-response","trial_index":174,"plugin_version":"2.1.0","time_elapsed":373988,"subject_id":"86431","group":"Group1","full_date":"2025-12-04T16:47:12.285Z","date":"2025-12-04","time":"16:47:12"},{"task":"memory_phase","broad_category":"I","image_png":"I_Pegmatite_16.png","image_id":112,"category_name":"Pegmatite","category":7,"distinct_rating":7.03,"distinct_type":"Top","rt":null,"stimulus":"Stimuli_Rocks480/I_Pegmatite_16.png","response":null,"trial_type":"image-keyboard-response","trial_index":175,"plugin_version":"2.1.0","time_elapsed":376497,"subject_id":"86431","group":"Group1","full_date":"2025-12-04T16:47:12.285Z","date":"2025-12-04","time":"16:47:12"},{"rt":null,"stimulus":"<p style=\"font-size: 50px; margin: 0; text-align: center;\">+</p>","response":null,"trial_type":"html-keyboard-response","trial_index":176,"plugin_version":"2.1.0","time_elapsed":377512,"subject_id":"86431","group":"Group1","full_date":"2025-12-04T16:47:12.285Z","date":"2025-12-04","time":"16:47:12"},{"task":"memory_phase","broad_category":"S","image_png":"S_Sandstone_15.png","image_id":463,"category_name":"Sandstone","category":29,"distinct_rating":2,"distinct_type":"Bottom","rt":null,"stimulus":"Stimuli_Rocks480/S_Sandstone_15.png","response":null,"trial_type":"image-keyboard-response","trial_index":177,"plugin_version":"2.1.0","time_elapsed":380028,"subject_id":"86431","group":"Group1","full_date":"2025-12-04T16:47:12.285Z","date":"2025-12-04","time":"16:47:12"},{"rt":null,"stimulus":"<p style=\"font-size: 50px; margin: 0; text-align: center;\">+</p>","response":null,"trial_type":"html-keyboard-response","trial_index":178,"plugin_version":"2.1.0","time_elapsed":381045,"subject_id":"86431","group":"Group1","full_date":"2025-12-04T16:47:12.285Z","date":"2025-12-04","time":"16:47:12"},{"task":"memory_phase","broad_category":"S","image_png":"S_Dolomite_12.png","image_id":396,"category_name":"Dolomite","category":25,"distinct_rating":1.85,"distinct_type":"Bottom","rt":null,"stimulus":"Stimuli_Rocks480/S_Dolomite_12.png","response":null,"trial_type":"image-keyboard-response","trial_index":179,"plugin_version":"2.1.0","time_elapsed":383549,"subject_id":"86431","group":"Group1","full_date":"2025-12-04T16:47:12.285Z","date":"2025-12-04","time":"16:47:12"},{"rt":null,"stimulus":"<p style=\"font-size: 50px; margin: 0; text-align: center;\">+</p>","response":null,"trial_type":"html-keyboard-response","trial_index":180,"plugin_version":"2.1.0","time_elapsed":384557,"subject_id":"86431","group":"Group1","full_date":"2025-12-04T16:47:12.285Z","date":"2025-12-04","time":"16:47:12"},{"task":"memory_phase","broad_category":"M","image_png":"M_Gneiss_06.png","image_id":198,"category_name":"Gneiss","category":13,"distinct_rating":2.65,"distinct_type":"Bottom","rt":null,"stimulus":"Stimuli_Rocks480/M_Gneiss_06.png","response":null,"trial_type":"image-keyboard-response","trial_index":181,"plugin_version":"2.1.0","time_elapsed":387061,"subject_id":"86431","group":"Group1","full_date":"2025-12-04T16:47:12.285Z","date":"2025-12-04","time":"16:47:12"},{"rt":null,"stimulus":"<p style=\"font-size: 50px; margin: 0; text-align: center;\">+</p>","response":null,"trial_type":"html-keyboard-response","trial_index":182,"plugin_version":"2.1.0","time_elapsed":388079,"subject_id":"86431","group":"Group1","full_date":"2025-12-04T16:47:12.285Z","date":"2025-12-04","time":"16:47:12"},{"task":"memory_phase","broad_category":"I","image_png":"I_Pegmatite_10.png","image_id":106,"category_name":"Pegmatite","category":7,"distinct_rating":7.66,"distinct_type":"Top","rt":null,"stimulus":"Stimuli_Rocks480/I_Pegmatite_10.png","response":null,"trial_type":"image-keyboard-response","trial_index":183,"plugin_version":"2.1.0","time_elapsed":390589,"subject_id":"86431","group":"Group1","full_date":"2025-12-04T16:47:12.285Z","date":"2025-12-04","time":"16:47:12"},{"rt":null,"stimulus":"<p style=\"font-size: 50px; margin: 0; text-align: center;\">+</p>","response":null,"trial_type":"html-keyboard-response","trial_index":184,"plugin_version":"2.1.0","time_elapsed":391605,"subject_id":"86431","group":"Group1","full_date":"2025-12-04T16:47:12.285Z","date":"2025-12-04","time":"16:47:12"},{"task":"memory_phase","broad_category":"M","image_png":"M_Quartzite_05.png","image_id":277,"category_name":"Quartzite","category":18,"distinct_rating":2.23,"distinct_type":"Bottom","rt":null,"stimulus":"Stimuli_Rocks480/M_Quartzite_05.png","response":null,"trial_type":"image-keyboard-response","trial_index":185,"plugin_version":"2.1.0","time_elapsed":394118,"subject_id":"86431","group":"Group1","full_date":"2025-12-04T16:47:12.285Z","date":"2025-12-04","time":"16:47:12"},{"rt":null,"stimulus":"<p style=\"font-size: 50px; margin: 0; text-align: center;\">+</p>","response":null,"trial_type":"html-keyboard-response","trial_index":186,"plugin_version":"2.1.0","time_elapsed":395131,"subject_id":"86431","group":"Group1","full_date":"2025-12-04T16:47:12.285Z","date":"2025-12-04","time":"16:47:12"},{"task":"memory_phase","broad_category":"S","image_png":"S_Breccia_11.png","image_id":347,"category_name":"Breccia","category":22,"distinct_rating":6.7,"distinct_type":"Top","rt":null,"stimulus":"Stimuli_Rocks480/S_Breccia_11.png","response":null,"trial_type":"image-keyboard-response","trial_index":187,"plugin_version":"2.1.0","time_elapsed":397642,"subject_id":"86431","group":"Group1","full_date":"2025-12-04T16:47:12.285Z","date":"2025-12-04","time":"16:47:12"},{"rt":null,"stimulus":"<p style=\"font-size: 50px; margin: 0; text-align: center;\">+</p>","response":null,"trial_type":"html-keyboard-response","trial_index":188,"plugin_version":"2.1.0","time_elapsed":398651,"subject_id":"86431","group":"Group1","full_date":"2025-12-04T16:47:12.285Z","date":"2025-12-04","time":"16:47:12"},{"task":"memory_phase","broad_category":"I","image_png":"I_Basalt_02.png","image_id":18,"category_name":"Basalt","category":2,"distinct_rating":1.84,"distinct_type":"Bottom","rt":null,"stimulus":"Stimuli_Rocks480/I_Basalt_02.png","response":null,"trial_type":"image-keyboard-response","trial_index":189,"plugin_version":"2.1.0","time_elapsed":401171,"subject_id":"86431","group":"Group1","full_date":"2025-12-04T16:47:12.285Z","date":"2025-12-04","time":"16:47:12"},{"rt":null,"stimulus":"<p style=\"font-size: 50px; margin: 0; text-align: center;\">+</p>","response":null,"trial_type":"html-keyboard-response","trial_index":190,"plugin_version":"2.1.0","time_elapsed":402186,"subject_id":"86431","group":"Group1","full_date":"2025-12-04T16:47:12.285Z","date":"2025-12-04","time":"16:47:12"},{"task":"memory_phase","broad_category":"I","image_png":"I_Pumice_08.png","image_id":136,"category_name":"Pumice","category":9,"distinct_rating":3.1,"distinct_type":"Bottom","rt":null,"stimulus":"Stimuli_Rocks480/I_Pumice_08.png","response":null,"trial_type":"image-keyboard-response","trial_index":191,"plugin_version":"2.1.0","time_elapsed":404705,"subject_id":"86431","group":"Group1","full_date":"2025-12-04T16:47:12.285Z","date":"2025-12-04","time":"16:47:12"},{"rt":null,"stimulus":"<p style=\"font-size: 50px; margin: 0; text-align: center;\">+</p>","response":null,"trial_type":"html-keyboard-response","trial_index":192,"plugin_version":"2.1.0","time_elapsed":405709,"subject_id":"86431","group":"Group1","full_date":"2025-12-04T16:47:12.285Z","date":"2025-12-04","time":"16:47:12"},{"task":"memory_phase","broad_category":"I","image_png":"I_Pumice_11.png","image_id":139,"category_name":"Pumice","category":9,"distinct_rating":1.74,"distinct_type":"Bottom","rt":null,"stimulus":"Stimuli_Rocks480/I_Pumice_11.png","response":null,"trial_type":"image-keyboard-response","trial_index":193,"plugin_version":"2.1.0","time_elapsed":408229,"subject_id":"86431","group":"Group1","full_date":"2025-12-04T16:47:12.285Z","date":"2025-12-04","time":"16:47:12"},{"rt":null,"stimulus":"<p style=\"font-size: 50px; margin: 0; text-align: center;\">+</p>","response":null,"trial_type":"html-keyboard-response","trial_index":194,"plugin_version":"2.1.0","time_elapsed":409245,"subject_id":"86431","group":"Group1","full_date":"2025-12-04T16:47:12.285Z","date":"2025-12-04","time":"16:47:12"},{"task":"memory_phase","broad_category":"I","image_png":"I_Basalt_09.png","image_id":25,"category_name":"Basalt","category":2,"distinct_rating":1.89,"distinct_type":"Bottom","rt":null,"stimulus":"Stimuli_Rocks480/I_Basalt_09.png","response":null,"trial_type":"image-keyboard-response","trial_index":195,"plugin_version":"2.1.0","time_elapsed":411759,"subject_id":"86431","group":"Group1","full_date":"2025-12-04T16:47:12.285Z","date":"2025-12-04","time":"16:47:12"},{"rt":null,"stimulus":"<p style=\"font-size: 50px; margin: 0; text-align: center;\">+</p>","response":null,"trial_type":"html-keyboard-response","trial_index":196,"plugin_version":"2.1.0","time_elapsed":412763,"subject_id":"86431","group":"Group1","full_date":"2025-12-04T16:47:12.285Z","date":"2025-12-04","time":"16:47:12"},{"task":"memory_phase","broad_category":"M","image_png":"M_Marble_16.png","image_id":240,"category_name":"Marble","category":15,"distinct_rating":2.57,"distinct_type":"Bottom","rt":null,"stimulus":"Stimuli_Rocks480/M_Marble_16.png","response":null,"trial_type":"image-keyboard-response","trial_index":197,"plugin_version":"2.1.0","time_elapsed":415282,"subject_id":"86431","group":"Group1","full_date":"2025-12-04T16:47:12.285Z","date":"2025-12-04","time":"16:47:12"},{"rt":null,"stimulus":"<p style=\"font-size: 50px; margin: 0; text-align: center;\">+</p>","response":null,"trial_type":"html-keyboard-response","trial_index":198,"plugin_version":"2.1.0","time_elapsed":416296,"subject_id":"86431","group":"Group1","full_date":"2025-12-04T16:47:12.285Z","date":"2025-12-04","time":"16:47:12"},{"task":"memory_phase","broad_category":"I","image_png":"I_Andesite_06.png","image_id":6,"category_name":"Andesite","category":1,"distinct_rating":3.17,"distinct_type":"Bottom","rt":null,"stimulus":"Stimuli_Rocks480/I_Andesite_06.png","response":null,"trial_type":"image-keyboard-response","trial_index":199,"plugin_version":"2.1.0","time_elapsed":418809,"subject_id":"86431","group":"Group1","full_date":"2025-12-04T16:47:12.285Z","date":"2025-12-04","time":"16:47:12"},{"rt":null,"stimulus":"<p style=\"font-size: 50px; margin: 0; text-align: center;\">+</p>","response":null,"trial_type":"html-keyboard-response","trial_index":200,"plugin_version":"2.1.0","time_elapsed":419819,"subject_id":"86431","group":"Group1","full_date":"2025-12-04T16:47:12.285Z","date":"2025-12-04","time":"16:47:12"},{"task":"memory_phase","broad_category":"I","image_png":"I_Pumice_12.png","image_id":140,"category_name":"Pumice","category":9,"distinct_rating":2.97,"distinct_type":"Bottom","rt":null,"stimulus":"Stimuli_Rocks480/I_Pumice_12.png","response":null,"trial_type":"image-keyboard-response","trial_index":201,"plugin_version":"2.1.0","time_elapsed":422326,"subject_id":"86431","group":"Group1","full_date":"2025-12-04T16:47:12.285Z","date":"2025-12-04","time":"16:47:12"},{"rt":null,"stimulus":"<p style=\"font-size: 50px; margin: 0; text-align: center;\">+</p>","response":null,"trial_type":"html-keyboard-response","trial_index":202,"plugin_version":"2.1.0","time_elapsed":423328,"subject_id":"86431","group":"Group1","full_date":"2025-12-04T16:47:12.285Z","date":"2025-12-04","time":"16:47:12"},{"task":"memory_phase","broad_category":"I","image_png":"I_Diorite_04.png","image_id":36,"category_name":"Diorite","category":3,"distinct_rating":2.98,"distinct_type":"Bottom","rt":null,"stimulus":"Stimuli_Rocks480/I_Diorite_04.png","response":null,"trial_type":"image-keyboard-response","trial_index":203,"plugin_version":"2.1.0","time_elapsed":425833,"subject_id":"86431","group":"Group1","full_date":"2025-12-04T16:47:12.285Z","date":"2025-12-04","time":"16:47:12"},{"rt":null,"stimulus":"<p style=\"font-size: 50px; margin: 0; text-align: center;\">+</p>","response":null,"trial_type":"html-keyboard-response","trial_index":204,"plugin_version":"2.1.0","time_elapsed":426839,"subject_id":"86431","group":"Group1","full_date":"2025-12-04T16:47:12.285Z","date":"2025-12-04","time":"16:47:12"},{"task":"memory_phase","broad_category":"I","image_png":"I_Diorite_05.png","image_id":37,"category_name":"Diorite","category":3,"distinct_rating":3.08,"distinct_type":"Bottom","rt":null,"stimulus":"Stimuli_Rocks480/I_Diorite_05.png","response":null,"trial_type":"image-keyboard-response","trial_index":205,"plugin_version":"2.1.0","time_elapsed":429351,"subject_id":"86431","group":"Group1","full_date":"2025-12-04T16:47:12.285Z","date":"2025-12-04","time":"16:47:12"},{"rt":null,"stimulus":"<p style=\"font-size: 50px; margin: 0; text-align: center;\">+</p>","response":null,"trial_type":"html-keyboard-response","trial_index":206,"plugin_version":"2.1.0","time_elapsed":430364,"subject_id":"86431","group":"Group1","full_date":"2025-12-04T16:47:12.285Z","date":"2025-12-04","time":"16:47:12"},{"task":"memory_phase","broad_category":"M","image_png":"M_Slate_15.png","image_id":319,"category_name":"Slate","category":20,"distinct_rating":2.13,"distinct_type":"Bottom","rt":null,"stimulus":"Stimuli_Rocks480/M_Slate_15.png","response":null,"trial_type":"image-keyboard-response","trial_index":207,"plugin_version":"2.1.0","time_elapsed":432879,"subject_id":"86431","group":"Group1","full_date":"2025-12-04T16:47:12.285Z","date":"2025-12-04","time":"16:47:12"},{"rt":4061,"stimulus":"<p style=\"max-width: 760px; margin: auto; font-size: 35px; line-height: 1.5;\">You have completed 2 study phases. Now, we'll show you all the images again 1 more time.<br><br>Press SPACE to continue</p>","response":" ","trial_type":"html-keyboard-response","trial_index":208,"plugin_version":"2.1.0","time_elapsed":436943,"subject_id":"86431","group":"Group1","full_date":"2025-12-04T16:47:12.285Z","date":"2025-12-04","time":"16:47:12"},{"rt":null,"stimulus":"<p style=\"font-size: 50px; margin: 0; text-align: center;\">+</p>","response":null,"trial_type":"html-keyboard-response","trial_index":209,"plugin_version":"2.1.0","time_elapsed":437950,"subject_id":"86431","group":"Group1","full_date":"2025-12-04T16:47:12.285Z","date":"2025-12-04","time":"16:47:12"},{"task":"memory_phase","broad_category":"I","image_png":"I_Diorite_03.png","image_id":35,"category_name":"Diorite","category":3,"distinct_rating":3.14,"distinct_type":"Bottom","rt":null,"stimulus":"Stimuli_Rocks480/I_Diorite_03.png","response":null,"trial_type":"image-keyboard-response","trial_index":210,"plugin_version":"2.1.0","time_elapsed":440463,"subject_id":"86431","group":"Group1","full_date":"2025-12-04T16:47:12.285Z","date":"2025-12-04","time":"16:47:12"},{"rt":null,"stimulus":"<p style=\"font-size: 50px; margin: 0; text-align: center;\">+</p>","response":null,"trial_type":"html-keyboard-response","trial_index":211,"plugin_version":"2.1.0","time_elapsed":441477,"subject_id":"86431","group":"Group1","full_date":"2025-12-04T16:47:12.285Z","date":"2025-12-04","time":"16:47:12"},{"task":"memory_phase","broad_category":"S","image_png":"S_Shale_01.png","image_id":465,"category_name":"Shale","category":30,"distinct_rating":2.7,"distinct_type":"Bottom","rt":null,"stimulus":"Stimuli_Rocks480/S_Shale_01.png","response":null,"trial_type":"image-keyboard-response","trial_index":212,"plugin_version":"2.1.0","time_elapsed":443992,"subject_id":"86431","group":"Group1","full_date":"2025-12-04T16:47:12.285Z","date":"2025-12-04","time":"16:47:12"},{"rt":null,"stimulus":"<p style=\"font-size: 50px; margin: 0; text-align: center;\">+</p>","response":null,"trial_type":"html-keyboard-response","trial_index":213,"plugin_version":"2.1.0","time_elapsed":444999,"subject_id":"86431","group":"Group1","full_date":"2025-12-04T16:47:12.285Z","date":"2025-12-04","time":"16:47:12"},{"task":"memory_phase","broad_category":"I","image_png":"I_Andesite_08.png","image_id":8,"category_name":"Andesite","category":1,"distinct_rating":1.95,"distinct_type":"Bottom","rt":null,"stimulus":"Stimuli_Rocks480/I_Andesite_08.png","response":null,"trial_type":"image-keyboard-response","trial_index":214,"plugin_version":"2.1.0","time_elapsed":447519,"subject_id":"86431","group":"Group1","full_date":"2025-12-04T16:47:12.285Z","date":"2025-12-04","time":"16:47:12"},{"rt":null,"stimulus":"<p style=\"font-size: 50px; margin: 0; text-align: center;\">+</p>","response":null,"trial_type":"html-keyboard-response","trial_index":215,"plugin_version":"2.1.0","time_elapsed":448544,"subject_id":"86431","group":"Group1","full_date":"2025-12-04T16:47:12.285Z","date":"2025-12-04","time":"16:47:12"},{"task":"memory_phase","broad_category":"S","image_png":"S_Sandstone_16.png","image_id":464,"category_name":"Sandstone","category":29,"distinct_rating":1.93,"distinct_type":"Bottom","rt":null,"stimulus":"Stimuli_Rocks480/S_Sandstone_16.png","response":null,"trial_type":"image-keyboard-response","trial_index":216,"plugin_version":"2.1.0","time_elapsed":451051,"subject_id":"86431","group":"Group1","full_date":"2025-12-04T16:47:12.285Z","date":"2025-12-04","time":"16:47:12"},{"rt":null,"stimulus":"<p style=\"font-size: 50px; margin: 0; text-align: center;\">+</p>","response":null,"trial_type":"html-keyboard-response","trial_index":217,"plugin_version":"2.1.0","time_elapsed":452056,"subject_id":"86431","group":"Group1","full_date":"2025-12-04T16:47:12.285Z","date":"2025-12-04","time":"16:47:12"},{"task":"memory_phase","broad_category":"M","image_png":"M_Gneiss_06.png","image_id":198,"category_name":"Gneiss","category":13,"distinct_rating":2.65,"distinct_type":"Bottom","rt":null,"stimulus":"Stimuli_Rocks480/M_Gneiss_06.png","response":null,"trial_type":"image-keyboard-response","trial_index":218,"plugin_version":"2.1.0","time_elapsed":454561,"subject_id":"86431","group":"Group1","full_date":"2025-12-04T16:47:12.285Z","date":"2025-12-04","time":"16:47:12"},{"rt":null,"stimulus":"<p style=\"font-size: 50px; margin: 0; text-align: center;\">+</p>","response":null,"trial_type":"html-keyboard-response","trial_index":219,"plugin_version":"2.1.0","time_elapsed":455566,"subject_id":"86431","group":"Group1","full_date":"2025-12-04T16:47:12.285Z","date":"2025-12-04","time":"16:47:12"},{"task":"memory_phase","broad_category":"I","image_png":"I_Basalt_01.png","image_id":17,"category_name":"Basalt","category":2,"distinct_rating":1.92,"distinct_type":"Bottom","rt":null,"stimulus":"Stimuli_Rocks480/I_Basalt_01.png","response":null,"trial_type":"image-keyboard-response","trial_index":220,"plugin_version":"2.1.0","time_elapsed":458079,"subject_id":"86431","group":"Group1","full_date":"2025-12-04T16:47:12.285Z","date":"2025-12-04","time":"16:47:12"},{"rt":null,"stimulus":"<p style=\"font-size: 50px; margin: 0; text-align: center;\">+</p>","response":null,"trial_type":"html-keyboard-response","trial_index":221,"plugin_version":"2.1.0","time_elapsed":459081,"subject_id":"86431","group":"Group1","full_date":"2025-12-04T16:47:12.285Z","date":"2025-12-04","time":"16:47:12"},{"task":"memory_phase","broad_category":"S","image_png":"S_Shale_08.png","image_id":472,"category_name":"Shale","category":30,"distinct_rating":2.55,"distinct_type":"Bottom","rt":null,"stimulus":"Stimuli_Rocks480/S_Shale_08.png","response":null,"trial_type":"image-keyboard-response","trial_index":222,"plugin_version":"2.1.0","time_elapsed":461593,"subject_id":"86431","group":"Group1","full_date":"2025-12-04T16:47:12.285Z","date":"2025-12-04","time":"16:47:12"},{"rt":null,"stimulus":"<p style=\"font-size: 50px; margin: 0; text-align: center;\">+</p>","response":null,"trial_type":"html-keyboard-response","trial_index":223,"plugin_version":"2.1.0","time_elapsed":462608,"subject_id":"86431","group":"Group1","full_date":"2025-12-04T16:47:12.285Z","date":"2025-12-04","time":"16:47:12"},{"task":"memory_phase","broad_category":"I","image_png":"I_Gabbro_08.png","image_id":56,"category_name":"Gabbro","category":4,"distinct_rating":3.02,"distinct_type":"Bottom","rt":null,"stimulus":"Stimuli_Rocks480/I_Gabbro_08.png","response":null,"trial_type":"image-keyboard-response","trial_index":224,"plugin_version":"2.1.0","time_elapsed":465123,"subject_id":"86431","group":"Group1","full_date":"2025-12-04T16:47:12.285Z","date":"2025-12-04","time":"16:47:12"},{"rt":null,"stimulus":"<p style=\"font-size: 50px; margin: 0; text-align: center;\">+</p>","response":null,"trial_type":"html-keyboard-response","trial_index":225,"plugin_version":"2.1.0","time_elapsed":466140,"subject_id":"86431","group":"Group1","full_date":"2025-12-04T16:47:12.285Z","date":"2025-12-04","time":"16:47:12"},{"task":"memory_phase","broad_category":"S","image_png":"S_Sandstone_03.png","image_id":451,"category_name":"Sandstone","category":29,"distinct_rating":1.86,"distinct_type":"Bottom","rt":null,"stimulus":"Stimuli_Rocks480/S_Sandstone_03.png","response":null,"trial_type":"image-keyboard-response","trial_index":226,"plugin_version":"2.1.0","time_elapsed":468646,"subject_id":"86431","group":"Group1","full_date":"2025-12-04T16:47:12.285Z","date":"2025-12-04","time":"16:47:12"},{"rt":null,"stimulus":"<p style=\"font-size: 50px; margin: 0; text-align: center;\">+</p>","response":null,"trial_type":"html-keyboard-response","trial_index":227,"plugin_version":"2.1.0","time_elapsed":469648,"subject_id":"86431","group":"Group1","full_date":"2025-12-04T16:47:12.285Z","date":"2025-12-04","time":"16:47:12"},{"task":"memory_phase","broad_category":"S","image_png":"S_Rock Salt_01.png","image_id":433,"category_name":"Rock Salt","category":28,"distinct_rating":7.18,"distinct_type":"Top","rt":null,"stimulus":"Stimuli_Rocks480/S_Rock Salt_01.png","response":null,"trial_type":"image-keyboard-response","trial_index":228,"plugin_version":"2.1.0","time_elapsed":472164,"subject_id":"86431","group":"Group1","full_date":"2025-12-04T16:47:12.285Z","date":"2025-12-04","time":"16:47:12"},{"rt":null,"stimulus":"<p style=\"font-size: 50px; margin: 0; text-align: center;\">+</p>","response":null,"trial_type":"html-keyboard-response","trial_index":229,"plugin_version":"2.1.0","time_elapsed":473180,"subject_id":"86431","group":"Group1","full_date":"2025-12-04T16:47:12.285Z","date":"2025-12-04","time":"16:47:12"},{"task":"memory_phase","broad_category":"S","image_png":"S_Shale_12.png","image_id":476,"category_name":"Shale","category":30,"distinct_rating":2.48,"distinct_type":"Bottom","rt":null,"stimulus":"Stimuli_Rocks480/S_Shale_12.png","response":null,"trial_type":"image-keyboard-response","trial_index":230,"plugin_version":"2.1.0","time_elapsed":475687,"subject_id":"86431","group":"Group1","full_date":"2025-12-04T16:47:12.285Z","date":"2025-12-04","time":"16:47:12"},{"rt":null,"stimulus":"<p style=\"font-size: 50px; margin: 0; text-align: center;\">+</p>","response":null,"trial_type":"html-keyboard-response","trial_index":231,"plugin_version":"2.1.0","time_elapsed":476700,"subject_id":"86431","group":"Group1","full_date":"2025-12-04T16:47:12.285Z","date":"2025-12-04","time":"16:47:12"},{"task":"memory_phase","broad_category":"M","image_png":"M_Slate_03.png","image_id":307,"category_name":"Slate","category":20,"distinct_rating":1.87,"distinct_type":"Bottom","rt":null,"stimulus":"Stimuli_Rocks480/M_Slate_03.png","response":null,"trial_type":"image-keyboard-response","trial_index":232,"plugin_version":"2.1.0","time_elapsed":479221,"subject_id":"86431","group":"Group1","full_date":"2025-12-04T16:47:12.285Z","date":"2025-12-04","time":"16:47:12"},{"rt":null,"stimulus":"<p style=\"font-size: 50px; margin: 0; text-align: center;\">+</p>","response":null,"trial_type":"html-keyboard-response","trial_index":233,"plugin_version":"2.1.0","time_elapsed":480223,"subject_id":"86431","group":"Group1","full_date":"2025-12-04T16:47:12.285Z","date":"2025-12-04","time":"16:47:12"},{"task":"memory_phase","broad_category":"S","image_png":"S_Dolomite_12.png","image_id":396,"category_name":"Dolomite","category":25,"distinct_rating":1.85,"distinct_type":"Bottom","rt":null,"stimulus":"Stimuli_Rocks480/S_Dolomite_12.png","response":null,"trial_type":"image-keyboard-response","trial_index":234,"plugin_version":"2.1.0","time_elapsed":482726,"subject_id":"86431","group":"Group1","full_date":"2025-12-04T16:47:12.285Z","date":"2025-12-04","time":"16:47:12"},{"rt":null,"stimulus":"<p style=\"font-size: 50px; margin: 0; text-align: center;\">+</p>","response":null,"trial_type":"html-keyboard-response","trial_index":235,"plugin_version":"2.1.0","time_elapsed":483734,"subject_id":"86431","group":"Group1","full_date":"2025-12-04T16:47:12.285Z","date":"2025-12-04","time":"16:47:12"},{"task":"memory_phase","broad_category":"S","image_png":"S_Breccia_11.png","image_id":347,"category_name":"Breccia","category":22,"distinct_rating":6.7,"distinct_type":"Top","rt":null,"stimulus":"Stimuli_Rocks480/S_Breccia_11.png","response":null,"trial_type":"image-keyboard-response","trial_index":236,"plugin_version":"2.1.0","time_elapsed":486239,"subject_id":"86431","group":"Group1","full_date":"2025-12-04T16:47:12.285Z","date":"2025-12-04","time":"16:47:12"},{"rt":null,"stimulus":"<p style=\"font-size: 50px; margin: 0; text-align: center;\">+</p>","response":null,"trial_type":"html-keyboard-response","trial_index":237,"plugin_version":"2.1.0","time_elapsed":487243,"subject_id":"86431","group":"Group1","full_date":"2025-12-04T16:47:12.285Z","date":"2025-12-04","time":"16:47:12"},{"task":"memory_phase","broad_category":"I","image_png":"I_Pegmatite_16.png","image_id":112,"category_name":"Pegmatite","category":7,"distinct_rating":7.03,"distinct_type":"Top","rt":null,"stimulus":"Stimuli_Rocks480/I_Pegmatite_16.png","response":null,"trial_type":"image-keyboard-response","trial_index":238,"plugin_version":"2.1.0","time_elapsed":489763,"subject_id":"86431","group":"Group1","full_date":"2025-12-04T16:47:12.285Z","date":"2025-12-04","time":"16:47:12"},{"rt":null,"stimulus":"<p style=\"font-size: 50px; margin: 0; text-align: center;\">+</p>","response":null,"trial_type":"html-keyboard-response","trial_index":239,"plugin_version":"2.1.0","time_elapsed":490766,"subject_id":"86431","group":"Group1","full_date":"2025-12-04T16:47:12.285Z","date":"2025-12-04","time":"16:47:12"},{"task":"memory_phase","broad_category":"I","image_png":"I_Pumice_11.png","image_id":139,"category_name":"Pumice","category":9,"distinct_rating":1.74,"distinct_type":"Bottom","rt":null,"stimulus":"Stimuli_Rocks480/I_Pumice_11.png","response":null,"trial_type":"image-keyboard-response","trial_index":240,"plugin_version":"2.1.0","time_elapsed":493272,"subject_id":"86431","group":"Group1","full_date":"2025-12-04T16:47:12.285Z","date":"2025-12-04","time":"16:47:12"},{"rt":null,"stimulus":"<p style=\"font-size: 50px; margin: 0; text-align: center;\">+</p>","response":null,"trial_type":"html-keyboard-response","trial_index":241,"plugin_version":"2.1.0","time_elapsed":494283,"subject_id":"86431","group":"Group1","full_date":"2025-12-04T16:47:12.285Z","date":"2025-12-04","time":"16:47:12"},{"task":"memory_phase","broad_category":"I","image_png":"I_Basalt_02.png","image_id":18,"category_name":"Basalt","category":2,"distinct_rating":1.84,"distinct_type":"Bottom","rt":null,"stimulus":"Stimuli_Rocks480/I_Basalt_02.png","response":null,"trial_type":"image-keyboard-response","trial_index":242,"plugin_version":"2.1.0","time_elapsed":496786,"subject_id":"86431","group":"Group1","full_date":"2025-12-04T16:47:12.285Z","date":"2025-12-04","time":"16:47:12"},{"rt":null,"stimulus":"<p style=\"font-size: 50px; margin: 0; text-align: center;\">+</p>","response":null,"trial_type":"html-keyboard-response","trial_index":243,"plugin_version":"2.1.0","time_elapsed":497789,"subject_id":"86431","group":"Group1","full_date":"2025-12-04T16:47:12.285Z","date":"2025-12-04","time":"16:47:12"},{"task":"memory_phase","broad_category":"I","image_png":"I_Rhyolite_11.png","image_id":155,"category_name":"Rhyolite","category":10,"distinct_rating":1.73,"distinct_type":"Bottom","rt":null,"stimulus":"Stimuli_Rocks480/I_Rhyolite_11.png","response":null,"trial_type":"image-keyboard-response","trial_index":244,"plugin_version":"2.1.0","time_elapsed":500304,"subject_id":"86431","group":"Group1","full_date":"2025-12-04T16:47:12.285Z","date":"2025-12-04","time":"16:47:12"},{"rt":null,"stimulus":"<p style=\"font-size: 50px; margin: 0; text-align: center;\">+</p>","response":null,"trial_type":"html-keyboard-response","trial_index":245,"plugin_version":"2.1.0","time_elapsed":501320,"subject_id":"86431","group":"Group1","full_date":"2025-12-04T16:47:12.285Z","date":"2025-12-04","time":"16:47:12"},{"task":"memory_phase","broad_category":"M","image_png":"M_Phyllite_03.png","image_id":259,"category_name":"Phyllite","category":17,"distinct_rating":2.5,"distinct_type":"Bottom","rt":null,"stimulus":"Stimuli_Rocks480/M_Phyllite_03.png","response":null,"trial_type":"image-keyboard-response","trial_index":246,"plugin_version":"2.1.0","time_elapsed":503832,"subject_id":"86431","group":"Group1","full_date":"2025-12-04T16:47:12.285Z","date":"2025-12-04","time":"16:47:12"},{"rt":null,"stimulus":"<p style=\"font-size: 50px; margin: 0; text-align: center;\">+</p>","response":null,"trial_type":"html-keyboard-response","trial_index":247,"plugin_version":"2.1.0","time_elapsed":504836,"subject_id":"86431","group":"Group1","full_date":"2025-12-04T16:47:12.285Z","date":"2025-12-04","time":"16:47:12"},{"task":"memory_phase","broad_category":"M","image_png":"M_Quartzite_05.png","image_id":277,"category_name":"Quartzite","category":18,"distinct_rating":2.23,"distinct_type":"Bottom","rt":null,"stimulus":"Stimuli_Rocks480/M_Quartzite_05.png","response":null,"trial_type":"image-keyboard-response","trial_index":248,"plugin_version":"2.1.0","time_elapsed":507351,"subject_id":"86431","group":"Gr