[{"width":1205,"height":898,"webaudio":true,"browser":"chrome","browser_version":"142.0.0","mobile":false,"os":"Mac OS","fullscreen":true,"vsync_rate":60,"webcam":true,"microphone":true,"trial_type":"browser-check","trial_index":0,"plugin_version":"2.1.0","time_elapsed":1017,"subject_id":"90158","group":"Group2","full_date":"2025-11-21T02:51:54.355Z","date":"2025-11-21","time":"02:51:54"},{"success":true,"timeout":false,"failed_images":[],"failed_audio":[],"failed_video":[],"trial_type":"preload","trial_index":1,"plugin_version":"2.1.0","time_elapsed":3422,"subject_id":"90158","group":"Group2","full_date":"2025-11-21T02:51:54.355Z","date":"2025-11-21","time":"02:51:54"},{"rt":12424,"url":"SONA_consent_memorability.html","trial_type":"external-html","trial_index":2,"plugin_version":"2.1.0","time_elapsed":15896,"subject_id":"90158","group":"Group2","full_date":"2025-11-21T02:51:54.355Z","date":"2025-11-21","time":"02:51:54"},{"success":true,"rt":1264,"trial_type":"fullscreen","trial_index":3,"plugin_version":"2.1.0","time_elapsed":18167,"subject_id":"90158","group":"Group2","full_date":"2025-11-21T02:51:54.355Z","date":"2025-11-21","time":"02:51:54"},{"rt":1642,"stimulus":"<div style=\"max-width: 760px; margin: auto; font-size: 20px; line-height: 1.5;\">\n      <h1 style=\"text-align:center; font-size: 30px;\">Instructions</h1>\n      <p>\n        Welcome to the study on <b>visual memory</b>. This experiment consists of <b>two phases</b>: \n        a <b>study phase</b> and a <b>test phase</b>.\n      </p>\n      <p>\n        In the study phase, you will see a series of rock images along with their category labels.\n        The images will appear one at a time.\n        <b>Your task</b> is to learn the categories to which the rock images belong \n        and to remember each image as accurately as possible.\n      </p> \n      <p>\n        Note that we will repeat the study phase <b>3 times</b>, \n        so you will have multiple opportunities to see and remember each image.\n      </p>\n      <p>\n        After the study phase, <b>your memory will be tested</b>. \n        Additional instructions for the test phase will be provided at that time.\n      </p>\n      <p>\n        If your computer has multiple <b>language settings</b> (e.g., English and another language),\n        please make sure it is set to English before starting.\n      </p>\n      <p>\n        You can track your progress using the <b>completion bar</b> at the top of the screen. \n        Please note that the bar will refresh when the test phase begins \n        to give you an accurate sense of your progress in both phases.\n      </p> \n      <p>\n        Press the button below when you are ready to begin.\n      </p>\n    </div>","response":0,"trial_type":"html-button-response","trial_index":4,"plugin_version":"2.1.0","time_elapsed":19814,"subject_id":"90158","group":"Group2","full_date":"2025-11-21T02:51:54.355Z","date":"2025-11-21","time":"02:51:54"},{"rt":null,"stimulus":"<p style=\"font-size: 50px; margin: 0; text-align: center;\">+</p>","response":null,"trial_type":"html-keyboard-response","trial_index":5,"plugin_version":"2.1.0","time_elapsed":20820,"subject_id":"90158","group":"Group2","full_date":"2025-11-21T02:51:54.355Z","date":"2025-11-21","time":"02:51:54"},{"task":"memory_phase","broad_category":"M","image_png":"M_Slate_04.png","image_id":308,"category_name":"Slate","category":20,"distinct_rating":2.2,"distinct_type":"Bottom","rt":null,"stimulus":"Stimuli_Rocks480/M_Slate_04.png","response":null,"trial_type":"image-keyboard-response","trial_index":6,"plugin_version":"2.1.0","time_elapsed":23329,"subject_id":"90158","group":"Group2","full_date":"2025-11-21T02:51:54.355Z","date":"2025-11-21","time":"02:51:54"},{"rt":null,"stimulus":"<p style=\"font-size: 50px; margin: 0; text-align: center;\">+</p>","response":null,"trial_type":"html-keyboard-response","trial_index":7,"plugin_version":"2.1.0","time_elapsed":24332,"subject_id":"90158","group":"Group2","full_date":"2025-11-21T02:51:54.355Z","date":"2025-11-21","time":"02:51:54"},{"task":"memory_phase","broad_category":"S","image_png":"S_Rock Salt_15.png","image_id":447,"category_name":"Rock Salt","category":28,"distinct_rating":7.79,"distinct_type":"Top","rt":null,"stimulus":"Stimuli_Rocks480/S_Rock Salt_15.png","response":null,"trial_type":"image-keyboard-response","trial_index":8,"plugin_version":"2.1.0","time_elapsed":26838,"subject_id":"90158","group":"Group2","full_date":"2025-11-21T02:51:54.355Z","date":"2025-11-21","time":"02:51:54"},{"rt":null,"stimulus":"<p style=\"font-size: 50px; margin: 0; text-align: center;\">+</p>","response":null,"trial_type":"html-keyboard-response","trial_index":9,"plugin_version":"2.1.0","time_elapsed":27956,"subject_id":"90158","group":"Group2","full_date":"2025-11-21T02:51:54.355Z","date":"2025-11-21","time":"02:51:54"},{"task":"memory_phase","broad_category":"S","image_png":"S_Shale_02.png","image_id":466,"category_name":"Shale","category":30,"distinct_rating":2.9,"distinct_type":"Bottom","rt":null,"stimulus":"Stimuli_Rocks480/S_Shale_02.png","response":null,"trial_type":"image-keyboard-response","trial_index":10,"plugin_version":"2.1.0","time_elapsed":30957,"subject_id":"90158","group":"Group2","full_date":"2025-11-21T02:51:54.355Z","date":"2025-11-21","time":"02:51:54"},{"rt":null,"stimulus":"<p style=\"font-size: 50px; margin: 0; text-align: center;\">+</p>","response":null,"trial_type":"html-keyboard-response","trial_index":11,"plugin_version":"2.1.0","time_elapsed":32956,"subject_id":"90158","group":"Group2","full_date":"2025-11-21T02:51:54.355Z","date":"2025-11-21","time":"02:51:54"},{"task":"memory_phase","broad_category":"M","image_png":"M_Phyllite_02.png","image_id":258,"category_name":"Phyllite","category":17,"distinct_rating":2.89,"distinct_type":"Bottom","rt":null,"stimulus":"Stimuli_Rocks480/M_Phyllite_02.png","response":null,"trial_type":"image-keyboard-response","trial_index":12,"plugin_version":"2.1.0","time_elapsed":35963,"subject_id":"90158","group":"Group2","full_date":"2025-11-21T02:51:54.355Z","date":"2025-11-21","time":"02:51:54"},{"rt":null,"stimulus":"<p style=\"font-size: 50px; margin: 0; text-align: center;\">+</p>","response":null,"trial_type":"html-keyboard-response","trial_index":13,"plugin_version":"2.1.0","time_elapsed":37954,"subject_id":"90158","group":"Group2","full_date":"2025-11-21T02:51:54.355Z","date":"2025-11-21","time":"02:51:54"},{"task":"memory_phase","broad_category":"I","image_png":"I_Pegmatite_11.png","image_id":107,"category_name":"Pegmatite","category":7,"distinct_rating":7.11,"distinct_type":"Top","rt":null,"stimulus":"Stimuli_Rocks480/I_Pegmatite_11.png","response":null,"trial_type":"image-keyboard-response","trial_index":14,"plugin_version":"2.1.0","time_elapsed":40957,"subject_id":"90158","group":"Group2","full_date":"2025-11-21T02:51:54.355Z","date":"2025-11-21","time":"02:51:54"},{"rt":null,"stimulus":"<p style=\"font-size: 50px; margin: 0; text-align: center;\">+</p>","response":null,"trial_type":"html-keyboard-response","trial_index":15,"plugin_version":"2.1.0","time_elapsed":41962,"subject_id":"90158","group":"Group2","full_date":"2025-11-21T02:51:54.355Z","date":"2025-11-21","time":"02:51:54"},{"task":"memory_phase","broad_category":"I","image_png":"I_Andesite_03.png","image_id":3,"category_name":"Andesite","category":1,"distinct_rating":3.17,"distinct_type":"Bottom","rt":null,"stimulus":"Stimuli_Rocks480/I_Andesite_03.png","response":null,"trial_type":"image-keyboard-response","trial_index":16,"plugin_version":"2.1.0","time_elapsed":44466,"subject_id":"90158","group":"Group2","full_date":"2025-11-21T02:51:54.355Z","date":"2025-11-21","time":"02:51:54"},{"rt":null,"stimulus":"<p style=\"font-size: 50px; margin: 0; text-align: center;\">+</p>","response":null,"trial_type":"html-keyboard-response","trial_index":17,"plugin_version":"2.1.0","time_elapsed":45470,"subject_id":"90158","group":"Group2","full_date":"2025-11-21T02:51:54.355Z","date":"2025-11-21","time":"02:51:54"},{"task":"memory_phase","broad_category":"S","image_png":"S_Dolomite_16.png","image_id":400,"category_name":"Dolomite","category":25,"distinct_rating":1.71,"distinct_type":"Bottom","rt":null,"stimulus":"Stimuli_Rocks480/S_Dolomite_16.png","response":null,"trial_type":"image-keyboard-response","trial_index":18,"plugin_version":"2.1.0","time_elapsed":47974,"subject_id":"90158","group":"Group2","full_date":"2025-11-21T02:51:54.355Z","date":"2025-11-21","time":"02:51:54"},{"rt":null,"stimulus":"<p style=\"font-size: 50px; margin: 0; text-align: center;\">+</p>","response":null,"trial_type":"html-keyboard-response","trial_index":19,"plugin_version":"2.1.0","time_elapsed":48977,"subject_id":"90158","group":"Group2","full_date":"2025-11-21T02:51:54.355Z","date":"2025-11-21","time":"02:51:54"},{"task":"memory_phase","broad_category":"I","image_png":"I_Andesite_04.png","image_id":4,"category_name":"Andesite","category":1,"distinct_rating":3.18,"distinct_type":"Bottom","rt":null,"stimulus":"Stimuli_Rocks480/I_Andesite_04.png","response":null,"trial_type":"image-keyboard-response","trial_index":20,"plugin_version":"2.1.0","time_elapsed":51484,"subject_id":"90158","group":"Group2","full_date":"2025-11-21T02:51:54.355Z","date":"2025-11-21","time":"02:51:54"},{"rt":null,"stimulus":"<p style=\"font-size: 50px; margin: 0; text-align: center;\">+</p>","response":null,"trial_type":"html-keyboard-response","trial_index":21,"plugin_version":"2.1.0","time_elapsed":52486,"subject_id":"90158","group":"Group2","full_date":"2025-11-21T02:51:54.355Z","date":"2025-11-21","time":"02:51:54"},{"task":"memory_phase","broad_category":"I","image_png":"I_Pegmatite_03.png","image_id":99,"category_name":"Pegmatite","category":7,"distinct_rating":7.24,"distinct_type":"Top","rt":null,"stimulus":"Stimuli_Rocks480/I_Pegmatite_03.png","response":null,"trial_type":"image-keyboard-response","trial_index":22,"plugin_version":"2.1.0","time_elapsed":54990,"subject_id":"90158","group":"Group2","full_date":"2025-11-21T02:51:54.355Z","date":"2025-11-21","time":"02:51:54"},{"rt":null,"stimulus":"<p style=\"font-size: 50px; margin: 0; text-align: center;\">+</p>","response":null,"trial_type":"html-keyboard-response","trial_index":23,"plugin_version":"2.1.0","time_elapsed":55992,"subject_id":"90158","group":"Group2","full_date":"2025-11-21T02:51:54.355Z","date":"2025-11-21","time":"02:51:54"},{"task":"memory_phase","broad_category":"S","image_png":"S_Dolomite_07.png","image_id":391,"category_name":"Dolomite","category":25,"distinct_rating":1.73,"distinct_type":"Bottom","rt":null,"stimulus":"Stimuli_Rocks480/S_Dolomite_07.png","response":null,"trial_type":"image-keyboard-response","trial_index":24,"plugin_version":"2.1.0","time_elapsed":58497,"subject_id":"90158","group":"Group2","full_date":"2025-11-21T02:51:54.355Z","date":"2025-11-21","time":"02:51:54"},{"rt":null,"stimulus":"<p style=\"font-size: 50px; margin: 0; text-align: center;\">+</p>","response":null,"trial_type":"html-keyboard-response","trial_index":25,"plugin_version":"2.1.0","time_elapsed":59500,"subject_id":"90158","group":"Group2","full_date":"2025-11-21T02:51:54.355Z","date":"2025-11-21","time":"02:51:54"},{"task":"memory_phase","broad_category":"M","image_png":"M_Quartzite_15.png","image_id":287,"category_name":"Quartzite","category":18,"distinct_rating":2.19,"distinct_type":"Bottom","rt":null,"stimulus":"Stimuli_Rocks480/M_Quartzite_15.png","response":null,"trial_type":"image-keyboard-response","trial_index":26,"plugin_version":"2.1.0","time_elapsed":62004,"subject_id":"90158","group":"Group2","full_date":"2025-11-21T02:51:54.355Z","date":"2025-11-21","time":"02:51:54"},{"rt":null,"stimulus":"<p style=\"font-size: 50px; margin: 0; text-align: center;\">+</p>","response":null,"trial_type":"html-keyboard-response","trial_index":27,"plugin_version":"2.1.0","time_elapsed":63007,"subject_id":"90158","group":"Group2","full_date":"2025-11-21T02:51:54.355Z","date":"2025-11-21","time":"02:51:54"},{"task":"memory_phase","broad_category":"I","image_png":"I_Basalt_13.png","image_id":29,"category_name":"Basalt","category":2,"distinct_rating":2.68,"distinct_type":"Bottom","rt":null,"stimulus":"Stimuli_Rocks480/I_Basalt_13.png","response":null,"trial_type":"image-keyboard-response","trial_index":28,"plugin_version":"2.1.0","time_elapsed":65511,"subject_id":"90158","group":"Group2","full_date":"2025-11-21T02:51:54.355Z","date":"2025-11-21","time":"02:51:54"},{"rt":null,"stimulus":"<p style=\"font-size: 50px; margin: 0; text-align: center;\">+</p>","response":null,"trial_type":"html-keyboard-response","trial_index":29,"plugin_version":"2.1.0","time_elapsed":66513,"subject_id":"90158","group":"Group2","full_date":"2025-11-21T02:51:54.355Z","date":"2025-11-21","time":"02:51:54"},{"task":"memory_phase","broad_category":"I","image_png":"I_Basalt_10.png","image_id":26,"category_name":"Basalt","category":2,"distinct_rating":2.76,"distinct_type":"Bottom","rt":null,"stimulus":"Stimuli_Rocks480/I_Basalt_10.png","response":null,"trial_type":"image-keyboard-response","trial_index":30,"plugin_version":"2.1.0","time_elapsed":69018,"subject_id":"90158","group":"Group2","full_date":"2025-11-21T02:51:54.355Z","date":"2025-11-21","time":"02:51:54"},{"rt":null,"stimulus":"<p style=\"font-size: 50px; margin: 0; text-align: center;\">+</p>","response":null,"trial_type":"html-keyboard-response","trial_index":31,"plugin_version":"2.1.0","time_elapsed":70021,"subject_id":"90158","group":"Group2","full_date":"2025-11-21T02:51:54.355Z","date":"2025-11-21","time":"02:51:54"},{"task":"memory_phase","broad_category":"I","image_png":"I_Diorite_10.png","image_id":42,"category_name":"Diorite","category":3,"distinct_rating":2.84,"distinct_type":"Bottom","rt":null,"stimulus":"Stimuli_Rocks480/I_Diorite_10.png","response":null,"trial_type":"image-keyboard-response","trial_index":32,"plugin_version":"2.1.0","time_elapsed":72525,"subject_id":"90158","group":"Group2","full_date":"2025-11-21T02:51:54.355Z","date":"2025-11-21","time":"02:51:54"},{"rt":null,"stimulus":"<p style=\"font-size: 50px; margin: 0; text-align: center;\">+</p>","response":null,"trial_type":"html-keyboard-response","trial_index":33,"plugin_version":"2.1.0","time_elapsed":73527,"subject_id":"90158","group":"Group2","full_date":"2025-11-21T02:51:54.355Z","date":"2025-11-21","time":"02:51:54"},{"task":"memory_phase","broad_category":"M","image_png":"M_Gneiss_14.png","image_id":206,"category_name":"Gneiss","category":13,"distinct_rating":3.41,"distinct_type":"Bottom","rt":null,"stimulus":"Stimuli_Rocks480/M_Gneiss_14.png","response":null,"trial_type":"image-keyboard-response","trial_index":34,"plugin_version":"2.1.0","time_elapsed":76031,"subject_id":"90158","group":"Group2","full_date":"2025-11-21T02:51:54.355Z","date":"2025-11-21","time":"02:51:54"},{"rt":null,"stimulus":"<p style=\"font-size: 50px; margin: 0; text-align: center;\">+</p>","response":null,"trial_type":"html-keyboard-response","trial_index":35,"plugin_version":"2.1.0","time_elapsed":77034,"subject_id":"90158","group":"Group2","full_date":"2025-11-21T02:51:54.355Z","date":"2025-11-21","time":"02:51:54"},{"task":"memory_phase","broad_category":"M","image_png":"M_Phyllite_13.png","image_id":269,"category_name":"Phyllite","category":17,"distinct_rating":2.8,"distinct_type":"Bottom","rt":null,"stimulus":"Stimuli_Rocks480/M_Phyllite_13.png","response":null,"trial_type":"image-keyboard-response","trial_index":36,"plugin_version":"2.1.0","time_elapsed":79538,"subject_id":"90158","group":"Group2","full_date":"2025-11-21T02:51:54.355Z","date":"2025-11-21","time":"02:51:54"},{"rt":null,"stimulus":"<p style=\"font-size: 50px; margin: 0; text-align: center;\">+</p>","response":null,"trial_type":"html-keyboard-response","trial_index":37,"plugin_version":"2.1.0","time_elapsed":80539,"subject_id":"90158","group":"Group2","full_date":"2025-11-21T02:51:54.355Z","date":"2025-11-21","time":"02:51:54"},{"task":"memory_phase","broad_category":"M","image_png":"M_Phyllite_05.png","image_id":261,"category_name":"Phyllite","category":17,"distinct_rating":2.14,"distinct_type":"Bottom","rt":null,"stimulus":"Stimuli_Rocks480/M_Phyllite_05.png","response":null,"trial_type":"image-keyboard-response","trial_index":38,"plugin_version":"2.1.0","time_elapsed":83044,"subject_id":"90158","group":"Group2","full_date":"2025-11-21T02:51:54.355Z","date":"2025-11-21","time":"02:51:54"},{"rt":null,"stimulus":"<p style=\"font-size: 50px; margin: 0; text-align: center;\">+</p>","response":null,"trial_type":"html-keyboard-response","trial_index":39,"plugin_version":"2.1.0","time_elapsed":84046,"subject_id":"90158","group":"Group2","full_date":"2025-11-21T02:51:54.355Z","date":"2025-11-21","time":"02:51:54"},{"task":"memory_phase","broad_category":"M","image_png":"M_Gneiss_10.png","image_id":202,"category_name":"Gneiss","category":13,"distinct_rating":3.09,"distinct_type":"Bottom","rt":null,"stimulus":"Stimuli_Rocks480/M_Gneiss_10.png","response":null,"trial_type":"image-keyboard-response","trial_index":40,"plugin_version":"2.1.0","time_elapsed":86550,"subject_id":"90158","group":"Group2","full_date":"2025-11-21T02:51:54.355Z","date":"2025-11-21","time":"02:51:54"},{"rt":null,"stimulus":"<p style=\"font-size: 50px; margin: 0; text-align: center;\">+</p>","response":null,"trial_type":"html-keyboard-response","trial_index":41,"plugin_version":"2.1.0","time_elapsed":87554,"subject_id":"90158","group":"Group2","full_date":"2025-11-21T02:51:54.355Z","date":"2025-11-21","time":"02:51:54"},{"task":"memory_phase","broad_category":"I","image_png":"I_Rhyolite_08.png","image_id":152,"category_name":"Rhyolite","category":10,"distinct_rating":1.38,"distinct_type":"Bottom","rt":null,"stimulus":"Stimuli_Rocks480/I_Rhyolite_08.png","response":null,"trial_type":"image-keyboard-response","trial_index":42,"plugin_version":"2.1.0","time_elapsed":90059,"subject_id":"90158","group":"Group2","full_date":"2025-11-21T02:51:54.355Z","date":"2025-11-21","time":"02:51:54"},{"rt":null,"stimulus":"<p style=\"font-size: 50px; margin: 0; text-align: center;\">+</p>","response":null,"trial_type":"html-keyboard-response","trial_index":43,"plugin_version":"2.1.0","time_elapsed":91062,"subject_id":"90158","group":"Group2","full_date":"2025-11-21T02:51:54.355Z","date":"2025-11-21","time":"02:51:54"},{"task":"memory_phase","broad_category":"M","image_png":"M_Marble_02.png","image_id":226,"category_name":"Marble","category":15,"distinct_rating":3.2,"distinct_type":"Bottom","rt":null,"stimulus":"Stimuli_Rocks480/M_Marble_02.png","response":null,"trial_type":"image-keyboard-response","trial_index":44,"plugin_version":"2.1.0","time_elapsed":93566,"subject_id":"90158","group":"Group2","full_date":"2025-11-21T02:51:54.355Z","date":"2025-11-21","time":"02:51:54"},{"rt":null,"stimulus":"<p style=\"font-size: 50px; margin: 0; text-align: center;\">+</p>","response":null,"trial_type":"html-keyboard-response","trial_index":45,"plugin_version":"2.1.0","time_elapsed":94570,"subject_id":"90158","group":"Group2","full_date":"2025-11-21T02:51:54.355Z","date":"2025-11-21","time":"02:51:54"},{"task":"memory_phase","broad_category":"S","image_png":"S_Shale_03.png","image_id":467,"category_name":"Shale","category":30,"distinct_rating":1.95,"distinct_type":"Bottom","rt":null,"stimulus":"Stimuli_Rocks480/S_Shale_03.png","response":null,"trial_type":"image-keyboard-response","trial_index":46,"plugin_version":"2.1.0","time_elapsed":97075,"subject_id":"90158","group":"Group2","full_date":"2025-11-21T02:51:54.355Z","date":"2025-11-21","time":"02:51:54"},{"rt":null,"stimulus":"<p style=\"font-size: 50px; margin: 0; text-align: center;\">+</p>","response":null,"trial_type":"html-keyboard-response","trial_index":47,"plugin_version":"2.1.0","time_elapsed":98077,"subject_id":"90158","group":"Group2","full_date":"2025-11-21T02:51:54.355Z","date":"2025-11-21","time":"02:51:54"},{"task":"memory_phase","broad_category":"I","image_png":"I_Gabbro_02.png","image_id":50,"category_name":"Gabbro","category":4,"distinct_rating":2.73,"distinct_type":"Bottom","rt":null,"stimulus":"Stimuli_Rocks480/I_Gabbro_02.png","response":null,"trial_type":"image-keyboard-response","trial_index":48,"plugin_version":"2.1.0","time_elapsed":100582,"subject_id":"90158","group":"Group2","full_date":"2025-11-21T02:51:54.355Z","date":"2025-11-21","time":"02:51:54"},{"rt":null,"stimulus":"<p style=\"font-size: 50px; margin: 0; text-align: center;\">+</p>","response":null,"trial_type":"html-keyboard-response","trial_index":49,"plugin_version":"2.1.0","time_elapsed":101585,"subject_id":"90158","group":"Group2","full_date":"2025-11-21T02:51:54.355Z","date":"2025-11-21","time":"02:51:54"},{"task":"memory_phase","broad_category":"I","image_png":"I_Gabbro_12.png","image_id":60,"category_name":"Gabbro","category":4,"distinct_rating":2.6,"distinct_type":"Bottom","rt":null,"stimulus":"Stimuli_Rocks480/I_Gabbro_12.png","response":null,"trial_type":"image-keyboard-response","trial_index":50,"plugin_version":"2.1.0","time_elapsed":104089,"subject_id":"90158","group":"Group2","full_date":"2025-11-21T02:51:54.355Z","date":"2025-11-21","time":"02:51:54"},{"rt":null,"stimulus":"<p style=\"font-size: 50px; margin: 0; text-align: center;\">+</p>","response":null,"trial_type":"html-keyboard-response","trial_index":51,"plugin_version":"2.1.0","time_elapsed":105092,"subject_id":"90158","group":"Group2","full_date":"2025-11-21T02:51:54.355Z","date":"2025-11-21","time":"02:51:54"},{"task":"memory_phase","broad_category":"M","image_png":"M_Gneiss_15.png","image_id":207,"category_name":"Gneiss","category":13,"distinct_rating":3.11,"distinct_type":"Bottom","rt":null,"stimulus":"Stimuli_Rocks480/M_Gneiss_15.png","response":null,"trial_type":"image-keyboard-response","trial_index":52,"plugin_version":"2.1.0","time_elapsed":107595,"subject_id":"90158","group":"Group2","full_date":"2025-11-21T02:51:54.355Z","date":"2025-11-21","time":"02:51:54"},{"rt":null,"stimulus":"<p style=\"font-size: 50px; margin: 0; text-align: center;\">+</p>","response":null,"trial_type":"html-keyboard-response","trial_index":53,"plugin_version":"2.1.0","time_elapsed":108599,"subject_id":"90158","group":"Group2","full_date":"2025-11-21T02:51:54.355Z","date":"2025-11-21","time":"02:51:54"},{"task":"memory_phase","broad_category":"I","image_png":"I_Andesite_09.png","image_id":9,"category_name":"Andesite","category":1,"distinct_rating":2.49,"distinct_type":"Bottom","rt":null,"stimulus":"Stimuli_Rocks480/I_Andesite_09.png","response":null,"trial_type":"image-keyboard-response","trial_index":54,"plugin_version":"2.1.0","time_elapsed":111103,"subject_id":"90158","group":"Group2","full_date":"2025-11-21T02:51:54.355Z","date":"2025-11-21","time":"02:51:54"},{"rt":55140,"stimulus":"<p style=\"max-width: 760px; margin: auto; font-size: 35px; line-height: 1.5;\">Press SPACE to continue study phase</p>","response":" ","trial_type":"html-keyboard-response","trial_index":55,"plugin_version":"2.1.0","time_elapsed":166247,"subject_id":"90158","group":"Group2","full_date":"2025-11-21T02:51:54.355Z","date":"2025-11-21","time":"02:51:54"},{"rt":null,"stimulus":"<p style=\"font-size: 50px; margin: 0; text-align: center;\">+</p>","response":null,"trial_type":"html-keyboard-response","trial_index":56,"plugin_version":"2.1.0","time_elapsed":167250,"subject_id":"90158","group":"Group2","full_date":"2025-11-21T02:51:54.355Z","date":"2025-11-21","time":"02:51:54"},{"task":"memory_phase","broad_category":"M","image_png":"M_Quartzite_07.png","image_id":279,"category_name":"Quartzite","category":18,"distinct_rating":1.97,"distinct_type":"Bottom","rt":null,"stimulus":"Stimuli_Rocks480/M_Quartzite_07.png","response":null,"trial_type":"image-keyboard-response","trial_index":57,"plugin_version":"2.1.0","time_elapsed":169755,"subject_id":"90158","group":"Group2","full_date":"2025-11-21T02:51:54.355Z","date":"2025-11-21","time":"02:51:54"},{"rt":null,"stimulus":"<p style=\"font-size: 50px; margin: 0; text-align: center;\">+</p>","response":null,"trial_type":"html-keyboard-response","trial_index":58,"plugin_version":"2.1.0","time_elapsed":170758,"subject_id":"90158","group":"Group2","full_date":"2025-11-21T02:51:54.355Z","date":"2025-11-21","time":"02:51:54"},{"task":"memory_phase","broad_category":"S","image_png":"S_Shale_07.png","image_id":471,"category_name":"Shale","category":30,"distinct_rating":2.73,"distinct_type":"Bottom","rt":null,"stimulus":"Stimuli_Rocks480/S_Shale_07.png","response":null,"trial_type":"image-keyboard-response","trial_index":59,"plugin_version":"2.1.0","time_elapsed":173262,"subject_id":"90158","group":"Group2","full_date":"2025-11-21T02:51:54.355Z","date":"2025-11-21","time":"02:51:54"},{"rt":null,"stimulus":"<p style=\"font-size: 50px; margin: 0; text-align: center;\">+</p>","response":null,"trial_type":"html-keyboard-response","trial_index":60,"plugin_version":"2.1.0","time_elapsed":174265,"subject_id":"90158","group":"Group2","full_date":"2025-11-21T02:51:54.355Z","date":"2025-11-21","time":"02:51:54"},{"task":"memory_phase","broad_category":"S","image_png":"S_Sandstone_04.png","image_id":452,"category_name":"Sandstone","category":29,"distinct_rating":1.8,"distinct_type":"Bottom","rt":null,"stimulus":"Stimuli_Rocks480/S_Sandstone_04.png","response":null,"trial_type":"image-keyboard-response","trial_index":61,"plugin_version":"2.1.0","time_elapsed":176768,"subject_id":"90158","group":"Group2","full_date":"2025-11-21T02:51:54.355Z","date":"2025-11-21","time":"02:51:54"},{"rt":null,"stimulus":"<p style=\"font-size: 50px; margin: 0; text-align: center;\">+</p>","response":null,"trial_type":"html-keyboard-response","trial_index":62,"plugin_version":"2.1.0","time_elapsed":177772,"subject_id":"90158","group":"Group2","full_date":"2025-11-21T02:51:54.355Z","date":"2025-11-21","time":"02:51:54"},{"task":"memory_phase","broad_category":"I","image_png":"I_Peridotite_13.png","image_id":125,"category_name":"Peridotite","category":8,"distinct_rating":7.28,"distinct_type":"Top","rt":null,"stimulus":"Stimuli_Rocks480/I_Peridotite_13.png","response":null,"trial_type":"image-keyboard-response","trial_index":63,"plugin_version":"2.1.0","time_elapsed":180277,"subject_id":"90158","group":"Group2","full_date":"2025-11-21T02:51:54.355Z","date":"2025-11-21","time":"02:51:54"},{"rt":null,"stimulus":"<p style=\"font-size: 50px; margin: 0; text-align: center;\">+</p>","response":null,"trial_type":"html-keyboard-response","trial_index":64,"plugin_version":"2.1.0","time_elapsed":181281,"subject_id":"90158","group":"Group2","full_date":"2025-11-21T02:51:54.355Z","date":"2025-11-21","time":"02:51:54"},{"task":"memory_phase","broad_category":"I","image_png":"I_Pumice_14.png","image_id":142,"category_name":"Pumice","category":9,"distinct_rating":3.22,"distinct_type":"Bottom","rt":null,"stimulus":"Stimuli_Rocks480/I_Pumice_14.png","response":null,"trial_type":"image-keyboard-response","trial_index":65,"plugin_version":"2.1.0","time_elapsed":183785,"subject_id":"90158","group":"Group2","full_date":"2025-11-21T02:51:54.355Z","date":"2025-11-21","time":"02:51:54"},{"rt":null,"stimulus":"<p style=\"font-size: 50px; margin: 0; text-align: center;\">+</p>","response":null,"trial_type":"html-keyboard-response","trial_index":66,"plugin_version":"2.1.0","time_elapsed":184788,"subject_id":"90158","group":"Group2","full_date":"2025-11-21T02:51:54.355Z","date":"2025-11-21","time":"02:51:54"},{"task":"memory_phase","broad_category":"S","image_png":"S_Sandstone_11.png","image_id":459,"category_name":"Sandstone","category":29,"distinct_rating":1.82,"distinct_type":"Bottom","rt":null,"stimulus":"Stimuli_Rocks480/S_Sandstone_11.png","response":null,"trial_type":"image-keyboard-response","trial_index":67,"plugin_version":"2.1.0","time_elapsed":187292,"subject_id":"90158","group":"Group2","full_date":"2025-11-21T02:51:54.355Z","date":"2025-11-21","time":"02:51:54"},{"rt":null,"stimulus":"<p style=\"font-size: 50px; margin: 0; text-align: center;\">+</p>","response":null,"trial_type":"html-keyboard-response","trial_index":68,"plugin_version":"2.1.0","time_elapsed":188295,"subject_id":"90158","group":"Group2","full_date":"2025-11-21T02:51:54.355Z","date":"2025-11-21","time":"02:51:54"},{"task":"memory_phase","broad_category":"S","image_png":"S_Conglomerate_14.png","image_id":382,"category_name":"Conglomerate","category":24,"distinct_rating":6.86,"distinct_type":"Top","rt":null,"stimulus":"Stimuli_Rocks480/S_Conglomerate_14.png","response":null,"trial_type":"image-keyboard-response","trial_index":69,"plugin_version":"2.1.0","time_elapsed":190799,"subject_id":"90158","group":"Group2","full_date":"2025-11-21T02:51:54.355Z","date":"2025-11-21","time":"02:51:54"},{"rt":null,"stimulus":"<p style=\"font-size: 50px; margin: 0; text-align: center;\">+</p>","response":null,"trial_type":"html-keyboard-response","trial_index":70,"plugin_version":"2.1.0","time_elapsed":191802,"subject_id":"90158","group":"Group2","full_date":"2025-11-21T02:51:54.355Z","date":"2025-11-21","time":"02:51:54"},{"task":"memory_phase","broad_category":"M","image_png":"M_Slate_14.png","image_id":318,"category_name":"Slate","category":20,"distinct_rating":2.58,"distinct_type":"Bottom","rt":null,"stimulus":"Stimuli_Rocks480/M_Slate_14.png","response":null,"trial_type":"image-keyboard-response","trial_index":71,"plugin_version":"2.1.0","time_elapsed":194306,"subject_id":"90158","group":"Group2","full_date":"2025-11-21T02:51:54.355Z","date":"2025-11-21","time":"02:51:54"},{"rt":null,"stimulus":"<p style=\"font-size: 50px; margin: 0; text-align: center;\">+</p>","response":null,"trial_type":"html-keyboard-response","trial_index":72,"plugin_version":"2.1.0","time_elapsed":195309,"subject_id":"90158","group":"Group2","full_date":"2025-11-21T02:51:54.355Z","date":"2025-11-21","time":"02:51:54"},{"task":"memory_phase","broad_category":"I","image_png":"I_Obsidian_06.png","image_id":86,"category_name":"Obsidian","category":6,"distinct_rating":8.01,"distinct_type":"Top","rt":null,"stimulus":"Stimuli_Rocks480/I_Obsidian_06.png","response":null,"trial_type":"image-keyboard-response","trial_index":73,"plugin_version":"2.1.0","time_elapsed":197812,"subject_id":"90158","group":"Group2","full_date":"2025-11-21T02:51:54.355Z","date":"2025-11-21","time":"02:51:54"},{"rt":null,"stimulus":"<p style=\"font-size: 50px; margin: 0; text-align: center;\">+</p>","response":null,"trial_type":"html-keyboard-response","trial_index":74,"plugin_version":"2.1.0","time_elapsed":198815,"subject_id":"90158","group":"Group2","full_date":"2025-11-21T02:51:54.355Z","date":"2025-11-21","time":"02:51:54"},{"task":"memory_phase","broad_category":"M","image_png":"M_Marble_03.png","image_id":227,"category_name":"Marble","category":15,"distinct_rating":2.67,"distinct_type":"Bottom","rt":null,"stimulus":"Stimuli_Rocks480/M_Marble_03.png","response":null,"trial_type":"image-keyboard-response","trial_index":75,"plugin_version":"2.1.0","time_elapsed":201319,"subject_id":"90158","group":"Group2","full_date":"2025-11-21T02:51:54.355Z","date":"2025-11-21","time":"02:51:54"},{"rt":null,"stimulus":"<p style=\"font-size: 50px; margin: 0; text-align: center;\">+</p>","response":null,"trial_type":"html-keyboard-response","trial_index":76,"plugin_version":"2.1.0","time_elapsed":202321,"subject_id":"90158","group":"Group2","full_date":"2025-11-21T02:51:54.355Z","date":"2025-11-21","time":"02:51:54"},{"task":"memory_phase","broad_category":"I","image_png":"I_Rhyolite_05.png","image_id":149,"category_name":"Rhyolite","category":10,"distinct_rating":3.02,"distinct_type":"Bottom","rt":null,"stimulus":"Stimuli_Rocks480/I_Rhyolite_05.png","response":null,"trial_type":"image-keyboard-response","trial_index":77,"plugin_version":"2.1.0","time_elapsed":204825,"subject_id":"90158","group":"Group2","full_date":"2025-11-21T02:51:54.355Z","date":"2025-11-21","time":"02:51:54"},{"rt":null,"stimulus":"<p style=\"font-size: 50px; margin: 0; text-align: center;\">+</p>","response":null,"trial_type":"html-keyboard-response","trial_index":78,"plugin_version":"2.1.0","time_elapsed":205827,"subject_id":"90158","group":"Group2","full_date":"2025-11-21T02:51:54.355Z","date":"2025-11-21","time":"02:51:54"},{"task":"memory_phase","broad_category":"M","image_png":"M_Marble_14.png","image_id":238,"category_name":"Marble","category":15,"distinct_rating":3.31,"distinct_type":"Bottom","rt":null,"stimulus":"Stimuli_Rocks480/M_Marble_14.png","response":null,"trial_type":"image-keyboard-response","trial_index":79,"plugin_version":"2.1.0","time_elapsed":208331,"subject_id":"90158","group":"Group2","full_date":"2025-11-21T02:51:54.355Z","date":"2025-11-21","time":"02:51:54"},{"rt":null,"stimulus":"<p style=\"font-size: 50px; margin: 0; text-align: center;\">+</p>","response":null,"trial_type":"html-keyboard-response","trial_index":80,"plugin_version":"2.1.0","time_elapsed":209334,"subject_id":"90158","group":"Group2","full_date":"2025-11-21T02:51:54.355Z","date":"2025-11-21","time":"02:51:54"},{"task":"memory_phase","broad_category":"I","image_png":"I_Diorite_01.png","image_id":33,"category_name":"Diorite","category":3,"distinct_rating":2.97,"distinct_type":"Bottom","rt":null,"stimulus":"Stimuli_Rocks480/I_Diorite_01.png","response":null,"trial_type":"image-keyboard-response","trial_index":81,"plugin_version":"2.1.0","time_elapsed":211838,"subject_id":"90158","group":"Group2","full_date":"2025-11-21T02:51:54.355Z","date":"2025-11-21","time":"02:51:54"},{"rt":null,"stimulus":"<p style=\"font-size: 50px; margin: 0; text-align: center;\">+</p>","response":null,"trial_type":"html-keyboard-response","trial_index":82,"plugin_version":"2.1.0","time_elapsed":212839,"subject_id":"90158","group":"Group2","full_date":"2025-11-21T02:51:54.355Z","date":"2025-11-21","time":"02:51:54"},{"task":"memory_phase","broad_category":"I","image_png":"I_Pumice_01.png","image_id":129,"category_name":"Pumice","category":9,"distinct_rating":3.25,"distinct_type":"Bottom","rt":null,"stimulus":"Stimuli_Rocks480/I_Pumice_01.png","response":null,"trial_type":"image-keyboard-response","trial_index":83,"plugin_version":"2.1.0","time_elapsed":215343,"subject_id":"90158","group":"Group2","full_date":"2025-11-21T02:51:54.355Z","date":"2025-11-21","time":"02:51:54"},{"rt":null,"stimulus":"<p style=\"font-size: 50px; margin: 0; text-align: center;\">+</p>","response":null,"trial_type":"html-keyboard-response","trial_index":84,"plugin_version":"2.1.0","time_elapsed":216345,"subject_id":"90158","group":"Group2","full_date":"2025-11-21T02:51:54.355Z","date":"2025-11-21","time":"02:51:54"},{"task":"memory_phase","broad_category":"I","image_png":"I_Rhyolite_10.png","image_id":154,"category_name":"Rhyolite","category":10,"distinct_rating":2.88,"distinct_type":"Bottom","rt":null,"stimulus":"Stimuli_Rocks480/I_Rhyolite_10.png","response":null,"trial_type":"image-keyboard-response","trial_index":85,"plugin_version":"2.1.0","time_elapsed":218849,"subject_id":"90158","group":"Group2","full_date":"2025-11-21T02:51:54.355Z","date":"2025-11-21","time":"02:51:54"},{"rt":null,"stimulus":"<p style=\"font-size: 50px; margin: 0; text-align: center;\">+</p>","response":null,"trial_type":"html-keyboard-response","trial_index":86,"plugin_version":"2.1.0","time_elapsed":219852,"subject_id":"90158","group":"Group2","full_date":"2025-11-21T02:51:54.355Z","date":"2025-11-21","time":"02:51:54"},{"task":"memory_phase","broad_category":"I","image_png":"I_Pumice_13.png","image_id":141,"category_name":"Pumice","category":9,"distinct_rating":3.12,"distinct_type":"Bottom","rt":null,"stimulus":"Stimuli_Rocks480/I_Pumice_13.png","response":null,"trial_type":"image-keyboard-response","trial_index":87,"plugin_version":"2.1.0","time_elapsed":222356,"subject_id":"90158","group":"Group2","full_date":"2025-11-21T02:51:54.355Z","date":"2025-11-21","time":"02:51:54"},{"rt":null,"stimulus":"<p style=\"font-size: 50px; margin: 0; text-align: center;\">+</p>","response":null,"trial_type":"html-keyboard-response","trial_index":88,"plugin_version":"2.1.0","time_elapsed":223358,"subject_id":"90158","group":"Group2","full_date":"2025-11-21T02:51:54.355Z","date":"2025-11-21","time":"02:51:54"},{"task":"memory_phase","broad_category":"I","image_png":"I_Basalt_08.png","image_id":24,"category_name":"Basalt","category":2,"distinct_rating":2.31,"distinct_type":"Bottom","rt":null,"stimulus":"Stimuli_Rocks480/I_Basalt_08.png","response":null,"trial_type":"image-keyboard-response","trial_index":89,"plugin_version":"2.1.0","time_elapsed":225862,"subject_id":"90158","group":"Group2","full_date":"2025-11-21T02:51:54.355Z","date":"2025-11-21","time":"02:51:54"},{"rt":null,"stimulus":"<p style=\"font-size: 50px; margin: 0; text-align: center;\">+</p>","response":null,"trial_type":"html-keyboard-response","trial_index":90,"plugin_version":"2.1.0","time_elapsed":226865,"subject_id":"90158","group":"Group2","full_date":"2025-11-21T02:51:54.355Z","date":"2025-11-21","time":"02:51:54"},{"task":"memory_phase","broad_category":"I","image_png":"I_Gabbro_14.png","image_id":62,"category_name":"Gabbro","category":4,"distinct_rating":2.95,"distinct_type":"Bottom","rt":null,"stimulus":"Stimuli_Rocks480/I_Gabbro_14.png","response":null,"trial_type":"image-keyboard-response","trial_index":91,"plugin_version":"2.1.0","time_elapsed":229370,"subject_id":"90158","group":"Group2","full_date":"2025-11-21T02:51:54.355Z","date":"2025-11-21","time":"02:51:54"},{"rt":null,"stimulus":"<p style=\"font-size: 50px; margin: 0; text-align: center;\">+</p>","response":null,"trial_type":"html-keyboard-response","trial_index":92,"plugin_version":"2.1.0","time_elapsed":230374,"subject_id":"90158","group":"Group2","full_date":"2025-11-21T02:51:54.355Z","date":"2025-11-21","time":"02:51:54"},{"task":"memory_phase","broad_category":"M","image_png":"M_Quartzite_12.png","image_id":284,"category_name":"Quartzite","category":18,"distinct_rating":1.92,"distinct_type":"Bottom","rt":null,"stimulus":"Stimuli_Rocks480/M_Quartzite_12.png","response":null,"trial_type":"image-keyboard-response","trial_index":93,"plugin_version":"2.1.0","time_elapsed":232879,"subject_id":"90158","group":"Group2","full_date":"2025-11-21T02:51:54.355Z","date":"2025-11-21","time":"02:51:54"},{"rt":null,"stimulus":"<p style=\"font-size: 50px; margin: 0; text-align: center;\">+</p>","response":null,"trial_type":"html-keyboard-response","trial_index":94,"plugin_version":"2.1.0","time_elapsed":233882,"subject_id":"90158","group":"Group2","full_date":"2025-11-21T02:51:54.355Z","date":"2025-11-21","time":"02:51:54"},{"task":"memory_phase","broad_category":"S","image_png":"S_Dolomite_01.png","image_id":385,"category_name":"Dolomite","category":25,"distinct_rating":1.43,"distinct_type":"Bottom","rt":null,"stimulus":"Stimuli_Rocks480/S_Dolomite_01.png","response":null,"trial_type":"image-keyboard-response","trial_index":95,"plugin_version":"2.1.0","time_elapsed":236386,"subject_id":"90158","group":"Group2","full_date":"2025-11-21T02:51:54.355Z","date":"2025-11-21","time":"02:51:54"},{"rt":null,"stimulus":"<p style=\"font-size: 50px; margin: 0; text-align: center;\">+</p>","response":null,"trial_type":"html-keyboard-response","trial_index":96,"plugin_version":"2.1.0","time_elapsed":237388,"subject_id":"90158","group":"Group2","full_date":"2025-11-21T02:51:54.355Z","date":"2025-11-21","time":"02:51:54"},{"task":"memory_phase","broad_category":"M","image_png":"M_Slate_10.png","image_id":314,"category_name":"Slate","category":20,"distinct_rating":1.94,"distinct_type":"Bottom","rt":null,"stimulus":"Stimuli_Rocks480/M_Slate_10.png","response":null,"trial_type":"image-keyboard-response","trial_index":97,"plugin_version":"2.1.0","time_elapsed":239892,"subject_id":"90158","group":"Group2","full_date":"2025-11-21T02:51:54.355Z","date":"2025-11-21","time":"02:51:54"},{"rt":null,"stimulus":"<p style=\"font-size: 50px; margin: 0; text-align: center;\">+</p>","response":null,"trial_type":"html-keyboard-response","trial_index":98,"plugin_version":"2.1.0","time_elapsed":240895,"subject_id":"90158","group":"Group2","full_date":"2025-11-21T02:51:54.355Z","date":"2025-11-21","time":"02:51:54"},{"task":"memory_phase","broad_category":"I","image_png":"I_Diorite_15.png","image_id":47,"category_name":"Diorite","category":3,"distinct_rating":3.05,"distinct_type":"Bottom","rt":null,"stimulus":"Stimuli_Rocks480/I_Diorite_15.png","response":null,"trial_type":"image-keyboard-response","trial_index":99,"plugin_version":"2.1.0","time_elapsed":243399,"subject_id":"90158","group":"Group2","full_date":"2025-11-21T02:51:54.355Z","date":"2025-11-21","time":"02:51:54"},{"rt":null,"stimulus":"<p style=\"font-size: 50px; margin: 0; text-align: center;\">+</p>","response":null,"trial_type":"html-keyboard-response","trial_index":100,"plugin_version":"2.1.0","time_elapsed":244402,"subject_id":"90158","group":"Group2","full_date":"2025-11-21T02:51:54.355Z","date":"2025-11-21","time":"02:51:54"},{"task":"memory_phase","broad_category":"S","image_png":"S_Chert_13.png","image_id":365,"category_name":"Chert","category":23,"distinct_rating":6.57,"distinct_type":"Top","rt":null,"stimulus":"Stimuli_Rocks480/S_Chert_13.png","response":null,"trial_type":"image-keyboard-response","trial_index":101,"plugin_version":"2.1.0","time_elapsed":246906,"subject_id":"90158","group":"Group2","full_date":"2025-11-21T02:51:54.355Z","date":"2025-11-21","time":"02:51:54"},{"rt":null,"stimulus":"<p style=\"font-size: 50px; margin: 0; text-align: center;\">+</p>","response":null,"trial_type":"html-keyboard-response","trial_index":102,"plugin_version":"2.1.0","time_elapsed":247908,"subject_id":"90158","group":"Group2","full_date":"2025-11-21T02:51:54.355Z","date":"2025-11-21","time":"02:51:54"},{"task":"memory_phase","broad_category":"S","image_png":"S_Sandstone_08.png","image_id":456,"category_name":"Sandstone","category":29,"distinct_rating":1.5,"distinct_type":"Bottom","rt":null,"stimulus":"Stimuli_Rocks480/S_Sandstone_08.png","response":null,"trial_type":"image-keyboard-response","trial_index":103,"plugin_version":"2.1.0","time_elapsed":250412,"subject_id":"90158","group":"Group2","full_date":"2025-11-21T02:51:54.355Z","date":"2025-11-21","time":"02:51:54"},{"rt":null,"stimulus":"<p style=\"font-size: 50px; margin: 0; text-align: center;\">+</p>","response":null,"trial_type":"html-keyboard-response","trial_index":104,"plugin_version":"2.1.0","time_elapsed":251415,"subject_id":"90158","group":"Group2","full_date":"2025-11-21T02:51:54.355Z","date":"2025-11-21","time":"02:51:54"},{"task":"memory_phase","broad_category":"S","image_png":"S_Rock Salt_13.png","image_id":445,"category_name":"Rock Salt","category":28,"distinct_rating":7.58,"distinct_type":"Top","rt":null,"stimulus":"Stimuli_Rocks480/S_Rock Salt_13.png","response":null,"trial_type":"image-keyboard-response","trial_index":105,"plugin_version":"2.1.0","time_elapsed":253926,"subject_id":"90158","group":"Group2","full_date":"2025-11-21T02:51:54.355Z","date":"2025-11-21","time":"02:51:54"},{"rt":243635,"stimulus":"<p style=\"max-width: 760px; margin: auto; font-size: 35px; line-height: 1.5;\">You have completed 1 study phase. Now, we'll show you all the images again 2 more times.<br><br>Press SPACE to continue</p>","response":" ","trial_type":"html-keyboard-response","trial_index":106,"plugin_version":"2.1.0","time_elapsed":698278,"subject_id":"90158","group":"Group2","full_date":"2025-11-21T02:51:54.355Z","date":"2025-11-21","time":"02:51:54"},{"rt":null,"stimulus":"<p style=\"font-size: 50px; margin: 0; text-align: center;\">+</p>","response":null,"trial_type":"html-keyboard-response","trial_index":107,"plugin_version":"2.1.0","time_elapsed":699289,"subject_id":"90158","group":"Group2","full_date":"2025-11-21T02:51:54.355Z","date":"2025-11-21","time":"02:51:54"},{"task":"memory_phase","broad_category":"M","image_png":"M_Slate_04.png","image_id":308,"category_name":"Slate","category":20,"distinct_rating":2.2,"distinct_type":"Bottom","rt":null,"stimulus":"Stimuli_Rocks480/M_Slate_04.png","response":null,"trial_type":"image-keyboard-response","trial_index":108,"plugin_version":"2.1.0","time_elapsed":701804,"subject_id":"90158","group":"Group2","full_date":"2025-11-21T02:51:54.355Z","date":"2025-11-21","time":"02:51:54"},{"rt":null,"stimulus":"<p style=\"font-size: 50px; margin: 0; text-align: center;\">+</p>","response":null,"trial_type":"html-keyboard-response","trial_index":109,"plugin_version":"2.1.0","time_elapsed":702807,"subject_id":"90158","group":"Group2","full_date":"2025-11-21T02:51:54.355Z","date":"2025-11-21","time":"02:51:54"},{"task":"memory_phase","broad_category":"I","image_png":"I_Pumice_14.png","image_id":142,"category_name":"Pumice","category":9,"distinct_rating":3.22,"distinct_type":"Bottom","rt":null,"stimulus":"Stimuli_Rocks480/I_Pumice_14.png","response":null,"trial_type":"image-keyboard-response","trial_index":110,"plugin_version":"2.1.0","time_elapsed":705310,"subject_id":"90158","group":"Group2","full_date":"2025-11-21T02:51:54.355Z","date":"2025-11-21","time":"02:51:54"},{"rt":null,"stimulus":"<p style=\"font-size: 50px; margin: 0; text-align: center;\">+</p>","response":null,"trial_type":"html-keyboard-response","trial_index":111,"plugin_version":"2.1.0","time_elapsed":706312,"subject_id":"90158","group":"Group2","full_date":"2025-11-21T02:51:54.355Z","date":"2025-11-21","time":"02:51:54"},{"task":"memory_phase","broad_category":"I","image_png":"I_Andesite_04.png","image_id":4,"category_name":"Andesite","category":1,"distinct_rating":3.18,"distinct_type":"Bottom","rt":null,"stimulus":"Stimuli_Rocks480/I_Andesite_04.png","response":null,"trial_type":"image-keyboard-response","trial_index":112,"plugin_version":"2.1.0","time_elapsed":708815,"subject_id":"90158","group":"Group2","full_date":"2025-11-21T02:51:54.355Z","date":"2025-11-21","time":"02:51:54"},{"rt":null,"stimulus":"<p style=\"font-size: 50px; margin: 0; text-align: center;\">+</p>","response":null,"trial_type":"html-keyboard-response","trial_index":113,"plugin_version":"2.1.0","time_elapsed":709817,"subject_id":"90158","group":"Group2","full_date":"2025-11-21T02:51:54.355Z","date":"2025-11-21","time":"02:51:54"},{"task":"memory_phase","broad_category":"S","image_png":"S_Rock Salt_13.png","image_id":445,"category_name":"Rock Salt","category":28,"distinct_rating":7.58,"distinct_type":"Top","rt":null,"stimulus":"Stimuli_Rocks480/S_Rock Salt_13.png","response":null,"trial_type":"image-keyboard-response","trial_index":114,"plugin_version":"2.1.0","time_elapsed":712320,"subject_id":"90158","group":"Group2","full_date":"2025-11-21T02:51:54.355Z","date":"2025-11-21","time":"02:51:54"},{"rt":null,"stimulus":"<p style=\"font-size: 50px; margin: 0; text-align: center;\">+</p>","response":null,"trial_type":"html-keyboard-response","trial_index":115,"plugin_version":"2.1.0","time_elapsed":713322,"subject_id":"90158","group":"Group2","full_date":"2025-11-21T02:51:54.355Z","date":"2025-11-21","time":"02:51:54"},{"task":"memory_phase","broad_category":"S","image_png":"S_Shale_07.png","image_id":471,"category_name":"Shale","category":30,"distinct_rating":2.73,"distinct_type":"Bottom","rt":null,"stimulus":"Stimuli_Rocks480/S_Shale_07.png","response":null,"trial_type":"image-keyboard-response","trial_index":116,"plugin_version":"2.1.0","time_elapsed":715826,"subject_id":"90158","group":"Group2","full_date":"2025-11-21T02:51:54.355Z","date":"2025-11-21","time":"02:51:54"},{"rt":null,"stimulus":"<p style=\"font-size: 50px; margin: 0; text-align: center;\">+</p>","response":null,"trial_type":"html-keyboard-response","trial_index":117,"plugin_version":"2.1.0","time_elapsed":716830,"subject_id":"90158","group":"Group2","full_date":"2025-11-21T02:51:54.355Z","date":"2025-11-21","time":"02:51:54"},{"task":"memory_phase","broad_category":"S","image_png":"S_Conglomerate_14.png","image_id":382,"category_name":"Conglomerate","category":24,"distinct_rating":6.86,"distinct_type":"Top","rt":null,"stimulus":"Stimuli_Rocks480/S_Conglomerate_14.png","response":null,"trial_type":"image-keyboard-response","trial_index":118,"plugin_version":"2.1.0","time_elapsed":719333,"subject_id":"90158","group":"Group2","full_date":"2025-11-21T02:51:54.355Z","date":"2025-11-21","time":"02:51:54"},{"rt":null,"stimulus":"<p style=\"font-size: 50px; margin: 0; text-align: center;\">+</p>","response":null,"trial_type":"html-keyboard-response","trial_index":119,"plugin_version":"2.1.0","time_elapsed":720337,"subject_id":"90158","group":"Group2","full_date":"2025-11-21T02:51:54.355Z","date":"2025-11-21","time":"02:51:54"},{"task":"memory_phase","broad_category":"M","image_png":"M_Phyllite_02.png","image_id":258,"category_name":"Phyllite","category":17,"distinct_rating":2.89,"distinct_type":"Bottom","rt":null,"stimulus":"Stimuli_Rocks480/M_Phyllite_02.png","response":null,"trial_type":"image-keyboard-response","trial_index":120,"plugin_version":"2.1.0","time_elapsed":722841,"subject_id":"90158","group":"Group2","full_date":"2025-11-21T02:51:54.355Z","date":"2025-11-21","time":"02:51:54"},{"rt":null,"stimulus":"<p style=\"font-size: 50px; margin: 0; text-align: center;\">+</p>","response":null,"trial_type":"html-keyboard-response","trial_index":121,"plugin_version":"2.1.0","time_elapsed":723844,"subject_id":"90158","group":"Group2","full_date":"2025-11-21T02:51:54.355Z","date":"2025-11-21","time":"02:51:54"},{"task":"memory_phase","broad_category":"I","image_png":"I_Obsidian_06.png","image_id":86,"category_name":"Obsidian","category":6,"distinct_rating":8.01,"distinct_type":"Top","rt":null,"stimulus":"Stimuli_Rocks480/I_Obsidian_06.png","response":null,"trial_type":"image-keyboard-response","trial_index":122,"plugin_version":"2.1.0","time_elapsed":726348,"subject_id":"90158","group":"Group2","full_date":"2025-11-21T02:51:54.355Z","date":"2025-11-21","time":"02:51:54"},{"rt":null,"stimulus":"<p style=\"font-size: 50px; margin: 0; text-align: center;\">+</p>","response":null,"trial_type":"html-keyboard-response","trial_index":123,"plugin_version":"2.1.0","time_elapsed":727352,"subject_id":"90158","group":"Group2","full_date":"2025-11-21T02:51:54.355Z","date":"2025-11-21","time":"02:51:54"},{"task":"memory_phase","broad_category":"I","image_png":"I_Basalt_08.png","image_id":24,"category_name":"Basalt","category":2,"distinct_rating":2.31,"distinct_type":"Bottom","rt":null,"stimulus":"Stimuli_Rocks480/I_Basalt_08.png","response":null,"trial_type":"image-keyboard-response","trial_index":124,"plugin_version":"2.1.0","time_elapsed":729857,"subject_id":"90158","group":"Group2","full_date":"2025-11-21T02:51:54.355Z","date":"2025-11-21","time":"02:51:54"},{"rt":null,"stimulus":"<p style=\"font-size: 50px; margin: 0; text-align: center;\">+</p>","response":null,"trial_type":"html-keyboard-response","trial_index":125,"plugin_version":"2.1.0","time_elapsed":730859,"subject_id":"90158","group":"Group2","full_date":"2025-11-21T02:51:54.355Z","date":"2025-11-21","time":"02:51:54"},{"task":"memory_phase","broad_category":"I","image_png":"I_Diorite_15.png","image_id":47,"category_name":"Diorite","category":3,"distinct_rating":3.05,"distinct_type":"Bottom","rt":null,"stimulus":"Stimuli_Rocks480/I_Diorite_15.png","response":null,"trial_type":"image-keyboard-response","trial_index":126,"plugin_version":"2.1.0","time_elapsed":733364,"subject_id":"90158","group":"Group2","full_date":"2025-11-21T02:51:54.355Z","date":"2025-11-21","time":"02:51:54"},{"rt":null,"stimulus":"<p style=\"font-size: 50px; margin: 0; text-align: center;\">+</p>","response":null,"trial_type":"html-keyboard-response","trial_index":127,"plugin_version":"2.1.0","time_elapsed":734366,"subject_id":"90158","group":"Group2","full_date":"2025-11-21T02:51:54.355Z","date":"2025-11-21","time":"02:51:54"},{"task":"memory_phase","broad_category":"I","image_png":"I_Rhyolite_05.png","image_id":149,"category_name":"Rhyolite","category":10,"distinct_rating":3.02,"distinct_type":"Bottom","rt":null,"stimulus":"Stimuli_Rocks480/I_Rhyolite_05.png","response":null,"trial_type":"image-keyboard-response","trial_index":128,"plugin_version":"2.1.0","time_elapsed":736870,"subject_id":"90158","group":"Group2","full_date":"2025-11-21T02:51:54.355Z","date":"2025-11-21","time":"02:51:54"},{"rt":null,"stimulus":"<p style=\"font-size: 50px; margin: 0; text-align: center;\">+</p>","response":null,"trial_type":"html-keyboard-response","trial_index":129,"plugin_version":"2.1.0","time_elapsed":737873,"subject_id":"90158","group":"Group2","full_date":"2025-11-21T02:51:54.355Z","date":"2025-11-21","time":"02:51:54"},{"task":"memory_phase","broad_category":"I","image_png":"I_Andesite_03.png","image_id":3,"category_name":"Andesite","category":1,"distinct_rating":3.17,"distinct_type":"Bottom","rt":null,"stimulus":"Stimuli_Rocks480/I_Andesite_03.png","response":null,"trial_type":"image-keyboard-response","trial_index":130,"plugin_version":"2.1.0","time_elapsed":740377,"subject_id":"90158","group":"Group2","full_date":"2025-11-21T02:51:54.355Z","date":"2025-11-21","time":"02:51:54"},{"rt":null,"stimulus":"<p style=\"font-size: 50px; margin: 0; text-align: center;\">+</p>","response":null,"trial_type":"html-keyboard-response","trial_index":131,"plugin_version":"2.1.0","time_elapsed":741381,"subject_id":"90158","group":"Group2","full_date":"2025-11-21T02:51:54.355Z","date":"2025-11-21","time":"02:51:54"},{"task":"memory_phase","broad_category":"S","image_png":"S_Sandstone_11.png","image_id":459,"category_name":"Sandstone","category":29,"distinct_rating":1.82,"distinct_type":"Bottom","rt":null,"stimulus":"Stimuli_Rocks480/S_Sandstone_11.png","response":null,"trial_type":"image-keyboard-response","trial_index":132,"plugin_version":"2.1.0","time_elapsed":743885,"subject_id":"90158","group":"Group2","full_date":"2025-11-21T02:51:54.355Z","date":"2025-11-21","time":"02:51:54"},{"rt":null,"stimulus":"<p style=\"font-size: 50px; margin: 0; text-align: center;\">+</p>","response":null,"trial_type":"html-keyboard-response","trial_index":133,"plugin_version":"2.1.0","time_elapsed":744888,"subject_id":"90158","group":"Group2","full_date":"2025-11-21T02:51:54.355Z","date":"2025-11-21","time":"02:51:54"},{"task":"memory_phase","broad_category":"I","image_png":"I_Basalt_10.png","image_id":26,"category_name":"Basalt","category":2,"distinct_rating":2.76,"distinct_type":"Bottom","rt":null,"stimulus":"Stimuli_Rocks480/I_Basalt_10.png","response":null,"trial_type":"image-keyboard-response","trial_index":134,"plugin_version":"2.1.0","time_elapsed":747392,"subject_id":"90158","group":"Group2","full_date":"2025-11-21T02:51:54.355Z","date":"2025-11-21","time":"02:51:54"},{"rt":null,"stimulus":"<p style=\"font-size: 50px; margin: 0; text-align: center;\">+</p>","response":null,"trial_type":"html-keyboard-response","trial_index":135,"plugin_version":"2.1.0","time_elapsed":748395,"subject_id":"90158","group":"Group2","full_date":"2025-11-21T02:51:54.355Z","date":"2025-11-21","time":"02:51:54"},{"task":"memory_phase","broad_category":"I","image_png":"I_Pegmatite_11.png","image_id":107,"category_name":"Pegmatite","category":7,"distinct_rating":7.11,"distinct_type":"Top","rt":null,"stimulus":"Stimuli_Rocks480/I_Pegmatite_11.png","response":null,"trial_type":"image-keyboard-response","trial_index":136,"plugin_version":"2.1.0","time_elapsed":750899,"subject_id":"90158","group":"Group2","full_date":"2025-11-21T02:51:54.355Z","date":"2025-11-21","time":"02:51:54"},{"rt":null,"stimulus":"<p style=\"font-size: 50px; margin: 0; text-align: center;\">+</p>","response":null,"trial_type":"html-keyboard-response","trial_index":137,"plugin_version":"2.1.0","time_elapsed":751902,"subject_id":"90158","group":"Group2","full_date":"2025-11-21T02:51:54.355Z","date":"2025-11-21","time":"02:51:54"},{"task":"memory_phase","broad_category":"I","image_png":"I_Diorite_10.png","image_id":42,"category_name":"Diorite","category":3,"distinct_rating":2.84,"distinct_type":"Bottom","rt":null,"stimulus":"Stimuli_Rocks480/I_Diorite_10.png","response":null,"trial_type":"image-keyboard-response","trial_index":138,"plugin_version":"2.1.0","time_elapsed":754406,"subject_id":"90158","group":"Group2","full_date":"2025-11-21T02:51:54.355Z","date":"2025-11-21","time":"02:51:54"},{"rt":null,"stimulus":"<p style=\"font-size: 50px; margin: 0; text-align: center;\">+</p>","response":null,"trial_type":"html-keyboard-response","trial_index":139,"plugin_version":"2.1.0","time_elapsed":755409,"subject_id":"90158","group":"Group2","full_date":"2025-11-21T02:51:54.355Z","date":"2025-11-21","time":"02:51:54"},{"task":"memory_phase","broad_category":"I","image_png":"I_Gabbro_02.png","image_id":50,"category_name":"Gabbro","category":4,"distinct_rating":2.73,"distinct_type":"Bottom","rt":null,"stimulus":"Stimuli_Rocks480/I_Gabbro_02.png","response":null,"trial_type":"image-keyboard-response","trial_index":140,"plugin_version":"2.1.0","time_elapsed":757912,"subject_id":"90158","group":"Group2","full_date":"2025-11-21T02:51:54.355Z","date":"2025-11-21","time":"02:51:54"},{"rt":null,"stimulus":"<p style=\"font-size: 50px; margin: 0; text-align: center;\">+</p>","response":null,"trial_type":"html-keyboard-response","trial_index":141,"plugin_version":"2.1.0","time_elapsed":758915,"subject_id":"90158","group":"Group2","full_date":"2025-11-21T02:51:54.355Z","date":"2025-11-21","time":"02:51:54"},{"task":"memory_phase","broad_category":"I","image_png":"I_Gabbro_12.png","image_id":60,"category_name":"Gabbro","category":4,"distinct_rating":2.6,"distinct_type":"Bottom","rt":null,"stimulus":"Stimuli_Rocks480/I_Gabbro_12.png","response":null,"trial_type":"image-keyboard-response","trial_index":142,"plugin_version":"2.1.0","time_elapsed":761424,"subject_id":"90158","group":"Group2","full_date":"2025-11-21T02:51:54.355Z","date":"2025-11-21","time":"02:51:54"},{"rt":null,"stimulus":"<p style=\"font-size: 50px; margin: 0; text-align: center;\">+</p>","response":null,"trial_type":"html-keyboard-response","trial_index":143,"plugin_version":"2.1.0","time_elapsed":762427,"subject_id":"90158","group":"Group2","full_date":"2025-11-21T02:51:54.355Z","date":"2025-11-21","time":"02:51:54"},{"task":"memory_phase","broad_category":"M","image_png":"M_Phyllite_13.png","image_id":269,"category_name":"Phyllite","category":17,"distinct_rating":2.8,"distinct_type":"Bottom","rt":null,"stimulus":"Stimuli_Rocks480/M_Phyllite_13.png","response":null,"trial_type":"image-keyboard-response","trial_index":144,"plugin_version":"2.1.0","time_elapsed":764931,"subject_id":"90158","group":"Group2","full_date":"2025-11-21T02:51:54.355Z","date":"2025-11-21","time":"02:51:54"},{"rt":null,"stimulus":"<p style=\"font-size: 50px; margin: 0; text-align: center;\">+</p>","response":null,"trial_type":"html-keyboard-response","trial_index":145,"plugin_version":"2.1.0","time_elapsed":765933,"subject_id":"90158","group":"Group2","full_date":"2025-11-21T02:51:54.355Z","date":"2025-11-21","time":"02:51:54"},{"task":"memory_phase","broad_category":"S","image_png":"S_Dolomite_07.png","image_id":391,"category_name":"Dolomite","category":25,"distinct_rating":1.73,"distinct_type":"Bottom","rt":null,"stimulus":"Stimuli_Rocks480/S_Dolomite_07.png","response":null,"trial_type":"image-keyboard-response","trial_index":146,"plugin_version":"2.1.0","time_elapsed":768437,"subject_id":"90158","group":"Group2","full_date":"2025-11-21T02:51:54.355Z","date":"2025-11-21","time":"02:51:54"},{"rt":null,"stimulus":"<p style=\"font-size: 50px; margin: 0; text-align: center;\">+</p>","response":null,"trial_type":"html-keyboard-response","trial_index":147,"plugin_version":"2.1.0","time_elapsed":769439,"subject_id":"90158","group":"Group2","full_date":"2025-11-21T02:51:54.355Z","date":"2025-11-21","time":"02:51:54"},{"task":"memory_phase","broad_category":"M","image_png":"M_Quartzite_15.png","image_id":287,"category_name":"Quartzite","category":18,"distinct_rating":2.19,"distinct_type":"Bottom","rt":null,"stimulus":"Stimuli_Rocks480/M_Quartzite_15.png","response":null,"trial_type":"image-keyboard-response","trial_index":148,"plugin_version":"2.1.0","time_elapsed":771943,"subject_id":"90158","group":"Group2","full_date":"2025-11-21T02:51:54.355Z","date":"2025-11-21","time":"02:51:54"},{"rt":null,"stimulus":"<p style=\"font-size: 50px; margin: 0; text-align: center;\">+</p>","response":null,"trial_type":"html-keyboard-response","trial_index":149,"plugin_version":"2.1.0","time_elapsed":772946,"subject_id":"90158","group":"Group2","full_date":"2025-11-21T02:51:54.355Z","date":"2025-11-21","time":"02:51:54"},{"task":"memory_phase","broad_category":"M","image_png":"M_Quartzite_07.png","image_id":279,"category_name":"Quartzite","category":18,"distinct_rating":1.97,"distinct_type":"Bottom","rt":null,"stimulus":"Stimuli_Rocks480/M_Quartzite_07.png","response":null,"trial_type":"image-keyboard-response","trial_index":150,"plugin_version":"2.1.0","time_elapsed":775449,"subject_id":"90158","group":"Group2","full_date":"2025-11-21T02:51:54.355Z","date":"2025-11-21","time":"02:51:54"},{"rt":null,"stimulus":"<p style=\"font-size: 50px; margin: 0; text-align: center;\">+</p>","response":null,"trial_type":"html-keyboard-response","trial_index":151,"plugin_version":"2.1.0","time_elapsed":776453,"subject_id":"90158","group":"Group2","full_date":"2025-11-21T02:51:54.355Z","date":"2025-11-21","time":"02:51:54"},{"task":"memory_phase","broad_category":"S","image_png":"S_Shale_03.png","image_id":467,"category_name":"Shale","category":30,"distinct_rating":1.95,"distinct_type":"Bottom","rt":null,"stimulus":"Stimuli_Rocks480/S_Shale_03.png","response":null,"trial_type":"image-keyboard-response","trial_index":152,"plugin_version":"2.1.0","time_elapsed":778956,"subject_id":"90158","group":"Group2","full_date":"2025-11-21T02:51:54.355Z","date":"2025-11-21","time":"02:51:54"},{"rt":null,"stimulus":"<p style=\"font-size: 50px; margin: 0; text-align: center;\">+</p>","response":null,"trial_type":"html-keyboard-response","trial_index":153,"plugin_version":"2.1.0","time_elapsed":779959,"subject_id":"90158","group":"Group2","full_date":"2025-11-21T02:51:54.355Z","date":"2025-11-21","time":"02:51:54"},{"task":"memory_phase","broad_category":"I","image_png":"I_Rhyolite_08.png","image_id":152,"category_name":"Rhyolite","category":10,"distinct_rating":1.38,"distinct_type":"Bottom","rt":null,"stimulus":"Stimuli_Rocks480/I_Rhyolite_08.png","response":null,"trial_type":"image-keyboard-response","trial_index":154,"plugin_version":"2.1.0","time_elapsed":782463,"subject_id":"90158","group":"Group2","full_date":"2025-11-21T02:51:54.355Z","date":"2025-11-21","time":"02:51:54"},{"rt":null,"stimulus":"<p style=\"font-size: 50px; margin: 0; text-align: center;\">+</p>","response":null,"trial_type":"html-keyboard-response","trial_index":155,"plugin_version":"2.1.0","time_elapsed":783466,"subject_id":"90158","group":"Group2","full_date":"2025-11-21T02:51:54.355Z","date":"2025-11-21","time":"02:51:54"},{"task":"memory_phase","broad_category":"S","image_png":"S_Dolomite_16.png","image_id":400,"category_name":"Dolomite","category":25,"distinct_rating":1.71,"distinct_type":"Bottom","rt":null,"stimulus":"Stimuli_Rocks480/S_Dolomite_16.png","response":null,"trial_type":"image-keyboard-response","trial_index":156,"plugin_version":"2.1.0","time_elapsed":785970,"subject_id":"90158","group":"Group2","full_date":"2025-11-21T02:51:54.355Z","date":"2025-11-21","time":"02:51:54"},{"rt":2421700,"stimulus":"<p style=\"max-width: 760px; margin: auto; font-size: 35px; line-height: 1.5;\">Press SPACE to continue study phase</p>","response":" ","trial_type":"html-keyboard-response","trial_index":157,"plugin_version":"2.1.0","time_elapsed":76092339,"subject_id":"90158","group":"Group2","full_date":"2025-11-21T02:51:54.355Z","date":"2025-11-21","time":"02:51:54"},{"rt":null,"stimulus":"<p style=\"font-size: 50px; margin: 0; text-align: center;\">+</p>","response":null,"trial_type":"html-keyboard-response","trial_index":158,"plugin_version":"2.1.0","time_elapsed":76093351,"subject_id":"90158","group":"Group2","full_date":"2025-11-21T02:51:54.355Z","date":"2025-11-21","time":"02:51:54"},{"task":"memory_phase","broad_category":"I","image_png":"I_Pumice_13.png","image_id":141,"category_name":"Pumice","category":9,"distinct_rating":3.12,"distinct_type":"Bottom","rt":null,"stimulus":"Stimuli_Rocks480/I_Pumice_13.png","response":null,"trial_type":"image-keyboard-response","trial_index":159,"plugin_version":"2.1.0","time_elapsed":76095863,"subject_id":"90158","group":"Group2","full_date":"2025-11-21T02:51:54.355Z","date":"2025-11-21","time":"02:51:54"},{"rt":null,"stimulus":"<p style=\"font-size: 50px; margin: 0; text-align: center;\">+</p>","response":null,"trial_type":"html-keyboard-response","trial_index":160,"plugin_version":"2.1.0","time_elapsed":76096866,"subject_id":"90158","group":"Group2","full_date":"2025-11-21T02:51:54.355Z","date":"2025-11-21","time":"02:51:54"},{"task":"memory_phase","broad_category":"S","image_png":"S_Sandstone_08.png","image_id":456,"category_name":"Sandstone","category":29,"distinct_rating":1.5,"distinct_type":"Bottom","rt":null,"stimulus":"Stimuli_Rocks480/S_Sandstone_08.png","response":null,"trial_type":"image-keyboard-response","trial_index":161,"plugin_version":"2.1.0","time_elapsed":76099370,"subject_id":"90158","group":"Group2","full_date":"2025-11-21T02:51:54.355Z","date":"2025-11-21","time":"02:51:54"},{"rt":null,"stimulus":"<p style=\"font-size: 50px; margin: 0; text-align: center;\">+</p>","response":null,"trial_type":"html-keyboard-response","trial_index":162,"plugin_version":"2.1.0","time_elapsed":76100373,"subject_id":"90158","group":"Group2","full_date":"2025-11-21T02:51:54.355Z","date":"2025-11-21","time":"02:51:54"},{"task":"memory_phase","broad_category":"I","image_png":"I_Andesite_09.png","image_id":9,"category_name":"Andesite","category":1,"distinct_rating":2.49,"distinct_type":"Bottom","rt":null,"stimulus":"Stimuli_Rocks480/I_Andesite_09.png","response":null,"trial_type":"image-keyboard-response","trial_index":163,"plugin_version":"2.1.0","time_elapsed":76102878,"subject_id":"90158","group":"Group2","full_date":"2025-11-21T02:51:54.355Z","date":"2025-11-21","time":"02:51:54"},{"rt":null,"stimulus":"<p style=\"font-size: 50px; margin: 0; text-align: center;\">+</p>","response":null,"trial_type":"html-keyboard-response","trial_index":164,"plugin_version":"2.1.0","time_elapsed":76103881,"subject_id":"90158","group":"Group2","full_date":"2025-11-21T02:51:54.355Z","date":"2025-11-21","time":"02:51:54"},{"task":"memory_phase","broad_category":"M","image_png":"M_Slate_14.png","image_id":318,"category_name":"Slate","category":20,"distinct_rating":2.58,"distinct_type":"Bottom","rt":null,"stimulus":"Stimuli_Rocks480/M_Slate_14.png","response":null,"trial_type":"image-keyboard-response","trial_index":165,"plugin_version":"2.1.0","time_elapsed":76106385,"subject_id":"90158","group":"Group2","full_date":"2025-11-21T02:51:54.355Z","date":"2025-11-21","time":"02:51:54"},{"rt":null,"stimulus":"<p style=\"font-size: 50px; margin: 0; text-align: center;\">+</p>","response":null,"trial_type":"html-keyboard-response","trial_index":166,"plugin_version":"2.1.0","time_elapsed":76107388,"subject_id":"90158","group":"Group2","full_date":"2025-11-21T02:51:54.355Z","date":"2025-11-21","time":"02:51:54"},{"task":"memory_phase","broad_category":"I","image_png":"I_Diorite_01.png","image_id":33,"category_name":"Diorite","category":3,"distinct_rating":2.97,"distinct_type":"Bottom","rt":null,"stimulus":"Stimuli_Rocks480/I_Diorite_01.png","response":null,"trial_type":"image-keyboard-response","trial_index":167,"plugin_version":"2.1.0","time_elapsed":76109893,"subject_id":"90158","group":"Group2","full_date":"2025-11-21T02:51:54.355Z","date":"2025-11-21","time":"02:51:54"},{"rt":null,"stimulus":"<p style=\"font-size: 50px; margin: 0; text-align: center;\">+</p>","response":null,"trial_type":"html-keyboard-response","trial_index":168,"plugin_version":"2.1.0","time_elapsed":76110897,"subject_id":"90158","group":"Group2","full_date":"2025-11-21T02:51:54.355Z","date":"2025-11-21","time":"02:51:54"},{"task":"memory_phase","broad_category":"I","image_png":"I_Basalt_13.png","image_id":29,"category_name":"Basalt","category":2,"distinct_rating":2.68,"distinct_type":"Bottom","rt":null,"stimulus":"Stimuli_Rocks480/I_Basalt_13.png","response":null,"trial_type":"image-keyboard-response","trial_index":169,"plugin_version":"2.1.0","time_elapsed":76113403,"subject_id":"90158","group":"Group2","full_date":"2025-11-21T02:51:54.355Z","date":"2025-11-21","time":"02:51:54"},{"rt":null,"stimulus":"<p style=\"font-size: 50px; margin: 0; text-align: center;\">+</p>","response":null,"trial_type":"html-keyboard-response","trial_index":170,"plugin_version":"2.1.0","time_elapsed":76114408,"subject_id":"90158","group":"Group2","full_date":"2025-11-21T02:51:54.355Z","date":"2025-11-21","time":"02:51:54"},{"task":"memory_phase","broad_category":"M","image_png":"M_Marble_14.png","image_id":238,"category_name":"Marble","category":15,"distinct_rating":3.31,"distinct_type":"Bottom","rt":null,"stimulus":"Stimuli_Rocks480/M_Marble_14.png","response":null,"trial_type":"image-keyboard-response","trial_index":171,"plugin_version":"2.1.0","time_elapsed":76116912,"subject_id":"90158","group":"Group2","full_date":"2025-11-21T02:51:54.355Z","date":"2025-11-21","time":"02:51:54"},{"rt":null,"stimulus":"<p style=\"font-size: 50px; margin: 0; text-align: center;\">+</p>","response":null,"trial_type":"html-keyboard-response","trial_index":172,"plugin_version":"2.1.0","time_elapsed":76117916,"subject_id":"90158","group":"Group2","full_date":"2025-11-21T02:51:54.355Z","date":"2025-11-21","time":"02:51:54"},{"task":"memory_phase","broad_category":"I","image_png":"I_Pegmatite_03.png","image_id":99,"category_name":"Pegmatite","category":7,"distinct_rating":7.24,"distinct_type":"Top","rt":null,"stimulus":"Stimuli_Rocks480/I_Pegmatite_03.png","response":null,"trial_type":"image-keyboard-response","trial_index":173,"plugin_version":"2.1.0","time_elapsed":76120420,"subject_id":"90158","group":"Group2","full_date":"2025-11-21T02:51:54.355Z","date":"2025-11-21","time":"02:51:54"},{"rt":null,"stimulus":"<p style=\"font-size: 50px; margin: 0; text-align: center;\">+</p>","response":null,"trial_type":"html-keyboard-response","trial_index":174,"plugin_version":"2.1.0","time_elapsed":76121424,"subject_id":"90158","group":"Group2","full_date":"2025-11-21T02:51:54.355Z","date":"2025-11-21","time":"02:51:54"},{"task":"memory_phase","broad_category":"I","image_png":"I_Peridotite_13.png","image_id":125,"category_name":"Peridotite","category":8,"distinct_rating":7.28,"distinct_type":"Top","rt":null,"stimulus":"Stimuli_Rocks480/I_Peridotite_13.png","response":null,"trial_type":"image-keyboard-response","trial_index":175,"plugin_version":"2.1.0","time_elapsed":76123929,"subject_id":"90158","group":"Group2","full_date":"2025-11-21T02:51:54.355Z","date":"2025-11-21","time":"02:51:54"},{"rt":null,"stimulus":"<p style=\"font-size: 50px; margin: 0; text-align: center;\">+</p>","response":null,"trial_type":"html-keyboard-response","trial_index":176,"plugin_version":"2.1.0","time_elapsed":76124933,"subject_id":"90158","group":"Group2","full_date":"2025-11-21T02:51:54.355Z","date":"2025-11-21","time":"02:51:54"},{"task":"memory_phase","broad_category":"M","image_png":"M_Quartzite_12.png","image_id":284,"category_name":"Quartzite","category":18,"distinct_rating":1.92,"distinct_type":"Bottom","rt":null,"stimulus":"Stimuli_Rocks480/M_Quartzite_12.png","response":null,"trial_type":"image-keyboard-response","trial_index":177,"plugin_version":"2.1.0","time_elapsed":76127438,"subject_id":"90158","group":"Group2","full_date":"2025-11-21T02:51:54.355Z","date":"2025-11-21","time":"02:51:54"},{"rt":null,"stimulus":"<p style=\"font-size: 50px; margin: 0; text-align: center;\">+</p>","response":null,"trial_type":"html-keyboard-response","trial_index":178,"plugin_version":"2.1.0","time_elapsed":76128441,"subject_id":"90158","group":"Group2","full_date":"2025-11-21T02:51:54.355Z","date":"2025-11-21","time":"02:51:54"},{"task":"memory_phase","broad_category":"S","image_png":"S_Dolomite_01.png","image_id":385,"category_name":"Dolomite","category":25,"distinct_rating":1.43,"distinct_type":"Bottom","rt":null,"stimulus":"Stimuli_Rocks480/S_Dolomite_01.png","response":null,"trial_type":"image-keyboard-response","trial_index":179,"plugin_version":"2.1.0","time_elapsed":76130945,"subject_id":"90158","group":"Group2","full_date":"2025-11-21T02:51:54.355Z","date":"2025-11-21","time":"02:51:54"},{"rt":null,"stimulus":"<p style=\"font-size: 50px; margin: 0; text-align: center;\">+</p>","response":null,"trial_type":"html-keyboard-response","trial_index":180,"plugin_version":"2.1.0","time_elapsed":76131948,"subject_id":"90158","group":"Group2","full_date":"2025-11-21T02:51:54.355Z","date":"2025-11-21","time":"02:51:54"},{"task":"memory_phase","broad_category":"M","image_png":"M_Marble_02.png","image_id":226,"category_name":"Marble","category":15,"distinct_rating":3.2,"distinct_type":"Bottom","rt":null,"stimulus":"Stimuli_Rocks480/M_Marble_02.png","response":null,"trial_type":"image-keyboard-response","trial_index":181,"plugin_version":"2.1.0","time_elapsed":76134453,"subject_id":"90158","group":"Group2","full_date":"2025-11-21T02:51:54.355Z","date":"2025-11-21","time":"02:51:54"},{"rt":null,"stimulus":"<p style=\"font-size: 50px; margin: 0; text-align: center;\">+</p>","response":null,"trial_type":"html-keyboard-response","trial_index":182,"plugin_version":"2.1.0","time_elapsed":76135456,"subject_id":"90158","group":"Group2","full_date":"2025-11-21T02:51:54.355Z","date":"2025-11-21","time":"02:51:54"},{"task":"memory_phase","broad_category":"S","image_png":"S_Rock Salt_15.png","image_id":447,"category_name":"Rock Salt","category":28,"distinct_rating":7.79,"distinct_type":"Top","rt":null,"stimulus":"Stimuli_Rocks480/S_Rock Salt_15.png","response":null,"trial_type":"image-keyboard-response","trial_index":183,"plugin_version":"2.1.0","time_elapsed":76137960,"subject_id":"90158","group":"Group2","full_date":"2025-11-21T02:51:54.355Z","date":"2025-11-21","time":"02:51:54"},{"rt":null,"stimulus":"<p style=\"font-size: 50px; margin: 0; text-align: center;\">+</p>","response":null,"trial_type":"html-keyboard-response","trial_index":184,"plugin_version":"2.1.0","time_elapsed":76138962,"subject_id":"90158","group":"Group2","full_date":"2025-11-21T02:51:54.355Z","date":"2025-11-21","time":"02:51:54"},{"task":"memory_phase","broad_category":"I","image_png":"I_Rhyolite_10.png","image_id":154,"category_name":"Rhyolite","category":10,"distinct_rating":2.88,"distinct_type":"Bottom","rt":null,"stimulus":"Stimuli_Rocks480/I_Rhyolite_10.png","response":null,"trial_type":"image-keyboard-response","trial_index":185,"plugin_version":"2.1.0","time_elapsed":76141467,"subject_id":"90158","group":"Group2","full_date":"2025-11-21T02:51:54.355Z","date":"2025-11-21","time":"02:51:54"},{"rt":null,"stimulus":"<p style=\"font-size: 50px; margin: 0; text-align: center;\">+</p>","response":null,"trial_type":"html-keyboard-response","trial_index":186,"plugin_version":"2.1.0","time_elapsed":76142469,"subject_id":"90158","group":"Group2","full_date":"2025-11-21T02:51:54.355Z","date":"2025-11-21","time":"02:51:54"},{"task":"memory_phase","broad_category":"I","image_png":"I_Pumice_01.png","image_id":129,"category_name":"Pumice","category":9,"distinct_rating":3.25,"distinct_type":"Bottom","rt":null,"stimulus":"Stimuli_Rocks480/I_Pumice_01.png","response":null,"trial_type":"image-keyboard-response","trial_index":187,"plugin_version":"2.1.0","time_elapsed":76144973,"subject_id":"90158","group":"Group2","full_date":"2025-11-21T02:51:54.355Z","date":"2025-11-21","time":"02:51:54"},{"rt":null,"stimulus":"<p style=\"font-size: 50px; margin: 0; text-align: center;\">+</p>","response":null,"trial_type":"html-keyboard-response","trial_index":188,"plugin_version":"2.1.0","time_elapsed":76145975,"subject_id":"90158","group":"Group2","full_date":"2025-11-21T02:51:54.355Z","date":"2025-11-21","time":"02:51:54"},{"task":"memory_phase","broad_category":"S","image_png":"S_Chert_13.png","image_id":365,"category_name":"Chert","category":23,"distinct_rating":6.57,"distinct_type":"Top","rt":null,"stimulus":"Stimuli_Rocks480/S_Chert_13.png","response":null,"trial_type":"image-keyboard-response","trial_index":189,"plugin_version":"2.1.0","time_elapsed":76148479,"subject_id":"90158","group":"Group2","full_date":"2025-11-21T02:51:54.355Z","date":"2025-11-21","time":"02:51:54"},{"rt":null,"stimulus":"<p style=\"font-size: 50px; margin: 0; text-align: center;\">+</p>","response":null,"trial_type":"html-keyboard-response","trial_index":190,"plugin_version":"2.1.0","time_elapsed":76149482,"subject_id":"90158","group":"Group2","full_date":"2025-11-21T02:51:54.355Z","date":"2025-11-21","time":"02:51:54"},{"task":"memory_phase","broad_category":"S","image_png":"S_Sandstone_04.png","image_id":452,"category_name":"Sandstone","category":29,"distinct_rating":1.8,"distinct_type":"Bottom","rt":null,"stimulus":"Stimuli_Rocks480/S_Sandstone_04.png","response":null,"trial_type":"image-keyboard-response","trial_index":191,"plugin_version":"2.1.0","time_elapsed":76151985,"subject_id":"90158","group":"Group2","full_date":"2025-11-21T02:51:54.355Z","date":"2025-11-21","time":"02:51:54"},{"rt":null,"stimulus":"<p style=\"font-size: 50px; margin: 0; text-align: center;\">+</p>","response":null,"trial_type":"html-keyboard-response","trial_index":192,"plugin_version":"2.1.0","time_elapsed":76152988,"subject_id":"90158","group":"Group2","full_date":"2025-11-21T02:51:54.355Z","date":"2025-11-21","time":"02:51:54"},{"task":"memory_phase","broad_category":"M","image_png":"M_Gneiss_14.png","image_id":206,"category_name":"Gneiss","category":13,"distinct_rating":3.41,"distinct_type":"Bottom","rt":null,"stimulus":"Stimuli_Rocks480/M_Gneiss_14.png","response":null,"trial_type":"image-keyboard-response","trial_index":193,"plugin_version":"2.1.0","time_elapsed":76155492,"subject_id":"90158","group":"Group2","full_date":"2025-11-21T02:51:54.355Z","date":"2025-11-21","time":"02:51:54"},{"rt":null,"stimulus":"<p style=\"font-size: 50px; margin: 0; text-align: center;\">+</p>","response":null,"trial_type":"html-keyboard-response","trial_index":194,"plugin_version":"2.1.0","time_elapsed":76156495,"subject_id":"90158","group":"Group2","full_date":"2025-11-21T02:51:54.355Z","date":"2025-11-21","time":"02:51:54"},{"task":"memory_phase","broad_category":"M","image_png":"M_Marble_03.png","image_id":227,"category_name":"Marble","category":15,"distinct_rating":2.67,"distinct_type":"Bottom","rt":null,"stimulus":"Stimuli_Rocks480/M_Marble_03.png","response":null,"trial_type":"image-keyboard-response","trial_index":195,"plugin_version":"2.1.0","time_elapsed":76159000,"subject_id":"90158","group":"Group2","full_date":"2025-11-21T02:51:54.355Z","date":"2025-11-21","time":"02:51:54"},{"rt":null,"stimulus":"<p style=\"font-size: 50px; margin: 0; text-align: center;\">+</p>","response":null,"trial_type":"html-keyboard-response","trial_index":196,"plugin_version":"2.1.0","time_elapsed":76160004,"subject_id":"90158","group":"Group2","full_date":"2025-11-21T02:51:54.355Z","date":"2025-11-21","time":"02:51:54"},{"task":"memory_phase","broad_category":"M","image_png":"M_Slate_10.png","image_id":314,"category_name":"Slate","category":20,"distinct_rating":1.94,"distinct_type":"Bottom","rt":null,"stimulus":"Stimuli_Rocks480/M_Slate_10.png","response":null,"trial_type":"image-keyboard-response","trial_index":197,"plugin_version":"2.1.0","time_elapsed":76162508,"subject_id":"90158","group":"Group2","full_date":"2025-11-21T02:51:54.355Z","date":"2025-11-21","time":"02:51:54"},{"rt":null,"stimulus":"<p style=\"font-size: 50px; margin: 0; text-align: center;\">+</p>","response":null,"trial_type":"html-keyboard-response","trial_index":198,"plugin_version":"2.1.0","time_elapsed":76163511,"subject_id":"90158","group":"Group2","full_date":"2025-11-21T02:51:54.355Z","date":"2025-11-21","time":"02:51:54"},{"task":"memory_phase","broad_category":"M","image_png":"M_Phyllite_05.png","image_id":261,"category_name":"Phyllite","category":17,"distinct_rating":2.14,"distinct_type":"Bottom","rt":null,"stimulus":"Stimuli_Rocks480/M_Phyllite_05.png","response":null,"trial_type":"image-keyboard-response","trial_index":199,"plugin_version":"2.1.0","time_elapsed":76166015,"subject_id":"90158","group":"Group2","full_date":"2025-11-21T02:51:54.355Z","date":"2025-11-21","time":"02:51:54"},{"rt":null,"stimulus":"<p style=\"font-size: 50px; margin: 0; text-align: center;\">+</p>","response":null,"trial_type":"html-keyboard-response","trial_index":200,"plugin_version":"2.1.0","time_elapsed":76167018,"subject_id":"90158","group":"Group2","full_date":"2025-11-21T02:51:54.355Z","date":"2025-11-21","time":"02:51:54"},{"task":"memory_phase","broad_category":"M","image_png":"M_Gneiss_10.png","image_id":202,"category_name":"Gneiss","category":13,"distinct_rating":3.09,"distinct_type":"Bottom","rt":null,"stimulus":"Stimuli_Rocks480/M_Gneiss_10.png","response":null,"trial_type":"image-keyboard-response","trial_index":201,"plugin_version":"2.1.0","time_elapsed":76169522,"subject_id":"90158","group":"Group2","full_date":"2025-11-21T02:51:54.355Z","date":"2025-11-21","time":"02:51:54"},{"rt":null,"stimulus":"<p style=\"font-size: 50px; margin: 0; text-align: center;\">+</p>","response":null,"trial_type":"html-keyboard-response","trial_index":202,"plugin_version":"2.1.0","time_elapsed":76170525,"subject_id":"90158","group":"Group2","full_date":"2025-11-21T02:51:54.355Z","date":"2025-11-21","time":"02:51:54"},{"task":"memory_phase","broad_category":"M","image_png":"M_Gneiss_15.png","image_id":207,"category_name":"Gneiss","category":13,"distinct_rating":3.11,"distinct_type":"Bottom","rt":null,"stimulus":"Stimuli_Rocks480/M_Gneiss_15.png","response":null,"trial_type":"image-keyboard-response","trial_index":203,"plugin_version":"2.1.0","time_elapsed":76173029,"subject_id":"90158","group":"Group2","full_date":"2025-11-21T02:51:54.355Z","date":"2025-11-21","time":"02:51:54"},{"rt":null,"stimulus":"<p style=\"font-size: 50px; margin: 0; text-align: center;\">+</p>","response":null,"trial_type":"html-keyboard-response","trial_index":204,"plugin_version":"2.1.0","time_elapsed":76174032,"subject_id":"90158","group":"Group2","full_date":"2025-11-21T02:51:54.355Z","date":"2025-11-21","time":"02:51:54"},{"task":"memory_phase","broad_category":"S","image_png":"S_Shale_02.png","image_id":466,"category_name":"Shale","category":30,"distinct_rating":2.9,"distinct_type":"Bottom","rt":null,"stimulus":"Stimuli_Rocks480/S_Shale_02.png","response":null,"trial_type":"image-keyboard-response","trial_index":205,"plugin_version":"2.1.0","time_elapsed":76176536,"subject_id":"90158","group":"Group2","full_date":"2025-11-21T02:51:54.355Z","date":"2025-11-21","time":"02:51:54"},{"rt":null,"stimulus":"<p style=\"font-size: 50px; margin: 0; text-align: center;\">+</p>","response":null,"trial_type":"html-keyboard-response","trial_index":206,"plugin_version":"2.1.0","time_elapsed":76177538,"subject_id":"90158","group":"Group2","full_date":"2025-11-21T02:51:54.355Z","date":"2025-11-21","time":"02:51:54"},{"task":"memory_phase","broad_category":"I","image_png":"I_Gabbro_14.png","image_id":62,"category_name":"Gabbro","category":4,"distinct_rating":2.95,"distinct_type":"Bottom","rt":null,"stimulus":"Stimuli_Rocks480/I_Gabbro_14.png","response":null,"trial_type":"image-keyboard-response","trial_index":207,"plugin_version":"2.1.0","time_elapsed":76180042,"subject_id":"90158","group":"Group2","full_date":"2025-11-21T02:51:54.355Z","date":"2025-11-21","time":"02:51:54"},{"rt":79551,"stimulus":"<p style=\"max-width: 760px; margin: auto; font-size: 35px; line-height: 1.5;\">You have completed 2 study phases. Now, we'll show you all the images again 1 more time.<br><br>Press SPACE to continue</p>","response":" ","trial_type":"html-keyboard-response","trial_index":208,"plugin_version":"2.1.0","time_elapsed":76259599,"subject_id":"90158","group":"Group2","full_date":"2025-11-21T02:51:54.355Z","date":"2025-11-21","time":"02:51:54"},{"rt":null,"stimulus":"<p style=\"font-size: 50px; margin: 0; text-align: center;\">+</p>","response":null,"trial_type":"html-keyboard-response","trial_index":209,"plugin_version":"2.1.0","time_elapsed":76260602,"subject_id":"90158","group":"Group2","full_date":"2025-11-21T02:51:54.355Z","date":"2025-11-21","time":"02:51:54"},{"task":"memory_phase","broad_category":"S","image_png":"S_Dolomite_01.png","image_id":385,"category_name":"Dolomite","category":25,"distinct_rating":1.43,"distinct_type":"Bottom","rt":null,"stimulus":"Stimuli_Rocks480/S_Dolomite_01.png","response":null,"trial_type":"image-keyboard-response","trial_index":210,"plugin_version":"2.1.0","time_elapsed":76263107,"subject_id":"90158","group":"Group2","full_date":"2025-11-21T02:51:54.355Z","date":"2025-11-21","time":"02:51:54"},{"rt":null,"stimulus":"<p style=\"font-size: 50px; margin: 0; text-align: center;\">+</p>","response":null,"trial_type":"html-keyboard-response","trial_index":211,"plugin_version":"2.1.0","time_elapsed":76264110,"subject_id":"90158","group":"Group2","full_date":"2025-11-21T02:51:54.355Z","date":"2025-11-21","time":"02:51:54"},{"task":"memory_phase","broad_category":"I","image_png":"I_Pumice_01.png","image_id":129,"category_name":"Pumice","category":9,"distinct_rating":3.25,"distinct_type":"Bottom","rt":null,"stimulus":"Stimuli_Rocks480/I_Pumice_01.png","response":null,"trial_type":"image-keyboard-response","trial_index":212,"plugin_version":"2.1.0","time_elapsed":76266614,"subject_id":"90158","group":"Group2","full_date":"2025-11-21T02:51:54.355Z","date":"2025-11-21","time":"02:51:54"},{"rt":null,"stimulus":"<p style=\"font-size: 50px; margin: 0; text-align: center;\">+</p>","response":null,"trial_type":"html-keyboard-response","trial_index":213,"plugin_version":"2.1.0","time_elapsed":76267617,"subject_id":"90158","group":"Group2","full_date":"2025-11-21T02:51:54.355Z","date":"2025-11-21","time":"02:51:54"},{"task":"memory_phase","broad_category":"M","image_png":"M_Slate_10.png","image_id":314,"category_name":"Slate","category":20,"distinct_rating":1.94,"distinct_type":"Bottom","rt":null,"stimulus":"Stimuli_Rocks480/M_Slate_10.png","response":null,"trial_type":"image-keyboard-response","trial_index":214,"plugin_version":"2.1.0","time_elapsed":76270122,"subject_id":"90158","group":"Group2","full_date":"2025-11-21T02:51:54.355Z","date":"2025-11-21","time":"02:51:54"},{"rt":null,"stimulus":"<p style=\"font-size: 50px; margin: 0; text-align: center;\">+</p>","response":null,"trial_type":"html-keyboard-response","trial_index":215,"plugin_version":"2.1.0","time_elapsed":76271125,"subject_id":"90158","group":"Group2","full_date":"2025-11-21T02:51:54.355Z","date":"2025-11-21","time":"02:51:54"},{"task":"memory_phase","broad_category":"M","image_png":"M_Quartzite_15.png","image_id":287,"category_name":"Quartzite","category":18,"distinct_rating":2.19,"distinct_type":"Bottom","rt":null,"stimulus":"Stimuli_Rocks480/M_Quartzite_15.png","response":null,"trial_type":"image-keyboard-response","trial_index":216,"plugin_version":"2.1.0","time_elapsed":76273629,"subject_id":"90158","group":"Group2","full_date":"2025-11-21T02:51:54.355Z","date":"2025-11-21","time":"02:51:54"},{"rt":null,"stimulus":"<p style=\"font-size: 50px; margin: 0; text-align: center;\">+</p>","response":null,"trial_type":"html-keyboard-response","trial_index":217,"plugin_version":"2.1.0","time_elapsed":76274631,"subject_id":"90158","group":"Group2","full_date":"2025-11-21T02:51:54.355Z","date":"2025-11-21","time":"02:51:54"},{"task":"memory_phase","broad_category":"I","image_png":"I_Rhyolite_08.png","image_id":152,"category_name":"Rhyolite","category":10,"distinct_rating":1.38,"distinct_type":"Bottom","rt":null,"stimulus":"Stimuli_Rocks480/I_Rhyolite_08.png","response":null,"trial_type":"image-keyboard-response","trial_index":218,"plugin_version":"2.1.0","time_elapsed":76277135,"subject_id":"90158","group":"Group2","full_date":"2025-11-21T02:51:54.355Z","date":"2025-11-21","time":"02:51:54"},{"rt":null,"stimulus":"<p style=\"font-size: 50px; margin: 0; text-align: center;\">+</p>","response":null,"trial_type":"html-keyboard-response","trial_index":219,"plugin_version":"2.1.0","time_elapsed":76278137,"subject_id":"90158","group":"Group2","full_date":"2025-11-21T02:51:54.355Z","date":"2025-11-21","time":"02:51:54"},{"task":"memory_phase","broad_category":"I","image_png":"I_Diorite_01.png","image_id":33,"category_name":"Diorite","category":3,"distinct_rating":2.97,"distinct_type":"Bottom","rt":null,"stimulus":"Stimuli_Rocks480/I_Diorite_01.png","response":null,"trial_type":"image-keyboard-response","trial_index":220,"plugin_version":"2.1.0","time_elapsed":76280642,"subject_id":"90158","group":"Group2","full_date":"2025-11-21T02:51:54.355Z","date":"2025-11-21","time":"02:51:54"},{"rt":null,"stimulus":"<p style=\"font-size: 50px; margin: 0; text-align: center;\">+</p>","response":null,"trial_type":"html-keyboard-response","trial_index":221,"plugin_version":"2.1.0","time_elapsed":76281644,"subject_id":"90158","group":"Group2","full_date":"2025-11-21T02:51:54.355Z","date":"2025-11-21","time":"02:51:54"},{"task":"memory_phase","broad_category":"S","image_png":"S_Dolomite_07.png","image_id":391,"category_name":"Dolomite","category":25,"distinct_rating":1.73,"distinct_type":"Bottom","rt":null,"stimulus":"Stimuli_Rocks480/S_Dolomite_07.png","response":null,"trial_type":"image-keyboard-response","trial_index":222,"plugin_version":"2.1.0","time_elapsed":76284149,"subject_id":"90158","group":"Group2","full_date":"2025-11-21T02:51:54.355Z","date":"2025-11-21","time":"02:51:54"},{"rt":null,"stimulus":"<p style=\"font-size: 50px; margin: 0; text-align: center;\">+</p>","response":null,"trial_type":"html-keyboard-response","trial_index":223,"plugin_version":"2.1.0","time_elapsed":76285152,"subject_id":"90158","group":"Group2","full_date":"2025-11-21T02:51:54.355Z","date":"2025-11-21","time":"02:51:54"},{"task":"memory_phase","broad_category":"I","image_png":"I_Peridotite_13.png","image_id":125,"category_name":"Peridotite","category":8,"distinct_rating":7.28,"distinct_type":"Top","rt":null,"stimulus":"Stimuli_Rocks480/I_Peridotite_13.png","response":null,"trial_type":"image-keyboard-response","trial_index":224,"plugin_version":"2.1.0","time_elapsed":76287656,"subject_id":"90158","group":"Group2","full_date":"2025-11-21T02:51:54.355Z","date":"2025-11-21","time":"02:51:54"},{"rt":null,"stimulus":"<p style=\"font-size: 50px; margin: 0; text-align: center;\">+</p>","response":null,"trial_type":"html-keyboard-response","trial_index":225,"plugin_version":"2.1.0","time_elapsed":76288659,"subject_id":"90158","group":"Group2","full_date":"2025-11-21T02:51:54.355Z","date":"2025-11-21","time":"02:51:54"},{"task":"memory_phase","broad_category":"I","image_png":"I_Andesite_03.png","image_id":3,"category_name":"Andesite","category":1,"distinct_rating":3.17,"distinct_type":"Bottom","rt":null,"stimulus":"Stimuli_Rocks480/I_Andesite_03.png","response":null,"trial_type":"image-keyboard-response","trial_index":226,"plugin_version":"2.1.0","time_elapsed":76291163,"subject_id":"90158","group":"Group2","full_date":"2025-11-21T02:51:54.355Z","date":"2025-11-21","time":"02:51:54"},{"rt":null,"stimulus":"<p style=\"font-size: 50px; margin: 0; text-align: center;\">+</p>","response":null,"trial_type":"html-keyboard-response","trial_index":227,"plugin_version":"2.1.0","time_elapsed":76292166,"subject_id":"90158","group":"Group2","full_date":"2025-11-21T02:51:54.355Z","date":"2025-11-21","time":"02:51:54"},{"task":"memory_phase","broad_category":"I","image_png":"I_Gabbro_12.png","image_id":60,"category_name":"Gabbro","category":4,"distinct_rating":2.6,"distinct_type":"Bottom","rt":null,"stimulus":"Stimuli_Rocks480/I_Gabbro_12.png","response":null,"trial_type":"image-keyboard-response","trial_index":228,"plugin_version":"2.1.0","time_elapsed":76294670,"subject_id":"90158","group":"Group2","full_date":"2025-11-21T02:51:54.355Z","date":"2025-11-21","time":"02:51:54"},{"rt":null,"stimulus":"<p style=\"font-size: 50px; margin: 0; text-align: center;\">+</p>","response":null,"trial_type":"html-keyboard-response","trial_index":229,"plugin_version":"2.1.0","time_elapsed":76295673,"subject_id":"90158","group":"Group2","full_date":"2025-11-21T02:51:54.355Z","date":"2025-11-21","time":"02:51:54"},{"task":"memory_phase","broad_category":"M","image_png":"M_Slate_14.png","image_id":318,"category_name":"Slate","category":20,"distinct_rating":2.58,"distinct_type":"Bottom","rt":null,"stimulus":"Stimuli_Rocks480/M_Slate_14.png","response":null,"trial_type":"image-keyboard-response","trial_index":230,"plugin_version":"2.1.0","time_elapsed":76298177,"subject_id":"90158","group":"Group2","full_date":"2025-11-21T02:51:54.355Z","date":"2025-11-21","time":"02:51:54"},{"rt":null,"stimulus":"<p style=\"font-size: 50px; margin: 0; text-align: center;\">+</p>","response":null,"trial_type":"html-keyboard-response","trial_index":231,"plugin_version":"2.1.0","time_elapsed":76299180,"subject_id":"90158","group":"Group2","full_date":"2025-11-21T02:51:54.355Z","date":"2025-11-21","time":"02:51:54"},{"task":"memory_phase","broad_category":"M","image_png":"M_Marble_14.png","image_id":238,"category_name":"Marble","category":15,"distinct_rating":3.31,"distinct_type":"Bottom","rt":null,"stimulus":"Stimuli_Rocks480/M_Marble_14.png","response":null,"trial_type":"image-keyboard-response","trial_index":232,"plugin_version":"2.1.0","time_elapsed":76301685,"subject_id":"90158","group":"Group2","full_date":"2025-11-21T02:51:54.355Z","date":"2025-11-21","time":"02:51:54"},{"rt":null,"stimulus":"<p style=\"font-size: 50px; margin: 0; text-align: center;\">+</p>","response":null,"trial_type":"html-keyboard-response","trial_index":233,"plugin_version":"2.1.0","time_elapsed":76302687,"subject_id":"90158","group":"Group2","full_date":"2025-11-21T02:51:54.355Z","date":"2025-11-21","time":"02:51:54"},{"task":"memory_phase","broad_category":"M","image_png":"M_Gneiss_14.png","image_id":206,"category_name":"Gneiss","category":13,"distinct_rating":3.41,"distinct_type":"Bottom","rt":null,"stimulus":"Stimuli_Rocks480/M_Gneiss_14.png","response":null,"trial_type":"image-keyboard-response","trial_index":234,"plugin_version":"2.1.0","time_elapsed":76305191,"subject_id":"90158","group":"Group2","full_date":"2025-11-21T02:51:54.355Z","date":"2025-11-21","time":"02:51:54"},{"rt":null,"stimulus":"<p style=\"font-size: 50px; margin: 0; text-align: center;\">+</p>","response":null,"trial_type":"html-keyboard-response","trial_index":235,"plugin_version":"2.1.0","time_elapsed":76306195,"subject_id":"90158","group":"Group2","full_date":"2025-11-21T02:51:54.355Z","date":"2025-11-21","time":"02:51:54"},{"task":"memory_phase","broad_category":"I","image_png":"I_Rhyolite_05.png","image_id":149,"category_name":"Rhyolite","category":10,"distinct_rating":3.02,"distinct_type":"Bottom","rt":null,"stimulus":"Stimuli_Rocks480/I_Rhyolite_05.png","response":null,"trial_type":"image-keyboard-response","trial_index":236,"plugin_version":"2.1.0","time_elapsed":76308699,"subject_id":"90158","group":"Group2","full_date":"2025-11-21T02:51:54.355Z","date":"2025-11-21","time":"02:51:54"},{"rt":null,"stimulus":"<p style=\"font-size: 50px; margin: 0; text-align: center;\">+</p>","response":null,"trial_type":"html-keyboard-response","trial_index":237,"plugin_version":"2.1.0","time_elapsed":76309702,"subject_id":"90158","group":"Group2","full_date":"2025-11-21T02:51:54.355Z","date":"2025-11-21","time":"02:51:54"},{"task":"memory_phase","broad_category":"S","image_png":"S_Sandstone_11.png","image_id":459,"category_name":"Sandstone","category":29,"distinct_rating":1.82,"distinct_type":"Bottom","rt":null,"stimulus":"Stimuli_Rocks480/S_Sandstone_11.png","response":null,"trial_type":"image-keyboard-response","trial_index":238,"plugin_version":"2.1.0","time_elapsed":76312206,"subject_id":"90158","group":"Group2","full_date":"2025-11-21T02:51:54.355Z","date":"2025-11-21","time":"02:51:54"},{"rt":null,"stimulus":"<p style=\"font-size: 50px; margin: 0; text-align: center;\">+</p>","response":null,"trial_type":"html-keyboard-response","trial_index":239,"plugin_version":"2.1.0","time_elapsed":76313209,"subject_id":"90158","group":"Group2","full_date":"2025-11-21T02:51:54.355Z","date":"2025-11-21","time":"02:51:54"},{"task":"memory_phase","broad_category":"I","image_png":"I_Obsidian_06.png","image_id":86,"category_name":"Obsidian","category":6,"distinct_rating":8.01,"distinct_type":"Top","rt":null,"stimulus":"Stimuli_Rocks480/I_Obsidian_06.png","response":null,"trial_type":"image-keyboard-response","trial_index":240,"plugin_version":"2.1.0","time_elapsed":76315713,"subject_id":"90158","group":"Group2","full_date":"2025-11-21T02:51:54.355Z","date":"2025-11-21","time":"02:51:54"},{"rt":null,"stimulus":"<p style=\"font-size: 50px; margin: 0; text-align: center;\">+</p>","response":null,"trial_type":"html-keyboard-response","trial_index":241,"plugin_version":"2.1.0","time_elapsed":76316716,"subject_id":"90158","group":"Group2","full_date":"2025-11-21T02:51:54.355Z","date":"2025-11-21","time":"02:51:54"},{"task":"memory_phase","broad_category":"S","image_png":"S_Shale_03.png","image_id":467,"category_name":"Shale","category":30,"distinct_rating":1.95,"distinct_type":"Bottom","rt":null,"stimulus":"Stimuli_Rocks480/S_Shale_03.png","response":null,"trial_type":"image-keyboard-response","trial_index":242,"plugin_version":"2.1.0","time_elapsed":76319220,"subject_id":"90158","group":"Group2","full_date":"2025-11-21T02:51:54.355Z","date":"2025-11-21","time":"02:51:54"},{"rt":null,"stimulus":"<p style=\"font-size: 50px; margin: 0; text-align: center;\">+</p>","response":null,"trial_type":"html-keyboard-response","trial_index":243,"plugin_version":"2.1.0","time_elapsed":76320223,"subject_id":"90158","group":"Group2","full_date":"2025-11-21T02:51:54.355Z","date":"2025-11-21","time":"02:51:54"},{"task":"memory_phase","broad_category":"M","image_png":"M_Quartzite_07.png","image_id":279,"category_name":"Quartzite","category":18,"distinct_rating":1.97,"distinct_type":"Bottom","rt":null,"stimulus":"Stimuli_Rocks480/M_Quartzite_07.png","response":null,"trial_type":"image-keyboard-response","trial_index":244,"plugin_version":"2.1.0","time_elapsed":76322727,"subject_id":"90158","group":"Group2","full_date":"2025-11-21T02:51:54.355Z","date":"2025-11-21","time":"02:51:54"},{"rt":null,"stimulus":"<p style=\"font-size: 50px; margin: 0; text-align: center;\">+</p>","response":null,"trial_type":"html-keyboard-response","trial_index":245,"plugin_version":"2.1.0","time_elapsed":76323730,"subject_id":"90158","group":"Group2","full_date":"2025-11-21T02:51:54.355Z","date":"2025-11-21","time":"02:51:54"},{"task":"memory_phase","broad_category":"M","image_png":"M_Gneiss_10.png","image_id":202,"category_name":"Gneiss","category":13,"distinct_rating":3.09,"distinct_type":"Bottom","rt":null,"stimulus":"Stimuli_Rocks480/M_Gneiss_10.png","response":null,"trial_type":"image-keyboard-response","trial_index":246,"plugin_version":"2.1.0","time_elapsed":76326233,"subject_id":"90158","group":"Group2","full_date":"2025-11-21T02:51:54.355Z","date":"2025-11-21","time":"02:51:54"},{"rt":null,"stimulus":"<p style=\"font-size: 50px; margin: 0; text-align: center;\">+</p>","response":null,"trial_type":"html-keyboard-response","trial_index":247,"plugin_version":"2.1.0","time_elapsed":76327236,"subject_id":"90158","group":"Group2","full_date":"2025-11-21T02:51:54.355Z","date":"2025-11-21","time":"02:51:54"},{"task":"memory_phase","broad_category":"I","image_png":"I_Gabbro_14.png","image_id":62,"category_name":"Gabbro","category":4,"distinct_rating":2.95,"distinct_type":"Bottom","rt":null,"stimulus":"Sti