[{"width":1536,"height":695,"webaudio":true,"browser":"chrome","browser_version":"142.0.0","mobile":false,"os":"Windows 10","fullscreen":true,"vsync_rate":40.26,"webcam":true,"microphone":true,"trial_type":"browser-check","trial_index":0,"plugin_version":"2.1.0","time_elapsed":1521,"subject_id":"86333","group":"Group1","full_date":"2025-12-05T17:54:49.585Z","date":"2025-12-05","time":"17:54:49"},{"success":true,"timeout":false,"failed_images":[],"failed_audio":[],"failed_video":[],"trial_type":"preload","trial_index":1,"plugin_version":"2.1.0","time_elapsed":4210,"subject_id":"86333","group":"Group1","full_date":"2025-12-05T17:54:49.585Z","date":"2025-12-05","time":"17:54:49"},{"rt":8482,"url":"SONA_consent_memorability.html","trial_type":"external-html","trial_index":2,"plugin_version":"2.1.0","time_elapsed":12741,"subject_id":"86333","group":"Group1","full_date":"2025-12-05T17:54:49.585Z","date":"2025-12-05","time":"17:54:49"},{"success":true,"rt":2661,"trial_type":"fullscreen","trial_index":3,"plugin_version":"2.1.0","time_elapsed":16420,"subject_id":"86333","group":"Group1","full_date":"2025-12-05T17:54:49.585Z","date":"2025-12-05","time":"17:54:49"},{"rt":46545,"stimulus":"<div style=\"max-width: 760px; margin: auto; font-size: 20px; line-height: 1.5;\">\n      <h1 style=\"text-align:center; font-size: 30px;\">Instructions</h1>\n      <p>\n        Welcome to the study on <b>visual memory</b>. This experiment consists of <b>two phases</b>: \n        a <b>study phase</b> and a <b>test phase</b>.\n      </p>\n      <p>\n        In the study phase, you will see a series of rock images along with their category labels.\n        The images will appear one at a time.\n        <b>Your task</b> is to learn the categories to which the rock images belong \n        and to remember each image as accurately as possible.\n      </p> \n      <p>\n        Note that we will repeat the study phase <b>3 times</b>, \n        so you will have multiple opportunities to see and remember each image.\n      </p>\n      <p>\n        After the study phase, <b>your memory will be tested</b>. \n        Additional instructions for the test phase will be provided at that time.\n      </p>\n      <p>\n        If your computer has multiple <b>language settings</b> (e.g., English and another language),\n        please make sure it is set to English before starting.\n      </p>\n      <p>\n        You can track your progress using the <b>completion bar</b> at the top of the screen. \n        Please note that the bar will refresh when the test phase begins \n        to give you an accurate sense of your progress in both phases.\n      </p> \n      <p>\n        Press the button below when you are ready to begin.\n      </p>\n    </div>","response":0,"trial_type":"html-button-response","trial_index":4,"plugin_version":"2.1.0","time_elapsed":62966,"subject_id":"86333","group":"Group1","full_date":"2025-12-05T17:54:49.585Z","date":"2025-12-05","time":"17:54:49"},{"rt":null,"stimulus":"<p style=\"font-size: 50px; margin: 0; text-align: center;\">+</p>","response":null,"trial_type":"html-keyboard-response","trial_index":5,"plugin_version":"2.1.0","time_elapsed":63981,"subject_id":"86333","group":"Group1","full_date":"2025-12-05T17:54:49.585Z","date":"2025-12-05","time":"17:54:49"},{"task":"memory_phase","broad_category":"I","image_png":"I_Diorite_03.png","image_id":35,"category_name":"Diorite","category":3,"distinct_rating":3.14,"distinct_type":"Bottom","rt":null,"stimulus":"Stimuli_Rocks480/I_Diorite_03.png","response":null,"trial_type":"image-keyboard-response","trial_index":6,"plugin_version":"2.1.0","time_elapsed":66491,"subject_id":"86333","group":"Group1","full_date":"2025-12-05T17:54:49.585Z","date":"2025-12-05","time":"17:54:49"},{"rt":null,"stimulus":"<p style=\"font-size: 50px; margin: 0; text-align: center;\">+</p>","response":null,"trial_type":"html-keyboard-response","trial_index":7,"plugin_version":"2.1.0","time_elapsed":67506,"subject_id":"86333","group":"Group1","full_date":"2025-12-05T17:54:49.585Z","date":"2025-12-05","time":"17:54:49"},{"task":"memory_phase","broad_category":"M","image_png":"M_Slate_03.png","image_id":307,"category_name":"Slate","category":20,"distinct_rating":1.87,"distinct_type":"Bottom","rt":null,"stimulus":"Stimuli_Rocks480/M_Slate_03.png","response":null,"trial_type":"image-keyboard-response","trial_index":8,"plugin_version":"2.1.0","time_elapsed":70021,"subject_id":"86333","group":"Group1","full_date":"2025-12-05T17:54:49.585Z","date":"2025-12-05","time":"17:54:49"},{"rt":null,"stimulus":"<p style=\"font-size: 50px; margin: 0; text-align: center;\">+</p>","response":null,"trial_type":"html-keyboard-response","trial_index":9,"plugin_version":"2.1.0","time_elapsed":71035,"subject_id":"86333","group":"Group1","full_date":"2025-12-05T17:54:49.585Z","date":"2025-12-05","time":"17:54:49"},{"task":"memory_phase","broad_category":"I","image_png":"I_Diorite_05.png","image_id":37,"category_name":"Diorite","category":3,"distinct_rating":3.08,"distinct_type":"Bottom","rt":null,"stimulus":"Stimuli_Rocks480/I_Diorite_05.png","response":null,"trial_type":"image-keyboard-response","trial_index":10,"plugin_version":"2.1.0","time_elapsed":73552,"subject_id":"86333","group":"Group1","full_date":"2025-12-05T17:54:49.585Z","date":"2025-12-05","time":"17:54:49"},{"rt":null,"stimulus":"<p style=\"font-size: 50px; margin: 0; text-align: center;\">+</p>","response":null,"trial_type":"html-keyboard-response","trial_index":11,"plugin_version":"2.1.0","time_elapsed":74567,"subject_id":"86333","group":"Group1","full_date":"2025-12-05T17:54:49.585Z","date":"2025-12-05","time":"17:54:49"},{"task":"memory_phase","broad_category":"S","image_png":"S_Sandstone_15.png","image_id":463,"category_name":"Sandstone","category":29,"distinct_rating":2,"distinct_type":"Bottom","rt":null,"stimulus":"Stimuli_Rocks480/S_Sandstone_15.png","response":null,"trial_type":"image-keyboard-response","trial_index":12,"plugin_version":"2.1.0","time_elapsed":77073,"subject_id":"86333","group":"Group1","full_date":"2025-12-05T17:54:49.585Z","date":"2025-12-05","time":"17:54:49"},{"rt":null,"stimulus":"<p style=\"font-size: 50px; margin: 0; text-align: center;\">+</p>","response":null,"trial_type":"html-keyboard-response","trial_index":13,"plugin_version":"2.1.0","time_elapsed":78075,"subject_id":"86333","group":"Group1","full_date":"2025-12-05T17:54:49.585Z","date":"2025-12-05","time":"17:54:49"},{"task":"memory_phase","broad_category":"I","image_png":"I_Diorite_04.png","image_id":36,"category_name":"Diorite","category":3,"distinct_rating":2.98,"distinct_type":"Bottom","rt":null,"stimulus":"Stimuli_Rocks480/I_Diorite_04.png","response":null,"trial_type":"image-keyboard-response","trial_index":14,"plugin_version":"2.1.0","time_elapsed":80585,"subject_id":"86333","group":"Group1","full_date":"2025-12-05T17:54:49.585Z","date":"2025-12-05","time":"17:54:49"},{"rt":null,"stimulus":"<p style=\"font-size: 50px; margin: 0; text-align: center;\">+</p>","response":null,"trial_type":"html-keyboard-response","trial_index":15,"plugin_version":"2.1.0","time_elapsed":81591,"subject_id":"86333","group":"Group1","full_date":"2025-12-05T17:54:49.585Z","date":"2025-12-05","time":"17:54:49"},{"task":"memory_phase","broad_category":"M","image_png":"M_Gneiss_06.png","image_id":198,"category_name":"Gneiss","category":13,"distinct_rating":2.65,"distinct_type":"Bottom","rt":null,"stimulus":"Stimuli_Rocks480/M_Gneiss_06.png","response":null,"trial_type":"image-keyboard-response","trial_index":16,"plugin_version":"2.1.0","time_elapsed":84094,"subject_id":"86333","group":"Group1","full_date":"2025-12-05T17:54:49.585Z","date":"2025-12-05","time":"17:54:49"},{"rt":null,"stimulus":"<p style=\"font-size: 50px; margin: 0; text-align: center;\">+</p>","response":null,"trial_type":"html-keyboard-response","trial_index":17,"plugin_version":"2.1.0","time_elapsed":85097,"subject_id":"86333","group":"Group1","full_date":"2025-12-05T17:54:49.585Z","date":"2025-12-05","time":"17:54:49"},{"task":"memory_phase","broad_category":"I","image_png":"I_Basalt_09.png","image_id":25,"category_name":"Basalt","category":2,"distinct_rating":1.89,"distinct_type":"Bottom","rt":null,"stimulus":"Stimuli_Rocks480/I_Basalt_09.png","response":null,"trial_type":"image-keyboard-response","trial_index":18,"plugin_version":"2.1.0","time_elapsed":87604,"subject_id":"86333","group":"Group1","full_date":"2025-12-05T17:54:49.585Z","date":"2025-12-05","time":"17:54:49"},{"rt":null,"stimulus":"<p style=\"font-size: 50px; margin: 0; text-align: center;\">+</p>","response":null,"trial_type":"html-keyboard-response","trial_index":19,"plugin_version":"2.1.0","time_elapsed":88605,"subject_id":"86333","group":"Group1","full_date":"2025-12-05T17:54:49.585Z","date":"2025-12-05","time":"17:54:49"},{"task":"memory_phase","broad_category":"M","image_png":"M_Marble_16.png","image_id":240,"category_name":"Marble","category":15,"distinct_rating":2.57,"distinct_type":"Bottom","rt":null,"stimulus":"Stimuli_Rocks480/M_Marble_16.png","response":null,"trial_type":"image-keyboard-response","trial_index":20,"plugin_version":"2.1.0","time_elapsed":91122,"subject_id":"86333","group":"Group1","full_date":"2025-12-05T17:54:49.585Z","date":"2025-12-05","time":"17:54:49"},{"rt":null,"stimulus":"<p style=\"font-size: 50px; margin: 0; text-align: center;\">+</p>","response":null,"trial_type":"html-keyboard-response","trial_index":21,"plugin_version":"2.1.0","time_elapsed":92134,"subject_id":"86333","group":"Group1","full_date":"2025-12-05T17:54:49.585Z","date":"2025-12-05","time":"17:54:49"},{"task":"memory_phase","broad_category":"S","image_png":"S_Dolomite_12.png","image_id":396,"category_name":"Dolomite","category":25,"distinct_rating":1.85,"distinct_type":"Bottom","rt":null,"stimulus":"Stimuli_Rocks480/S_Dolomite_12.png","response":null,"trial_type":"image-keyboard-response","trial_index":22,"plugin_version":"2.1.0","time_elapsed":94641,"subject_id":"86333","group":"Group1","full_date":"2025-12-05T17:54:49.585Z","date":"2025-12-05","time":"17:54:49"},{"rt":null,"stimulus":"<p style=\"font-size: 50px; margin: 0; text-align: center;\">+</p>","response":null,"trial_type":"html-keyboard-response","trial_index":23,"plugin_version":"2.1.0","time_elapsed":95643,"subject_id":"86333","group":"Group1","full_date":"2025-12-05T17:54:49.585Z","date":"2025-12-05","time":"17:54:49"},{"task":"memory_phase","broad_category":"I","image_png":"I_Rhyolite_16.png","image_id":160,"category_name":"Rhyolite","category":10,"distinct_rating":2.19,"distinct_type":"Bottom","rt":null,"stimulus":"Stimuli_Rocks480/I_Rhyolite_16.png","response":null,"trial_type":"image-keyboard-response","trial_index":24,"plugin_version":"2.1.0","time_elapsed":98149,"subject_id":"86333","group":"Group1","full_date":"2025-12-05T17:54:49.585Z","date":"2025-12-05","time":"17:54:49"},{"rt":null,"stimulus":"<p style=\"font-size: 50px; margin: 0; text-align: center;\">+</p>","response":null,"trial_type":"html-keyboard-response","trial_index":25,"plugin_version":"2.1.0","time_elapsed":99164,"subject_id":"86333","group":"Group1","full_date":"2025-12-05T17:54:49.585Z","date":"2025-12-05","time":"17:54:49"},{"task":"memory_phase","broad_category":"M","image_png":"M_Marble_04.png","image_id":228,"category_name":"Marble","category":15,"distinct_rating":3.15,"distinct_type":"Bottom","rt":null,"stimulus":"Stimuli_Rocks480/M_Marble_04.png","response":null,"trial_type":"image-keyboard-response","trial_index":26,"plugin_version":"2.1.0","time_elapsed":101666,"subject_id":"86333","group":"Group1","full_date":"2025-12-05T17:54:49.585Z","date":"2025-12-05","time":"17:54:49"},{"rt":null,"stimulus":"<p style=\"font-size: 50px; margin: 0; text-align: center;\">+</p>","response":null,"trial_type":"html-keyboard-response","trial_index":27,"plugin_version":"2.1.0","time_elapsed":102671,"subject_id":"86333","group":"Group1","full_date":"2025-12-05T17:54:49.585Z","date":"2025-12-05","time":"17:54:49"},{"task":"memory_phase","broad_category":"S","image_png":"S_Sandstone_03.png","image_id":451,"category_name":"Sandstone","category":29,"distinct_rating":1.86,"distinct_type":"Bottom","rt":null,"stimulus":"Stimuli_Rocks480/S_Sandstone_03.png","response":null,"trial_type":"image-keyboard-response","trial_index":28,"plugin_version":"2.1.0","time_elapsed":105187,"subject_id":"86333","group":"Group1","full_date":"2025-12-05T17:54:49.585Z","date":"2025-12-05","time":"17:54:49"},{"rt":null,"stimulus":"<p style=\"font-size: 50px; margin: 0; text-align: center;\">+</p>","response":null,"trial_type":"html-keyboard-response","trial_index":29,"plugin_version":"2.1.0","time_elapsed":106200,"subject_id":"86333","group":"Group1","full_date":"2025-12-05T17:54:49.585Z","date":"2025-12-05","time":"17:54:49"},{"task":"memory_phase","broad_category":"I","image_png":"I_Gabbro_08.png","image_id":56,"category_name":"Gabbro","category":4,"distinct_rating":3.02,"distinct_type":"Bottom","rt":null,"stimulus":"Stimuli_Rocks480/I_Gabbro_08.png","response":null,"trial_type":"image-keyboard-response","trial_index":30,"plugin_version":"2.1.0","time_elapsed":108717,"subject_id":"86333","group":"Group1","full_date":"2025-12-05T17:54:49.585Z","date":"2025-12-05","time":"17:54:49"},{"rt":null,"stimulus":"<p style=\"font-size: 50px; margin: 0; text-align: center;\">+</p>","response":null,"trial_type":"html-keyboard-response","trial_index":31,"plugin_version":"2.1.0","time_elapsed":109721,"subject_id":"86333","group":"Group1","full_date":"2025-12-05T17:54:49.585Z","date":"2025-12-05","time":"17:54:49"},{"task":"memory_phase","broad_category":"S","image_png":"S_Shale_12.png","image_id":476,"category_name":"Shale","category":30,"distinct_rating":2.48,"distinct_type":"Bottom","rt":null,"stimulus":"Stimuli_Rocks480/S_Shale_12.png","response":null,"trial_type":"image-keyboard-response","trial_index":32,"plugin_version":"2.1.0","time_elapsed":112227,"subject_id":"86333","group":"Group1","full_date":"2025-12-05T17:54:49.585Z","date":"2025-12-05","time":"17:54:49"},{"rt":null,"stimulus":"<p style=\"font-size: 50px; margin: 0; text-align: center;\">+</p>","response":null,"trial_type":"html-keyboard-response","trial_index":33,"plugin_version":"2.1.0","time_elapsed":113242,"subject_id":"86333","group":"Group1","full_date":"2025-12-05T17:54:49.585Z","date":"2025-12-05","time":"17:54:49"},{"task":"memory_phase","broad_category":"M","image_png":"M_Quartzite_05.png","image_id":277,"category_name":"Quartzite","category":18,"distinct_rating":2.23,"distinct_type":"Bottom","rt":null,"stimulus":"Stimuli_Rocks480/M_Quartzite_05.png","response":null,"trial_type":"image-keyboard-response","trial_index":34,"plugin_version":"2.1.0","time_elapsed":115757,"subject_id":"86333","group":"Group1","full_date":"2025-12-05T17:54:49.585Z","date":"2025-12-05","time":"17:54:49"},{"rt":null,"stimulus":"<p style=\"font-size: 50px; margin: 0; text-align: center;\">+</p>","response":null,"trial_type":"html-keyboard-response","trial_index":35,"plugin_version":"2.1.0","time_elapsed":116759,"subject_id":"86333","group":"Group1","full_date":"2025-12-05T17:54:49.585Z","date":"2025-12-05","time":"17:54:49"},{"task":"memory_phase","broad_category":"I","image_png":"I_Gabbro_11.png","image_id":59,"category_name":"Gabbro","category":4,"distinct_rating":1.99,"distinct_type":"Bottom","rt":null,"stimulus":"Stimuli_Rocks480/I_Gabbro_11.png","response":null,"trial_type":"image-keyboard-response","trial_index":36,"plugin_version":"2.1.0","time_elapsed":119274,"subject_id":"86333","group":"Group1","full_date":"2025-12-05T17:54:49.585Z","date":"2025-12-05","time":"17:54:49"},{"rt":null,"stimulus":"<p style=\"font-size: 50px; margin: 0; text-align: center;\">+</p>","response":null,"trial_type":"html-keyboard-response","trial_index":37,"plugin_version":"2.1.0","time_elapsed":120276,"subject_id":"86333","group":"Group1","full_date":"2025-12-05T17:54:49.585Z","date":"2025-12-05","time":"17:54:49"},{"task":"memory_phase","broad_category":"M","image_png":"M_Quartzite_13.png","image_id":285,"category_name":"Quartzite","category":18,"distinct_rating":2.27,"distinct_type":"Bottom","rt":null,"stimulus":"Stimuli_Rocks480/M_Quartzite_13.png","response":null,"trial_type":"image-keyboard-response","trial_index":38,"plugin_version":"2.1.0","time_elapsed":122787,"subject_id":"86333","group":"Group1","full_date":"2025-12-05T17:54:49.585Z","date":"2025-12-05","time":"17:54:49"},{"rt":null,"stimulus":"<p style=\"font-size: 50px; margin: 0; text-align: center;\">+</p>","response":null,"trial_type":"html-keyboard-response","trial_index":39,"plugin_version":"2.1.0","time_elapsed":123802,"subject_id":"86333","group":"Group1","full_date":"2025-12-05T17:54:49.585Z","date":"2025-12-05","time":"17:54:49"},{"task":"memory_phase","broad_category":"M","image_png":"M_Gneiss_05.png","image_id":197,"category_name":"Gneiss","category":13,"distinct_rating":2.97,"distinct_type":"Bottom","rt":null,"stimulus":"Stimuli_Rocks480/M_Gneiss_05.png","response":null,"trial_type":"image-keyboard-response","trial_index":40,"plugin_version":"2.1.0","time_elapsed":126309,"subject_id":"86333","group":"Group1","full_date":"2025-12-05T17:54:49.585Z","date":"2025-12-05","time":"17:54:49"},{"rt":null,"stimulus":"<p style=\"font-size: 50px; margin: 0; text-align: center;\">+</p>","response":null,"trial_type":"html-keyboard-response","trial_index":41,"plugin_version":"2.1.0","time_elapsed":127312,"subject_id":"86333","group":"Group1","full_date":"2025-12-05T17:54:49.585Z","date":"2025-12-05","time":"17:54:49"},{"task":"memory_phase","broad_category":"S","image_png":"S_Rock Gypsum_04.png","image_id":420,"category_name":"Rock Gypsum","category":27,"distinct_rating":7.61,"distinct_type":"Top","rt":null,"stimulus":"Stimuli_Rocks480/S_Rock Gypsum_04.png","response":null,"trial_type":"image-keyboard-response","trial_index":42,"plugin_version":"2.1.0","time_elapsed":129823,"subject_id":"86333","group":"Group1","full_date":"2025-12-05T17:54:49.585Z","date":"2025-12-05","time":"17:54:49"},{"rt":null,"stimulus":"<p style=\"font-size: 50px; margin: 0; text-align: center;\">+</p>","response":null,"trial_type":"html-keyboard-response","trial_index":43,"plugin_version":"2.1.0","time_elapsed":130825,"subject_id":"86333","group":"Group1","full_date":"2025-12-05T17:54:49.585Z","date":"2025-12-05","time":"17:54:49"},{"task":"memory_phase","broad_category":"I","image_png":"I_Rhyolite_14.png","image_id":158,"category_name":"Rhyolite","category":10,"distinct_rating":2.59,"distinct_type":"Bottom","rt":null,"stimulus":"Stimuli_Rocks480/I_Rhyolite_14.png","response":null,"trial_type":"image-keyboard-response","trial_index":44,"plugin_version":"2.1.0","time_elapsed":133328,"subject_id":"86333","group":"Group1","full_date":"2025-12-05T17:54:49.585Z","date":"2025-12-05","time":"17:54:49"},{"rt":null,"stimulus":"<p style=\"font-size: 50px; margin: 0; text-align: center;\">+</p>","response":null,"trial_type":"html-keyboard-response","trial_index":45,"plugin_version":"2.1.0","time_elapsed":134345,"subject_id":"86333","group":"Group1","full_date":"2025-12-05T17:54:49.585Z","date":"2025-12-05","time":"17:54:49"},{"task":"memory_phase","broad_category":"M","image_png":"M_Phyllite_03.png","image_id":259,"category_name":"Phyllite","category":17,"distinct_rating":2.5,"distinct_type":"Bottom","rt":null,"stimulus":"Stimuli_Rocks480/M_Phyllite_03.png","response":null,"trial_type":"image-keyboard-response","trial_index":46,"plugin_version":"2.1.0","time_elapsed":136857,"subject_id":"86333","group":"Group1","full_date":"2025-12-05T17:54:49.585Z","date":"2025-12-05","time":"17:54:49"},{"rt":null,"stimulus":"<p style=\"font-size: 50px; margin: 0; text-align: center;\">+</p>","response":null,"trial_type":"html-keyboard-response","trial_index":47,"plugin_version":"2.1.0","time_elapsed":137871,"subject_id":"86333","group":"Group1","full_date":"2025-12-05T17:54:49.585Z","date":"2025-12-05","time":"17:54:49"},{"task":"memory_phase","broad_category":"I","image_png":"I_Pumice_11.png","image_id":139,"category_name":"Pumice","category":9,"distinct_rating":1.74,"distinct_type":"Bottom","rt":null,"stimulus":"Stimuli_Rocks480/I_Pumice_11.png","response":null,"trial_type":"image-keyboard-response","trial_index":48,"plugin_version":"2.1.0","time_elapsed":140375,"subject_id":"86333","group":"Group1","full_date":"2025-12-05T17:54:49.585Z","date":"2025-12-05","time":"17:54:49"},{"rt":null,"stimulus":"<p style=\"font-size: 50px; margin: 0; text-align: center;\">+</p>","response":null,"trial_type":"html-keyboard-response","trial_index":49,"plugin_version":"2.1.0","time_elapsed":141384,"subject_id":"86333","group":"Group1","full_date":"2025-12-05T17:54:49.585Z","date":"2025-12-05","time":"17:54:49"},{"task":"memory_phase","broad_category":"S","image_png":"S_Breccia_11.png","image_id":347,"category_name":"Breccia","category":22,"distinct_rating":6.7,"distinct_type":"Top","rt":null,"stimulus":"Stimuli_Rocks480/S_Breccia_11.png","response":null,"trial_type":"image-keyboard-response","trial_index":50,"plugin_version":"2.1.0","time_elapsed":143894,"subject_id":"86333","group":"Group1","full_date":"2025-12-05T17:54:49.585Z","date":"2025-12-05","time":"17:54:49"},{"rt":null,"stimulus":"<p style=\"font-size: 50px; margin: 0; text-align: center;\">+</p>","response":null,"trial_type":"html-keyboard-response","trial_index":51,"plugin_version":"2.1.0","time_elapsed":144904,"subject_id":"86333","group":"Group1","full_date":"2025-12-05T17:54:49.585Z","date":"2025-12-05","time":"17:54:49"},{"task":"memory_phase","broad_category":"S","image_png":"S_Chert_10.png","image_id":362,"category_name":"Chert","category":23,"distinct_rating":7.17,"distinct_type":"Top","rt":null,"stimulus":"Stimuli_Rocks480/S_Chert_10.png","response":null,"trial_type":"image-keyboard-response","trial_index":52,"plugin_version":"2.1.0","time_elapsed":147415,"subject_id":"86333","group":"Group1","full_date":"2025-12-05T17:54:49.585Z","date":"2025-12-05","time":"17:54:49"},{"rt":null,"stimulus":"<p style=\"font-size: 50px; margin: 0; text-align: center;\">+</p>","response":null,"trial_type":"html-keyboard-response","trial_index":53,"plugin_version":"2.1.0","time_elapsed":148424,"subject_id":"86333","group":"Group1","full_date":"2025-12-05T17:54:49.585Z","date":"2025-12-05","time":"17:54:49"},{"task":"memory_phase","broad_category":"I","image_png":"I_Basalt_01.png","image_id":17,"category_name":"Basalt","category":2,"distinct_rating":1.92,"distinct_type":"Bottom","rt":null,"stimulus":"Stimuli_Rocks480/I_Basalt_01.png","response":null,"trial_type":"image-keyboard-response","trial_index":54,"plugin_version":"2.1.0","time_elapsed":150939,"subject_id":"86333","group":"Group1","full_date":"2025-12-05T17:54:49.585Z","date":"2025-12-05","time":"17:54:49"},{"rt":5282,"stimulus":"<p style=\"max-width: 760px; margin: auto; font-size: 35px; line-height: 1.5;\">Press SPACE to continue study phase</p>","response":" ","trial_type":"html-keyboard-response","trial_index":55,"plugin_version":"2.1.0","time_elapsed":156222,"subject_id":"86333","group":"Group1","full_date":"2025-12-05T17:54:49.585Z","date":"2025-12-05","time":"17:54:49"},{"rt":null,"stimulus":"<p style=\"font-size: 50px; margin: 0; text-align: center;\">+</p>","response":null,"trial_type":"html-keyboard-response","trial_index":56,"plugin_version":"2.1.0","time_elapsed":157237,"subject_id":"86333","group":"Group1","full_date":"2025-12-05T17:54:49.585Z","date":"2025-12-05","time":"17:54:49"},{"task":"memory_phase","broad_category":"I","image_png":"I_Andesite_10.png","image_id":10,"category_name":"Andesite","category":1,"distinct_rating":3.15,"distinct_type":"Bottom","rt":null,"stimulus":"Stimuli_Rocks480/I_Andesite_10.png","response":null,"trial_type":"image-keyboard-response","trial_index":57,"plugin_version":"2.1.0","time_elapsed":159752,"subject_id":"86333","group":"Group1","full_date":"2025-12-05T17:54:49.585Z","date":"2025-12-05","time":"17:54:49"},{"rt":null,"stimulus":"<p style=\"font-size: 50px; margin: 0; text-align: center;\">+</p>","response":null,"trial_type":"html-keyboard-response","trial_index":58,"plugin_version":"2.1.0","time_elapsed":160756,"subject_id":"86333","group":"Group1","full_date":"2025-12-05T17:54:49.585Z","date":"2025-12-05","time":"17:54:49"},{"task":"memory_phase","broad_category":"I","image_png":"I_Obsidian_05.png","image_id":85,"category_name":"Obsidian","category":6,"distinct_rating":7.32,"distinct_type":"Top","rt":null,"stimulus":"Stimuli_Rocks480/I_Obsidian_05.png","response":null,"trial_type":"image-keyboard-response","trial_index":59,"plugin_version":"2.1.0","time_elapsed":163263,"subject_id":"86333","group":"Group1","full_date":"2025-12-05T17:54:49.585Z","date":"2025-12-05","time":"17:54:49"},{"rt":null,"stimulus":"<p style=\"font-size: 50px; margin: 0; text-align: center;\">+</p>","response":null,"trial_type":"html-keyboard-response","trial_index":60,"plugin_version":"2.1.0","time_elapsed":164267,"subject_id":"86333","group":"Group1","full_date":"2025-12-05T17:54:49.585Z","date":"2025-12-05","time":"17:54:49"},{"task":"memory_phase","broad_category":"I","image_png":"I_Pegmatite_10.png","image_id":106,"category_name":"Pegmatite","category":7,"distinct_rating":7.66,"distinct_type":"Top","rt":null,"stimulus":"Stimuli_Rocks480/I_Pegmatite_10.png","response":null,"trial_type":"image-keyboard-response","trial_index":61,"plugin_version":"2.1.0","time_elapsed":166777,"subject_id":"86333","group":"Group1","full_date":"2025-12-05T17:54:49.585Z","date":"2025-12-05","time":"17:54:49"},{"rt":null,"stimulus":"<p style=\"font-size: 50px; margin: 0; text-align: center;\">+</p>","response":null,"trial_type":"html-keyboard-response","trial_index":62,"plugin_version":"2.1.0","time_elapsed":167787,"subject_id":"86333","group":"Group1","full_date":"2025-12-05T17:54:49.585Z","date":"2025-12-05","time":"17:54:49"},{"task":"memory_phase","broad_category":"S","image_png":"S_Sandstone_16.png","image_id":464,"category_name":"Sandstone","category":29,"distinct_rating":1.93,"distinct_type":"Bottom","rt":null,"stimulus":"Stimuli_Rocks480/S_Sandstone_16.png","response":null,"trial_type":"image-keyboard-response","trial_index":63,"plugin_version":"2.1.0","time_elapsed":170294,"subject_id":"86333","group":"Group1","full_date":"2025-12-05T17:54:49.585Z","date":"2025-12-05","time":"17:54:49"},{"rt":null,"stimulus":"<p style=\"font-size: 50px; margin: 0; text-align: center;\">+</p>","response":null,"trial_type":"html-keyboard-response","trial_index":64,"plugin_version":"2.1.0","time_elapsed":171302,"subject_id":"86333","group":"Group1","full_date":"2025-12-05T17:54:49.585Z","date":"2025-12-05","time":"17:54:49"},{"task":"memory_phase","broad_category":"S","image_png":"S_Conglomerate_05.png","image_id":373,"category_name":"Conglomerate","category":24,"distinct_rating":7.32,"distinct_type":"Top","rt":null,"stimulus":"Stimuli_Rocks480/S_Conglomerate_05.png","response":null,"trial_type":"image-keyboard-response","trial_index":65,"plugin_version":"2.1.0","time_elapsed":173817,"subject_id":"86333","group":"Group1","full_date":"2025-12-05T17:54:49.585Z","date":"2025-12-05","time":"17:54:49"},{"rt":null,"stimulus":"<p style=\"font-size: 50px; margin: 0; text-align: center;\">+</p>","response":null,"trial_type":"html-keyboard-response","trial_index":66,"plugin_version":"2.1.0","time_elapsed":174829,"subject_id":"86333","group":"Group1","full_date":"2025-12-05T17:54:49.585Z","date":"2025-12-05","time":"17:54:49"},{"task":"memory_phase","broad_category":"I","image_png":"I_Rhyolite_11.png","image_id":155,"category_name":"Rhyolite","category":10,"distinct_rating":1.73,"distinct_type":"Bottom","rt":null,"stimulus":"Stimuli_Rocks480/I_Rhyolite_11.png","response":null,"trial_type":"image-keyboard-response","trial_index":67,"plugin_version":"2.1.0","time_elapsed":177336,"subject_id":"86333","group":"Group1","full_date":"2025-12-05T17:54:49.585Z","date":"2025-12-05","time":"17:54:49"},{"rt":null,"stimulus":"<p style=\"font-size: 50px; margin: 0; text-align: center;\">+</p>","response":null,"trial_type":"html-keyboard-response","trial_index":68,"plugin_version":"2.1.0","time_elapsed":178344,"subject_id":"86333","group":"Group1","full_date":"2025-12-05T17:54:49.585Z","date":"2025-12-05","time":"17:54:49"},{"task":"memory_phase","broad_category":"I","image_png":"I_Pumice_12.png","image_id":140,"category_name":"Pumice","category":9,"distinct_rating":2.97,"distinct_type":"Bottom","rt":null,"stimulus":"Stimuli_Rocks480/I_Pumice_12.png","response":null,"trial_type":"image-keyboard-response","trial_index":69,"plugin_version":"2.1.0","time_elapsed":180852,"subject_id":"86333","group":"Group1","full_date":"2025-12-05T17:54:49.585Z","date":"2025-12-05","time":"17:54:49"},{"rt":null,"stimulus":"<p style=\"font-size: 50px; margin: 0; text-align: center;\">+</p>","response":null,"trial_type":"html-keyboard-response","trial_index":70,"plugin_version":"2.1.0","time_elapsed":181862,"subject_id":"86333","group":"Group1","full_date":"2025-12-05T17:54:49.585Z","date":"2025-12-05","time":"17:54:49"},{"task":"memory_phase","broad_category":"M","image_png":"M_Phyllite_07.png","image_id":263,"category_name":"Phyllite","category":17,"distinct_rating":2.59,"distinct_type":"Bottom","rt":null,"stimulus":"Stimuli_Rocks480/M_Phyllite_07.png","response":null,"trial_type":"image-keyboard-response","trial_index":71,"plugin_version":"2.1.0","time_elapsed":184372,"subject_id":"86333","group":"Group1","full_date":"2025-12-05T17:54:49.585Z","date":"2025-12-05","time":"17:54:49"},{"rt":null,"stimulus":"<p style=\"font-size: 50px; margin: 0; text-align: center;\">+</p>","response":null,"trial_type":"html-keyboard-response","trial_index":72,"plugin_version":"2.1.0","time_elapsed":185373,"subject_id":"86333","group":"Group1","full_date":"2025-12-05T17:54:49.585Z","date":"2025-12-05","time":"17:54:49"},{"task":"memory_phase","broad_category":"I","image_png":"I_Gabbro_16.png","image_id":64,"category_name":"Gabbro","category":4,"distinct_rating":2.52,"distinct_type":"Bottom","rt":null,"stimulus":"Stimuli_Rocks480/I_Gabbro_16.png","response":null,"trial_type":"image-keyboard-response","trial_index":73,"plugin_version":"2.1.0","time_elapsed":187877,"subject_id":"86333","group":"Group1","full_date":"2025-12-05T17:54:49.585Z","date":"2025-12-05","time":"17:54:49"},{"rt":null,"stimulus":"<p style=\"font-size: 50px; margin: 0; text-align: center;\">+</p>","response":null,"trial_type":"html-keyboard-response","trial_index":74,"plugin_version":"2.1.0","time_elapsed":188884,"subject_id":"86333","group":"Group1","full_date":"2025-12-05T17:54:49.585Z","date":"2025-12-05","time":"17:54:49"},{"task":"memory_phase","broad_category":"S","image_png":"S_Rock Salt_01.png","image_id":433,"category_name":"Rock Salt","category":28,"distinct_rating":7.18,"distinct_type":"Top","rt":null,"stimulus":"Stimuli_Rocks480/S_Rock Salt_01.png","response":null,"trial_type":"image-keyboard-response","trial_index":75,"plugin_version":"2.1.0","time_elapsed":191386,"subject_id":"86333","group":"Group1","full_date":"2025-12-05T17:54:49.585Z","date":"2025-12-05","time":"17:54:49"},{"rt":null,"stimulus":"<p style=\"font-size: 50px; margin: 0; text-align: center;\">+</p>","response":null,"trial_type":"html-keyboard-response","trial_index":76,"plugin_version":"2.1.0","time_elapsed":192401,"subject_id":"86333","group":"Group1","full_date":"2025-12-05T17:54:49.585Z","date":"2025-12-05","time":"17:54:49"},{"task":"memory_phase","broad_category":"I","image_png":"I_Andesite_06.png","image_id":6,"category_name":"Andesite","category":1,"distinct_rating":3.17,"distinct_type":"Bottom","rt":null,"stimulus":"Stimuli_Rocks480/I_Andesite_06.png","response":null,"trial_type":"image-keyboard-response","trial_index":77,"plugin_version":"2.1.0","time_elapsed":194902,"subject_id":"86333","group":"Group1","full_date":"2025-12-05T17:54:49.585Z","date":"2025-12-05","time":"17:54:49"},{"rt":null,"stimulus":"<p style=\"font-size: 50px; margin: 0; text-align: center;\">+</p>","response":null,"trial_type":"html-keyboard-response","trial_index":78,"plugin_version":"2.1.0","time_elapsed":195920,"subject_id":"86333","group":"Group1","full_date":"2025-12-05T17:54:49.585Z","date":"2025-12-05","time":"17:54:49"},{"task":"memory_phase","broad_category":"M","image_png":"M_Marble_06.png","image_id":230,"category_name":"Marble","category":15,"distinct_rating":3.4,"distinct_type":"Bottom","rt":null,"stimulus":"Stimuli_Rocks480/M_Marble_06.png","response":null,"trial_type":"image-keyboard-response","trial_index":79,"plugin_version":"2.1.0","time_elapsed":198427,"subject_id":"86333","group":"Group1","full_date":"2025-12-05T17:54:49.585Z","date":"2025-12-05","time":"17:54:49"},{"rt":null,"stimulus":"<p style=\"font-size: 50px; margin: 0; text-align: center;\">+</p>","response":null,"trial_type":"html-keyboard-response","trial_index":80,"plugin_version":"2.1.0","time_elapsed":199429,"subject_id":"86333","group":"Group1","full_date":"2025-12-05T17:54:49.585Z","date":"2025-12-05","time":"17:54:49"},{"task":"memory_phase","broad_category":"S","image_png":"S_Shale_01.png","image_id":465,"category_name":"Shale","category":30,"distinct_rating":2.7,"distinct_type":"Bottom","rt":null,"stimulus":"Stimuli_Rocks480/S_Shale_01.png","response":null,"trial_type":"image-keyboard-response","trial_index":81,"plugin_version":"2.1.0","time_elapsed":201937,"subject_id":"86333","group":"Group1","full_date":"2025-12-05T17:54:49.585Z","date":"2025-12-05","time":"17:54:49"},{"rt":null,"stimulus":"<p style=\"font-size: 50px; margin: 0; text-align: center;\">+</p>","response":null,"trial_type":"html-keyboard-response","trial_index":82,"plugin_version":"2.1.0","time_elapsed":202950,"subject_id":"86333","group":"Group1","full_date":"2025-12-05T17:54:49.585Z","date":"2025-12-05","time":"17:54:49"},{"task":"memory_phase","broad_category":"M","image_png":"M_Phyllite_10.png","image_id":266,"category_name":"Phyllite","category":17,"distinct_rating":2.6,"distinct_type":"Bottom","rt":null,"stimulus":"Stimuli_Rocks480/M_Phyllite_10.png","response":null,"trial_type":"image-keyboard-response","trial_index":83,"plugin_version":"2.1.0","time_elapsed":205452,"subject_id":"86333","group":"Group1","full_date":"2025-12-05T17:54:49.585Z","date":"2025-12-05","time":"17:54:49"},{"rt":null,"stimulus":"<p style=\"font-size: 50px; margin: 0; text-align: center;\">+</p>","response":null,"trial_type":"html-keyboard-response","trial_index":84,"plugin_version":"2.1.0","time_elapsed":206458,"subject_id":"86333","group":"Group1","full_date":"2025-12-05T17:54:49.585Z","date":"2025-12-05","time":"17:54:49"},{"task":"memory_phase","broad_category":"S","image_png":"S_Shale_08.png","image_id":472,"category_name":"Shale","category":30,"distinct_rating":2.55,"distinct_type":"Bottom","rt":null,"stimulus":"Stimuli_Rocks480/S_Shale_08.png","response":null,"trial_type":"image-keyboard-response","trial_index":85,"plugin_version":"2.1.0","time_elapsed":208973,"subject_id":"86333","group":"Group1","full_date":"2025-12-05T17:54:49.585Z","date":"2025-12-05","time":"17:54:49"},{"rt":null,"stimulus":"<p style=\"font-size: 50px; margin: 0; text-align: center;\">+</p>","response":null,"trial_type":"html-keyboard-response","trial_index":86,"plugin_version":"2.1.0","time_elapsed":209985,"subject_id":"86333","group":"Group1","full_date":"2025-12-05T17:54:49.585Z","date":"2025-12-05","time":"17:54:49"},{"task":"memory_phase","broad_category":"S","image_png":"S_Dolomite_14.png","image_id":398,"category_name":"Dolomite","category":25,"distinct_rating":1.43,"distinct_type":"Bottom","rt":null,"stimulus":"Stimuli_Rocks480/S_Dolomite_14.png","response":null,"trial_type":"image-keyboard-response","trial_index":87,"plugin_version":"2.1.0","time_elapsed":212493,"subject_id":"86333","group":"Group1","full_date":"2025-12-05T17:54:49.585Z","date":"2025-12-05","time":"17:54:49"},{"rt":null,"stimulus":"<p style=\"font-size: 50px; margin: 0; text-align: center;\">+</p>","response":null,"trial_type":"html-keyboard-response","trial_index":88,"plugin_version":"2.1.0","time_elapsed":213499,"subject_id":"86333","group":"Group1","full_date":"2025-12-05T17:54:49.585Z","date":"2025-12-05","time":"17:54:49"},{"task":"memory_phase","broad_category":"I","image_png":"I_Pegmatite_16.png","image_id":112,"category_name":"Pegmatite","category":7,"distinct_rating":7.03,"distinct_type":"Top","rt":null,"stimulus":"Stimuli_Rocks480/I_Pegmatite_16.png","response":null,"trial_type":"image-keyboard-response","trial_index":89,"plugin_version":"2.1.0","time_elapsed":216010,"subject_id":"86333","group":"Group1","full_date":"2025-12-05T17:54:49.585Z","date":"2025-12-05","time":"17:54:49"},{"rt":null,"stimulus":"<p style=\"font-size: 50px; margin: 0; text-align: center;\">+</p>","response":null,"trial_type":"html-keyboard-response","trial_index":90,"plugin_version":"2.1.0","time_elapsed":217023,"subject_id":"86333","group":"Group1","full_date":"2025-12-05T17:54:49.585Z","date":"2025-12-05","time":"17:54:49"},{"task":"memory_phase","broad_category":"I","image_png":"I_Basalt_02.png","image_id":18,"category_name":"Basalt","category":2,"distinct_rating":1.84,"distinct_type":"Bottom","rt":null,"stimulus":"Stimuli_Rocks480/I_Basalt_02.png","response":null,"trial_type":"image-keyboard-response","trial_index":91,"plugin_version":"2.1.0","time_elapsed":219532,"subject_id":"86333","group":"Group1","full_date":"2025-12-05T17:54:49.585Z","date":"2025-12-05","time":"17:54:49"},{"rt":null,"stimulus":"<p style=\"font-size: 50px; margin: 0; text-align: center;\">+</p>","response":null,"trial_type":"html-keyboard-response","trial_index":92,"plugin_version":"2.1.0","time_elapsed":220547,"subject_id":"86333","group":"Group1","full_date":"2025-12-05T17:54:49.585Z","date":"2025-12-05","time":"17:54:49"},{"task":"memory_phase","broad_category":"I","image_png":"I_Andesite_08.png","image_id":8,"category_name":"Andesite","category":1,"distinct_rating":1.95,"distinct_type":"Bottom","rt":null,"stimulus":"Stimuli_Rocks480/I_Andesite_08.png","response":null,"trial_type":"image-keyboard-response","trial_index":93,"plugin_version":"2.1.0","time_elapsed":223052,"subject_id":"86333","group":"Group1","full_date":"2025-12-05T17:54:49.585Z","date":"2025-12-05","time":"17:54:49"},{"rt":null,"stimulus":"<p style=\"font-size: 50px; margin: 0; text-align: center;\">+</p>","response":null,"trial_type":"html-keyboard-response","trial_index":94,"plugin_version":"2.1.0","time_elapsed":224054,"subject_id":"86333","group":"Group1","full_date":"2025-12-05T17:54:49.585Z","date":"2025-12-05","time":"17:54:49"},{"task":"memory_phase","broad_category":"M","image_png":"M_Quartzite_08.png","image_id":280,"category_name":"Quartzite","category":18,"distinct_rating":2.15,"distinct_type":"Bottom","rt":null,"stimulus":"Stimuli_Rocks480/M_Quartzite_08.png","response":null,"trial_type":"image-keyboard-response","trial_index":95,"plugin_version":"2.1.0","time_elapsed":226560,"subject_id":"86333","group":"Group1","full_date":"2025-12-05T17:54:49.585Z","date":"2025-12-05","time":"17:54:49"},{"rt":null,"stimulus":"<p style=\"font-size: 50px; margin: 0; text-align: center;\">+</p>","response":null,"trial_type":"html-keyboard-response","trial_index":96,"plugin_version":"2.1.0","time_elapsed":227568,"subject_id":"86333","group":"Group1","full_date":"2025-12-05T17:54:49.585Z","date":"2025-12-05","time":"17:54:49"},{"task":"memory_phase","broad_category":"M","image_png":"M_Slate_15.png","image_id":319,"category_name":"Slate","category":20,"distinct_rating":2.13,"distinct_type":"Bottom","rt":null,"stimulus":"Stimuli_Rocks480/M_Slate_15.png","response":null,"trial_type":"image-keyboard-response","trial_index":97,"plugin_version":"2.1.0","time_elapsed":230075,"subject_id":"86333","group":"Group1","full_date":"2025-12-05T17:54:49.585Z","date":"2025-12-05","time":"17:54:49"},{"rt":null,"stimulus":"<p style=\"font-size: 50px; margin: 0; text-align: center;\">+</p>","response":null,"trial_type":"html-keyboard-response","trial_index":98,"plugin_version":"2.1.0","time_elapsed":231078,"subject_id":"86333","group":"Group1","full_date":"2025-12-05T17:54:49.585Z","date":"2025-12-05","time":"17:54:49"},{"task":"memory_phase","broad_category":"I","image_png":"I_Pumice_08.png","image_id":136,"category_name":"Pumice","category":9,"distinct_rating":3.1,"distinct_type":"Bottom","rt":null,"stimulus":"Stimuli_Rocks480/I_Pumice_08.png","response":null,"trial_type":"image-keyboard-response","trial_index":99,"plugin_version":"2.1.0","time_elapsed":233590,"subject_id":"86333","group":"Group1","full_date":"2025-12-05T17:54:49.585Z","date":"2025-12-05","time":"17:54:49"},{"rt":null,"stimulus":"<p style=\"font-size: 50px; margin: 0; text-align: center;\">+</p>","response":null,"trial_type":"html-keyboard-response","trial_index":100,"plugin_version":"2.1.0","time_elapsed":234605,"subject_id":"86333","group":"Group1","full_date":"2025-12-05T17:54:49.585Z","date":"2025-12-05","time":"17:54:49"},{"task":"memory_phase","broad_category":"M","image_png":"M_Gneiss_13.png","image_id":205,"category_name":"Gneiss","category":13,"distinct_rating":3.26,"distinct_type":"Bottom","rt":null,"stimulus":"Stimuli_Rocks480/M_Gneiss_13.png","response":null,"trial_type":"image-keyboard-response","trial_index":101,"plugin_version":"2.1.0","time_elapsed":237121,"subject_id":"86333","group":"Group1","full_date":"2025-12-05T17:54:49.585Z","date":"2025-12-05","time":"17:54:49"},{"rt":null,"stimulus":"<p style=\"font-size: 50px; margin: 0; text-align: center;\">+</p>","response":null,"trial_type":"html-keyboard-response","trial_index":102,"plugin_version":"2.1.0","time_elapsed":238124,"subject_id":"86333","group":"Group1","full_date":"2025-12-05T17:54:49.585Z","date":"2025-12-05","time":"17:54:49"},{"task":"memory_phase","broad_category":"S","image_png":"S_Dolomite_13.png","image_id":397,"category_name":"Dolomite","category":25,"distinct_rating":1.77,"distinct_type":"Bottom","rt":null,"stimulus":"Stimuli_Rocks480/S_Dolomite_13.png","response":null,"trial_type":"image-keyboard-response","trial_index":103,"plugin_version":"2.1.0","time_elapsed":240636,"subject_id":"86333","group":"Group1","full_date":"2025-12-05T17:54:49.585Z","date":"2025-12-05","time":"17:54:49"},{"rt":null,"stimulus":"<p style=\"font-size: 50px; margin: 0; text-align: center;\">+</p>","response":null,"trial_type":"html-keyboard-response","trial_index":104,"plugin_version":"2.1.0","time_elapsed":241642,"subject_id":"86333","group":"Group1","full_date":"2025-12-05T17:54:49.585Z","date":"2025-12-05","time":"17:54:49"},{"task":"memory_phase","broad_category":"M","image_png":"M_Slate_11.png","image_id":315,"category_name":"Slate","category":20,"distinct_rating":2.75,"distinct_type":"Bottom","rt":null,"stimulus":"Stimuli_Rocks480/M_Slate_11.png","response":null,"trial_type":"image-keyboard-response","trial_index":105,"plugin_version":"2.1.0","time_elapsed":244149,"subject_id":"86333","group":"Group1","full_date":"2025-12-05T17:54:49.585Z","date":"2025-12-05","time":"17:54:49"},{"rt":6777,"stimulus":"<p style=\"max-width: 760px; margin: auto; font-size: 35px; line-height: 1.5;\">You have completed 1 study phase. Now, we'll show you all the images again 2 more times.<br><br>Press SPACE to continue</p>","response":" ","trial_type":"html-keyboard-response","trial_index":106,"plugin_version":"2.1.0","time_elapsed":250927,"subject_id":"86333","group":"Group1","full_date":"2025-12-05T17:54:49.585Z","date":"2025-12-05","time":"17:54:49"},{"rt":null,"stimulus":"<p style=\"font-size: 50px; margin: 0; text-align: center;\">+</p>","response":null,"trial_type":"html-keyboard-response","trial_index":107,"plugin_version":"2.1.0","time_elapsed":251939,"subject_id":"86333","group":"Group1","full_date":"2025-12-05T17:54:49.585Z","date":"2025-12-05","time":"17:54:49"},{"task":"memory_phase","broad_category":"M","image_png":"M_Gneiss_05.png","image_id":197,"category_name":"Gneiss","category":13,"distinct_rating":2.97,"distinct_type":"Bottom","rt":null,"stimulus":"Stimuli_Rocks480/M_Gneiss_05.png","response":null,"trial_type":"image-keyboard-response","trial_index":108,"plugin_version":"2.1.0","time_elapsed":254449,"subject_id":"86333","group":"Group1","full_date":"2025-12-05T17:54:49.585Z","date":"2025-12-05","time":"17:54:49"},{"rt":null,"stimulus":"<p style=\"font-size: 50px; margin: 0; text-align: center;\">+</p>","response":null,"trial_type":"html-keyboard-response","trial_index":109,"plugin_version":"2.1.0","time_elapsed":255460,"subject_id":"86333","group":"Group1","full_date":"2025-12-05T17:54:49.585Z","date":"2025-12-05","time":"17:54:49"},{"task":"memory_phase","broad_category":"I","image_png":"I_Gabbro_11.png","image_id":59,"category_name":"Gabbro","category":4,"distinct_rating":1.99,"distinct_type":"Bottom","rt":null,"stimulus":"Stimuli_Rocks480/I_Gabbro_11.png","response":null,"trial_type":"image-keyboard-response","trial_index":110,"plugin_version":"2.1.0","time_elapsed":257966,"subject_id":"86333","group":"Group1","full_date":"2025-12-05T17:54:49.585Z","date":"2025-12-05","time":"17:54:49"},{"rt":null,"stimulus":"<p style=\"font-size: 50px; margin: 0; text-align: center;\">+</p>","response":null,"trial_type":"html-keyboard-response","trial_index":111,"plugin_version":"2.1.0","time_elapsed":258970,"subject_id":"86333","group":"Group1","full_date":"2025-12-05T17:54:49.585Z","date":"2025-12-05","time":"17:54:49"},{"task":"memory_phase","broad_category":"I","image_png":"I_Basalt_09.png","image_id":25,"category_name":"Basalt","category":2,"distinct_rating":1.89,"distinct_type":"Bottom","rt":null,"stimulus":"Stimuli_Rocks480/I_Basalt_09.png","response":null,"trial_type":"image-keyboard-response","trial_index":112,"plugin_version":"2.1.0","time_elapsed":261473,"subject_id":"86333","group":"Group1","full_date":"2025-12-05T17:54:49.585Z","date":"2025-12-05","time":"17:54:49"},{"rt":null,"stimulus":"<p style=\"font-size: 50px; margin: 0; text-align: center;\">+</p>","response":null,"trial_type":"html-keyboard-response","trial_index":113,"plugin_version":"2.1.0","time_elapsed":262489,"subject_id":"86333","group":"Group1","full_date":"2025-12-05T17:54:49.585Z","date":"2025-12-05","time":"17:54:49"},{"task":"memory_phase","broad_category":"M","image_png":"M_Quartzite_08.png","image_id":280,"category_name":"Quartzite","category":18,"distinct_rating":2.15,"distinct_type":"Bottom","rt":null,"stimulus":"Stimuli_Rocks480/M_Quartzite_08.png","response":null,"trial_type":"image-keyboard-response","trial_index":114,"plugin_version":"2.1.0","time_elapsed":264995,"subject_id":"86333","group":"Group1","full_date":"2025-12-05T17:54:49.585Z","date":"2025-12-05","time":"17:54:49"},{"rt":null,"stimulus":"<p style=\"font-size: 50px; margin: 0; text-align: center;\">+</p>","response":null,"trial_type":"html-keyboard-response","trial_index":115,"plugin_version":"2.1.0","time_elapsed":266001,"subject_id":"86333","group":"Group1","full_date":"2025-12-05T17:54:49.585Z","date":"2025-12-05","time":"17:54:49"},{"task":"memory_phase","broad_category":"I","image_png":"I_Basalt_01.png","image_id":17,"category_name":"Basalt","category":2,"distinct_rating":1.92,"distinct_type":"Bottom","rt":null,"stimulus":"Stimuli_Rocks480/I_Basalt_01.png","response":null,"trial_type":"image-keyboard-response","trial_index":116,"plugin_version":"2.1.0","time_elapsed":268507,"subject_id":"86333","group":"Group1","full_date":"2025-12-05T17:54:49.585Z","date":"2025-12-05","time":"17:54:49"},{"rt":null,"stimulus":"<p style=\"font-size: 50px; margin: 0; text-align: center;\">+</p>","response":null,"trial_type":"html-keyboard-response","trial_index":117,"plugin_version":"2.1.0","time_elapsed":269512,"subject_id":"86333","group":"Group1","full_date":"2025-12-05T17:54:49.585Z","date":"2025-12-05","time":"17:54:49"},{"task":"memory_phase","broad_category":"S","image_png":"S_Rock Gypsum_04.png","image_id":420,"category_name":"Rock Gypsum","category":27,"distinct_rating":7.61,"distinct_type":"Top","rt":null,"stimulus":"Stimuli_Rocks480/S_Rock Gypsum_04.png","response":null,"trial_type":"image-keyboard-response","trial_index":118,"plugin_version":"2.1.0","time_elapsed":272020,"subject_id":"86333","group":"Group1","full_date":"2025-12-05T17:54:49.585Z","date":"2025-12-05","time":"17:54:49"},{"rt":null,"stimulus":"<p style=\"font-size: 50px; margin: 0; text-align: center;\">+</p>","response":null,"trial_type":"html-keyboard-response","trial_index":119,"plugin_version":"2.1.0","time_elapsed":273025,"subject_id":"86333","group":"Group1","full_date":"2025-12-05T17:54:49.585Z","date":"2025-12-05","time":"17:54:49"},{"task":"memory_phase","broad_category":"I","image_png":"I_Andesite_10.png","image_id":10,"category_name":"Andesite","category":1,"distinct_rating":3.15,"distinct_type":"Bottom","rt":null,"stimulus":"Stimuli_Rocks480/I_Andesite_10.png","response":null,"trial_type":"image-keyboard-response","trial_index":120,"plugin_version":"2.1.0","time_elapsed":275536,"subject_id":"86333","group":"Group1","full_date":"2025-12-05T17:54:49.585Z","date":"2025-12-05","time":"17:54:49"},{"rt":null,"stimulus":"<p style=\"font-size: 50px; margin: 0; text-align: center;\">+</p>","response":null,"trial_type":"html-keyboard-response","trial_index":121,"plugin_version":"2.1.0","time_elapsed":276543,"subject_id":"86333","group":"Group1","full_date":"2025-12-05T17:54:49.585Z","date":"2025-12-05","time":"17:54:49"},{"task":"memory_phase","broad_category":"M","image_png":"M_Marble_16.png","image_id":240,"category_name":"Marble","category":15,"distinct_rating":2.57,"distinct_type":"Bottom","rt":null,"stimulus":"Stimuli_Rocks480/M_Marble_16.png","response":null,"trial_type":"image-keyboard-response","trial_index":122,"plugin_version":"2.1.0","time_elapsed":279047,"subject_id":"86333","group":"Group1","full_date":"2025-12-05T17:54:49.585Z","date":"2025-12-05","time":"17:54:49"},{"rt":null,"stimulus":"<p style=\"font-size: 50px; margin: 0; text-align: center;\">+</p>","response":null,"trial_type":"html-keyboard-response","trial_index":123,"plugin_version":"2.1.0","time_elapsed":280053,"subject_id":"86333","group":"Group1","full_date":"2025-12-05T17:54:49.585Z","date":"2025-12-05","time":"17:54:49"},{"task":"memory_phase","broad_category":"I","image_png":"I_Pumice_11.png","image_id":139,"category_name":"Pumice","category":9,"distinct_rating":1.74,"distinct_type":"Bottom","rt":null,"stimulus":"Stimuli_Rocks480/I_Pumice_11.png","response":null,"trial_type":"image-keyboard-response","trial_index":124,"plugin_version":"2.1.0","time_elapsed":282562,"subject_id":"86333","group":"Group1","full_date":"2025-12-05T17:54:49.585Z","date":"2025-12-05","time":"17:54:49"},{"rt":null,"stimulus":"<p style=\"font-size: 50px; margin: 0; text-align: center;\">+</p>","response":null,"trial_type":"html-keyboard-response","trial_index":125,"plugin_version":"2.1.0","time_elapsed":283577,"subject_id":"86333","group":"Group1","full_date":"2025-12-05T17:54:49.585Z","date":"2025-12-05","time":"17:54:49"},{"task":"memory_phase","broad_category":"M","image_png":"M_Slate_03.png","image_id":307,"category_name":"Slate","category":20,"distinct_rating":1.87,"distinct_type":"Bottom","rt":null,"stimulus":"Stimuli_Rocks480/M_Slate_03.png","response":null,"trial_type":"image-keyboard-response","trial_index":126,"plugin_version":"2.1.0","time_elapsed":286095,"subject_id":"86333","group":"Group1","full_date":"2025-12-05T17:54:49.585Z","date":"2025-12-05","time":"17:54:49"},{"rt":null,"stimulus":"<p style=\"font-size: 50px; margin: 0; text-align: center;\">+</p>","response":null,"trial_type":"html-keyboard-response","trial_index":127,"plugin_version":"2.1.0","time_elapsed":287100,"subject_id":"86333","group":"Group1","full_date":"2025-12-05T17:54:49.585Z","date":"2025-12-05","time":"17:54:49"},{"task":"memory_phase","broad_category":"M","image_png":"M_Slate_11.png","image_id":315,"category_name":"Slate","category":20,"distinct_rating":2.75,"distinct_type":"Bottom","rt":null,"stimulus":"Stimuli_Rocks480/M_Slate_11.png","response":null,"trial_type":"image-keyboard-response","trial_index":128,"plugin_version":"2.1.0","time_elapsed":289601,"subject_id":"86333","group":"Group1","full_date":"2025-12-05T17:54:49.585Z","date":"2025-12-05","time":"17:54:49"},{"rt":null,"stimulus":"<p style=\"font-size: 50px; margin: 0; text-align: center;\">+</p>","response":null,"trial_type":"html-keyboard-response","trial_index":129,"plugin_version":"2.1.0","time_elapsed":290617,"subject_id":"86333","group":"Group1","full_date":"2025-12-05T17:54:49.585Z","date":"2025-12-05","time":"17:54:49"},{"task":"memory_phase","broad_category":"S","image_png":"S_Dolomite_12.png","image_id":396,"category_name":"Dolomite","category":25,"distinct_rating":1.85,"distinct_type":"Bottom","rt":null,"stimulus":"Stimuli_Rocks480/S_Dolomite_12.png","response":null,"trial_type":"image-keyboard-response","trial_index":130,"plugin_version":"2.1.0","time_elapsed":293133,"subject_id":"86333","group":"Group1","full_date":"2025-12-05T17:54:49.585Z","date":"2025-12-05","time":"17:54:49"},{"rt":null,"stimulus":"<p style=\"font-size: 50px; margin: 0; text-align: center;\">+</p>","response":null,"trial_type":"html-keyboard-response","trial_index":131,"plugin_version":"2.1.0","time_elapsed":294141,"subject_id":"86333","group":"Group1","full_date":"2025-12-05T17:54:49.585Z","date":"2025-12-05","time":"17:54:49"},{"task":"memory_phase","broad_category":"S","image_png":"S_Sandstone_03.png","image_id":451,"category_name":"Sandstone","category":29,"distinct_rating":1.86,"distinct_type":"Bottom","rt":null,"stimulus":"Stimuli_Rocks480/S_Sandstone_03.png","response":null,"trial_type":"image-keyboard-response","trial_index":132,"plugin_version":"2.1.0","time_elapsed":296651,"subject_id":"86333","group":"Group1","full_date":"2025-12-05T17:54:49.585Z","date":"2025-12-05","time":"17:54:49"},{"rt":null,"stimulus":"<p style=\"font-size: 50px; margin: 0; text-align: center;\">+</p>","response":null,"trial_type":"html-keyboard-response","trial_index":133,"plugin_version":"2.1.0","time_elapsed":297668,"subject_id":"86333","group":"Group1","full_date":"2025-12-05T17:54:49.585Z","date":"2025-12-05","time":"17:54:49"},{"task":"memory_phase","broad_category":"S","image_png":"S_Shale_08.png","image_id":472,"category_name":"Shale","category":30,"distinct_rating":2.55,"distinct_type":"Bottom","rt":null,"stimulus":"Stimuli_Rocks480/S_Shale_08.png","response":null,"trial_type":"image-keyboard-response","trial_index":134,"plugin_version":"2.1.0","time_elapsed":300180,"subject_id":"86333","group":"Group1","full_date":"2025-12-05T17:54:49.585Z","date":"2025-12-05","time":"17:54:49"},{"rt":null,"stimulus":"<p style=\"font-size: 50px; margin: 0; text-align: center;\">+</p>","response":null,"trial_type":"html-keyboard-response","trial_index":135,"plugin_version":"2.1.0","time_elapsed":301184,"subject_id":"86333","group":"Group1","full_date":"2025-12-05T17:54:49.585Z","date":"2025-12-05","time":"17:54:49"},{"task":"memory_phase","broad_category":"I","image_png":"I_Basalt_02.png","image_id":18,"category_name":"Basalt","category":2,"distinct_rating":1.84,"distinct_type":"Bottom","rt":null,"stimulus":"Stimuli_Rocks480/I_Basalt_02.png","response":null,"trial_type":"image-keyboard-response","trial_index":136,"plugin_version":"2.1.0","time_elapsed":303699,"subject_id":"86333","group":"Group1","full_date":"2025-12-05T17:54:49.585Z","date":"2025-12-05","time":"17:54:49"},{"rt":null,"stimulus":"<p style=\"font-size: 50px; margin: 0; text-align: center;\">+</p>","response":null,"trial_type":"html-keyboard-response","trial_index":137,"plugin_version":"2.1.0","time_elapsed":304700,"subject_id":"86333","group":"Group1","full_date":"2025-12-05T17:54:49.585Z","date":"2025-12-05","time":"17:54:49"},{"task":"memory_phase","broad_category":"M","image_png":"M_Marble_06.png","image_id":230,"category_name":"Marble","category":15,"distinct_rating":3.4,"distinct_type":"Bottom","rt":null,"stimulus":"Stimuli_Rocks480/M_Marble_06.png","response":null,"trial_type":"image-keyboard-response","trial_index":138,"plugin_version":"2.1.0","time_elapsed":307214,"subject_id":"86333","group":"Group1","full_date":"2025-12-05T17:54:49.585Z","date":"2025-12-05","time":"17:54:49"},{"rt":null,"stimulus":"<p style=\"font-size: 50px; margin: 0; text-align: center;\">+</p>","response":null,"trial_type":"html-keyboard-response","trial_index":139,"plugin_version":"2.1.0","time_elapsed":308217,"subject_id":"86333","group":"Group1","full_date":"2025-12-05T17:54:49.585Z","date":"2025-12-05","time":"17:54:49"},{"task":"memory_phase","broad_category":"M","image_png":"M_Quartzite_05.png","image_id":277,"category_name":"Quartzite","category":18,"distinct_rating":2.23,"distinct_type":"Bottom","rt":null,"stimulus":"Stimuli_Rocks480/M_Quartzite_05.png","response":null,"trial_type":"image-keyboard-response","trial_index":140,"plugin_version":"2.1.0","time_elapsed":310732,"subject_id":"86333","group":"Group1","full_date":"2025-12-05T17:54:49.585Z","date":"2025-12-05","time":"17:54:49"},{"rt":null,"stimulus":"<p style=\"font-size: 50px; margin: 0; text-align: center;\">+</p>","response":null,"trial_type":"html-keyboard-response","trial_index":141,"plugin_version":"2.1.0","time_elapsed":311736,"subject_id":"86333","group":"Group1","full_date":"2025-12-05T17:54:49.585Z","date":"2025-12-05","time":"17:54:49"},{"task":"memory_phase","broad_category":"M","image_png":"M_Gneiss_13.png","image_id":205,"category_name":"Gneiss","category":13,"distinct_rating":3.26,"distinct_type":"Bottom","rt":null,"stimulus":"Stimuli_Rocks480/M_Gneiss_13.png","response":null,"trial_type":"image-keyboard-response","trial_index":142,"plugin_version":"2.1.0","time_elapsed":314239,"subject_id":"86333","group":"Group1","full_date":"2025-12-05T17:54:49.585Z","date":"2025-12-05","time":"17:54:49"},{"rt":null,"stimulus":"<p style=\"font-size: 50px; margin: 0; text-align: center;\">+</p>","response":null,"trial_type":"html-keyboard-response","trial_index":143,"plugin_version":"2.1.0","time_elapsed":315243,"subject_id":"86333","group":"Group1","full_date":"2025-12-05T17:54:49.585Z","date":"2025-12-05","time":"17:54:49"},{"task":"memory_phase","broad_category":"M","image_png":"M_Phyllite_10.png","image_id":266,"category_name":"Phyllite","category":17,"distinct_rating":2.6,"distinct_type":"Bottom","rt":null,"stimulus":"Stimuli_Rocks480/M_Phyllite_10.png","response":null,"trial_type":"image-keyboard-response","trial_index":144,"plugin_version":"2.1.0","time_elapsed":317756,"subject_id":"86333","group":"Group1","full_date":"2025-12-05T17:54:49.585Z","date":"2025-12-05","time":"17:54:49"},{"rt":null,"stimulus":"<p style=\"font-size: 50px; margin: 0; text-align: center;\">+</p>","response":null,"trial_type":"html-keyboard-response","trial_index":145,"plugin_version":"2.1.0","time_elapsed":318759,"subject_id":"86333","group":"Group1","full_date":"2025-12-05T17:54:49.585Z","date":"2025-12-05","time":"17:54:49"},{"task":"memory_phase","broad_category":"I","image_png":"I_Diorite_04.png","image_id":36,"category_name":"Diorite","category":3,"distinct_rating":2.98,"distinct_type":"Bottom","rt":null,"stimulus":"Stimuli_Rocks480/I_Diorite_04.png","response":null,"trial_type":"image-keyboard-response","trial_index":146,"plugin_version":"2.1.0","time_elapsed":321263,"subject_id":"86333","group":"Group1","full_date":"2025-12-05T17:54:49.585Z","date":"2025-12-05","time":"17:54:49"},{"rt":null,"stimulus":"<p style=\"font-size: 50px; margin: 0; text-align: center;\">+</p>","response":null,"trial_type":"html-keyboard-response","trial_index":147,"plugin_version":"2.1.0","time_elapsed":322279,"subject_id":"86333","group":"Group1","full_date":"2025-12-05T17:54:49.585Z","date":"2025-12-05","time":"17:54:49"},{"task":"memory_phase","broad_category":"I","image_png":"I_Gabbro_16.png","image_id":64,"category_name":"Gabbro","category":4,"distinct_rating":2.52,"distinct_type":"Bottom","rt":null,"stimulus":"Stimuli_Rocks480/I_Gabbro_16.png","response":null,"trial_type":"image-keyboard-response","trial_index":148,"plugin_version":"2.1.0","time_elapsed":324784,"subject_id":"86333","group":"Group1","full_date":"2025-12-05T17:54:49.585Z","date":"2025-12-05","time":"17:54:49"},{"rt":null,"stimulus":"<p style=\"font-size: 50px; margin: 0; text-align: center;\">+</p>","response":null,"trial_type":"html-keyboard-response","trial_index":149,"plugin_version":"2.1.0","time_elapsed":325790,"subject_id":"86333","group":"Group1","full_date":"2025-12-05T17:54:49.585Z","date":"2025-12-05","time":"17:54:49"},{"task":"memory_phase","broad_category":"M","image_png":"M_Quartzite_13.png","image_id":285,"category_name":"Quartzite","category":18,"distinct_rating":2.27,"distinct_type":"Bottom","rt":null,"stimulus":"Stimuli_Rocks480/M_Quartzite_13.png","response":null,"trial_type":"image-keyboard-response","trial_index":150,"plugin_version":"2.1.0","time_elapsed":328306,"subject_id":"86333","group":"Group1","full_date":"2025-12-05T17:54:49.585Z","date":"2025-12-05","time":"17:54:49"},{"rt":null,"stimulus":"<p style=\"font-size: 50px; margin: 0; text-align: center;\">+</p>","response":null,"trial_type":"html-keyboard-response","trial_index":151,"plugin_version":"2.1.0","time_elapsed":329310,"subject_id":"86333","group":"Group1","full_date":"2025-12-05T17:54:49.585Z","date":"2025-12-05","time":"17:54:49"},{"task":"memory_phase","broad_category":"M","image_png":"M_Phyllite_07.png","image_id":263,"category_name":"Phyllite","category":17,"distinct_rating":2.59,"distinct_type":"Bottom","rt":null,"stimulus":"Stimuli_Rocks480/M_Phyllite_07.png","response":null,"trial_type":"image-keyboard-response","trial_index":152,"plugin_version":"2.1.0","time_elapsed":331823,"subject_id":"86333","group":"Group1","full_date":"2025-12-05T17:54:49.585Z","date":"2025-12-05","time":"17:54:49"},{"rt":null,"stimulus":"<p style=\"font-size: 50px; margin: 0; text-align: center;\">+</p>","response":null,"trial_type":"html-keyboard-response","trial_index":153,"plugin_version":"2.1.0","time_elapsed":332825,"subject_id":"86333","group":"Group1","full_date":"2025-12-05T17:54:49.585Z","date":"2025-12-05","time":"17:54:49"},{"task":"memory_phase","broad_category":"I","image_png":"I_Rhyolite_11.png","image_id":155,"category_name":"Rhyolite","category":10,"distinct_rating":1.73,"distinct_type":"Bottom","rt":null,"stimulus":"Stimuli_Rocks480/I_Rhyolite_11.png","response":null,"trial_type":"image-keyboard-response","trial_index":154,"plugin_version":"2.1.0","time_elapsed":335340,"subject_id":"86333","group":"Group1","full_date":"2025-12-05T17:54:49.585Z","date":"2025-12-05","time":"17:54:49"},{"rt":null,"stimulus":"<p style=\"font-size: 50px; margin: 0; text-align: center;\">+</p>","response":null,"trial_type":"html-keyboard-response","trial_index":155,"plugin_version":"2.1.0","time_elapsed":336352,"subject_id":"86333","group":"Group1","full_date":"2025-12-05T17:54:49.585Z","date":"2025-12-05","time":"17:54:49"},{"task":"memory_phase","broad_category":"S","image_png":"S_Dolomite_14.png","image_id":398,"category_name":"Dolomite","category":25,"distinct_rating":1.43,"distinct_type":"Bottom","rt":null,"stimulus":"Stimuli_Rocks480/S_Dolomite_14.png","response":null,"trial_type":"image-keyboard-response","trial_index":156,"plugin_version":"2.1.0","time_elapsed":338859,"subject_id":"86333","group":"Group1","full_date":"2025-12-05T17:54:49.585Z","date":"2025-12-05","time":"17:54:49"},{"rt":8343,"stimulus":"<p style=\"max-width: 760px; margin: auto; font-size: 35px; line-height: 1.5;\">Press SPACE to continue study phase</p>","response":" ","trial_type":"html-keyboard-response","trial_index":157,"plugin_version":"2.1.0","time_elapsed":347203,"subject_id":"86333","group":"Group1","full_date":"2025-12-05T17:54:49.585Z","date":"2025-12-05","time":"17:54:49"},{"rt":null,"stimulus":"<p style=\"font-size: 50px; margin: 0; text-align: center;\">+</p>","response":null,"trial_type":"html-keyboard-response","trial_index":158,"plugin_version":"2.1.0","time_elapsed":348218,"subject_id":"86333","group":"Group1","full_date":"2025-12-05T17:54:49.585Z","date":"2025-12-05","time":"17:54:49"},{"task":"memory_phase","broad_category":"I","image_png":"I_Rhyolite_16.png","image_id":160,"category_name":"Rhyolite","category":10,"distinct_rating":2.19,"distinct_type":"Bottom","rt":null,"stimulus":"Stimuli_Rocks480/I_Rhyolite_16.png","response":null,"trial_type":"image-keyboard-response","trial_index":159,"plugin_version":"2.1.0","time_elapsed":350734,"subject_id":"86333","group":"Group1","full_date":"2025-12-05T17:54:49.585Z","date":"2025-12-05","time":"17:54:49"},{"rt":null,"stimulus":"<p style=\"font-size: 50px; margin: 0; text-align: center;\">+</p>","response":null,"trial_type":"html-keyboard-response","trial_index":160,"plugin_version":"2.1.0","time_elapsed":351742,"subject_id":"86333","group":"Group1","full_date":"2025-12-05T17:54:49.585Z","date":"2025-12-05","time":"17:54:49"},{"task":"memory_phase","broad_category":"M","image_png":"M_Gneiss_06.png","image_id":198,"category_name":"Gneiss","category":13,"distinct_rating":2.65,"distinct_type":"Bottom","rt":null,"stimulus":"Stimuli_Rocks480/M_Gneiss_06.png","response":null,"trial_type":"image-keyboard-response","trial_index":161,"plugin_version":"2.1.0","time_elapsed":354258,"subject_id":"86333","group":"Group1","full_date":"2025-12-05T17:54:49.585Z","date":"2025-12-05","time":"17:54:49"},{"rt":null,"stimulus":"<p style=\"font-size: 50px; margin: 0; text-align: center;\">+</p>","response":null,"trial_type":"html-keyboard-response","trial_index":162,"plugin_version":"2.1.0","time_elapsed":355275,"subject_id":"86333","group":"Group1","full_date":"2025-12-05T17:54:49.585Z","date":"2025-12-05","time":"17:54:49"},{"task":"memory_phase","broad_category":"S","image_png":"S_Shale_01.png","image_id":465,"category_name":"Shale","category":30,"distinct_rating":2.7,"distinct_type":"Bottom","rt":null,"stimulus":"Stimuli_Rocks480/S_Shale_01.png","response":null,"trial_type":"image-keyboard-response","trial_index":163,"plugin_version":"2.1.0","time_elapsed":357782,"subject_id":"86333","group":"Group1","full_date":"2025-12-05T17:54:49.585Z","date":"2025-12-05","time":"17:54:49"},{"rt":null,"stimulus":"<p style=\"font-size: 50px; margin: 0; text-align: center;\">+</p>","response":null,"trial_type":"html-keyboard-response","trial_index":164,"plugin_version":"2.1.0","time_elapsed":358793,"subject_id":"86333","group":"Group1","full_date":"2025-12-05T17:54:49.585Z","date":"2025-12-05","time":"17:54:49"},{"task":"memory_phase","broad_category":"I","image_png":"I_Pegmatite_16.png","image_id":112,"category_name":"Pegmatite","category":7,"distinct_rating":7.03,"distinct_type":"Top","rt":null,"stimulus":"Stimuli_Rocks480/I_Pegmatite_16.png","response":null,"trial_type":"image-keyboard-response","trial_index":165,"plugin_version":"2.1.0","time_elapsed":361300,"subject_id":"86333","group":"Group1","full_date":"2025-12-05T17:54:49.585Z","date":"2025-12-05","time":"17:54:49"},{"rt":null,"stimulus":"<p style=\"font-size: 50px; margin: 0; text-align: center;\">+</p>","response":null,"trial_type":"html-keyboard-response","trial_index":166,"plugin_version":"2.1.0","time_elapsed":362314,"subject_id":"86333","group":"Group1","full_date":"2025-12-05T17:54:49.585Z","date":"2025-12-05","time":"17:54:49"},{"task":"memory_phase","broad_category":"S","image_png":"S_Sandstone_15.png","image_id":463,"category_name":"Sandstone","category":29,"distinct_rating":2,"distinct_type":"Bottom","rt":null,"stimulus":"Stimuli_Rocks480/S_Sandstone_15.png","response":null,"trial_type":"image-keyboard-response","trial_index":167,"plugin_version":"2.1.0","time_elapsed":364830,"subject_id":"86333","group":"Group1","full_date":"2025-12-05T17:54:49.585Z","date":"2025-12-05","time":"17:54:49"},{"rt":null,"stimulus":"<p style=\"font-size: 50px; margin: 0; text-align: center;\">+</p>","response":null,"trial_type":"html-keyboard-response","trial_index":168,"plugin_version":"2.1.0","time_elapsed":365841,"subject_id":"86333","group":"Group1","full_date":"2025-12-05T17:54:49.585Z","date":"2025-12-05","time":"17:54:49"},{"task":"memory_phase","broad_category":"S","image_png":"S_Dolomite_13.png","image_id":397,"category_name":"Dolomite","category":25,"distinct_rating":1.77,"distinct_type":"Bottom","rt":null,"stimulus":"Stimuli_Rocks480/S_Dolomite_13.png","response":null,"trial_type":"image-keyboard-response","trial_index":169,"plugin_version":"2.1.0","time_elapsed":368351,"subject_id":"86333","group":"Group1","full_date":"2025-12-05T17:54:49.585Z","date":"2025-12-05","time":"17:54:49"},{"rt":null,"stimulus":"<p style=\"font-size: 50px; margin: 0; text-align: center;\">+</p>","response":null,"trial_type":"html-keyboard-response","trial_index":170,"plugin_version":"2.1.0","time_elapsed":369365,"subject_id":"86333","group":"Group1","full_date":"2025-12-05T17:54:49.585Z","date":"2025-12-05","time":"17:54:49"},{"task":"memory_phase","broad_category":"I","image_png":"I_Pumice_12.png","image_id":140,"category_name":"Pumice","category":9,"distinct_rating":2.97,"distinct_type":"Bottom","rt":null,"stimulus":"Stimuli_Rocks480/I_Pumice_12.png","response":null,"trial_type":"image-keyboard-response","trial_index":171,"plugin_version":"2.1.0","time_elapsed":371873,"subject_id":"86333","group":"Group1","full_date":"2025-12-05T17:54:49.585Z","date":"2025-12-05","time":"17:54:49"},{"rt":null,"stimulus":"<p style=\"font-size: 50px; margin: 0; text-align: center;\">+</p>","response":null,"trial_type":"html-keyboard-response","trial_index":172,"plugin_version":"2.1.0","time_elapsed":372887,"subject_id":"86333","group":"Group1","full_date":"2025-12-05T17:54:49.585Z","date":"2025-12-05","time":"17:54:49"},{"task":"memory_phase","broad_category":"M","image_png":"M_Phyllite_03.png","image_id":259,"category_name":"Phyllite","category":17,"distinct_rating":2.5,"distinct_type":"Bottom","rt":null,"stimulus":"Stimuli_Rocks480/M_Phyllite_03.png","response":null,"trial_type":"image-keyboard-response","trial_index":173,"plugin_version":"2.1.0","time_elapsed":375399,"subject_id":"86333","group":"Group1","full_date":"2025-12-05T17:54:49.585Z","date":"2025-12-05","time":"17:54:49"},{"rt":null,"stimulus":"<p style=\"font-size: 50px; margin: 0; text-align: center;\">+</p>","response":null,"trial_type":"html-keyboard-response","trial_index":174,"plugin_version":"2.1.0","time_elapsed":376413,"subject_id":"86333","group":"Group1","full_date":"2025-12-05T17:54:49.585Z","date":"2025-12-05","time":"17:54:49"},{"task":"memory_phase","broad_category":"S","image_png":"S_Shale_12.png","image_id":476,"category_name":"Shale","category":30,"distinct_rating":2.48,"distinct_type":"Bottom","rt":null,"stimulus":"Stimuli_Rocks480/S_Shale_12.png","response":null,"trial_type":"image-keyboard-response","trial_index":175,"plugin_version":"2.1.0","time_elapsed":378929,"subject_id":"86333","group":"Group1","full_date":"2025-12-05T17:54:49.585Z","date":"2025-12-05","time":"17:54:49"},{"rt":null,"stimulus":"<p style=\"font-size: 50px; margin: 0; text-align: center;\">+</p>","response":null,"trial_type":"html-keyboard-response","trial_index":176,"plugin_version":"2.1.0","time_elapsed":379940,"subject_id":"86333","group":"Group1","full_date":"2025-12-05T17:54:49.585Z","date":"2025-12-05","time":"17:54:49"},{"task":"memory_phase","broad_category":"M","image_png":"M_Marble_04.png","image_id":228,"category_name":"Marble","category":15,"distinct_rating":3.15,"distinct_type":"Bottom","rt":null,"stimulus":"Stimuli_Rocks480/M_Marble_04.png","response":null,"trial_type":"image-keyboard-response","trial_index":177,"plugin_version":"2.1.0","time_elapsed":382451,"subject_id":"86333","group":"Group1","full_date":"2025-12-05T17:54:49.585Z","date":"2025-12-05","time":"17:54:49"},{"rt":null,"stimulus":"<p style=\"font-size: 50px; margin: 0; text-align: center;\">+</p>","response":null,"trial_type":"html-keyboard-response","trial_index":178,"plugin_version":"2.1.0","time_elapsed":383465,"subject_id":"86333","group":"Group1","full_date":"2025-12-05T17:54:49.585Z","date":"2025-12-05","time":"17:54:49"},{"task":"memory_phase","broad_category":"I","image_png":"I_Obsidian_05.png","image_id":85,"category_name":"Obsidian","category":6,"distinct_rating":7.32,"distinct_type":"Top","rt":null,"stimulus":"Stimuli_Rocks480/I_Obsidian_05.png","response":null,"trial_type":"image-keyboard-response","trial_index":179,"plugin_version":"2.1.0","time_elapsed":385979,"subject_id":"86333","group":"Group1","full_date":"2025-12-05T17:54:49.585Z","date":"2025-12-05","time":"17:54:49"},{"rt":null,"stimulus":"<p style=\"font-size: 50px; margin: 0; text-align: center;\">+</p>","response":null,"trial_type":"html-keyboard-response","trial_index":180,"plugin_version":"2.1.0","time_elapsed":386989,"subject_id":"86333","group":"Group1","full_date":"2025-12-05T17:54:49.585Z","date":"2025-12-05","time":"17:54:49"},{"task":"memory_phase","broad_category":"I","image_png":"I_Andesite_06.png","image_id":6,"category_name":"Andesite","category":1,"distinct_rating":3.17,"distinct_type":"Bottom","rt":null,"stimulus":"Stimuli_Rocks480/I_Andesite_06.png","response":null,"trial_type":"image-keyboard-response","trial_index":181,"plugin_version":"2.1.0","time_elapsed":389497,"subject_id":"86333","group":"Group1","full_date":"2025-12-05T17:54:49.585Z","date":"2025-12-05","time":"17:54:49"},{"rt":null,"stimulus":"<p style=\"font-size: 50px; margin: 0; text-align: center;\">+</p>","response":null,"trial_type":"html-keyboard-response","trial_index":182,"plugin_version":"2.1.0","time_elapsed":390509,"subject_id":"86333","group":"Group1","full_date":"2025-12-05T17:54:49.585Z","date":"2025-12-05","time":"17:54:49"},{"task":"memory_phase","broad_category":"I","image_png":"I_Pegmatite_10.png","image_id":106,"category_name":"Pegmatite","category":7,"distinct_rating":7.66,"distinct_type":"Top","rt":null,"stimulus":"Stimuli_Rocks480/I_Pegmatite_10.png","response":null,"trial_type":"image-keyboard-response","trial_index":183,"plugin_version":"2.1.0","time_elapsed":393025,"subject_id":"86333","group":"Group1","full_date":"2025-12-05T17:54:49.585Z","date":"2025-12-05","time":"17:54:49"},{"rt":null,"stimulus":"<p style=\"font-size: 50px; margin: 0; text-align: center;\">+</p>","response":null,"trial_type":"html-keyboard-response","trial_index":184,"plugin_version":"2.1.0","time_elapsed":394036,"subject_id":"86333","group":"Group1","full_date":"2025-12-05T17:54:49.585Z","date":"2025-12-05","time":"17:54:49"},{"task":"memory_phase","broad_category":"I","image_png":"I_Rhyolite_14.png","image_id":158,"category_name":"Rhyolite","category":10,"distinct_rating":2.59,"distinct_type":"Bottom","rt":null,"stimulus":"Stimuli_Rocks480/I_Rhyolite_14.png","response":null,"trial_type":"image-keyboard-response","trial_index":185,"plugin_version":"2.1.0","time_elapsed":396539,"subject_id":"86333","group":"Group1","full_date":"2025-12-05T17:54:49.585Z","date":"2025-12-05","time":"17:54:49"},{"rt":null,"stimulus":"<p style=\"font-size: 50px; margin: 0; text-align: center;\">+</p>","response":null,"trial_type":"html-keyboard-response","trial_index":186,"plugin_version":"2.1.0","time_elapsed":397548,"subject_id":"86333","group":"Group1","full_date":"2025-12-05T17:54:49.585Z","date":"2025-12-05","time":"17:54:49"},{"task":"memory_phase","broad_category":"M","image_png":"M_Slate_15.png","image_id":319,"category_name":"Slate","category":20,"distinct_rating":2.13,"distinct_type":"Bottom","rt":null,"stimulus":"Stimuli_Rocks480/M_Slate_15.png","response":null,"trial_type":"image-keyboard-response","trial_index":187,"plugin_version":"2.1.0","time_elapsed":400052,"subject_id":"86333","group":"Group1","full_date":"2025-12-05T17:54:49.585Z","date":"2025-12-05","time":"17:54:49"},{"rt":null,"stimulus":"<p style=\"font-size: 50px; margin: 0; text-align: center;\">+</p>","response":null,"trial_type":"html-keyboard-response","trial_index":188,"plugin_version":"2.1.0","time_elapsed":401056,"subject_id":"86333","group":"Group1","full_date":"2025-12-05T17:54:49.585Z","date":"2025-12-05","time":"17:54:49"},{"task":"memory_phase","broad_category":"S","image_png":"S_Conglomerate_05.png","image_id":373,"category_name":"Conglomerate","category":24,"distinct_rating":7.32,"distinct_type":"Top","rt":null,"stimulus":"Stimuli_Rocks480/S_Conglomerate_05.png","response":null,"trial_type":"image-keyboard-response","trial_index":189,"plugin_version":"2.1.0","time_elapsed":403565,"subject_id":"86333","group":"Group1","full_date":"2025-12-05T17:54:49.585Z","date":"2025-12-05","time":"17:54:49"},{"rt":null,"stimulus":"<p style=\"font-size: 50px; margin: 0; text-align: center;\">+</p>","response":null,"trial_type":"html-keyboard-response","trial_index":190,"plugin_version":"2.1.0","time_elapsed":404570,"subject_id":"86333","group":"Group1","full_date":"2025-12-05T17:54:49.585Z","date":"2025-12-05","time":"17:54:49"},{"task":"memory_phase","broad_category":"S","image_png":"S_Breccia_11.png","image_id":347,"category_name":"Breccia","category":22,"distinct_rating":6.7,"distinct_type":"Top","rt":null,"stimulus":"Stimuli_Rocks480/S_Breccia_11.png","response":null,"trial_type":"image-keyboard-response","trial_index":191,"plugin_version":"2.1.0","time_elapsed":407082,"subject_id":"86333","group":"Group1","full_date":"2025-12-05T17:54:49.585Z","date":"2025-12-05","time":"17:54:49"},{"rt":null,"stimulus":"<p style=\"font-size: 50px; margin: 0; text-align: center;\">+</p>","response":null,"trial_type":"html-keyboard-response","trial_index":192,"plugin_version":"2.1.0","time_elapsed":408083,"subject_id":"86333","group":"Group1","full_date":"2025-12-05T17:54:49.585Z","date":"2025-12-05","time":"17:54:49"},{"task":"memory_phase","broad_category":"I","image_png":"I_Gabbro_08.png","image_id":56,"category_name":"Gabbro","category":4,"distinct_rating":3.02,"distinct_type":"Bottom","rt":null,"stimulus":"Stimuli_Rocks480/I_Gabbro_08.png","response":null,"trial_type":"image-keyboard-response","trial_index":193,"plugin_version":"2.1.0","time_elapsed":410587,"subject_id":"86333","group":"Group1","full_date":"2025-12-05T17:54:49.585Z","date":"2025-12-05","time":"17:54:49"},{"rt":null,"stimulus":"<p style=\"font-size: 50px; margin: 0; text-align: center;\">+</p>","response":null,"trial_type":"html-keyboard-response","trial_index":194,"plugin_version":"2.1.0","time_elapsed":411590,"subject_id":"86333","group":"Group1","full_date":"2025-12-05T17:54:49.585Z","date":"2025-12-05","time":"17:54:49"},{"task":"memory_phase","broad_category":"I","image_png":"I_Pumice_08.png","image_id":136,"category_name":"Pumice","category":9,"distinct_rating":3.1,"distinct_type":"Bottom","rt":null,"stimulus":"Stimuli_Rocks480/I_Pumice_08.png","response":null,"trial_type":"image-keyboard-response","trial_index":195,"plugin_version":"2.1.0","time_elapsed":414105,"subject_id":"86333","group":"Group1","full_date":"2025-12-05T17:54:49.585Z","date":"2025-12-05","time":"17:54:49"},{"rt":null,"stimulus":"<p style=\"font-size: 50px; margin: 0; text-align: center;\">+</p>","response":null,"trial_type":"html-keyboard-response","trial_index":196,"plugin_version":"2.1.0","time_elapsed":415121,"subject_id":"86333","group":"Group1","full_date":"2025-12-05T17:54:49.585Z","date":"2025-12-05","time":"17:54:49"},{"task":"memory_phase","broad_category":"S","image_png":"S_Sandstone_16.png","image_id":464,"category_name":"Sandstone","category":29,"distinct_rating":1.93,"distinct_type":"Bottom","rt":null,"stimulus":"Stimuli_Rocks480/S_Sandstone_16.png","response":null,"trial_type":"image-keyboard-response","trial_index":197,"plugin_version":"2.1.0","time_elapsed":417633,"subject_id":"86333","group":"Group1","full_date":"2025-12-05T17:54:49.585Z","date":"2025-12-05","time":"17:54:49"},{"rt":null,"stimulus":"<p style=\"font-size: 50px; margin: 0; text-align: center;\">+</p>","response":null,"trial_type":"html-keyboard-response","trial_index":198,"plugin_version":"2.1.0","time_elapsed":418636,"subject_id":"86333","group":"Group1","full_date":"2025-12-05T17:54:49.585Z","date":"2025-12-05","time":"17:54:49"},{"task":"memory_phase","broad_category":"I","image_png":"I_Andesite_08.png","image_id":8,"category_name":"Andesite","category":1,"distinct_rating":1.95,"distinct_type":"Bottom","rt":null,"stimulus":"Stimuli_Rocks480/I_Andesite_08.png","response":null,"trial_type":"image-keyboard-response","trial_index":199,"plugin_version":"2.1.0","time_elapsed":421147,"subject_id":"86333","group":"Group1","full_date":"2025-12-05T17:54:49.585Z","date":"2025-12-05","time":"17:54:49"},{"rt":null,"stimulus":"<p style=\"font-size: 50px; margin: 0; text-align: center;\">+</p>","response":null,"trial_type":"html-keyboard-response","trial_index":200,"plugin_version":"2.1.0","time_elapsed":422148,"subject_id":"86333","group":"Group1","full_date":"2025-12-05T17:54:49.585Z","date":"2025-12-05","time":"17:54:49"},{"task":"memory_phase","broad_category":"I","image_png":"I_Diorite_05.png","image_id":37,"category_name":"Diorite","category":3,"distinct_rating":3.08,"distinct_type":"Bottom","rt":null,"stimulus":"Stimuli_Rocks480/I_Diorite_05.png","response":null,"trial_type":"image-keyboard-response","trial_index":201,"plugin_version":"2.1.0","time_elapsed":424652,"subject_id":"86333","group":"Group1","full_date":"2025-12-05T17:54:49.585Z","date":"2025-12-05","time":"17:54:49"},{"rt":null,"stimulus":"<p style=\"font-size: 50px; margin: 0; text-align: center;\">+</p>","response":null,"trial_type":"html-keyboard-response","trial_index":202,"plugin_version":"2.1.0","time_elapsed":425668,"subject_id":"86333","group":"Group1","full_date":"2025-12-05T17:54:49.585Z","date":"2025-12-05","time":"17:54:49"},{"task":"memory_phase","broad_category":"S","image_png":"S_Chert_10.png","image_id":362,"category_name":"Chert","category":23,"distinct_rating":7.17,"distinct_type":"Top","rt":null,"stimulus":"Stimuli_Rocks480/S_Chert_10.png","response":null,"trial_type":"image-keyboard-response","trial_index":203,"plugin_version":"2.1.0","time_elapsed":428177,"subject_id":"86333","group":"Group1","full_date":"2025-12-05T17:54:49.585Z","date":"2025-12-05","time":"17:54:49"},{"rt":null,"stimulus":"<p style=\"font-size: 50px; margin: 0; text-align: center;\">+</p>","response":null,"trial_type":"html-keyboard-response","trial_index":204,"plugin_version":"2.1.0","time_elapsed":429180,"subject_id":"86333","group":"Group1","full_date":"2025-12-05T17:54:49.585Z","date":"2025-12-05","time":"17:54:49"},{"task":"memory_phase","broad_category":"S","image_png":"S_Rock Salt_01.png","image_id":433,"category_name":"Rock Salt","category":28,"distinct_rating":7.18,"distinct_type":"Top","rt":null,"stimulus":"Stimuli_Rocks480/S_Rock Salt_01.png","response":null,"trial_type":"image-keyboard-response","trial_index":205,"plugin_version":"2.1.0","time_elapsed":431696,"subject_id":"86333","group":"Group1","full_date":"2025-12-05T17:54:49.585Z","date":"2025-12-05","time":"17:54:49"},{"rt":null,"stimulus":"<p style=\"font-size: 50px; margin: 0; text-align: center;\">+</p>","response":null,"trial_type":"html-keyboard-response","trial_index":206,"plugin_version":"2.1.0","time_elapsed":432698,"subject_id":"86333","group":"Group1","full_date":"2025-12-05T17:54:49.585Z","date":"2025-12-05","time":"17:54:49"},{"task":"memory_phase","broad_category":"I","image_png":"I_Diorite_03.png","image_id":35,"category_name":"Diorite","category":3,"distinct_rating":3.14,"distinct_type":"Bottom","rt":null,"stimulus":"Stimuli_Rocks480/I_Diorite_03.png","response":null,"trial_type":"image-keyboard-response","trial_index":207,"plugin_version":"2.1.0","time_elapsed":435206,"subject_id":"86333","group":"Group1","full_date":"2025-12-05T17:54:49.585Z","date":"2025-12-05","time":"17:54:49"},{"rt":2454,"stimulus":"<p style=\"max-width: 760px; margin: auto; font-size: 35px; line-height: 1.5;\">You have completed 2 study phases. Now, we'll show you all the images again 1 more time.<br><br>Press SPACE to continue</p>","response":" ","trial_type":"html-keyboard-response","trial_index":208,"plugin_version":"2.1.0","time_elapsed":437661,"subject_id":"86333","group":"Group1","full_date":"2025-12-05T17:54:49.585Z","date":"2025-12-05","time":"17:54:49"},{"rt":null,"stimulus":"<p style=\"font-size: 50px; margin: 0; text-align: center;\">+</p>","response":null,"trial_type":"html-keyboard-response","trial_index":209,"plugin_version":"2.1.0","time_elapsed":438673,"subject_id":"86333","group":"Group1","full_date":"2025-12-05T17:54:49.585Z","date":"2025-12-05","time":"17:54:49"},{"task":"memory_phase","broad_category":"S","image_png":"S_Sandstone_03.png","image_id":451,"category_name":"Sandstone","category":29,"distinct_rating":1.86,"distinct_type":"Bottom","rt":null,"stimulus":"Stimuli_Rocks480/S_Sandstone_03.png","response":null,"trial_type":"image-keyboard-response","trial_index":210,"plugin_version":"2.1.0","time_elapsed":441177,"subject_id":"86333","group":"Group1","full_date":"2025-12-05T17:54:49.585Z","date":"2025-12-05","time":"17:54:49"},{"rt":null,"stimulus":"<p style=\"font-size: 50px; margin: 0; text-align: center;\">+</p>","response":null,"trial_type":"html-keyboard-response","trial_index":211,"plugin_version":"2.1.0","time_elapsed":442179,"subject_id":"86333","group":"Group1","full_date":"2025-12-05T17:54:49.585Z","date":"2025-12-05","time":"17:54:49"},{"task":"memory_phase","broad_category":"M","image_png":"M_Quartzite_13.png","image_id":285,"category_name":"Quartzite","category":18,"distinct_rating":2.27,"distinct_type":"Bottom","rt":null,"stimulus":"Stimuli_Rocks480/M_Quartzite_13.png","response":null,"trial_type":"image-keyboard-response","trial_index":212,"plugin_version":"2.1.0","time_elapsed":444691,"subject_id":"86333","group":"Group1","full_date":"2025-12-05T17:54:49.585Z","date":"2025-12-05","time":"17:54:49"},{"rt":null,"stimulus":"<p style=\"font-size: 50px; margin: 0; text-align: center;\">+</p>","response":null,"trial_type":"html-keyboard-response","trial_index":213,"plugin_version":"2.1.0","time_elapsed":445703,"subject_id":"86333","group":"Group1","full_date":"2025-12-05T17:54:49.585Z","date":"2025-12-05","time":"17:54:49"},{"task":"memory_phase","broad_category":"M","image_png":"M_Slate_15.png","image_id":319,"category_name":"Slate","category":20,"distinct_rating":2.13,"distinct_type":"Bottom","rt":null,"stimulus":"Stimuli_Rocks480/M_Slate_15.png","response":null,"trial_type":"image-keyboard-response","trial_index":214,"plugin_version":"2.1.0","time_elapsed":448217,"subject_id":"86333","group":"Group1","full_date":"2025-12-05T17:54:49.585Z","date":"2025-12-05","time":"17:54:49"},{"rt":null,"stimulus":"<p style=\"font-size: 50px; margin: 0; text-align: center;\">+</p>","response":null,"trial_type":"html-keyboard-response","trial_index":215,"plugin_version":"2.1.0","time_elapsed":449233,"subject_id":"86333","group":"Group1","full_date":"2025-12-05T17:54:49.585Z","date":"2025-12-05","time":"17:54:49"},{"task":"memory_phase","broad_category":"M","image_png":"M_Gneiss_13.png","image_id":205,"category_name":"Gneiss","category":13,"distinct_rating":3.26,"distinct_type":"Bottom","rt":null,"stimulus":"Stimuli_Rocks480/M_Gneiss_13.png","response":null,"trial_type":"image-keyboard-response","trial_index":216,"plugin_version":"2.1.0","time_elapsed":451738,"subject_id":"86333","group":"Group1","full_date":"2025-12-05T17:54:49.585Z","date":"2025-12-05","time":"17:54:49"},{"rt":null,"stimulus":"<p style=\"font-size: 50px; margin: 0; text-align: center;\">+</p>","response":null,"trial_type":"html-keyboard-response","trial_index":217,"plugin_version":"2.1.0","time_elapsed":452747,"subject_id":"86333","group":"Group1","full_date":"2025-12-05T17:54:49.585Z","date":"2025-12-05","time":"17:54:49"},{"task":"memory_phase","broad_category":"M","image_png":"M_Phyllite_03.png","image_id":259,"category_name":"Phyllite","category":17,"distinct_rating":2.5,"distinct_type":"Bottom","rt":null,"stimulus":"Stimuli_Rocks480/M_Phyllite_03.png","response":null,"trial_type":"image-keyboard-response","trial_index":218,"plugin_version":"2.1.0","time_elapsed":455267,"subject_id":"86333","group":"Group1","full_date":"2025-12-05T17:54:49.585Z","date":"2025-12-05","time":"17:54:49"},{"rt":null,"stimulus":"<p style=\"font-size: 50px; margin: 0; text-align: center;\">+</p>","response":null,"trial_type":"html-keyboard-response","trial_index":219,"plugin_version":"2.1.0","time_elapsed":456273,"subject_id":"86333","group":"Group1","full_date":"2025-12-05T17:54:49.585Z","date":"2025-12-05","time":"17:54:49"},{"task":"memory_phase","broad_category":"M","image_png":"M_Slate_11.png","image_id":315,"category_name":"Slate","category":20,"distinct_rating":2.75,"distinct_type":"Bottom","rt":null,"stimulus":"Stimuli_Rocks480/M_Slate_11.png","response":null,"trial_type":"image-keyboard-response","trial_index":220,"plugin_version":"2.1.0","time_elapsed":458788,"subject_id":"86333","group":"Group1","full_date":"2025-12-05T17:54:49.585Z","date":"2025-12-05","time":"17:54:49"},{"rt":null,"stimulus":"<p style=\"font-size: 50px; margin: 0; text-align: center;\">+</p>","response":null,"trial_type":"html-keyboard-response","trial_index":221,"plugin_version":"2.1.0","time_elapsed":459793,"subject_id":"86333","group":"Group1","full_date":"2025-12-05T17:54:49.585Z","date":"2025-12-05","time":"17:54:49"},{"task":"memory_phase","broad_category":"M","image_png":"M_Gneiss_05.png","image_id":197,"category_name":"Gneiss","category":13,"distinct_rating":2.97,"distinct_type":"Bottom","rt":null,"stimulus":"Stimuli_Rocks480/M_Gneiss_05.png","response":null,"trial_type":"image-keyboard-response","trial_index":222,"plugin_version":"2.1.0","time_elapsed":462297,"subject_id":"86333","group":"Group1","full_date":"2025-12-05T17:54:49.585Z","date":"2025-12-05","time":"17:54:49"},{"rt":null,"stimulus":"<p style=\"font-size: 50px; margin: 0; text-align: center;\">+</p>","response":null,"trial_type":"html-keyboard-response","trial_index":223,"plugin_version":"2.1.0","time_elapsed":463312,"subject_id":"86333","group":"Group1","full_date":"2025-12-05T17:54:49.585Z","date":"2025-12-05","time":"17:54:49"},{"task":"memory_phase","broad_category":"I","image_png":"I_Andesite_08.png","image_id":8,"category_name":"Andesite","category":1,"distinct_rating":1.95,"distinct_type":"Bottom","rt":null,"stimulus":"Stimuli_Rocks480/I_Andesite_08.png","response":null,"trial_type":"image-keyboard-response","trial_index":224,"plugin_version":"2.1.0","time_elapsed":465823,"subject_id":"86333","group":"Group1","full_date":"2025-12-05T17:54:49.585Z","date":"2025-12-05","time":"17:54:49"},{"rt":null,"stimulus":"<p style=\"font-size: 50px; margin: 0; text-align: center;\">+</p>","response":null,"trial_type":"html-keyboard-response","trial_index":225,"plugin_version":"2.1.0","time_elapsed":466830,"subject_id":"86333","group":"Group1","full_date":"2025-12-05T17:54:49.585Z","date":"2025-12-05","time":"17:54:49"},{"task":"memory_phase","broad_category":"I","image_png":"I_Obsidian_05.png","image_id":85,"category_name":"Obsidian","category":6,"distinct_rating":7.32,"distinct_type":"Top","rt":null,"stimulus":"Stimuli_Rocks480/I_Obsidian_05.png","response":null,"trial_type":"image-keyboard-response","trial_index":226,"plugin_version":"2.1.0","time_elapsed":469340,"subject_id":"86333","group":"Group1","full_date":"2025-12-05T17:54:49.585Z","date":"2025-12-05","time":"17:54:49"},{"rt":null,"stimulus":"<p style=\"font-size: 50px; margin: 0; text-align: center;\">+</p>","response":null,"trial_type":"html-keyboard-response","trial_index":227,"plugin_version":"2.1.0","time_elapsed":470356,"subject_id":"86333","group":"Group1","full_date":"2025-12-05T17:54:49.585Z","date":"2025-12-05","time":"17:54:49"},{"task":"memory_phase","broad_category":"I","image_png":"I_Gabbro_16.png","image_id":64,"category_name":"Gabbro","category":4,"distinct_rating":2.52,"distinct_type":"Bottom","rt":null,"stimulus":"Stimuli_Rocks480/I_Gabbro_16.png","response":null,"trial_type":"image-keyboard-response","trial_index":228,"plugin_version":"2.1.0","time_elapsed":472873,"subject_id":"86333","group":"Group1","full_date":"2025-12-05T17:54:49.585Z","date":"2025-12-05","time":"17:54:49"},{"rt":null,"stimulus":"<p style=\"font-size: 50px; margin: 0; text-align: center;\">+</p>","response":null,"trial_type":"html-keyboard-response","trial_index":229,"plugin_version":"2.1.0","time_elapsed":473884,"subject_id":"86333","group":"Group1","full_date":"2025-12-05T17:54:49.585Z","date":"2025-12-05","time":"17:54:49"},{"task":"memory_phase","broad_category":"I","image_png":"I_Gabbro_08.png","image_id":56,"category_name":"Gabbro","category":4,"distinct_rating":3.02,"distinct_type":"Bottom","rt":null,"stimulus":"Stimuli_Rocks480/I_Gabbro_08.png","response":null,"trial_type":"image-keyboard-response","trial_index":230,"plugin_version":"2.1.0","time_elapsed":476393,"subject_id":"86333","group":"Group1","full_date":"2025-12-05T17:54:49.585Z","date":"2025-12-05","time":"17:54:49"},{"rt":null,"stimulus":"<p style=\"font-size: 50px; margin: 0; text-align: center;\">+</p>","response":null,"trial_type":"html-keyboard-response","trial_index":231,"plugin_version":"2.1.0","time_elapsed":477403,"subject_id":"86333","group":"Group1","full_date":"2025-12-05T17:54:49.585Z","date":"2025-12-05","time":"17:54:49"},{"task":"memory_phase","broad_category":"M","image_png":"M_Gneiss_06.png","image_id":198,"category_name":"Gneiss","category":13,"distinct_rating":2.65,"distinct_type":"Bottom","rt":null,"stimulus":"Stimuli_Rocks480/M_Gneiss_06.png","response":null,"trial_type":"image-keyboard-response","trial_index":232,"plugin_version":"2.1.0","time_elapsed":479919,"subject_id":"86333","group":"Group1","full_date":"2025-12-05T17:54:49.585Z","date":"2025-12-05","time":"17:54:49"},{"rt":null,"stimulus":"<p style=\"font-size: 50px; margin: 0; text-align: center;\">+</p>","response":null,"trial_type":"html-keyboard-response","trial_index":233,"plugin_version":"2.1.0","time_elapsed":480931,"subject_id":"86333","group":"Group1","full_date":"2025-12-05T17:54:49.585Z","date":"2025-12-05","time":"17:54:49"},{"task":"memory_phase","broad_category":"M","image_png":"M_Slate_03.png","image_id":307,"category_name":"Slate","category":20,"distinct_rating":1.87,"distinct_type":"Bottom","rt":null,"stimulus":"Stimuli_Rocks480/M_Slate_03.png","response":null,"trial_type":"image-keyboard-response","trial_index":234,"plugin_version":"2.1.0","time_elapsed":483436,"subject_id":"86333","group":"Group1","full_date":"2025-12-05T17:54:49.585Z","date":"2025-12-05","time":"17:54:49"},{"rt":null,"stimulus":"<p style=\"font-size: 50px; margin: 0; text-align: center;\">+</p>","response":null,"trial_type":"html-keyboard-response","trial_index":235,"plugin_version":"2.1.0","time_elapsed":484440,"subject_id":"86333","group":"Group1","full_date":"2025-12-05T17:54:49.585Z","date":"2025-12-05","time":"17:54:49"},{"task":"memory_phase","broad_category":"I","image_png":"I_Pumice_11.png","image_id":139,"category_name":"Pumice","category":9,"distinct_rating":1.74,"distinct_type":"Bottom","rt":null,"stimulus":"Stimuli_Rocks480/I_Pumice_11.png","response":null,"trial_type":"image-keyboard-response","trial_index":236,"plugin_version":"2.1.0","time_elapsed":486952,"subject_id":"86333","group":"Group1","full_date":"2025-12-05T17:54:49.585Z","date":"2025-12-05","time":"17:54:49"},{"rt":null,"stimulus":"<p style=\"font-size: 50px; margin: 0; text-align: center;\">+</p>","response":null,"trial_type":"html-keyboard-response","trial_index":237,"plugin_version":"2.1.0","time_elapsed":487966,"subject_id":"86333","group":"Group1","full_date":"2025-12-05T17:54:49.585Z","date":"2025-12-05","time":"17:54:49"},{"task":"memory_phase","broad_category":"I","image_png":"I_Gabbro_11.png","image_id":59,"category_name":"Gabbro","category":4,"distinct_rating":1.99,"distinct_type":"Bottom","rt":null,"stimulus":"Stimuli_Rocks480/I_Gabbro_11.png","response":null,"trial_type":"image-keyboard-response","trial_index":238,"plugin_version":"2.1.0","time_elapsed":490476,"subject_id":"86333","group":"Group1","full_date":"2025-12-05T17:54:49.585Z","date":"2025-12-05","time":"17:54:49"},{"rt":null,"stimulus":"<p style=\"font-size: 50px; margin: 0; text-align: center;\">+</p>","response":null,"trial_type":"html-keyboard-response","trial_index":239,"plugin_version":"2.1.0","time_elapsed":491489,"subject_id":"86333","group":"Group1","full_date":"2025-12-05T17:54:49.585Z","date":"2025-12-05","time":"17:54:49"},{"task":"memory_phase","broad_category":"M","image_png":"M_Marble_04.png","image_id":228,"category_name":"Marble","category":15,"distinct_rating":3.15,"distinct_type":"Bottom","rt":null,"stimulus":"Stimuli_Rocks480/M_Marble_04.png","response":null,"trial_type":"image-keyboard-response","trial_index":240,"plugin_version":"2.1.0","time_elapsed":494004,"subject_id":"86333","group":"Group1","full_date":"2025-12-05T17:54:49.585Z","date":"2025-12-05","time":"17:54:49"},{"rt":null,"stimulus":"<p style=\"font-size: 50px; margin: 0; text-align: center;\">+</p>","response":null,"trial_type":"html-keyboard-response","trial_index":241,"plugin_version":"2.1.0","time_elapsed":495005,"subject_id":"86333","group":"Group1","full_date":"2025-12-05T17:54:49.585Z","date":"2025-12-05","time":"17:54:49"},{"task":"memory_phase","broad_category":"M","image_png":"M_Phyllite_10.png","image_id":266,"category_name":"Phyllite","category":17,"distinct_rating":2.6,"distinct_type":"Bottom","rt":null,"stimulus":"Stimuli_Rocks480/M_Phyllite_10.png","response":null,"trial_type":"image-keyboard-response","trial_index":242,"plugin_version":"2.1.0","time_elapsed":497510,"subject_id":"86333","group":"Group1","full_date":"2025-12-05T17:54:49.585Z","date":"2025-12-05","time":"17:54:49"},{"rt":null,"stimulus":"<p style=\"font-size: 50px; margin: 0; text-align: center;\">+</p>","response":null,"trial_type":"html-keyboard-response","trial_index":243,"plugin_version":"2.1.0","time_elapsed":498513,"subject_id":"86333","group":"Group1","full_date":"2025-12-05T17:54:49.585Z","date":"2025-12-05","time":"17:54:49"},{"task":"memory_phase","broad_category":"S","image_png":"S_Rock Salt_01.png","image_id":433,"category_name":"Rock Salt","category":28,"distinct_rating":7.18,"distinct_type":"Top","rt":null,"stimulus":"Stimuli_Rocks480/S_Rock Salt_01.png","response":null,"trial_type":"image-keyboard-response","trial_index":244,"plugin_version":"2.1.0","time_elapsed":501024,"subject_id":"86333","group":"Group1","full_date":"2025-12-05T17:54:49.585Z","date":"2025-12-05","time":"17:54:49"},{"rt":null,"stimulus":"<p style=\"font-size: 50px; margin: 0; text-align: center;\">+</p>","response":null,"trial_type":"html-keyboard-response","trial_index":245,"plugin_version":"2.1.0","time_elapsed":502029,"subject_id":"86333","group":"Group1","full_date":"2025-12-05T17:54:49.585Z","date":"2025-12-05","time":"17:54:49"},{"task":"memory_phase","broad_category":"M","image_png":"M_Marble_16.png","image_id":240,"category_name":"Marble","category":15,"distinct_rating":2.57,"distinct_type":"Bottom","rt":null,"stimulus":"Stimuli_Rocks480/M_Marble_16.png","response":null,"trial_type":"image-keyboard-response","trial_index":246,"plugin_version":"2.1.0","time_elapsed":504543,"subject_id":"86333","group":"Group1","full_date":"2025-12-05T17:54:49.585Z","date":"2025-12-05","time":"17:54:49"},{"rt":null,"stimulus":"<p style=\"font-size: 50px; margin: 0; text-align: center;\">+</p>","response":null,"trial_type":"html-keyboard-response","trial_index":247,"plugin_version":"2.1.0","time_elapsed":505554,"subject_id":"86333","group":"Group1","full_date":"2025-12-05T17:54:49.585Z","date":"2025-12-05","time":"17:54:49"},{"task":"memory_phase","broad_category":"I","image_png":"I_Rhyolite_16.png","image_id":160,"category_name":"Rhyolite","category":10,"distinct_rating":2.19,"distinct_type":"Bottom","rt":null,"stimulus":"Stimuli_Rocks480/I_Rhyolite_16.png","response":null,"trial_type":"image-keyboard-response","trial_index":248,"plugin_version":"2.1.0","time_elapsed":508056,"subject_id":"86333","group":"Grou