[{"width":1440,"height":820,"webaudio":true,"browser":"safari","browser_version":"18.4.0","mobile":false,"os":"Mac OS","fullscreen":true,"vsync_rate":52.17,"webcam":true,"microphone":true,"trial_type":"browser-check","trial_index":0,"plugin_version":"2.1.0","time_elapsed":1166,"subject_id":"88363","group":"Group2","full_date":"2025-12-05T15:59:36.394Z","date":"2025-12-05","time":"15:59:36"},{"success":true,"timeout":false,"failed_images":[],"failed_audio":[],"failed_video":[],"trial_type":"preload","trial_index":1,"plugin_version":"2.1.0","time_elapsed":3206,"subject_id":"88363","group":"Group2","full_date":"2025-12-05T15:59:36.394Z","date":"2025-12-05","time":"15:59:36"},{"rt":24133,"url":"SONA_consent_memorability.html","trial_type":"external-html","trial_index":2,"plugin_version":"2.1.0","time_elapsed":27398,"subject_id":"88363","group":"Group2","full_date":"2025-12-05T15:59:36.394Z","date":"2025-12-05","time":"15:59:36"},{"success":true,"rt":1401,"trial_type":"fullscreen","trial_index":3,"plugin_version":"2.1.0","time_elapsed":29804,"subject_id":"88363","group":"Group2","full_date":"2025-12-05T15:59:36.394Z","date":"2025-12-05","time":"15:59:36"},{"rt":1476,"stimulus":"<div style=\"max-width: 760px; margin: auto; font-size: 20px; line-height: 1.5;\">\n      <h1 style=\"text-align:center; font-size: 30px;\">Instructions</h1>\n      <p>\n        Welcome to the study on <b>visual memory</b>. This experiment consists of <b>two phases</b>: \n        a <b>study phase</b> and a <b>test phase</b>.\n      </p>\n      <p>\n        In the study phase, you will see a series of rock images along with their category labels.\n        The images will appear one at a time.\n        <b>Your task</b> is to learn the categories to which the rock images belong \n        and to remember each image as accurately as possible.\n      </p> \n      <p>\n        Note that we will repeat the study phase <b>3 times</b>, \n        so you will have multiple opportunities to see and remember each image.\n      </p>\n      <p>\n        After the study phase, <b>your memory will be tested</b>. \n        Additional instructions for the test phase will be provided at that time.\n      </p>\n      <p>\n        If your computer has multiple <b>language settings</b> (e.g., English and another language),\n        please make sure it is set to English before starting.\n      </p>\n      <p>\n        You can track your progress using the <b>completion bar</b> at the top of the screen. \n        Please note that the bar will refresh when the test phase begins \n        to give you an accurate sense of your progress in both phases.\n      </p> \n      <p>\n        Press the button below when you are ready to begin.\n      </p>\n    </div>","response":0,"trial_type":"html-button-response","trial_index":4,"plugin_version":"2.1.0","time_elapsed":31285,"subject_id":"88363","group":"Group2","full_date":"2025-12-05T15:59:36.394Z","date":"2025-12-05","time":"15:59:36"},{"rt":null,"stimulus":"<p style=\"font-size: 50px; margin: 0; text-align: center;\">+</p>","response":null,"trial_type":"html-keyboard-response","trial_index":5,"plugin_version":"2.1.0","time_elapsed":32290,"subject_id":"88363","group":"Group2","full_date":"2025-12-05T15:59:36.394Z","date":"2025-12-05","time":"15:59:36"},{"task":"memory_phase","broad_category":"M","image_png":"M_Slate_10.png","image_id":314,"category_name":"Slate","category":20,"distinct_rating":1.94,"distinct_type":"Bottom","rt":null,"stimulus":"Stimuli_Rocks480/M_Slate_10.png","response":null,"trial_type":"image-keyboard-response","trial_index":6,"plugin_version":"2.1.0","time_elapsed":34813,"subject_id":"88363","group":"Group2","full_date":"2025-12-05T15:59:36.394Z","date":"2025-12-05","time":"15:59:36"},{"rt":null,"stimulus":"<p style=\"font-size: 50px; margin: 0; text-align: center;\">+</p>","response":null,"trial_type":"html-keyboard-response","trial_index":7,"plugin_version":"2.1.0","time_elapsed":35816,"subject_id":"88363","group":"Group2","full_date":"2025-12-05T15:59:36.394Z","date":"2025-12-05","time":"15:59:36"},{"task":"memory_phase","broad_category":"M","image_png":"M_Marble_02.png","image_id":226,"category_name":"Marble","category":15,"distinct_rating":3.2,"distinct_type":"Bottom","rt":null,"stimulus":"Stimuli_Rocks480/M_Marble_02.png","response":null,"trial_type":"image-keyboard-response","trial_index":8,"plugin_version":"2.1.0","time_elapsed":38338,"subject_id":"88363","group":"Group2","full_date":"2025-12-05T15:59:36.394Z","date":"2025-12-05","time":"15:59:36"},{"rt":null,"stimulus":"<p style=\"font-size: 50px; margin: 0; text-align: center;\">+</p>","response":null,"trial_type":"html-keyboard-response","trial_index":9,"plugin_version":"2.1.0","time_elapsed":39340,"subject_id":"88363","group":"Group2","full_date":"2025-12-05T15:59:36.394Z","date":"2025-12-05","time":"15:59:36"},{"task":"memory_phase","broad_category":"M","image_png":"M_Gneiss_15.png","image_id":207,"category_name":"Gneiss","category":13,"distinct_rating":3.11,"distinct_type":"Bottom","rt":null,"stimulus":"Stimuli_Rocks480/M_Gneiss_15.png","response":null,"trial_type":"image-keyboard-response","trial_index":10,"plugin_version":"2.1.0","time_elapsed":41848,"subject_id":"88363","group":"Group2","full_date":"2025-12-05T15:59:36.394Z","date":"2025-12-05","time":"15:59:36"},{"rt":null,"stimulus":"<p style=\"font-size: 50px; margin: 0; text-align: center;\">+</p>","response":null,"trial_type":"html-keyboard-response","trial_index":11,"plugin_version":"2.1.0","time_elapsed":42851,"subject_id":"88363","group":"Group2","full_date":"2025-12-05T15:59:36.394Z","date":"2025-12-05","time":"15:59:36"},{"task":"memory_phase","broad_category":"S","image_png":"S_Chert_13.png","image_id":365,"category_name":"Chert","category":23,"distinct_rating":6.57,"distinct_type":"Top","rt":null,"stimulus":"Stimuli_Rocks480/S_Chert_13.png","response":null,"trial_type":"image-keyboard-response","trial_index":12,"plugin_version":"2.1.0","time_elapsed":45375,"subject_id":"88363","group":"Group2","full_date":"2025-12-05T15:59:36.394Z","date":"2025-12-05","time":"15:59:36"},{"rt":null,"stimulus":"<p style=\"font-size: 50px; margin: 0; text-align: center;\">+</p>","response":null,"trial_type":"html-keyboard-response","trial_index":13,"plugin_version":"2.1.0","time_elapsed":46378,"subject_id":"88363","group":"Group2","full_date":"2025-12-05T15:59:36.394Z","date":"2025-12-05","time":"15:59:36"},{"task":"memory_phase","broad_category":"I","image_png":"I_Diorite_15.png","image_id":47,"category_name":"Diorite","category":3,"distinct_rating":3.05,"distinct_type":"Bottom","rt":null,"stimulus":"Stimuli_Rocks480/I_Diorite_15.png","response":null,"trial_type":"image-keyboard-response","trial_index":14,"plugin_version":"2.1.0","time_elapsed":48901,"subject_id":"88363","group":"Group2","full_date":"2025-12-05T15:59:36.394Z","date":"2025-12-05","time":"15:59:36"},{"rt":null,"stimulus":"<p style=\"font-size: 50px; margin: 0; text-align: center;\">+</p>","response":null,"trial_type":"html-keyboard-response","trial_index":15,"plugin_version":"2.1.0","time_elapsed":49903,"subject_id":"88363","group":"Group2","full_date":"2025-12-05T15:59:36.394Z","date":"2025-12-05","time":"15:59:36"},{"task":"memory_phase","broad_category":"I","image_png":"I_Pumice_14.png","image_id":142,"category_name":"Pumice","category":9,"distinct_rating":3.22,"distinct_type":"Bottom","rt":null,"stimulus":"Stimuli_Rocks480/I_Pumice_14.png","response":null,"trial_type":"image-keyboard-response","trial_index":16,"plugin_version":"2.1.0","time_elapsed":52428,"subject_id":"88363","group":"Group2","full_date":"2025-12-05T15:59:36.394Z","date":"2025-12-05","time":"15:59:36"},{"rt":null,"stimulus":"<p style=\"font-size: 50px; margin: 0; text-align: center;\">+</p>","response":null,"trial_type":"html-keyboard-response","trial_index":17,"plugin_version":"2.1.0","time_elapsed":53431,"subject_id":"88363","group":"Group2","full_date":"2025-12-05T15:59:36.394Z","date":"2025-12-05","time":"15:59:36"},{"task":"memory_phase","broad_category":"M","image_png":"M_Slate_14.png","image_id":318,"category_name":"Slate","category":20,"distinct_rating":2.58,"distinct_type":"Bottom","rt":null,"stimulus":"Stimuli_Rocks480/M_Slate_14.png","response":null,"trial_type":"image-keyboard-response","trial_index":18,"plugin_version":"2.1.0","time_elapsed":55951,"subject_id":"88363","group":"Group2","full_date":"2025-12-05T15:59:36.394Z","date":"2025-12-05","time":"15:59:36"},{"rt":null,"stimulus":"<p style=\"font-size: 50px; margin: 0; text-align: center;\">+</p>","response":null,"trial_type":"html-keyboard-response","trial_index":19,"plugin_version":"2.1.0","time_elapsed":56954,"subject_id":"88363","group":"Group2","full_date":"2025-12-05T15:59:36.394Z","date":"2025-12-05","time":"15:59:36"},{"task":"memory_phase","broad_category":"M","image_png":"M_Gneiss_14.png","image_id":206,"category_name":"Gneiss","category":13,"distinct_rating":3.41,"distinct_type":"Bottom","rt":null,"stimulus":"Stimuli_Rocks480/M_Gneiss_14.png","response":null,"trial_type":"image-keyboard-response","trial_index":20,"plugin_version":"2.1.0","time_elapsed":59494,"subject_id":"88363","group":"Group2","full_date":"2025-12-05T15:59:36.394Z","date":"2025-12-05","time":"15:59:36"},{"rt":null,"stimulus":"<p style=\"font-size: 50px; margin: 0; text-align: center;\">+</p>","response":null,"trial_type":"html-keyboard-response","trial_index":21,"plugin_version":"2.1.0","time_elapsed":60497,"subject_id":"88363","group":"Group2","full_date":"2025-12-05T15:59:36.394Z","date":"2025-12-05","time":"15:59:36"},{"task":"memory_phase","broad_category":"I","image_png":"I_Rhyolite_05.png","image_id":149,"category_name":"Rhyolite","category":10,"distinct_rating":3.02,"distinct_type":"Bottom","rt":null,"stimulus":"Stimuli_Rocks480/I_Rhyolite_05.png","response":null,"trial_type":"image-keyboard-response","trial_index":22,"plugin_version":"2.1.0","time_elapsed":63027,"subject_id":"88363","group":"Group2","full_date":"2025-12-05T15:59:36.394Z","date":"2025-12-05","time":"15:59:36"},{"rt":null,"stimulus":"<p style=\"font-size: 50px; margin: 0; text-align: center;\">+</p>","response":null,"trial_type":"html-keyboard-response","trial_index":23,"plugin_version":"2.1.0","time_elapsed":64029,"subject_id":"88363","group":"Group2","full_date":"2025-12-05T15:59:36.394Z","date":"2025-12-05","time":"15:59:36"},{"task":"memory_phase","broad_category":"I","image_png":"I_Diorite_10.png","image_id":42,"category_name":"Diorite","category":3,"distinct_rating":2.84,"distinct_type":"Bottom","rt":null,"stimulus":"Stimuli_Rocks480/I_Diorite_10.png","response":null,"trial_type":"image-keyboard-response","trial_index":24,"plugin_version":"2.1.0","time_elapsed":66566,"subject_id":"88363","group":"Group2","full_date":"2025-12-05T15:59:36.394Z","date":"2025-12-05","time":"15:59:36"},{"rt":null,"stimulus":"<p style=\"font-size: 50px; margin: 0; text-align: center;\">+</p>","response":null,"trial_type":"html-keyboard-response","trial_index":25,"plugin_version":"2.1.0","time_elapsed":67569,"subject_id":"88363","group":"Group2","full_date":"2025-12-05T15:59:36.394Z","date":"2025-12-05","time":"15:59:36"},{"task":"memory_phase","broad_category":"I","image_png":"I_Peridotite_13.png","image_id":125,"category_name":"Peridotite","category":8,"distinct_rating":7.28,"distinct_type":"Top","rt":null,"stimulus":"Stimuli_Rocks480/I_Peridotite_13.png","response":null,"trial_type":"image-keyboard-response","trial_index":26,"plugin_version":"2.1.0","time_elapsed":70099,"subject_id":"88363","group":"Group2","full_date":"2025-12-05T15:59:36.394Z","date":"2025-12-05","time":"15:59:36"},{"rt":null,"stimulus":"<p style=\"font-size: 50px; margin: 0; text-align: center;\">+</p>","response":null,"trial_type":"html-keyboard-response","trial_index":27,"plugin_version":"2.1.0","time_elapsed":71100,"subject_id":"88363","group":"Group2","full_date":"2025-12-05T15:59:36.394Z","date":"2025-12-05","time":"15:59:36"},{"task":"memory_phase","broad_category":"I","image_png":"I_Pumice_13.png","image_id":141,"category_name":"Pumice","category":9,"distinct_rating":3.12,"distinct_type":"Bottom","rt":null,"stimulus":"Stimuli_Rocks480/I_Pumice_13.png","response":null,"trial_type":"image-keyboard-response","trial_index":28,"plugin_version":"2.1.0","time_elapsed":73616,"subject_id":"88363","group":"Group2","full_date":"2025-12-05T15:59:36.394Z","date":"2025-12-05","time":"15:59:36"},{"rt":null,"stimulus":"<p style=\"font-size: 50px; margin: 0; text-align: center;\">+</p>","response":null,"trial_type":"html-keyboard-response","trial_index":29,"plugin_version":"2.1.0","time_elapsed":74619,"subject_id":"88363","group":"Group2","full_date":"2025-12-05T15:59:36.394Z","date":"2025-12-05","time":"15:59:36"},{"task":"memory_phase","broad_category":"M","image_png":"M_Gneiss_10.png","image_id":202,"category_name":"Gneiss","category":13,"distinct_rating":3.09,"distinct_type":"Bottom","rt":null,"stimulus":"Stimuli_Rocks480/M_Gneiss_10.png","response":null,"trial_type":"image-keyboard-response","trial_index":30,"plugin_version":"2.1.0","time_elapsed":77159,"subject_id":"88363","group":"Group2","full_date":"2025-12-05T15:59:36.394Z","date":"2025-12-05","time":"15:59:36"},{"rt":null,"stimulus":"<p style=\"font-size: 50px; margin: 0; text-align: center;\">+</p>","response":null,"trial_type":"html-keyboard-response","trial_index":31,"plugin_version":"2.1.0","time_elapsed":78162,"subject_id":"88363","group":"Group2","full_date":"2025-12-05T15:59:36.394Z","date":"2025-12-05","time":"15:59:36"},{"task":"memory_phase","broad_category":"S","image_png":"S_Shale_02.png","image_id":466,"category_name":"Shale","category":30,"distinct_rating":2.9,"distinct_type":"Bottom","rt":null,"stimulus":"Stimuli_Rocks480/S_Shale_02.png","response":null,"trial_type":"image-keyboard-response","trial_index":32,"plugin_version":"2.1.0","time_elapsed":80684,"subject_id":"88363","group":"Group2","full_date":"2025-12-05T15:59:36.394Z","date":"2025-12-05","time":"15:59:36"},{"rt":null,"stimulus":"<p style=\"font-size: 50px; margin: 0; text-align: center;\">+</p>","response":null,"trial_type":"html-keyboard-response","trial_index":33,"plugin_version":"2.1.0","time_elapsed":81687,"subject_id":"88363","group":"Group2","full_date":"2025-12-05T15:59:36.394Z","date":"2025-12-05","time":"15:59:36"},{"task":"memory_phase","broad_category":"M","image_png":"M_Phyllite_02.png","image_id":258,"category_name":"Phyllite","category":17,"distinct_rating":2.89,"distinct_type":"Bottom","rt":null,"stimulus":"Stimuli_Rocks480/M_Phyllite_02.png","response":null,"trial_type":"image-keyboard-response","trial_index":34,"plugin_version":"2.1.0","time_elapsed":84229,"subject_id":"88363","group":"Group2","full_date":"2025-12-05T15:59:36.394Z","date":"2025-12-05","time":"15:59:36"},{"rt":null,"stimulus":"<p style=\"font-size: 50px; margin: 0; text-align: center;\">+</p>","response":null,"trial_type":"html-keyboard-response","trial_index":35,"plugin_version":"2.1.0","time_elapsed":85232,"subject_id":"88363","group":"Group2","full_date":"2025-12-05T15:59:36.394Z","date":"2025-12-05","time":"15:59:36"},{"task":"memory_phase","broad_category":"I","image_png":"I_Gabbro_14.png","image_id":62,"category_name":"Gabbro","category":4,"distinct_rating":2.95,"distinct_type":"Bottom","rt":null,"stimulus":"Stimuli_Rocks480/I_Gabbro_14.png","response":null,"trial_type":"image-keyboard-response","trial_index":36,"plugin_version":"2.1.0","time_elapsed":87761,"subject_id":"88363","group":"Group2","full_date":"2025-12-05T15:59:36.394Z","date":"2025-12-05","time":"15:59:36"},{"rt":null,"stimulus":"<p style=\"font-size: 50px; margin: 0; text-align: center;\">+</p>","response":null,"trial_type":"html-keyboard-response","trial_index":37,"plugin_version":"2.1.0","time_elapsed":88764,"subject_id":"88363","group":"Group2","full_date":"2025-12-05T15:59:36.394Z","date":"2025-12-05","time":"15:59:36"},{"task":"memory_phase","broad_category":"I","image_png":"I_Gabbro_12.png","image_id":60,"category_name":"Gabbro","category":4,"distinct_rating":2.6,"distinct_type":"Bottom","rt":null,"stimulus":"Stimuli_Rocks480/I_Gabbro_12.png","response":null,"trial_type":"image-keyboard-response","trial_index":38,"plugin_version":"2.1.0","time_elapsed":91293,"subject_id":"88363","group":"Group2","full_date":"2025-12-05T15:59:36.394Z","date":"2025-12-05","time":"15:59:36"},{"rt":null,"stimulus":"<p style=\"font-size: 50px; margin: 0; text-align: center;\">+</p>","response":null,"trial_type":"html-keyboard-response","trial_index":39,"plugin_version":"2.1.0","time_elapsed":92296,"subject_id":"88363","group":"Group2","full_date":"2025-12-05T15:59:36.394Z","date":"2025-12-05","time":"15:59:36"},{"task":"memory_phase","broad_category":"S","image_png":"S_Dolomite_01.png","image_id":385,"category_name":"Dolomite","category":25,"distinct_rating":1.43,"distinct_type":"Bottom","rt":null,"stimulus":"Stimuli_Rocks480/S_Dolomite_01.png","response":null,"trial_type":"image-keyboard-response","trial_index":40,"plugin_version":"2.1.0","time_elapsed":94824,"subject_id":"88363","group":"Group2","full_date":"2025-12-05T15:59:36.394Z","date":"2025-12-05","time":"15:59:36"},{"rt":null,"stimulus":"<p style=\"font-size: 50px; margin: 0; text-align: center;\">+</p>","response":null,"trial_type":"html-keyboard-response","trial_index":41,"plugin_version":"2.1.0","time_elapsed":95827,"subject_id":"88363","group":"Group2","full_date":"2025-12-05T15:59:36.394Z","date":"2025-12-05","time":"15:59:36"},{"task":"memory_phase","broad_category":"M","image_png":"M_Marble_14.png","image_id":238,"category_name":"Marble","category":15,"distinct_rating":3.31,"distinct_type":"Bottom","rt":null,"stimulus":"Stimuli_Rocks480/M_Marble_14.png","response":null,"trial_type":"image-keyboard-response","trial_index":42,"plugin_version":"2.1.0","time_elapsed":98350,"subject_id":"88363","group":"Group2","full_date":"2025-12-05T15:59:36.394Z","date":"2025-12-05","time":"15:59:36"},{"rt":null,"stimulus":"<p style=\"font-size: 50px; margin: 0; text-align: center;\">+</p>","response":null,"trial_type":"html-keyboard-response","trial_index":43,"plugin_version":"2.1.0","time_elapsed":99353,"subject_id":"88363","group":"Group2","full_date":"2025-12-05T15:59:36.394Z","date":"2025-12-05","time":"15:59:36"},{"task":"memory_phase","broad_category":"I","image_png":"I_Gabbro_02.png","image_id":50,"category_name":"Gabbro","category":4,"distinct_rating":2.73,"distinct_type":"Bottom","rt":null,"stimulus":"Stimuli_Rocks480/I_Gabbro_02.png","response":null,"trial_type":"image-keyboard-response","trial_index":44,"plugin_version":"2.1.0","time_elapsed":101877,"subject_id":"88363","group":"Group2","full_date":"2025-12-05T15:59:36.394Z","date":"2025-12-05","time":"15:59:36"},{"rt":null,"stimulus":"<p style=\"font-size: 50px; margin: 0; text-align: center;\">+</p>","response":null,"trial_type":"html-keyboard-response","trial_index":45,"plugin_version":"2.1.0","time_elapsed":102880,"subject_id":"88363","group":"Group2","full_date":"2025-12-05T15:59:36.394Z","date":"2025-12-05","time":"15:59:36"},{"task":"memory_phase","broad_category":"I","image_png":"I_Pegmatite_11.png","image_id":107,"category_name":"Pegmatite","category":7,"distinct_rating":7.11,"distinct_type":"Top","rt":null,"stimulus":"Stimuli_Rocks480/I_Pegmatite_11.png","response":null,"trial_type":"image-keyboard-response","trial_index":46,"plugin_version":"2.1.0","time_elapsed":105410,"subject_id":"88363","group":"Group2","full_date":"2025-12-05T15:59:36.394Z","date":"2025-12-05","time":"15:59:36"},{"rt":null,"stimulus":"<p style=\"font-size: 50px; margin: 0; text-align: center;\">+</p>","response":null,"trial_type":"html-keyboard-response","trial_index":47,"plugin_version":"2.1.0","time_elapsed":106413,"subject_id":"88363","group":"Group2","full_date":"2025-12-05T15:59:36.394Z","date":"2025-12-05","time":"15:59:36"},{"task":"memory_phase","broad_category":"S","image_png":"S_Sandstone_04.png","image_id":452,"category_name":"Sandstone","category":29,"distinct_rating":1.8,"distinct_type":"Bottom","rt":null,"stimulus":"Stimuli_Rocks480/S_Sandstone_04.png","response":null,"trial_type":"image-keyboard-response","trial_index":48,"plugin_version":"2.1.0","time_elapsed":108938,"subject_id":"88363","group":"Group2","full_date":"2025-12-05T15:59:36.394Z","date":"2025-12-05","time":"15:59:36"},{"rt":null,"stimulus":"<p style=\"font-size: 50px; margin: 0; text-align: center;\">+</p>","response":null,"trial_type":"html-keyboard-response","trial_index":49,"plugin_version":"2.1.0","time_elapsed":109941,"subject_id":"88363","group":"Group2","full_date":"2025-12-05T15:59:36.394Z","date":"2025-12-05","time":"15:59:36"},{"task":"memory_phase","broad_category":"I","image_png":"I_Rhyolite_10.png","image_id":154,"category_name":"Rhyolite","category":10,"distinct_rating":2.88,"distinct_type":"Bottom","rt":null,"stimulus":"Stimuli_Rocks480/I_Rhyolite_10.png","response":null,"trial_type":"image-keyboard-response","trial_index":50,"plugin_version":"2.1.0","time_elapsed":112486,"subject_id":"88363","group":"Group2","full_date":"2025-12-05T15:59:36.394Z","date":"2025-12-05","time":"15:59:36"},{"rt":null,"stimulus":"<p style=\"font-size: 50px; margin: 0; text-align: center;\">+</p>","response":null,"trial_type":"html-keyboard-response","trial_index":51,"plugin_version":"2.1.0","time_elapsed":113488,"subject_id":"88363","group":"Group2","full_date":"2025-12-05T15:59:36.394Z","date":"2025-12-05","time":"15:59:36"},{"task":"memory_phase","broad_category":"I","image_png":"I_Andesite_03.png","image_id":3,"category_name":"Andesite","category":1,"distinct_rating":3.17,"distinct_type":"Bottom","rt":null,"stimulus":"Stimuli_Rocks480/I_Andesite_03.png","response":null,"trial_type":"image-keyboard-response","trial_index":52,"plugin_version":"2.1.0","time_elapsed":116009,"subject_id":"88363","group":"Group2","full_date":"2025-12-05T15:59:36.394Z","date":"2025-12-05","time":"15:59:36"},{"rt":null,"stimulus":"<p style=\"font-size: 50px; margin: 0; text-align: center;\">+</p>","response":null,"trial_type":"html-keyboard-response","trial_index":53,"plugin_version":"2.1.0","time_elapsed":117012,"subject_id":"88363","group":"Group2","full_date":"2025-12-05T15:59:36.394Z","date":"2025-12-05","time":"15:59:36"},{"task":"memory_phase","broad_category":"I","image_png":"I_Andesite_09.png","image_id":9,"category_name":"Andesite","category":1,"distinct_rating":2.49,"distinct_type":"Bottom","rt":null,"stimulus":"Stimuli_Rocks480/I_Andesite_09.png","response":null,"trial_type":"image-keyboard-response","trial_index":54,"plugin_version":"2.1.0","time_elapsed":119535,"subject_id":"88363","group":"Group2","full_date":"2025-12-05T15:59:36.394Z","date":"2025-12-05","time":"15:59:36"},{"rt":6166,"stimulus":"<p style=\"max-width: 760px; margin: auto; font-size: 35px; line-height: 1.5;\">Press SPACE to continue study phase</p>","response":" ","trial_type":"html-keyboard-response","trial_index":55,"plugin_version":"2.1.0","time_elapsed":125703,"subject_id":"88363","group":"Group2","full_date":"2025-12-05T15:59:36.394Z","date":"2025-12-05","time":"15:59:36"},{"rt":null,"stimulus":"<p style=\"font-size: 50px; margin: 0; text-align: center;\">+</p>","response":null,"trial_type":"html-keyboard-response","trial_index":56,"plugin_version":"2.1.0","time_elapsed":126706,"subject_id":"88363","group":"Group2","full_date":"2025-12-05T15:59:36.394Z","date":"2025-12-05","time":"15:59:36"},{"task":"memory_phase","broad_category":"M","image_png":"M_Marble_03.png","image_id":227,"category_name":"Marble","category":15,"distinct_rating":2.67,"distinct_type":"Bottom","rt":null,"stimulus":"Stimuli_Rocks480/M_Marble_03.png","response":null,"trial_type":"image-keyboard-response","trial_index":57,"plugin_version":"2.1.0","time_elapsed":129233,"subject_id":"88363","group":"Group2","full_date":"2025-12-05T15:59:36.394Z","date":"2025-12-05","time":"15:59:36"},{"rt":null,"stimulus":"<p style=\"font-size: 50px; margin: 0; text-align: center;\">+</p>","response":null,"trial_type":"html-keyboard-response","trial_index":58,"plugin_version":"2.1.0","time_elapsed":130237,"subject_id":"88363","group":"Group2","full_date":"2025-12-05T15:59:36.394Z","date":"2025-12-05","time":"15:59:36"},{"task":"memory_phase","broad_category":"S","image_png":"S_Dolomite_16.png","image_id":400,"category_name":"Dolomite","category":25,"distinct_rating":1.71,"distinct_type":"Bottom","rt":null,"stimulus":"Stimuli_Rocks480/S_Dolomite_16.png","response":null,"trial_type":"image-keyboard-response","trial_index":59,"plugin_version":"2.1.0","time_elapsed":132760,"subject_id":"88363","group":"Group2","full_date":"2025-12-05T15:59:36.394Z","date":"2025-12-05","time":"15:59:36"},{"rt":null,"stimulus":"<p style=\"font-size: 50px; margin: 0; text-align: center;\">+</p>","response":null,"trial_type":"html-keyboard-response","trial_index":60,"plugin_version":"2.1.0","time_elapsed":133763,"subject_id":"88363","group":"Group2","full_date":"2025-12-05T15:59:36.394Z","date":"2025-12-05","time":"15:59:36"},{"task":"memory_phase","broad_category":"S","image_png":"S_Shale_03.png","image_id":467,"category_name":"Shale","category":30,"distinct_rating":1.95,"distinct_type":"Bottom","rt":null,"stimulus":"Stimuli_Rocks480/S_Shale_03.png","response":null,"trial_type":"image-keyboard-response","trial_index":61,"plugin_version":"2.1.0","time_elapsed":136291,"subject_id":"88363","group":"Group2","full_date":"2025-12-05T15:59:36.394Z","date":"2025-12-05","time":"15:59:36"},{"rt":null,"stimulus":"<p style=\"font-size: 50px; margin: 0; text-align: center;\">+</p>","response":null,"trial_type":"html-keyboard-response","trial_index":62,"plugin_version":"2.1.0","time_elapsed":137293,"subject_id":"88363","group":"Group2","full_date":"2025-12-05T15:59:36.394Z","date":"2025-12-05","time":"15:59:36"},{"task":"memory_phase","broad_category":"I","image_png":"I_Basalt_10.png","image_id":26,"category_name":"Basalt","category":2,"distinct_rating":2.76,"distinct_type":"Bottom","rt":null,"stimulus":"Stimuli_Rocks480/I_Basalt_10.png","response":null,"trial_type":"image-keyboard-response","trial_index":63,"plugin_version":"2.1.0","time_elapsed":139819,"subject_id":"88363","group":"Group2","full_date":"2025-12-05T15:59:36.394Z","date":"2025-12-05","time":"15:59:36"},{"rt":null,"stimulus":"<p style=\"font-size: 50px; margin: 0; text-align: center;\">+</p>","response":null,"trial_type":"html-keyboard-response","trial_index":64,"plugin_version":"2.1.0","time_elapsed":140822,"subject_id":"88363","group":"Group2","full_date":"2025-12-05T15:59:36.394Z","date":"2025-12-05","time":"15:59:36"},{"task":"memory_phase","broad_category":"S","image_png":"S_Sandstone_11.png","image_id":459,"category_name":"Sandstone","category":29,"distinct_rating":1.82,"distinct_type":"Bottom","rt":null,"stimulus":"Stimuli_Rocks480/S_Sandstone_11.png","response":null,"trial_type":"image-keyboard-response","trial_index":65,"plugin_version":"2.1.0","time_elapsed":143357,"subject_id":"88363","group":"Group2","full_date":"2025-12-05T15:59:36.394Z","date":"2025-12-05","time":"15:59:36"},{"rt":null,"stimulus":"<p style=\"font-size: 50px; margin: 0; text-align: center;\">+</p>","response":null,"trial_type":"html-keyboard-response","trial_index":66,"plugin_version":"2.1.0","time_elapsed":144360,"subject_id":"88363","group":"Group2","full_date":"2025-12-05T15:59:36.394Z","date":"2025-12-05","time":"15:59:36"},{"task":"memory_phase","broad_category":"M","image_png":"M_Phyllite_13.png","image_id":269,"category_name":"Phyllite","category":17,"distinct_rating":2.8,"distinct_type":"Bottom","rt":null,"stimulus":"Stimuli_Rocks480/M_Phyllite_13.png","response":null,"trial_type":"image-keyboard-response","trial_index":67,"plugin_version":"2.1.0","time_elapsed":146887,"subject_id":"88363","group":"Group2","full_date":"2025-12-05T15:59:36.394Z","date":"2025-12-05","time":"15:59:36"},{"rt":null,"stimulus":"<p style=\"font-size: 50px; margin: 0; text-align: center;\">+</p>","response":null,"trial_type":"html-keyboard-response","trial_index":68,"plugin_version":"2.1.0","time_elapsed":147888,"subject_id":"88363","group":"Group2","full_date":"2025-12-05T15:59:36.394Z","date":"2025-12-05","time":"15:59:36"},{"task":"memory_phase","broad_category":"I","image_png":"I_Basalt_13.png","image_id":29,"category_name":"Basalt","category":2,"distinct_rating":2.68,"distinct_type":"Bottom","rt":null,"stimulus":"Stimuli_Rocks480/I_Basalt_13.png","response":null,"trial_type":"image-keyboard-response","trial_index":69,"plugin_version":"2.1.0","time_elapsed":150402,"subject_id":"88363","group":"Group2","full_date":"2025-12-05T15:59:36.394Z","date":"2025-12-05","time":"15:59:36"},{"rt":null,"stimulus":"<p style=\"font-size: 50px; margin: 0; text-align: center;\">+</p>","response":null,"trial_type":"html-keyboard-response","trial_index":70,"plugin_version":"2.1.0","time_elapsed":151405,"subject_id":"88363","group":"Group2","full_date":"2025-12-05T15:59:36.394Z","date":"2025-12-05","time":"15:59:36"},{"task":"memory_phase","broad_category":"S","image_png":"S_Shale_07.png","image_id":471,"category_name":"Shale","category":30,"distinct_rating":2.73,"distinct_type":"Bottom","rt":null,"stimulus":"Stimuli_Rocks480/S_Shale_07.png","response":null,"trial_type":"image-keyboard-response","trial_index":71,"plugin_version":"2.1.0","time_elapsed":153926,"subject_id":"88363","group":"Group2","full_date":"2025-12-05T15:59:36.394Z","date":"2025-12-05","time":"15:59:36"},{"rt":null,"stimulus":"<p style=\"font-size: 50px; margin: 0; text-align: center;\">+</p>","response":null,"trial_type":"html-keyboard-response","trial_index":72,"plugin_version":"2.1.0","time_elapsed":154929,"subject_id":"88363","group":"Group2","full_date":"2025-12-05T15:59:36.394Z","date":"2025-12-05","time":"15:59:36"},{"task":"memory_phase","broad_category":"M","image_png":"M_Quartzite_07.png","image_id":279,"category_name":"Quartzite","category":18,"distinct_rating":1.97,"distinct_type":"Bottom","rt":null,"stimulus":"Stimuli_Rocks480/M_Quartzite_07.png","response":null,"trial_type":"image-keyboard-response","trial_index":73,"plugin_version":"2.1.0","time_elapsed":157457,"subject_id":"88363","group":"Group2","full_date":"2025-12-05T15:59:36.394Z","date":"2025-12-05","time":"15:59:36"},{"rt":null,"stimulus":"<p style=\"font-size: 50px; margin: 0; text-align: center;\">+</p>","response":null,"trial_type":"html-keyboard-response","trial_index":74,"plugin_version":"2.1.0","time_elapsed":158460,"subject_id":"88363","group":"Group2","full_date":"2025-12-05T15:59:36.394Z","date":"2025-12-05","time":"15:59:36"},{"task":"memory_phase","broad_category":"S","image_png":"S_Dolomite_07.png","image_id":391,"category_name":"Dolomite","category":25,"distinct_rating":1.73,"distinct_type":"Bottom","rt":null,"stimulus":"Stimuli_Rocks480/S_Dolomite_07.png","response":null,"trial_type":"image-keyboard-response","trial_index":75,"plugin_version":"2.1.0","time_elapsed":161001,"subject_id":"88363","group":"Group2","full_date":"2025-12-05T15:59:36.394Z","date":"2025-12-05","time":"15:59:36"},{"rt":null,"stimulus":"<p style=\"font-size: 50px; margin: 0; text-align: center;\">+</p>","response":null,"trial_type":"html-keyboard-response","trial_index":76,"plugin_version":"2.1.0","time_elapsed":162003,"subject_id":"88363","group":"Group2","full_date":"2025-12-05T15:59:36.394Z","date":"2025-12-05","time":"15:59:36"},{"task":"memory_phase","broad_category":"I","image_png":"I_Rhyolite_08.png","image_id":152,"category_name":"Rhyolite","category":10,"distinct_rating":1.38,"distinct_type":"Bottom","rt":null,"stimulus":"Stimuli_Rocks480/I_Rhyolite_08.png","response":null,"trial_type":"image-keyboard-response","trial_index":77,"plugin_version":"2.1.0","time_elapsed":164528,"subject_id":"88363","group":"Group2","full_date":"2025-12-05T15:59:36.394Z","date":"2025-12-05","time":"15:59:36"},{"rt":null,"stimulus":"<p style=\"font-size: 50px; margin: 0; text-align: center;\">+</p>","response":null,"trial_type":"html-keyboard-response","trial_index":78,"plugin_version":"2.1.0","time_elapsed":165530,"subject_id":"88363","group":"Group2","full_date":"2025-12-05T15:59:36.394Z","date":"2025-12-05","time":"15:59:36"},{"task":"memory_phase","broad_category":"S","image_png":"S_Conglomerate_14.png","image_id":382,"category_name":"Conglomerate","category":24,"distinct_rating":6.86,"distinct_type":"Top","rt":null,"stimulus":"Stimuli_Rocks480/S_Conglomerate_14.png","response":null,"trial_type":"image-keyboard-response","trial_index":79,"plugin_version":"2.1.0","time_elapsed":168068,"subject_id":"88363","group":"Group2","full_date":"2025-12-05T15:59:36.394Z","date":"2025-12-05","time":"15:59:36"},{"rt":null,"stimulus":"<p style=\"font-size: 50px; margin: 0; text-align: center;\">+</p>","response":null,"trial_type":"html-keyboard-response","trial_index":80,"plugin_version":"2.1.0","time_elapsed":169070,"subject_id":"88363","group":"Group2","full_date":"2025-12-05T15:59:36.394Z","date":"2025-12-05","time":"15:59:36"},{"task":"memory_phase","broad_category":"I","image_png":"I_Pumice_01.png","image_id":129,"category_name":"Pumice","category":9,"distinct_rating":3.25,"distinct_type":"Bottom","rt":null,"stimulus":"Stimuli_Rocks480/I_Pumice_01.png","response":null,"trial_type":"image-keyboard-response","trial_index":81,"plugin_version":"2.1.0","time_elapsed":171610,"subject_id":"88363","group":"Group2","full_date":"2025-12-05T15:59:36.394Z","date":"2025-12-05","time":"15:59:36"},{"rt":null,"stimulus":"<p style=\"font-size: 50px; margin: 0; text-align: center;\">+</p>","response":null,"trial_type":"html-keyboard-response","trial_index":82,"plugin_version":"2.1.0","time_elapsed":172612,"subject_id":"88363","group":"Group2","full_date":"2025-12-05T15:59:36.394Z","date":"2025-12-05","time":"15:59:36"},{"task":"memory_phase","broad_category":"I","image_png":"I_Andesite_04.png","image_id":4,"category_name":"Andesite","category":1,"distinct_rating":3.18,"distinct_type":"Bottom","rt":null,"stimulus":"Stimuli_Rocks480/I_Andesite_04.png","response":null,"trial_type":"image-keyboard-response","trial_index":83,"plugin_version":"2.1.0","time_elapsed":175136,"subject_id":"88363","group":"Group2","full_date":"2025-12-05T15:59:36.394Z","date":"2025-12-05","time":"15:59:36"},{"rt":null,"stimulus":"<p style=\"font-size: 50px; margin: 0; text-align: center;\">+</p>","response":null,"trial_type":"html-keyboard-response","trial_index":84,"plugin_version":"2.1.0","time_elapsed":176139,"subject_id":"88363","group":"Group2","full_date":"2025-12-05T15:59:36.394Z","date":"2025-12-05","time":"15:59:36"},{"task":"memory_phase","broad_category":"S","image_png":"S_Rock Salt_15.png","image_id":447,"category_name":"Rock Salt","category":28,"distinct_rating":7.79,"distinct_type":"Top","rt":null,"stimulus":"Stimuli_Rocks480/S_Rock Salt_15.png","response":null,"trial_type":"image-keyboard-response","trial_index":85,"plugin_version":"2.1.0","time_elapsed":178675,"subject_id":"88363","group":"Group2","full_date":"2025-12-05T15:59:36.394Z","date":"2025-12-05","time":"15:59:36"},{"rt":null,"stimulus":"<p style=\"font-size: 50px; margin: 0; text-align: center;\">+</p>","response":null,"trial_type":"html-keyboard-response","trial_index":86,"plugin_version":"2.1.0","time_elapsed":179678,"subject_id":"88363","group":"Group2","full_date":"2025-12-05T15:59:36.394Z","date":"2025-12-05","time":"15:59:36"},{"task":"memory_phase","broad_category":"M","image_png":"M_Quartzite_12.png","image_id":284,"category_name":"Quartzite","category":18,"distinct_rating":1.92,"distinct_type":"Bottom","rt":null,"stimulus":"Stimuli_Rocks480/M_Quartzite_12.png","response":null,"trial_type":"image-keyboard-response","trial_index":87,"plugin_version":"2.1.0","time_elapsed":182201,"subject_id":"88363","group":"Group2","full_date":"2025-12-05T15:59:36.394Z","date":"2025-12-05","time":"15:59:36"},{"rt":null,"stimulus":"<p style=\"font-size: 50px; margin: 0; text-align: center;\">+</p>","response":null,"trial_type":"html-keyboard-response","trial_index":88,"plugin_version":"2.1.0","time_elapsed":183204,"subject_id":"88363","group":"Group2","full_date":"2025-12-05T15:59:36.394Z","date":"2025-12-05","time":"15:59:36"},{"task":"memory_phase","broad_category":"S","image_png":"S_Sandstone_08.png","image_id":456,"category_name":"Sandstone","category":29,"distinct_rating":1.5,"distinct_type":"Bottom","rt":null,"stimulus":"Stimuli_Rocks480/S_Sandstone_08.png","response":null,"trial_type":"image-keyboard-response","trial_index":89,"plugin_version":"2.1.0","time_elapsed":185742,"subject_id":"88363","group":"Group2","full_date":"2025-12-05T15:59:36.394Z","date":"2025-12-05","time":"15:59:36"},{"rt":null,"stimulus":"<p style=\"font-size: 50px; margin: 0; text-align: center;\">+</p>","response":null,"trial_type":"html-keyboard-response","trial_index":90,"plugin_version":"2.1.0","time_elapsed":186743,"subject_id":"88363","group":"Group2","full_date":"2025-12-05T15:59:36.394Z","date":"2025-12-05","time":"15:59:36"},{"task":"memory_phase","broad_category":"I","image_png":"I_Basalt_08.png","image_id":24,"category_name":"Basalt","category":2,"distinct_rating":2.31,"distinct_type":"Bottom","rt":null,"stimulus":"Stimuli_Rocks480/I_Basalt_08.png","response":null,"trial_type":"image-keyboard-response","trial_index":91,"plugin_version":"2.1.0","time_elapsed":189275,"subject_id":"88363","group":"Group2","full_date":"2025-12-05T15:59:36.394Z","date":"2025-12-05","time":"15:59:36"},{"rt":null,"stimulus":"<p style=\"font-size: 50px; margin: 0; text-align: center;\">+</p>","response":null,"trial_type":"html-keyboard-response","trial_index":92,"plugin_version":"2.1.0","time_elapsed":190278,"subject_id":"88363","group":"Group2","full_date":"2025-12-05T15:59:36.394Z","date":"2025-12-05","time":"15:59:36"},{"task":"memory_phase","broad_category":"M","image_png":"M_Quartzite_15.png","image_id":287,"category_name":"Quartzite","category":18,"distinct_rating":2.19,"distinct_type":"Bottom","rt":null,"stimulus":"Stimuli_Rocks480/M_Quartzite_15.png","response":null,"trial_type":"image-keyboard-response","trial_index":93,"plugin_version":"2.1.0","time_elapsed":192805,"subject_id":"88363","group":"Group2","full_date":"2025-12-05T15:59:36.394Z","date":"2025-12-05","time":"15:59:36"},{"rt":null,"stimulus":"<p style=\"font-size: 50px; margin: 0; text-align: center;\">+</p>","response":null,"trial_type":"html-keyboard-response","trial_index":94,"plugin_version":"2.1.0","time_elapsed":193808,"subject_id":"88363","group":"Group2","full_date":"2025-12-05T15:59:36.394Z","date":"2025-12-05","time":"15:59:36"},{"task":"memory_phase","broad_category":"S","image_png":"S_Rock Salt_13.png","image_id":445,"category_name":"Rock Salt","category":28,"distinct_rating":7.58,"distinct_type":"Top","rt":null,"stimulus":"Stimuli_Rocks480/S_Rock Salt_13.png","response":null,"trial_type":"image-keyboard-response","trial_index":95,"plugin_version":"2.1.0","time_elapsed":196336,"subject_id":"88363","group":"Group2","full_date":"2025-12-05T15:59:36.394Z","date":"2025-12-05","time":"15:59:36"},{"rt":null,"stimulus":"<p style=\"font-size: 50px; margin: 0; text-align: center;\">+</p>","response":null,"trial_type":"html-keyboard-response","trial_index":96,"plugin_version":"2.1.0","time_elapsed":197339,"subject_id":"88363","group":"Group2","full_date":"2025-12-05T15:59:36.394Z","date":"2025-12-05","time":"15:59:36"},{"task":"memory_phase","broad_category":"I","image_png":"I_Pegmatite_03.png","image_id":99,"category_name":"Pegmatite","category":7,"distinct_rating":7.24,"distinct_type":"Top","rt":null,"stimulus":"Stimuli_Rocks480/I_Pegmatite_03.png","response":null,"trial_type":"image-keyboard-response","trial_index":97,"plugin_version":"2.1.0","time_elapsed":199863,"subject_id":"88363","group":"Group2","full_date":"2025-12-05T15:59:36.394Z","date":"2025-12-05","time":"15:59:36"},{"rt":null,"stimulus":"<p style=\"font-size: 50px; margin: 0; text-align: center;\">+</p>","response":null,"trial_type":"html-keyboard-response","trial_index":98,"plugin_version":"2.1.0","time_elapsed":200865,"subject_id":"88363","group":"Group2","full_date":"2025-12-05T15:59:36.394Z","date":"2025-12-05","time":"15:59:36"},{"task":"memory_phase","broad_category":"M","image_png":"M_Phyllite_05.png","image_id":261,"category_name":"Phyllite","category":17,"distinct_rating":2.14,"distinct_type":"Bottom","rt":null,"stimulus":"Stimuli_Rocks480/M_Phyllite_05.png","response":null,"trial_type":"image-keyboard-response","trial_index":99,"plugin_version":"2.1.0","time_elapsed":203386,"subject_id":"88363","group":"Group2","full_date":"2025-12-05T15:59:36.394Z","date":"2025-12-05","time":"15:59:36"},{"rt":null,"stimulus":"<p style=\"font-size: 50px; margin: 0; text-align: center;\">+</p>","response":null,"trial_type":"html-keyboard-response","trial_index":100,"plugin_version":"2.1.0","time_elapsed":204389,"subject_id":"88363","group":"Group2","full_date":"2025-12-05T15:59:36.394Z","date":"2025-12-05","time":"15:59:36"},{"task":"memory_phase","broad_category":"I","image_png":"I_Diorite_01.png","image_id":33,"category_name":"Diorite","category":3,"distinct_rating":2.97,"distinct_type":"Bottom","rt":null,"stimulus":"Stimuli_Rocks480/I_Diorite_01.png","response":null,"trial_type":"image-keyboard-response","trial_index":101,"plugin_version":"2.1.0","time_elapsed":206919,"subject_id":"88363","group":"Group2","full_date":"2025-12-05T15:59:36.394Z","date":"2025-12-05","time":"15:59:36"},{"rt":null,"stimulus":"<p style=\"font-size: 50px; margin: 0; text-align: center;\">+</p>","response":null,"trial_type":"html-keyboard-response","trial_index":102,"plugin_version":"2.1.0","time_elapsed":207922,"subject_id":"88363","group":"Group2","full_date":"2025-12-05T15:59:36.394Z","date":"2025-12-05","time":"15:59:36"},{"task":"memory_phase","broad_category":"M","image_png":"M_Slate_04.png","image_id":308,"category_name":"Slate","category":20,"distinct_rating":2.2,"distinct_type":"Bottom","rt":null,"stimulus":"Stimuli_Rocks480/M_Slate_04.png","response":null,"trial_type":"image-keyboard-response","trial_index":103,"plugin_version":"2.1.0","time_elapsed":210442,"subject_id":"88363","group":"Group2","full_date":"2025-12-05T15:59:36.394Z","date":"2025-12-05","time":"15:59:36"},{"rt":null,"stimulus":"<p style=\"font-size: 50px; margin: 0; text-align: center;\">+</p>","response":null,"trial_type":"html-keyboard-response","trial_index":104,"plugin_version":"2.1.0","time_elapsed":211444,"subject_id":"88363","group":"Group2","full_date":"2025-12-05T15:59:36.394Z","date":"2025-12-05","time":"15:59:36"},{"task":"memory_phase","broad_category":"I","image_png":"I_Obsidian_06.png","image_id":86,"category_name":"Obsidian","category":6,"distinct_rating":8.01,"distinct_type":"Top","rt":null,"stimulus":"Stimuli_Rocks480/I_Obsidian_06.png","response":null,"trial_type":"image-keyboard-response","trial_index":105,"plugin_version":"2.1.0","time_elapsed":213977,"subject_id":"88363","group":"Group2","full_date":"2025-12-05T15:59:36.394Z","date":"2025-12-05","time":"15:59:36"},{"rt":22985,"stimulus":"<p style=\"max-width: 760px; margin: auto; font-size: 35px; line-height: 1.5;\">You have completed 1 study phase. Now, we'll show you all the images again 2 more times.<br><br>Press SPACE to continue</p>","response":" ","trial_type":"html-keyboard-response","trial_index":106,"plugin_version":"2.1.0","time_elapsed":236965,"subject_id":"88363","group":"Group2","full_date":"2025-12-05T15:59:36.394Z","date":"2025-12-05","time":"15:59:36"},{"rt":null,"stimulus":"<p style=\"font-size: 50px; margin: 0; text-align: center;\">+</p>","response":null,"trial_type":"html-keyboard-response","trial_index":107,"plugin_version":"2.1.0","time_elapsed":237968,"subject_id":"88363","group":"Group2","full_date":"2025-12-05T15:59:36.394Z","date":"2025-12-05","time":"15:59:36"},{"task":"memory_phase","broad_category":"M","image_png":"M_Gneiss_15.png","image_id":207,"category_name":"Gneiss","category":13,"distinct_rating":3.11,"distinct_type":"Bottom","rt":null,"stimulus":"Stimuli_Rocks480/M_Gneiss_15.png","response":null,"trial_type":"image-keyboard-response","trial_index":108,"plugin_version":"2.1.0","time_elapsed":240488,"subject_id":"88363","group":"Group2","full_date":"2025-12-05T15:59:36.394Z","date":"2025-12-05","time":"15:59:36"},{"rt":null,"stimulus":"<p style=\"font-size: 50px; margin: 0; text-align: center;\">+</p>","response":null,"trial_type":"html-keyboard-response","trial_index":109,"plugin_version":"2.1.0","time_elapsed":241490,"subject_id":"88363","group":"Group2","full_date":"2025-12-05T15:59:36.394Z","date":"2025-12-05","time":"15:59:36"},{"task":"memory_phase","broad_category":"S","image_png":"S_Shale_07.png","image_id":471,"category_name":"Shale","category":30,"distinct_rating":2.73,"distinct_type":"Bottom","rt":null,"stimulus":"Stimuli_Rocks480/S_Shale_07.png","response":null,"trial_type":"image-keyboard-response","trial_index":110,"plugin_version":"2.1.0","time_elapsed":244013,"subject_id":"88363","group":"Group2","full_date":"2025-12-05T15:59:36.394Z","date":"2025-12-05","time":"15:59:36"},{"rt":null,"stimulus":"<p style=\"font-size: 50px; margin: 0; text-align: center;\">+</p>","response":null,"trial_type":"html-keyboard-response","trial_index":111,"plugin_version":"2.1.0","time_elapsed":245016,"subject_id":"88363","group":"Group2","full_date":"2025-12-05T15:59:36.394Z","date":"2025-12-05","time":"15:59:36"},{"task":"memory_phase","broad_category":"I","image_png":"I_Andesite_09.png","image_id":9,"category_name":"Andesite","category":1,"distinct_rating":2.49,"distinct_type":"Bottom","rt":null,"stimulus":"Stimuli_Rocks480/I_Andesite_09.png","response":null,"trial_type":"image-keyboard-response","trial_index":112,"plugin_version":"2.1.0","time_elapsed":247539,"subject_id":"88363","group":"Group2","full_date":"2025-12-05T15:59:36.394Z","date":"2025-12-05","time":"15:59:36"},{"rt":null,"stimulus":"<p style=\"font-size: 50px; margin: 0; text-align: center;\">+</p>","response":null,"trial_type":"html-keyboard-response","trial_index":113,"plugin_version":"2.1.0","time_elapsed":248542,"subject_id":"88363","group":"Group2","full_date":"2025-12-05T15:59:36.394Z","date":"2025-12-05","time":"15:59:36"},{"task":"memory_phase","broad_category":"I","image_png":"I_Diorite_10.png","image_id":42,"category_name":"Diorite","category":3,"distinct_rating":2.84,"distinct_type":"Bottom","rt":null,"stimulus":"Stimuli_Rocks480/I_Diorite_10.png","response":null,"trial_type":"image-keyboard-response","trial_index":114,"plugin_version":"2.1.0","time_elapsed":251079,"subject_id":"88363","group":"Group2","full_date":"2025-12-05T15:59:36.394Z","date":"2025-12-05","time":"15:59:36"},{"rt":null,"stimulus":"<p style=\"font-size: 50px; margin: 0; text-align: center;\">+</p>","response":null,"trial_type":"html-keyboard-response","trial_index":115,"plugin_version":"2.1.0","time_elapsed":252081,"subject_id":"88363","group":"Group2","full_date":"2025-12-05T15:59:36.394Z","date":"2025-12-05","time":"15:59:36"},{"task":"memory_phase","broad_category":"M","image_png":"M_Marble_03.png","image_id":227,"category_name":"Marble","category":15,"distinct_rating":2.67,"distinct_type":"Bottom","rt":null,"stimulus":"Stimuli_Rocks480/M_Marble_03.png","response":null,"trial_type":"image-keyboard-response","trial_index":116,"plugin_version":"2.1.0","time_elapsed":254598,"subject_id":"88363","group":"Group2","full_date":"2025-12-05T15:59:36.394Z","date":"2025-12-05","time":"15:59:36"},{"rt":null,"stimulus":"<p style=\"font-size: 50px; margin: 0; text-align: center;\">+</p>","response":null,"trial_type":"html-keyboard-response","trial_index":117,"plugin_version":"2.1.0","time_elapsed":255601,"subject_id":"88363","group":"Group2","full_date":"2025-12-05T15:59:36.394Z","date":"2025-12-05","time":"15:59:36"},{"task":"memory_phase","broad_category":"I","image_png":"I_Basalt_10.png","image_id":26,"category_name":"Basalt","category":2,"distinct_rating":2.76,"distinct_type":"Bottom","rt":null,"stimulus":"Stimuli_Rocks480/I_Basalt_10.png","response":null,"trial_type":"image-keyboard-response","trial_index":118,"plugin_version":"2.1.0","time_elapsed":258141,"subject_id":"88363","group":"Group2","full_date":"2025-12-05T15:59:36.394Z","date":"2025-12-05","time":"15:59:36"},{"rt":null,"stimulus":"<p style=\"font-size: 50px; margin: 0; text-align: center;\">+</p>","response":null,"trial_type":"html-keyboard-response","trial_index":119,"plugin_version":"2.1.0","time_elapsed":259143,"subject_id":"88363","group":"Group2","full_date":"2025-12-05T15:59:36.394Z","date":"2025-12-05","time":"15:59:36"},{"task":"memory_phase","broad_category":"I","image_png":"I_Pumice_13.png","image_id":141,"category_name":"Pumice","category":9,"distinct_rating":3.12,"distinct_type":"Bottom","rt":null,"stimulus":"Stimuli_Rocks480/I_Pumice_13.png","response":null,"trial_type":"image-keyboard-response","trial_index":120,"plugin_version":"2.1.0","time_elapsed":261677,"subject_id":"88363","group":"Group2","full_date":"2025-12-05T15:59:36.394Z","date":"2025-12-05","time":"15:59:36"},{"rt":null,"stimulus":"<p style=\"font-size: 50px; margin: 0; text-align: center;\">+</p>","response":null,"trial_type":"html-keyboard-response","trial_index":121,"plugin_version":"2.1.0","time_elapsed":262679,"subject_id":"88363","group":"Group2","full_date":"2025-12-05T15:59:36.394Z","date":"2025-12-05","time":"15:59:36"},{"task":"memory_phase","broad_category":"M","image_png":"M_Slate_14.png","image_id":318,"category_name":"Slate","category":20,"distinct_rating":2.58,"distinct_type":"Bottom","rt":null,"stimulus":"Stimuli_Rocks480/M_Slate_14.png","response":null,"trial_type":"image-keyboard-response","trial_index":122,"plugin_version":"2.1.0","time_elapsed":265199,"subject_id":"88363","group":"Group2","full_date":"2025-12-05T15:59:36.394Z","date":"2025-12-05","time":"15:59:36"},{"rt":null,"stimulus":"<p style=\"font-size: 50px; margin: 0; text-align: center;\">+</p>","response":null,"trial_type":"html-keyboard-response","trial_index":123,"plugin_version":"2.1.0","time_elapsed":266203,"subject_id":"88363","group":"Group2","full_date":"2025-12-05T15:59:36.394Z","date":"2025-12-05","time":"15:59:36"},{"task":"memory_phase","broad_category":"I","image_png":"I_Pumice_14.png","image_id":142,"category_name":"Pumice","category":9,"distinct_rating":3.22,"distinct_type":"Bottom","rt":null,"stimulus":"Stimuli_Rocks480/I_Pumice_14.png","response":null,"trial_type":"image-keyboard-response","trial_index":124,"plugin_version":"2.1.0","time_elapsed":268728,"subject_id":"88363","group":"Group2","full_date":"2025-12-05T15:59:36.394Z","date":"2025-12-05","time":"15:59:36"},{"rt":null,"stimulus":"<p style=\"font-size: 50px; margin: 0; text-align: center;\">+</p>","response":null,"trial_type":"html-keyboard-response","trial_index":125,"plugin_version":"2.1.0","time_elapsed":269732,"subject_id":"88363","group":"Group2","full_date":"2025-12-05T15:59:36.394Z","date":"2025-12-05","time":"15:59:36"},{"task":"memory_phase","broad_category":"M","image_png":"M_Slate_10.png","image_id":314,"category_name":"Slate","category":20,"distinct_rating":1.94,"distinct_type":"Bottom","rt":null,"stimulus":"Stimuli_Rocks480/M_Slate_10.png","response":null,"trial_type":"image-keyboard-response","trial_index":126,"plugin_version":"2.1.0","time_elapsed":272262,"subject_id":"88363","group":"Group2","full_date":"2025-12-05T15:59:36.394Z","date":"2025-12-05","time":"15:59:36"},{"rt":null,"stimulus":"<p style=\"font-size: 50px; margin: 0; text-align: center;\">+</p>","response":null,"trial_type":"html-keyboard-response","trial_index":127,"plugin_version":"2.1.0","time_elapsed":273265,"subject_id":"88363","group":"Group2","full_date":"2025-12-05T15:59:36.394Z","date":"2025-12-05","time":"15:59:36"},{"task":"memory_phase","broad_category":"S","image_png":"S_Sandstone_11.png","image_id":459,"category_name":"Sandstone","category":29,"distinct_rating":1.82,"distinct_type":"Bottom","rt":null,"stimulus":"Stimuli_Rocks480/S_Sandstone_11.png","response":null,"trial_type":"image-keyboard-response","trial_index":128,"plugin_version":"2.1.0","time_elapsed":275795,"subject_id":"88363","group":"Group2","full_date":"2025-12-05T15:59:36.394Z","date":"2025-12-05","time":"15:59:36"},{"rt":null,"stimulus":"<p style=\"font-size: 50px; margin: 0; text-align: center;\">+</p>","response":null,"trial_type":"html-keyboard-response","trial_index":129,"plugin_version":"2.1.0","time_elapsed":276798,"subject_id":"88363","group":"Group2","full_date":"2025-12-05T15:59:36.394Z","date":"2025-12-05","time":"15:59:36"},{"task":"memory_phase","broad_category":"I","image_png":"I_Gabbro_14.png","image_id":62,"category_name":"Gabbro","category":4,"distinct_rating":2.95,"distinct_type":"Bottom","rt":null,"stimulus":"Stimuli_Rocks480/I_Gabbro_14.png","response":null,"trial_type":"image-keyboard-response","trial_index":130,"plugin_version":"2.1.0","time_elapsed":279343,"subject_id":"88363","group":"Group2","full_date":"2025-12-05T15:59:36.394Z","date":"2025-12-05","time":"15:59:36"},{"rt":null,"stimulus":"<p style=\"font-size: 50px; margin: 0; text-align: center;\">+</p>","response":null,"trial_type":"html-keyboard-response","trial_index":131,"plugin_version":"2.1.0","time_elapsed":280345,"subject_id":"88363","group":"Group2","full_date":"2025-12-05T15:59:36.394Z","date":"2025-12-05","time":"15:59:36"},{"task":"memory_phase","broad_category":"I","image_png":"I_Pegmatite_11.png","image_id":107,"category_name":"Pegmatite","category":7,"distinct_rating":7.11,"distinct_type":"Top","rt":null,"stimulus":"Stimuli_Rocks480/I_Pegmatite_11.png","response":null,"trial_type":"image-keyboard-response","trial_index":132,"plugin_version":"2.1.0","time_elapsed":282875,"subject_id":"88363","group":"Group2","full_date":"2025-12-05T15:59:36.394Z","date":"2025-12-05","time":"15:59:36"},{"rt":null,"stimulus":"<p style=\"font-size: 50px; margin: 0; text-align: center;\">+</p>","response":null,"trial_type":"html-keyboard-response","trial_index":133,"plugin_version":"2.1.0","time_elapsed":283878,"subject_id":"88363","group":"Group2","full_date":"2025-12-05T15:59:36.394Z","date":"2025-12-05","time":"15:59:36"},{"task":"memory_phase","broad_category":"S","image_png":"S_Dolomite_16.png","image_id":400,"category_name":"Dolomite","category":25,"distinct_rating":1.71,"distinct_type":"Bottom","rt":null,"stimulus":"Stimuli_Rocks480/S_Dolomite_16.png","response":null,"trial_type":"image-keyboard-response","trial_index":134,"plugin_version":"2.1.0","time_elapsed":286400,"subject_id":"88363","group":"Group2","full_date":"2025-12-05T15:59:36.394Z","date":"2025-12-05","time":"15:59:36"},{"rt":null,"stimulus":"<p style=\"font-size: 50px; margin: 0; text-align: center;\">+</p>","response":null,"trial_type":"html-keyboard-response","trial_index":135,"plugin_version":"2.1.0","time_elapsed":287402,"subject_id":"88363","group":"Group2","full_date":"2025-12-05T15:59:36.394Z","date":"2025-12-05","time":"15:59:36"},{"task":"memory_phase","broad_category":"M","image_png":"M_Gneiss_14.png","image_id":206,"category_name":"Gneiss","category":13,"distinct_rating":3.41,"distinct_type":"Bottom","rt":null,"stimulus":"Stimuli_Rocks480/M_Gneiss_14.png","response":null,"trial_type":"image-keyboard-response","trial_index":136,"plugin_version":"2.1.0","time_elapsed":289927,"subject_id":"88363","group":"Group2","full_date":"2025-12-05T15:59:36.394Z","date":"2025-12-05","time":"15:59:36"},{"rt":null,"stimulus":"<p style=\"font-size: 50px; margin: 0; text-align: center;\">+</p>","response":null,"trial_type":"html-keyboard-response","trial_index":137,"plugin_version":"2.1.0","time_elapsed":290929,"subject_id":"88363","group":"Group2","full_date":"2025-12-05T15:59:36.394Z","date":"2025-12-05","time":"15:59:36"},{"task":"memory_phase","broad_category":"S","image_png":"S_Sandstone_04.png","image_id":452,"category_name":"Sandstone","category":29,"distinct_rating":1.8,"distinct_type":"Bottom","rt":null,"stimulus":"Stimuli_Rocks480/S_Sandstone_04.png","response":null,"trial_type":"image-keyboard-response","trial_index":138,"plugin_version":"2.1.0","time_elapsed":293469,"subject_id":"88363","group":"Group2","full_date":"2025-12-05T15:59:36.394Z","date":"2025-12-05","time":"15:59:36"},{"rt":null,"stimulus":"<p style=\"font-size: 50px; margin: 0; text-align: center;\">+</p>","response":null,"trial_type":"html-keyboard-response","trial_index":139,"plugin_version":"2.1.0","time_elapsed":294472,"subject_id":"88363","group":"Group2","full_date":"2025-12-05T15:59:36.394Z","date":"2025-12-05","time":"15:59:36"},{"task":"memory_phase","broad_category":"S","image_png":"S_Shale_03.png","image_id":467,"category_name":"Shale","category":30,"distinct_rating":1.95,"distinct_type":"Bottom","rt":null,"stimulus":"Stimuli_Rocks480/S_Shale_03.png","response":null,"trial_type":"image-keyboard-response","trial_index":140,"plugin_version":"2.1.0","time_elapsed":297000,"subject_id":"88363","group":"Group2","full_date":"2025-12-05T15:59:36.394Z","date":"2025-12-05","time":"15:59:36"},{"rt":null,"stimulus":"<p style=\"font-size: 50px; margin: 0; text-align: center;\">+</p>","response":null,"trial_type":"html-keyboard-response","trial_index":141,"plugin_version":"2.1.0","time_elapsed":298002,"subject_id":"88363","group":"Group2","full_date":"2025-12-05T15:59:36.394Z","date":"2025-12-05","time":"15:59:36"},{"task":"memory_phase","broad_category":"S","image_png":"S_Dolomite_01.png","image_id":385,"category_name":"Dolomite","category":25,"distinct_rating":1.43,"distinct_type":"Bottom","rt":null,"stimulus":"Stimuli_Rocks480/S_Dolomite_01.png","response":null,"trial_type":"image-keyboard-response","trial_index":142,"plugin_version":"2.1.0","time_elapsed":300547,"subject_id":"88363","group":"Group2","full_date":"2025-12-05T15:59:36.394Z","date":"2025-12-05","time":"15:59:36"},{"rt":null,"stimulus":"<p style=\"font-size: 50px; margin: 0; text-align: center;\">+</p>","response":null,"trial_type":"html-keyboard-response","trial_index":143,"plugin_version":"2.1.0","time_elapsed":301550,"subject_id":"88363","group":"Group2","full_date":"2025-12-05T15:59:36.394Z","date":"2025-12-05","time":"15:59:36"},{"task":"memory_phase","broad_category":"I","image_png":"I_Pegmatite_03.png","image_id":99,"category_name":"Pegmatite","category":7,"distinct_rating":7.24,"distinct_type":"Top","rt":null,"stimulus":"Stimuli_Rocks480/I_Pegmatite_03.png","response":null,"trial_type":"image-keyboard-response","trial_index":144,"plugin_version":"2.1.0","time_elapsed":304053,"subject_id":"88363","group":"Group2","full_date":"2025-12-05T15:59:36.394Z","date":"2025-12-05","time":"15:59:36"},{"rt":null,"stimulus":"<p style=\"font-size: 50px; margin: 0; text-align: center;\">+</p>","response":null,"trial_type":"html-keyboard-response","trial_index":145,"plugin_version":"2.1.0","time_elapsed":305056,"subject_id":"88363","group":"Group2","full_date":"2025-12-05T15:59:36.394Z","date":"2025-12-05","time":"15:59:36"},{"task":"memory_phase","broad_category":"I","image_png":"I_Gabbro_12.png","image_id":60,"category_name":"Gabbro","category":4,"distinct_rating":2.6,"distinct_type":"Bottom","rt":null,"stimulus":"Stimuli_Rocks480/I_Gabbro_12.png","response":null,"trial_type":"image-keyboard-response","trial_index":146,"plugin_version":"2.1.0","time_elapsed":307585,"subject_id":"88363","group":"Group2","full_date":"2025-12-05T15:59:36.394Z","date":"2025-12-05","time":"15:59:36"},{"rt":null,"stimulus":"<p style=\"font-size: 50px; margin: 0; text-align: center;\">+</p>","response":null,"trial_type":"html-keyboard-response","trial_index":147,"plugin_version":"2.1.0","time_elapsed":308587,"subject_id":"88363","group":"Group2","full_date":"2025-12-05T15:59:36.394Z","date":"2025-12-05","time":"15:59:36"},{"task":"memory_phase","broad_category":"I","image_png":"I_Diorite_01.png","image_id":33,"category_name":"Diorite","category":3,"distinct_rating":2.97,"distinct_type":"Bottom","rt":null,"stimulus":"Stimuli_Rocks480/I_Diorite_01.png","response":null,"trial_type":"image-keyboard-response","trial_index":148,"plugin_version":"2.1.0","time_elapsed":311091,"subject_id":"88363","group":"Group2","full_date":"2025-12-05T15:59:36.394Z","date":"2025-12-05","time":"15:59:36"},{"rt":null,"stimulus":"<p style=\"font-size: 50px; margin: 0; text-align: center;\">+</p>","response":null,"trial_type":"html-keyboard-response","trial_index":149,"plugin_version":"2.1.0","time_elapsed":312094,"subject_id":"88363","group":"Group2","full_date":"2025-12-05T15:59:36.394Z","date":"2025-12-05","time":"15:59:36"},{"task":"memory_phase","broad_category":"I","image_png":"I_Basalt_13.png","image_id":29,"category_name":"Basalt","category":2,"distinct_rating":2.68,"distinct_type":"Bottom","rt":null,"stimulus":"Stimuli_Rocks480/I_Basalt_13.png","response":null,"trial_type":"image-keyboard-response","trial_index":150,"plugin_version":"2.1.0","time_elapsed":314618,"subject_id":"88363","group":"Group2","full_date":"2025-12-05T15:59:36.394Z","date":"2025-12-05","time":"15:59:36"},{"rt":null,"stimulus":"<p style=\"font-size: 50px; margin: 0; text-align: center;\">+</p>","response":null,"trial_type":"html-keyboard-response","trial_index":151,"plugin_version":"2.1.0","time_elapsed":315621,"subject_id":"88363","group":"Group2","full_date":"2025-12-05T15:59:36.394Z","date":"2025-12-05","time":"15:59:36"},{"task":"memory_phase","broad_category":"M","image_png":"M_Phyllite_13.png","image_id":269,"category_name":"Phyllite","category":17,"distinct_rating":2.8,"distinct_type":"Bottom","rt":null,"stimulus":"Stimuli_Rocks480/M_Phyllite_13.png","response":null,"trial_type":"image-keyboard-response","trial_index":152,"plugin_version":"2.1.0","time_elapsed":318155,"subject_id":"88363","group":"Group2","full_date":"2025-12-05T15:59:36.394Z","date":"2025-12-05","time":"15:59:36"},{"rt":null,"stimulus":"<p style=\"font-size: 50px; margin: 0; text-align: center;\">+</p>","response":null,"trial_type":"html-keyboard-response","trial_index":153,"plugin_version":"2.1.0","time_elapsed":319156,"subject_id":"88363","group":"Group2","full_date":"2025-12-05T15:59:36.394Z","date":"2025-12-05","time":"15:59:36"},{"task":"memory_phase","broad_category":"I","image_png":"I_Pumice_01.png","image_id":129,"category_name":"Pumice","category":9,"distinct_rating":3.25,"distinct_type":"Bottom","rt":null,"stimulus":"Stimuli_Rocks480/I_Pumice_01.png","response":null,"trial_type":"image-keyboard-response","trial_index":154,"plugin_version":"2.1.0","time_elapsed":321671,"subject_id":"88363","group":"Group2","full_date":"2025-12-05T15:59:36.394Z","date":"2025-12-05","time":"15:59:36"},{"rt":null,"stimulus":"<p style=\"font-size: 50px; margin: 0; text-align: center;\">+</p>","response":null,"trial_type":"html-keyboard-response","trial_index":155,"plugin_version":"2.1.0","time_elapsed":322674,"subject_id":"88363","group":"Group2","full_date":"2025-12-05T15:59:36.394Z","date":"2025-12-05","time":"15:59:36"},{"task":"memory_phase","broad_category":"M","image_png":"M_Gneiss_10.png","image_id":202,"category_name":"Gneiss","category":13,"distinct_rating":3.09,"distinct_type":"Bottom","rt":null,"stimulus":"Stimuli_Rocks480/M_Gneiss_10.png","response":null,"trial_type":"image-keyboard-response","trial_index":156,"plugin_version":"2.1.0","time_elapsed":325214,"subject_id":"88363","group":"Group2","full_date":"2025-12-05T15:59:36.394Z","date":"2025-12-05","time":"15:59:36"},{"rt":4956,"stimulus":"<p style=\"max-width: 760px; margin: auto; font-size: 35px; line-height: 1.5;\">Press SPACE to continue study phase</p>","response":" ","trial_type":"html-keyboard-response","trial_index":157,"plugin_version":"2.1.0","time_elapsed":330171,"subject_id":"88363","group":"Group2","full_date":"2025-12-05T15:59:36.394Z","date":"2025-12-05","time":"15:59:36"},{"rt":null,"stimulus":"<p style=\"font-size: 50px; margin: 0; text-align: center;\">+</p>","response":null,"trial_type":"html-keyboard-response","trial_index":158,"plugin_version":"2.1.0","time_elapsed":331173,"subject_id":"88363","group":"Group2","full_date":"2025-12-05T15:59:36.394Z","date":"2025-12-05","time":"15:59:36"},{"task":"memory_phase","broad_category":"S","image_png":"S_Dolomite_07.png","image_id":391,"category_name":"Dolomite","category":25,"distinct_rating":1.73,"distinct_type":"Bottom","rt":null,"stimulus":"Stimuli_Rocks480/S_Dolomite_07.png","response":null,"trial_type":"image-keyboard-response","trial_index":159,"plugin_version":"2.1.0","time_elapsed":333686,"subject_id":"88363","group":"Group2","full_date":"2025-12-05T15:59:36.394Z","date":"2025-12-05","time":"15:59:36"},{"rt":null,"stimulus":"<p style=\"font-size: 50px; margin: 0; text-align: center;\">+</p>","response":null,"trial_type":"html-keyboard-response","trial_index":160,"plugin_version":"2.1.0","time_elapsed":334689,"subject_id":"88363","group":"Group2","full_date":"2025-12-05T15:59:36.394Z","date":"2025-12-05","time":"15:59:36"},{"task":"memory_phase","broad_category":"I","image_png":"I_Diorite_15.png","image_id":47,"category_name":"Diorite","category":3,"distinct_rating":3.05,"distinct_type":"Bottom","rt":null,"stimulus":"Stimuli_Rocks480/I_Diorite_15.png","response":null,"trial_type":"image-keyboard-response","trial_index":161,"plugin_version":"2.1.0","time_elapsed":337212,"subject_id":"88363","group":"Group2","full_date":"2025-12-05T15:59:36.394Z","date":"2025-12-05","time":"15:59:36"},{"rt":null,"stimulus":"<p style=\"font-size: 50px; margin: 0; text-align: center;\">+</p>","response":null,"trial_type":"html-keyboard-response","trial_index":162,"plugin_version":"2.1.0","time_elapsed":338215,"subject_id":"88363","group":"Group2","full_date":"2025-12-05T15:59:36.394Z","date":"2025-12-05","time":"15:59:36"},{"task":"memory_phase","broad_category":"M","image_png":"M_Phyllite_05.png","image_id":261,"category_name":"Phyllite","category":17,"distinct_rating":2.14,"distinct_type":"Bottom","rt":null,"stimulus":"Stimuli_Rocks480/M_Phyllite_05.png","response":null,"trial_type":"image-keyboard-response","trial_index":163,"plugin_version":"2.1.0","time_elapsed":340748,"subject_id":"88363","group":"Group2","full_date":"2025-12-05T15:59:36.394Z","date":"2025-12-05","time":"15:59:36"},{"rt":null,"stimulus":"<p style=\"font-size: 50px; margin: 0; text-align: center;\">+</p>","response":null,"trial_type":"html-keyboard-response","trial_index":164,"plugin_version":"2.1.0","time_elapsed":341751,"subject_id":"88363","group":"Group2","full_date":"2025-12-05T15:59:36.394Z","date":"2025-12-05","time":"15:59:36"},{"task":"memory_phase","broad_category":"I","image_png":"I_Rhyolite_08.png","image_id":152,"category_name":"Rhyolite","category":10,"distinct_rating":1.38,"distinct_type":"Bottom","rt":null,"stimulus":"Stimuli_Rocks480/I_Rhyolite_08.png","response":null,"trial_type":"image-keyboard-response","trial_index":165,"plugin_version":"2.1.0","time_elapsed":344275,"subject_id":"88363","group":"Group2","full_date":"2025-12-05T15:59:36.394Z","date":"2025-12-05","time":"15:59:36"},{"rt":null,"stimulus":"<p style=\"font-size: 50px; margin: 0; text-align: center;\">+</p>","response":null,"trial_type":"html-keyboard-response","trial_index":166,"plugin_version":"2.1.0","time_elapsed":345278,"subject_id":"88363","group":"Group2","full_date":"2025-12-05T15:59:36.394Z","date":"2025-12-05","time":"15:59:36"},{"task":"memory_phase","broad_category":"S","image_png":"S_Shale_02.png","image_id":466,"category_name":"Shale","category":30,"distinct_rating":2.9,"distinct_type":"Bottom","rt":null,"stimulus":"Stimuli_Rocks480/S_Shale_02.png","response":null,"trial_type":"image-keyboard-response","trial_index":167,"plugin_version":"2.1.0","time_elapsed":347800,"subject_id":"88363","group":"Group2","full_date":"2025-12-05T15:59:36.394Z","date":"2025-12-05","time":"15:59:36"},{"rt":null,"stimulus":"<p style=\"font-size: 50px; margin: 0; text-align: center;\">+</p>","response":null,"trial_type":"html-keyboard-response","trial_index":168,"plugin_version":"2.1.0","time_elapsed":348803,"subject_id":"88363","group":"Group2","full_date":"2025-12-05T15:59:36.394Z","date":"2025-12-05","time":"15:59:36"},{"task":"memory_phase","broad_category":"I","image_png":"I_Gabbro_02.png","image_id":50,"category_name":"Gabbro","category":4,"distinct_rating":2.73,"distinct_type":"Bottom","rt":null,"stimulus":"Stimuli_Rocks480/I_Gabbro_02.png","response":null,"trial_type":"image-keyboard-response","trial_index":169,"plugin_version":"2.1.0","time_elapsed":351328,"subject_id":"88363","group":"Group2","full_date":"2025-12-05T15:59:36.394Z","date":"2025-12-05","time":"15:59:36"},{"rt":null,"stimulus":"<p style=\"font-size: 50px; margin: 0; text-align: center;\">+</p>","response":null,"trial_type":"html-keyboard-response","trial_index":170,"plugin_version":"2.1.0","time_elapsed":352330,"subject_id":"88363","group":"Group2","full_date":"2025-12-05T15:59:36.394Z","date":"2025-12-05","time":"15:59:36"},{"task":"memory_phase","broad_category":"M","image_png":"M_Slate_04.png","image_id":308,"category_name":"Slate","category":20,"distinct_rating":2.2,"distinct_type":"Bottom","rt":null,"stimulus":"Stimuli_Rocks480/M_Slate_04.png","response":null,"trial_type":"image-keyboard-response","trial_index":171,"plugin_version":"2.1.0","time_elapsed":354855,"subject_id":"88363","group":"Group2","full_date":"2025-12-05T15:59:36.394Z","date":"2025-12-05","time":"15:59:36"},{"rt":null,"stimulus":"<p style=\"font-size: 50px; margin: 0; text-align: center;\">+</p>","response":null,"trial_type":"html-keyboard-response","trial_index":172,"plugin_version":"2.1.0","time_elapsed":355859,"subject_id":"88363","group":"Group2","full_date":"2025-12-05T15:59:36.394Z","date":"2025-12-05","time":"15:59:36"},{"task":"memory_phase","broad_category":"I","image_png":"I_Rhyolite_05.png","image_id":149,"category_name":"Rhyolite","category":10,"distinct_rating":3.02,"distinct_type":"Bottom","rt":null,"stimulus":"Stimuli_Rocks480/I_Rhyolite_05.png","response":null,"trial_type":"image-keyboard-response","trial_index":173,"plugin_version":"2.1.0","time_elapsed":358388,"subject_id":"88363","group":"Group2","full_date":"2025-12-05T15:59:36.394Z","date":"2025-12-05","time":"15:59:36"},{"rt":null,"stimulus":"<p style=\"font-size: 50px; margin: 0; text-align: center;\">+</p>","response":null,"trial_type":"html-keyboard-response","trial_index":174,"plugin_version":"2.1.0","time_elapsed":359390,"subject_id":"88363","group":"Group2","full_date":"2025-12-05T15:59:36.394Z","date":"2025-12-05","time":"15:59:36"},{"task":"memory_phase","broad_category":"S","image_png":"S_Chert_13.png","image_id":365,"category_name":"Chert","category":23,"distinct_rating":6.57,"distinct_type":"Top","rt":null,"stimulus":"Stimuli_Rocks480/S_Chert_13.png","response":null,"trial_type":"image-keyboard-response","trial_index":175,"plugin_version":"2.1.0","time_elapsed":361909,"subject_id":"88363","group":"Group2","full_date":"2025-12-05T15:59:36.394Z","date":"2025-12-05","time":"15:59:36"},{"rt":null,"stimulus":"<p style=\"font-size: 50px; margin: 0; text-align: center;\">+</p>","response":null,"trial_type":"html-keyboard-response","trial_index":176,"plugin_version":"2.1.0","time_elapsed":362911,"subject_id":"88363","group":"Group2","full_date":"2025-12-05T15:59:36.394Z","date":"2025-12-05","time":"15:59:36"},{"task":"memory_phase","broad_category":"I","image_png":"I_Rhyolite_10.png","image_id":154,"category_name":"Rhyolite","category":10,"distinct_rating":2.88,"distinct_type":"Bottom","rt":null,"stimulus":"Stimuli_Rocks480/I_Rhyolite_10.png","response":null,"trial_type":"image-keyboard-response","trial_index":177,"plugin_version":"2.1.0","time_elapsed":365444,"subject_id":"88363","group":"Group2","full_date":"2025-12-05T15:59:36.394Z","date":"2025-12-05","time":"15:59:36"},{"rt":null,"stimulus":"<p style=\"font-size: 50px; margin: 0; text-align: center;\">+</p>","response":null,"trial_type":"html-keyboard-response","trial_index":178,"plugin_version":"2.1.0","time_elapsed":366446,"subject_id":"88363","group":"Group2","full_date":"2025-12-05T15:59:36.394Z","date":"2025-12-05","time":"15:59:36"},{"task":"memory_phase","broad_category":"S","image_png":"S_Rock Salt_15.png","image_id":447,"category_name":"Rock Salt","category":28,"distinct_rating":7.79,"distinct_type":"Top","rt":null,"stimulus":"Stimuli_Rocks480/S_Rock Salt_15.png","response":null,"trial_type":"image-keyboard-response","trial_index":179,"plugin_version":"2.1.0","time_elapsed":368983,"subject_id":"88363","group":"Group2","full_date":"2025-12-05T15:59:36.394Z","date":"2025-12-05","time":"15:59:36"},{"rt":null,"stimulus":"<p style=\"font-size: 50px; margin: 0; text-align: center;\">+</p>","response":null,"trial_type":"html-keyboard-response","trial_index":180,"plugin_version":"2.1.0","time_elapsed":369986,"subject_id":"88363","group":"Group2","full_date":"2025-12-05T15:59:36.394Z","date":"2025-12-05","time":"15:59:36"},{"task":"memory_phase","broad_category":"S","image_png":"S_Rock Salt_13.png","image_id":445,"category_name":"Rock Salt","category":28,"distinct_rating":7.58,"distinct_type":"Top","rt":null,"stimulus":"Stimuli_Rocks480/S_Rock Salt_13.png","response":null,"trial_type":"image-keyboard-response","trial_index":181,"plugin_version":"2.1.0","time_elapsed":372514,"subject_id":"88363","group":"Group2","full_date":"2025-12-05T15:59:36.394Z","date":"2025-12-05","time":"15:59:36"},{"rt":null,"stimulus":"<p style=\"font-size: 50px; margin: 0; text-align: center;\">+</p>","response":null,"trial_type":"html-keyboard-response","trial_index":182,"plugin_version":"2.1.0","time_elapsed":373517,"subject_id":"88363","group":"Group2","full_date":"2025-12-05T15:59:36.394Z","date":"2025-12-05","time":"15:59:36"},{"task":"memory_phase","broad_category":"M","image_png":"M_Phyllite_02.png","image_id":258,"category_name":"Phyllite","category":17,"distinct_rating":2.89,"distinct_type":"Bottom","rt":null,"stimulus":"Stimuli_Rocks480/M_Phyllite_02.png","response":null,"trial_type":"image-keyboard-response","trial_index":183,"plugin_version":"2.1.0","time_elapsed":376042,"subject_id":"88363","group":"Group2","full_date":"2025-12-05T15:59:36.394Z","date":"2025-12-05","time":"15:59:36"},{"rt":null,"stimulus":"<p style=\"font-size: 50px; margin: 0; text-align: center;\">+</p>","response":null,"trial_type":"html-keyboard-response","trial_index":184,"plugin_version":"2.1.0","time_elapsed":377045,"subject_id":"88363","group":"Group2","full_date":"2025-12-05T15:59:36.394Z","date":"2025-12-05","time":"15:59:36"},{"task":"memory_phase","broad_category":"M","image_png":"M_Marble_02.png","image_id":226,"category_name":"Marble","category":15,"distinct_rating":3.2,"distinct_type":"Bottom","rt":null,"stimulus":"Stimuli_Rocks480/M_Marble_02.png","response":null,"trial_type":"image-keyboard-response","trial_index":185,"plugin_version":"2.1.0","time_elapsed":379579,"subject_id":"88363","group":"Group2","full_date":"2025-12-05T15:59:36.394Z","date":"2025-12-05","time":"15:59:36"},{"rt":null,"stimulus":"<p style=\"font-size: 50px; margin: 0; text-align: center;\">+</p>","response":null,"trial_type":"html-keyboard-response","trial_index":186,"plugin_version":"2.1.0","time_elapsed":380582,"subject_id":"88363","group":"Group2","full_date":"2025-12-05T15:59:36.394Z","date":"2025-12-05","time":"15:59:36"},{"task":"memory_phase","broad_category":"I","image_png":"I_Basalt_08.png","image_id":24,"category_name":"Basalt","category":2,"distinct_rating":2.31,"distinct_type":"Bottom","rt":null,"stimulus":"Stimuli_Rocks480/I_Basalt_08.png","response":null,"trial_type":"image-keyboard-response","trial_index":187,"plugin_version":"2.1.0","time_elapsed":383115,"subject_id":"88363","group":"Group2","full_date":"2025-12-05T15:59:36.394Z","date":"2025-12-05","time":"15:59:36"},{"rt":null,"stimulus":"<p style=\"font-size: 50px; margin: 0; text-align: center;\">+</p>","response":null,"trial_type":"html-keyboard-response","trial_index":188,"plugin_version":"2.1.0","time_elapsed":384118,"subject_id":"88363","group":"Group2","full_date":"2025-12-05T15:59:36.394Z","date":"2025-12-05","time":"15:59:36"},{"task":"memory_phase","broad_category":"M","image_png":"M_Quartzite_07.png","image_id":279,"category_name":"Quartzite","category":18,"distinct_rating":1.97,"distinct_type":"Bottom","rt":null,"stimulus":"Stimuli_Rocks480/M_Quartzite_07.png","response":null,"trial_type":"image-keyboard-response","trial_index":189,"plugin_version":"2.1.0","time_elapsed":386662,"subject_id":"88363","group":"Group2","full_date":"2025-12-05T15:59:36.394Z","date":"2025-12-05","time":"15:59:36"},{"rt":null,"stimulus":"<p style=\"font-size: 50px; margin: 0; text-align: center;\">+</p>","response":null,"trial_type":"html-keyboard-response","trial_index":190,"plugin_version":"2.1.0","time_elapsed":387664,"subject_id":"88363","group":"Group2","full_date":"2025-12-05T15:59:36.394Z","date":"2025-12-05","time":"15:59:36"},{"task":"memory_phase","broad_category":"M","image_png":"M_Marble_14.png","image_id":238,"category_name":"Marble","category":15,"distinct_rating":3.31,"distinct_type":"Bottom","rt":null,"stimulus":"Stimuli_Rocks480/M_Marble_14.png","response":null,"trial_type":"image-keyboard-response","trial_index":191,"plugin_version":"2.1.0","time_elapsed":390199,"subject_id":"88363","group":"Group2","full_date":"2025-12-05T15:59:36.394Z","date":"2025-12-05","time":"15:59:36"},{"rt":null,"stimulus":"<p style=\"font-size: 50px; margin: 0; text-align: center;\">+</p>","response":null,"trial_type":"html-keyboard-response","trial_index":192,"plugin_version":"2.1.0","time_elapsed":391202,"subject_id":"88363","group":"Group2","full_date":"2025-12-05T15:59:36.394Z","date":"2025-12-05","time":"15:59:36"},{"task":"memory_phase","broad_category":"I","image_png":"I_Peridotite_13.png","image_id":125,"category_name":"Peridotite","category":8,"distinct_rating":7.28,"distinct_type":"Top","rt":null,"stimulus":"Stimuli_Rocks480/I_Peridotite_13.png","response":null,"trial_type":"image-keyboard-response","trial_index":193,"plugin_version":"2.1.0","time_elapsed":393732,"subject_id":"88363","group":"Group2","full_date":"2025-12-05T15:59:36.394Z","date":"2025-12-05","time":"15:59:36"},{"rt":null,"stimulus":"<p style=\"font-size: 50px; margin: 0; text-align: center;\">+</p>","response":null,"trial_type":"html-keyboard-response","trial_index":194,"plugin_version":"2.1.0","time_elapsed":394735,"subject_id":"88363","group":"Group2","full_date":"2025-12-05T15:59:36.394Z","date":"2025-12-05","time":"15:59:36"},{"task":"memory_phase","broad_category":"M","image_png":"M_Quartzite_12.png","image_id":284,"category_name":"Quartzite","category":18,"distinct_rating":1.92,"distinct_type":"Bottom","rt":null,"stimulus":"Stimuli_Rocks480/M_Quartzite_12.png","response":null,"trial_type":"image-keyboard-response","trial_index":195,"plugin_version":"2.1.0","time_elapsed":397258,"subject_id":"88363","group":"Group2","full_date":"2025-12-05T15:59:36.394Z","date":"2025-12-05","time":"15:59:36"},{"rt":null,"stimulus":"<p style=\"font-size: 50px; margin: 0; text-align: center;\">+</p>","response":null,"trial_type":"html-keyboard-response","trial_index":196,"plugin_version":"2.1.0","time_elapsed":398261,"subject_id":"88363","group":"Group2","full_date":"2025-12-05T15:59:36.394Z","date":"2025-12-05","time":"15:59:36"},{"task":"memory_phase","broad_category":"S","image_png":"S_Conglomerate_14.png","image_id":382,"category_name":"Conglomerate","category":24,"distinct_rating":6.86,"distinct_type":"Top","rt":null,"stimulus":"Stimuli_Rocks480/S_Conglomerate_14.png","response":null,"trial_type":"image-keyboard-response","trial_index":197,"plugin_version":"2.1.0","time_elapsed":400799,"subject_id":"88363","group":"Group2","full_date":"2025-12-05T15:59:36.394Z","date":"2025-12-05","time":"15:59:36"},{"rt":null,"stimulus":"<p style=\"font-size: 50px; margin: 0; text-align: center;\">+</p>","response":null,"trial_type":"html-keyboard-response","trial_index":198,"plugin_version":"2.1.0","time_elapsed":401801,"subject_id":"88363","group":"Group2","full_date":"2025-12-05T15:59:36.394Z","date":"2025-12-05","time":"15:59:36"},{"task":"memory_phase","broad_category":"I","image_png":"I_Obsidian_06.png","image_id":86,"category_name":"Obsidian","category":6,"distinct_rating":8.01,"distinct_type":"Top","rt":null,"stimulus":"Stimuli_Rocks480/I_Obsidian_06.png","response":null,"trial_type":"image-keyboard-response","trial_index":199,"plugin_version":"2.1.0","time_elapsed":404328,"subject_id":"88363","group":"Group2","full_date":"2025-12-05T15:59:36.394Z","date":"2025-12-05","time":"15:59:36"},{"rt":null,"stimulus":"<p style=\"font-size: 50px; margin: 0; text-align: center;\">+</p>","response":null,"trial_type":"html-keyboard-response","trial_index":200,"plugin_version":"2.1.0","time_elapsed":405330,"subject_id":"88363","group":"Group2","full_date":"2025-12-05T15:59:36.394Z","date":"2025-12-05","time":"15:59:36"},{"task":"memory_phase","broad_category":"M","image_png":"M_Quartzite_15.png","image_id":287,"category_name":"Quartzite","category":18,"distinct_rating":2.19,"distinct_type":"Bottom","rt":null,"stimulus":"Stimuli_Rocks480/M_Quartzite_15.png","response":null,"trial_type":"image-keyboard-response","trial_index":201,"plugin_version":"2.1.0","time_elapsed":407854,"subject_id":"88363","group":"Group2","full_date":"2025-12-05T15:59:36.394Z","date":"2025-12-05","time":"15:59:36"},{"rt":null,"stimulus":"<p style=\"font-size: 50px; margin: 0; text-align: center;\">+</p>","response":null,"trial_type":"html-keyboard-response","trial_index":202,"plugin_version":"2.1.0","time_elapsed":408856,"subject_id":"88363","group":"Group2","full_date":"2025-12-05T15:59:36.394Z","date":"2025-12-05","time":"15:59:36"},{"task":"memory_phase","broad_category":"S","image_png":"S_Sandstone_08.png","image_id":456,"category_name":"Sandstone","category":29,"distinct_rating":1.5,"distinct_type":"Bottom","rt":null,"stimulus":"Stimuli_Rocks480/S_Sandstone_08.png","response":null,"trial_type":"image-keyboard-response","trial_index":203,"plugin_version":"2.1.0","time_elapsed":411380,"subject_id":"88363","group":"Group2","full_date":"2025-12-05T15:59:36.394Z","date":"2025-12-05","time":"15:59:36"},{"rt":null,"stimulus":"<p style=\"font-size: 50px; margin: 0; text-align: center;\">+</p>","response":null,"trial_type":"html-keyboard-response","trial_index":204,"plugin_version":"2.1.0","time_elapsed":412383,"subject_id":"88363","group":"Group2","full_date":"2025-12-05T15:59:36.394Z","date":"2025-12-05","time":"15:59:36"},{"task":"memory_phase","broad_category":"I","image_png":"I_Andesite_04.png","image_id":4,"category_name":"Andesite","category":1,"distinct_rating":3.18,"distinct_type":"Bottom","rt":null,"stimulus":"Stimuli_Rocks480/I_Andesite_04.png","response":null,"trial_type":"image-keyboard-response","trial_index":205,"plugin_version":"2.1.0","time_elapsed":414907,"subject_id":"88363","group":"Group2","full_date":"2025-12-05T15:59:36.394Z","date":"2025-12-05","time":"15:59:36"},{"rt":null,"stimulus":"<p style=\"font-size: 50px; margin: 0; text-align: center;\">+</p>","response":null,"trial_type":"html-keyboard-response","trial_index":206,"plugin_version":"2.1.0","time_elapsed":415909,"subject_id":"88363","group":"Group2","full_date":"2025-12-05T15:59:36.394Z","date":"2025-12-05","time":"15:59:36"},{"task":"memory_phase","broad_category":"I","image_png":"I_Andesite_03.png","image_id":3,"category_name":"Andesite","category":1,"distinct_rating":3.17,"distinct_type":"Bottom","rt":null,"stimulus":"Stimuli_Rocks480/I_Andesite_03.png","response":null,"trial_type":"image-keyboard-response","trial_index":207,"plugin_version":"2.1.0","time_elapsed":418430,"subject_id":"88363","group":"Group2","full_date":"2025-12-05T15:59:36.394Z","date":"2025-12-05","time":"15:59:36"},{"rt":31271,"stimulus":"<p style=\"max-width: 760px; margin: auto; font-size: 35px; line-height: 1.5;\">You have completed 2 study phases. Now, we'll show you all the images again 1 more time.<br><br>Press SPACE to continue</p>","response":" ","trial_type":"html-keyboard-response","trial_index":208,"plugin_version":"2.1.0","time_elapsed":449701,"subject_id":"88363","group":"Group2","full_date":"2025-12-05T15:59:36.394Z","date":"2025-12-05","time":"15:59:36"},{"rt":null,"stimulus":"<p style=\"font-size: 50px; margin: 0; text-align: center;\">+</p>","response":null,"trial_type":"html-keyboard-response","trial_index":209,"plugin_version":"2.1.0","time_elapsed":450704,"subject_id":"88363","group":"Group2","full_date":"2025-12-05T15:59:36.394Z","date":"2025-12-05","time":"15:59:36"},{"task":"memory_phase","broad_category":"M","image_png":"M_Marble_02.png","image_id":226,"category_name":"Marble","category":15,"distinct_rating":3.2,"distinct_type":"Bottom","rt":null,"stimulus":"Stimuli_Rocks480/M_Marble_02.png","response":null,"trial_type":"image-keyboard-response","trial_index":210,"plugin_version":"2.1.0","time_elapsed":453208,"subject_id":"88363","group":"Group2","full_date":"2025-12-05T15:59:36.394Z","date":"2025-12-05","time":"15:59:36"},{"rt":null,"stimulus":"<p style=\"font-size: 50px; margin: 0; text-align: center;\">+</p>","response":null,"trial_type":"html-keyboard-response","trial_index":211,"plugin_version":"2.1.0","time_elapsed":454211,"subject_id":"88363","group":"Group2","full_date":"2025-12-05T15:59:36.394Z","date":"2025-12-05","time":"15:59:36"},{"task":"memory_phase","broad_category":"I","image_png":"I_Gabbro_02.png","image_id":50,"category_name":"Gabbro","category":4,"distinct_rating":2.73,"distinct_type":"Bottom","rt":null,"stimulus":"Stimuli_Rocks480/I_Gabbro_02.png","response":null,"trial_type":"image-keyboard-response","trial_index":212,"plugin_version":"2.1.0","time_elapsed":456735,"subject_id":"88363","group":"Group2","full_date":"2025-12-05T15:59:36.394Z","date":"2025-12-05","time":"15:59:36"},{"rt":null,"stimulus":"<p style=\"font-size: 50px; margin: 0; text-align: center;\">+</p>","response":null,"trial_type":"html-keyboard-response","trial_index":213,"plugin_version":"2.1.0","time_elapsed":457738,"subject_id":"88363","group":"Group2","full_date":"2025-12-05T15:59:36.394Z","date":"2025-12-05","time":"15:59:36"},{"task":"memory_phase","broad_category":"I","image_png":"I_Pumice_01.png","image_id":129,"category_name":"Pumice","category":9,"distinct_rating":3.25,"distinct_type":"Bottom","rt":null,"stimulus":"Stimuli_Rocks480/I_Pumice_01.png","response":null,"trial_type":"image-keyboard-response","trial_index":214,"plugin_version":"2.1.0","time_elapsed":460266,"subject_id":"88363","group":"Group2","full_date":"2025-12-05T15:59:36.394Z","date":"2025-12-05","time":"15:59:36"},{"rt":null,"stimulus":"<p style=\"font-size: 50px; margin: 0; text-align: center;\">+</p>","response":null,"trial_type":"html-keyboard-response","trial_index":215,"plugin_version":"2.1.0","time_elapsed":461269,"subject_id":"88363","group":"Group2","full_date":"2025-12-05T15:59:36.394Z","date":"2025-12-05","time":"15:59:36"},{"task":"memory_phase","broad_category":"M","image_png":"M_Quartzite_07.png","image_id":279,"category_name":"Quartzite","category":18,"distinct_rating":1.97,"distinct_type":"Bottom","rt":null,"stimulus":"Stimuli_Rocks480/M_Quartzite_07.png","response":null,"trial_type":"image-keyboard-response","trial_index":216,"plugin_version":"2.1.0","time_elapsed":463773,"subject_id":"88363","group":"Group2","full_date":"2025-12-05T15:59:36.394Z","date":"2025-12-05","time":"15:59:36"},{"rt":null,"stimulus":"<p style=\"font-size: 50px; margin: 0; text-align: center;\">+</p>","response":null,"trial_type":"html-keyboard-response","trial_index":217,"plugin_version":"2.1.0","time_elapsed":464776,"subject_id":"88363","group":"Group2","full_date":"2025-12-05T15:59:36.394Z","date":"2025-12-05","time":"15:59:36"},{"task":"memory_phase","broad_category":"I","image_png":"I_Rhyolite_05.png","image_id":149,"category_name":"Rhyolite","category":10,"distinct_rating":3.02,"distinct_type":"Bottom","rt":null,"stimulus":"Stimuli_Rocks480/I_Rhyolite_05.png","response":null,"trial_type":"image-keyboard-response","trial_index":218,"plugin_version":"2.1.0","time_elapsed":467307,"subject_id":"88363","group":"Group2","full_date":"2025-12-05T15:59:36.394Z","date":"2025-12-05","time":"15:59:36"},{"rt":null,"stimulus":"<p style=\"font-size: 50px; margin: 0; text-align: center;\">+</p>","response":null,"trial_type":"html-keyboard-response","trial_index":219,"plugin_version":"2.1.0","time_elapsed":468311,"subject_id":"88363","group":"Group2","full_date":"2025-12-05T15:59:36.394Z","date":"2025-12-05","time":"15:59:36"},{"task":"memory_phase","broad_category":"I","image_png":"I_Diorite_10.png","image_id":42,"category_name":"Diorite","category":3,"distinct_rating":2.84,"distinct_type":"Bottom","rt":null,"stimulus":"Stimuli_Rocks480/I_Diorite_10.png","response":null,"trial_type":"image-keyboard-response","trial_index":220,"plugin_version":"2.1.0","time_elapsed":470849,"subject_id":"88363","group":"Group2","full_date":"2025-12-05T15:59:36.394Z","date":"2025-12-05","time":"15:59:36"},{"rt":null,"stimulus":"<p style=\"font-size: 50px; margin: 0; text-align: center;\">+</p>","response":null,"trial_type":"html-keyboard-response","trial_index":221,"plugin_version":"2.1.0","time_elapsed":471852,"subject_id":"88363","group":"Group2","full_date":"2025-12-05T15:59:36.394Z","date":"2025-12-05","time":"15:59:36"},{"task":"memory_phase","broad_category":"I","image_png":"I_Andesite_09.png","image_id":9,"category_name":"Andesite","category":1,"distinct_rating":2.49,"distinct_type":"Bottom","rt":null,"stimulus":"Stimuli_Rocks480/I_Andesite_09.png","response":null,"trial_type":"image-keyboard-response","trial_index":222,"plugin_version":"2.1.0","time_elapsed":474388,"subject_id":"88363","group":"Group2","full_date":"2025-12-05T15:59:36.394Z","date":"2025-12-05","time":"15:59:36"},{"rt":null,"stimulus":"<p style=\"font-size: 50px; margin: 0; text-align: center;\">+</p>","response":null,"trial_type":"html-keyboard-response","trial_index":223,"plugin_version":"2.1.0","time_elapsed":475391,"subject_id":"88363","group":"Group2","full_date":"2025-12-05T15:59:36.394Z","date":"2025-12-05","time":"15:59:36"},{"task":"memory_phase","broad_category":"M","image_png":"M_Gneiss_14.png","image_id":206,"category_name":"Gneiss","category":13,"distinct_rating":3.41,"distinct_type":"Bottom","rt":null,"stimulus":"Stimuli_Rocks480/M_Gneiss_14.png","response":null,"trial_type":"image-keyboard-response","trial_index":224,"plugin_version":"2.1.0","time_elapsed":477916,"subject_id":"88363","group":"Group2","full_date":"2025-12-05T15:59:36.394Z","date":"2025-12-05","time":"15:59:36"},{"rt":null,"stimulus":"<p style=\"font-size: 50px; margin: 0; text-align: center;\">+</p>","response":null,"trial_type":"html-keyboard-response","trial_index":225,"plugin_version":"2.1.0","time_elapsed":478919,"subject_id":"88363","group":"Group2","full_date":"2025-12-05T15:59:36.394Z","date":"2025-12-05","time":"15:59:36"},{"task":"memory_phase","broad_category":"M","image_png":"M_Gneiss_10.png","image_id":202,"category_name":"Gneiss","category":13,"distinct_rating":3.09,"distinct_type":"Bottom","rt":null,"stimulus":"Stimuli_Rocks480/M_Gneiss_10.png","response":null,"trial_type":"image-keyboard-response","trial_index":226,"plugin_version":"2.1.0","time_elapsed":481444,"subject_id":"88363","group":"Group2","full_date":"2025-12-05T15:59:36.394Z","date":"2025-12-05","time":"15:59:36"},{"rt":null,"stimulus":"<p style=\"font-size: 50px; margin: 0; text-align: center;\">+</p>","response":null,"trial_type":"html-keyboard-response","trial_index":227,"plugin_version":"2.1.0","time_elapsed":482446,"subject_id":"88363","group":"Group2","full_date":"2025-12-05T15:59:36.394Z","date":"2025-12-05","time":"15:59:36"},{"task":"memory_phase","broad_category":"I","image_png":"I_Gabbro_14.png","image_id":62,"category_name":"Gabbro","category":4,"distinct_rating":2.95,"distinct_type":"Bottom","rt":null,"stimulus":"Stimuli_Rocks480/I_Gabbro_14.png","response":null,"trial_type":"image-keyboard-response","trial_index":228,"plugin_version":"2.1.0","time_elapsed":484992,"subject_id":"88363","group":"Group2","full_date":"2025-12-05T15:59:36.394Z","date":"2025-12-05","time":"15:59:36"},{"rt":null,"stimulus":"<p style=\"font-size: 50px; margin: 0; text-align: center;\">+</p>","response":null,"trial_type":"html-keyboard-response","trial_index":229,"plugin_version":"2.1.0","time_elapsed":485995,"subject_id":"88363","group":"Group2","full_date":"2025-12-05T15:59:36.394Z","date":"2025-12-05","time":"15:59:36"},{"task":"memory_phase","broad_category":"I","image_png":"I_Pumice_13.png","image_id":141,"category_name":"Pumice","category":9,"distinct_rating":3.12,"distinct_type":"Bottom","rt":null,"stimulus":"Stimuli_Rocks480/I_Pumice_13.png","response":null,"trial_type":"image-keyboard-response","trial_index":230,"plugin_version":"2.1.0","time_elapsed":488522,"subject_id":"88363","group":"Group2","full_date":"2025-12-05T15:59:36.394Z","date":"2025-12-05","time":"15:59:36"},{"rt":null,"stimulus":"<p style=\"font-size: 50px; margin: 0; text-align: center;\">+</p>","response":null,"trial_type":"html-keyboard-response","trial_index":231,"plugin_version":"2.1.0","time_elapsed":489524,"subject_id":"88363","group":"Group2","full_date":"2025-12-05T15:59:36.394Z","date":"2025-12-05","time":"15:59:36"},{"task":"memory_phase","broad_category":"M","image_png":"M_Gneiss_15.png","image_id":207,"category_name":"Gneiss","category":13,"distinct_rating":3.11,"distinct_type":"Bottom","rt":null,"stimulus":"Stimuli_Rocks480/M_Gneiss_15.png","response":null,"trial_type":"image-keyboard-response","trial_index":232,"plugin_version":"2.1.0","time_elapsed":492041,"subject_id":"88363","group":"Group2","full_date":"2025-12-05T15:59:36.394Z","date":"2025-12-05","time":"15:59:36"},{"rt":null,"stimulus":"<p style=\"font-size: 50px; margin: 0; text-align: center;\">+</p>","response":null,"trial_type":"html-keyboard-response","trial_index":233,"plugin_version":"2.1.0","time_elapsed":493043,"subject_id":"88363","group":"Group2","full_date":"2025-12-05T15:59:36.394Z","date":"2025-12-05","time":"15:59:36"},{"task":"memory_phase","broad_category":"S","image_png":"S_Sandstone_04.png","image_id":452,"category_name":"Sandstone","category":29,"distinct_rating":1.8,"distinct_type":"Bottom","rt":null,"stimulus":"Stimuli_Rocks480/S_Sandstone_04.png","response":null,"trial_type":"image-keyboard-response","trial_index":234,"plugin_version":"2.1.0","time_elapsed":495569,"subject_id":"88363","group":"Group2","full_date":"2025-12-05T15:59:36.394Z","date":"2025-12-05","time":"15:59:36"},{"rt":null,"stimulus":"<p style=\"font-size: 50px; margin: 0; text-align: center;\">+</p>","response":null,"trial_type":"html-keyboard-response","trial_index":235,"plugin_version":"2.1.0","time_elapsed":496571,"subject_id":"88363","group":"Group2","full_date":"2025-12-05T15:59:36.394Z","date":"2025-12-05","time":"15:59:36"},{"task":"memory_phase","broad_category":"I","image_png":"I_Pegmatite_03.png","image_id":99,"category_name":"Pegmatite","category":7,"distinct_rating":7.24,"distinct_type":"Top","rt":null,"stimulus":"Stimuli_Rocks480/I_Pegmatite_03.png","response":null,"trial_type":"image-keyboard-response","trial_index":236,"plugin_version":"2.1.0","time_elapsed":499109,"subject_id":"88363","group":"Group2","full_date":"2025-12-05T15:59:36.394Z","date":"2025-12-05","time":"15:59:36"},{"rt":null,"stimulus":"<p style=\"font-size: 50px; margin: 0; text-align: center;\">+</p>","response":null,"trial_type":"html-keyboard-response","trial_index":237,"plugin_version":"2.1.0","time_elapsed":500111,"subject_id":"88363","group":"Group2","full_date":"2025-12-05T15:59:36.394Z","date":"2025-12-05","time":"15:59:36"},{"task":"memory_phase","broad_category":"I","image_png":"I_Basalt_08.png","image_id":24,"category_name":"Basalt","category":2,"distinct_rating":2.31,"distinct_type":"Bottom","rt":null,"stimulus":"Stimuli_Rocks480/I_Basalt_08.png","response":null,"trial_type":"image-keyboard-response","trial_index":238,"plugin_version":"2.1.0","time_elapsed":502615,"subject_id":"88363","group":"Group2","full_date":"2025-12-05T15:59:36.394Z","date":"2025-12-05","time":"15:59:36"},{"rt":null,"stimulus":"<p style=\"font-size: 50px; margin: 0; text-align: center;\">+</p>","response":null,"trial_type":"html-keyboard-response","trial_index":239,"plugin_version":"2.1.0","time_elapsed":503617,"subject_id":"88363","group":"Group2","full_date":"2025-12-05T15:59:36.394Z","date":"2025-12-05","time":"15:59:36"},{"task":"memory_phase","broad_category":"I","image_png":"I_Pegmatite_11.png","image_id":107,"category_name":"Pegmatite","category":7,"distinct_rating":7.11,"distinct_type":"Top","rt":null,"stimulus":"Stimuli_Rocks480/I_Pegmatite_11.png","response":null,"trial_type":"image-keyboard-response","trial_index":240,"plugin_version":"2.1.0","time_elapsed":506153,"subject_id":"88363","group":"Group2","full_date":"2025-12-05T15:59:36.394Z","date":"2025-12-05","time":"15:59:36"},{"rt":null,"stimulus":"<p style=\"font-size: 50px; margin: 0; text-align: center;\">+</p>","response":null,"trial_type":"html-keyboard-response","trial_index":241,"plugin_version":"2.1.0","time_elapsed":507155,"subject_id":"88363","group":"Group2","full_date":"2025-12-05T15:59:36.394Z","date":"2025-12-05","time":"15:59:36"},{"task":"memory_phase","broad_category":"I","image_png":"I_Andesite_04.png","image_id":4,"category_name":"Andesite","category":1,"distinct_rating":3.18,"distinct_type":"Bottom","rt":null,"stimulus":"Stimuli_Rocks480/I_Andesite_04.png","response":null,"trial_type":"image-keyboard-response","trial_index":242,"plugin_version":"2.1.0","time_elapsed":509679,"subject_id":"88363","group":"Group2","full_date":"2025-12-05T15:59:36.394Z","date":"2025-12-05","time":"15:59:36"},{"rt":null,"stimulus":"<p style=\"font-size: 50px; margin: 0; text-align: center;\">+</p>","response":null,"trial_type":"html-keyboard-response","trial_index":243,"plugin_version":"2.1.0","time_elapsed":510681,"subject_id":"88363","group":"Group2","full_date":"2025-12-05T15:59:36.394Z","date":"2025-12-05","time":"15:59:36"},{"task":"memory_phase","broad_category":"S","image_png":"S_Shale_02.png","image_id":466,"category_name":"Shale","category":30,"distinct_rating":2.9,"distinct_type":"Bottom","rt":null,"stimulus":"Stimuli_Rocks480/S_Shale_02.png","response":null,"trial_type":"image-keyboard-response","trial_index":244,"plugin_version":"2.1.0","time_elapsed":513203,"subject_id":"88363","group":"Group2","full_date":"2025-12-05T15:59:36.394Z","date":"2025-12-05","time":"15:59:36"},{"rt":null,"stimulus":"<p style=\"font-size: 50px; margin: 0; text-align: center;\">+</p>","response":null,"trial_type":"html-keyboard-response","trial_index":245,"plugin_version":"2.1.0","time_elapsed":514206,"subject_id":"88363","group":"Group2","full_date":"2025-12-05T15:59:36.394Z","date":"2025-12-05","time":"15:59:36"},{"task":"memory_phase","broad_category":"S","image_png":"S_Sandstone_11.png","image_id":459,"category_name":"Sandstone","category":29,"distinct_rating":1.82,"distinct_type":"Bottom","rt":null,"stimulus":"Stimuli_Rocks480/S_Sandstone_11.png","response":null,"trial_type":"image-keyboard-response","trial_index":246,"plugin_version":"2.1.0","time_elapsed":516735,"subject_id":"88363","group":"Group2","full_date":"2025-12-05T15:59:36.394Z","date":"2025-12-05","time":"15:59:36"},{"rt":null,"stimulus":"<p style=\"font-size: 50px; margin: 0; text-align: center;\">+</p>","response":null,"trial_type":"html-keyboard-response","trial_index":247,"plugin_version":"2.1.0","time_elapsed":517737,"subject_id":"88363","group":"Group2","full_date":"2025-12-05T15:59:36.394Z","date":"2025-12-05","time":"15:59:36"},{"task":"memory_phase","broad_category":"S","image_png":"S_Conglomerate_14.png","image_id":382,"category_name":"Conglomerate","category":24,"distinct_rating":6.86,"distinct_type":"Top","rt":null,"stimulus":"Stimuli_Rocks480/S_Conglomerate_14.png","response":null,"trial_type":"image-keyboard-response","trial_index":248,"plugin_version":"2.1.0","time_elapsed":520261,"subject_id":"88363","group":