[{"width":1536,"height":738,"webaudio":true,"browser":"chrome","browser_version":"142.0.0","mobile":false,"os":"Windows 10","fullscreen":true,"vsync_rate":60.66,"webcam":true,"microphone":true,"trial_type":"browser-check","trial_index":0,"plugin_version":"2.1.0","time_elapsed":1012,"subject_id":"90315","group":"Group2","full_date":"2025-12-07T19:10:49.574Z","date":"2025-12-07","time":"19:10:49"},{"success":true,"timeout":false,"failed_images":[],"failed_audio":[],"failed_video":[],"trial_type":"preload","trial_index":1,"plugin_version":"2.1.0","time_elapsed":8712,"subject_id":"90315","group":"Group2","full_date":"2025-12-07T19:10:49.574Z","date":"2025-12-07","time":"19:10:49"},{"rt":4205,"url":"SONA_consent_memorability.html","trial_type":"external-html","trial_index":2,"plugin_version":"2.1.0","time_elapsed":12961,"subject_id":"90315","group":"Group2","full_date":"2025-12-07T19:10:49.574Z","date":"2025-12-07","time":"19:10:49"},{"success":true,"rt":26238,"trial_type":"fullscreen","trial_index":3,"plugin_version":"2.1.0","time_elapsed":40211,"subject_id":"90315","group":"Group2","full_date":"2025-12-07T19:10:49.574Z","date":"2025-12-07","time":"19:10:49"},{"rt":1420,"stimulus":"<div style=\"max-width: 760px; margin: auto; font-size: 20px; line-height: 1.5;\">\n      <h1 style=\"text-align:center; font-size: 30px;\">Instructions</h1>\n      <p>\n        Welcome to the study on <b>visual memory</b>. This experiment consists of <b>two phases</b>: \n        a <b>study phase</b> and a <b>test phase</b>.\n      </p>\n      <p>\n        In the study phase, you will see a series of rock images along with their category labels.\n        The images will appear one at a time.\n        <b>Your task</b> is to learn the categories to which the rock images belong \n        and to remember each image as accurately as possible.\n      </p> \n      <p>\n        Note that we will repeat the study phase <b>3 times</b>, \n        so you will have multiple opportunities to see and remember each image.\n      </p>\n      <p>\n        After the study phase, <b>your memory will be tested</b>. \n        Additional instructions for the test phase will be provided at that time.\n      </p>\n      <p>\n        If your computer has multiple <b>language settings</b> (e.g., English and another language),\n        please make sure it is set to English before starting.\n      </p>\n      <p>\n        You can track your progress using the <b>completion bar</b> at the top of the screen. \n        Please note that the bar will refresh when the test phase begins \n        to give you an accurate sense of your progress in both phases.\n      </p> \n      <p>\n        Press the button below when you are ready to begin.\n      </p>\n    </div>","response":0,"trial_type":"html-button-response","trial_index":4,"plugin_version":"2.1.0","time_elapsed":41633,"subject_id":"90315","group":"Group2","full_date":"2025-12-07T19:10:49.574Z","date":"2025-12-07","time":"19:10:49"},{"rt":null,"stimulus":"<p style=\"font-size: 50px; margin: 0; text-align: center;\">+</p>","response":null,"trial_type":"html-keyboard-response","trial_index":5,"plugin_version":"2.1.0","time_elapsed":42635,"subject_id":"90315","group":"Group2","full_date":"2025-12-07T19:10:49.574Z","date":"2025-12-07","time":"19:10:49"},{"task":"memory_phase","broad_category":"I","image_png":"I_Obsidian_06.png","image_id":86,"category_name":"Obsidian","category":6,"distinct_rating":8.01,"distinct_type":"Top","rt":null,"stimulus":"Stimuli_Rocks480/I_Obsidian_06.png","response":null,"trial_type":"image-keyboard-response","trial_index":6,"plugin_version":"2.1.0","time_elapsed":45138,"subject_id":"90315","group":"Group2","full_date":"2025-12-07T19:10:49.574Z","date":"2025-12-07","time":"19:10:49"},{"rt":null,"stimulus":"<p style=\"font-size: 50px; margin: 0; text-align: center;\">+</p>","response":null,"trial_type":"html-keyboard-response","trial_index":7,"plugin_version":"2.1.0","time_elapsed":46139,"subject_id":"90315","group":"Group2","full_date":"2025-12-07T19:10:49.574Z","date":"2025-12-07","time":"19:10:49"},{"task":"memory_phase","broad_category":"S","image_png":"S_Rock Salt_13.png","image_id":445,"category_name":"Rock Salt","category":28,"distinct_rating":7.58,"distinct_type":"Top","rt":null,"stimulus":"Stimuli_Rocks480/S_Rock Salt_13.png","response":null,"trial_type":"image-keyboard-response","trial_index":8,"plugin_version":"2.1.0","time_elapsed":48643,"subject_id":"90315","group":"Group2","full_date":"2025-12-07T19:10:49.574Z","date":"2025-12-07","time":"19:10:49"},{"rt":null,"stimulus":"<p style=\"font-size: 50px; margin: 0; text-align: center;\">+</p>","response":null,"trial_type":"html-keyboard-response","trial_index":9,"plugin_version":"2.1.0","time_elapsed":49651,"subject_id":"90315","group":"Group2","full_date":"2025-12-07T19:10:49.574Z","date":"2025-12-07","time":"19:10:49"},{"task":"memory_phase","broad_category":"M","image_png":"M_Phyllite_02.png","image_id":258,"category_name":"Phyllite","category":17,"distinct_rating":2.89,"distinct_type":"Bottom","rt":null,"stimulus":"Stimuli_Rocks480/M_Phyllite_02.png","response":null,"trial_type":"image-keyboard-response","trial_index":10,"plugin_version":"2.1.0","time_elapsed":52162,"subject_id":"90315","group":"Group2","full_date":"2025-12-07T19:10:49.574Z","date":"2025-12-07","time":"19:10:49"},{"rt":null,"stimulus":"<p style=\"font-size: 50px; margin: 0; text-align: center;\">+</p>","response":null,"trial_type":"html-keyboard-response","trial_index":11,"plugin_version":"2.1.0","time_elapsed":53170,"subject_id":"90315","group":"Group2","full_date":"2025-12-07T19:10:49.574Z","date":"2025-12-07","time":"19:10:49"},{"task":"memory_phase","broad_category":"M","image_png":"M_Quartzite_15.png","image_id":287,"category_name":"Quartzite","category":18,"distinct_rating":2.19,"distinct_type":"Bottom","rt":null,"stimulus":"Stimuli_Rocks480/M_Quartzite_15.png","response":null,"trial_type":"image-keyboard-response","trial_index":12,"plugin_version":"2.1.0","time_elapsed":55687,"subject_id":"90315","group":"Group2","full_date":"2025-12-07T19:10:49.574Z","date":"2025-12-07","time":"19:10:49"},{"rt":null,"stimulus":"<p style=\"font-size: 50px; margin: 0; text-align: center;\">+</p>","response":null,"trial_type":"html-keyboard-response","trial_index":13,"plugin_version":"2.1.0","time_elapsed":56695,"subject_id":"90315","group":"Group2","full_date":"2025-12-07T19:10:49.574Z","date":"2025-12-07","time":"19:10:49"},{"task":"memory_phase","broad_category":"S","image_png":"S_Dolomite_01.png","image_id":385,"category_name":"Dolomite","category":25,"distinct_rating":1.43,"distinct_type":"Bottom","rt":null,"stimulus":"Stimuli_Rocks480/S_Dolomite_01.png","response":null,"trial_type":"image-keyboard-response","trial_index":14,"plugin_version":"2.1.0","time_elapsed":59199,"subject_id":"90315","group":"Group2","full_date":"2025-12-07T19:10:49.574Z","date":"2025-12-07","time":"19:10:49"},{"rt":null,"stimulus":"<p style=\"font-size: 50px; margin: 0; text-align: center;\">+</p>","response":null,"trial_type":"html-keyboard-response","trial_index":15,"plugin_version":"2.1.0","time_elapsed":60203,"subject_id":"90315","group":"Group2","full_date":"2025-12-07T19:10:49.574Z","date":"2025-12-07","time":"19:10:49"},{"task":"memory_phase","broad_category":"M","image_png":"M_Quartzite_07.png","image_id":279,"category_name":"Quartzite","category":18,"distinct_rating":1.97,"distinct_type":"Bottom","rt":null,"stimulus":"Stimuli_Rocks480/M_Quartzite_07.png","response":null,"trial_type":"image-keyboard-response","trial_index":16,"plugin_version":"2.1.0","time_elapsed":62716,"subject_id":"90315","group":"Group2","full_date":"2025-12-07T19:10:49.574Z","date":"2025-12-07","time":"19:10:49"},{"rt":null,"stimulus":"<p style=\"font-size: 50px; margin: 0; text-align: center;\">+</p>","response":null,"trial_type":"html-keyboard-response","trial_index":17,"plugin_version":"2.1.0","time_elapsed":63727,"subject_id":"90315","group":"Group2","full_date":"2025-12-07T19:10:49.574Z","date":"2025-12-07","time":"19:10:49"},{"task":"memory_phase","broad_category":"S","image_png":"S_Rock Salt_15.png","image_id":447,"category_name":"Rock Salt","category":28,"distinct_rating":7.79,"distinct_type":"Top","rt":null,"stimulus":"Stimuli_Rocks480/S_Rock Salt_15.png","response":null,"trial_type":"image-keyboard-response","trial_index":18,"plugin_version":"2.1.0","time_elapsed":66234,"subject_id":"90315","group":"Group2","full_date":"2025-12-07T19:10:49.574Z","date":"2025-12-07","time":"19:10:49"},{"rt":null,"stimulus":"<p style=\"font-size: 50px; margin: 0; text-align: center;\">+</p>","response":null,"trial_type":"html-keyboard-response","trial_index":19,"plugin_version":"2.1.0","time_elapsed":67247,"subject_id":"90315","group":"Group2","full_date":"2025-12-07T19:10:49.574Z","date":"2025-12-07","time":"19:10:49"},{"task":"memory_phase","broad_category":"I","image_png":"I_Diorite_10.png","image_id":42,"category_name":"Diorite","category":3,"distinct_rating":2.84,"distinct_type":"Bottom","rt":null,"stimulus":"Stimuli_Rocks480/I_Diorite_10.png","response":null,"trial_type":"image-keyboard-response","trial_index":20,"plugin_version":"2.1.0","time_elapsed":69763,"subject_id":"90315","group":"Group2","full_date":"2025-12-07T19:10:49.574Z","date":"2025-12-07","time":"19:10:49"},{"rt":null,"stimulus":"<p style=\"font-size: 50px; margin: 0; text-align: center;\">+</p>","response":null,"trial_type":"html-keyboard-response","trial_index":21,"plugin_version":"2.1.0","time_elapsed":70774,"subject_id":"90315","group":"Group2","full_date":"2025-12-07T19:10:49.574Z","date":"2025-12-07","time":"19:10:49"},{"task":"memory_phase","broad_category":"I","image_png":"I_Basalt_13.png","image_id":29,"category_name":"Basalt","category":2,"distinct_rating":2.68,"distinct_type":"Bottom","rt":null,"stimulus":"Stimuli_Rocks480/I_Basalt_13.png","response":null,"trial_type":"image-keyboard-response","trial_index":22,"plugin_version":"2.1.0","time_elapsed":73280,"subject_id":"90315","group":"Group2","full_date":"2025-12-07T19:10:49.574Z","date":"2025-12-07","time":"19:10:49"},{"rt":null,"stimulus":"<p style=\"font-size: 50px; margin: 0; text-align: center;\">+</p>","response":null,"trial_type":"html-keyboard-response","trial_index":23,"plugin_version":"2.1.0","time_elapsed":74291,"subject_id":"90315","group":"Group2","full_date":"2025-12-07T19:10:49.574Z","date":"2025-12-07","time":"19:10:49"},{"task":"memory_phase","broad_category":"I","image_png":"I_Peridotite_13.png","image_id":125,"category_name":"Peridotite","category":8,"distinct_rating":7.28,"distinct_type":"Top","rt":null,"stimulus":"Stimuli_Rocks480/I_Peridotite_13.png","response":null,"trial_type":"image-keyboard-response","trial_index":24,"plugin_version":"2.1.0","time_elapsed":76799,"subject_id":"90315","group":"Group2","full_date":"2025-12-07T19:10:49.574Z","date":"2025-12-07","time":"19:10:49"},{"rt":null,"stimulus":"<p style=\"font-size: 50px; margin: 0; text-align: center;\">+</p>","response":null,"trial_type":"html-keyboard-response","trial_index":25,"plugin_version":"2.1.0","time_elapsed":77807,"subject_id":"90315","group":"Group2","full_date":"2025-12-07T19:10:49.574Z","date":"2025-12-07","time":"19:10:49"},{"task":"memory_phase","broad_category":"S","image_png":"S_Shale_02.png","image_id":466,"category_name":"Shale","category":30,"distinct_rating":2.9,"distinct_type":"Bottom","rt":null,"stimulus":"Stimuli_Rocks480/S_Shale_02.png","response":null,"trial_type":"image-keyboard-response","trial_index":26,"plugin_version":"2.1.0","time_elapsed":80316,"subject_id":"90315","group":"Group2","full_date":"2025-12-07T19:10:49.574Z","date":"2025-12-07","time":"19:10:49"},{"rt":null,"stimulus":"<p style=\"font-size: 50px; margin: 0; text-align: center;\">+</p>","response":null,"trial_type":"html-keyboard-response","trial_index":27,"plugin_version":"2.1.0","time_elapsed":81327,"subject_id":"90315","group":"Group2","full_date":"2025-12-07T19:10:49.574Z","date":"2025-12-07","time":"19:10:49"},{"task":"memory_phase","broad_category":"I","image_png":"I_Pegmatite_03.png","image_id":99,"category_name":"Pegmatite","category":7,"distinct_rating":7.24,"distinct_type":"Top","rt":null,"stimulus":"Stimuli_Rocks480/I_Pegmatite_03.png","response":null,"trial_type":"image-keyboard-response","trial_index":28,"plugin_version":"2.1.0","time_elapsed":83843,"subject_id":"90315","group":"Group2","full_date":"2025-12-07T19:10:49.574Z","date":"2025-12-07","time":"19:10:49"},{"rt":null,"stimulus":"<p style=\"font-size: 50px; margin: 0; text-align: center;\">+</p>","response":null,"trial_type":"html-keyboard-response","trial_index":29,"plugin_version":"2.1.0","time_elapsed":84848,"subject_id":"90315","group":"Group2","full_date":"2025-12-07T19:10:49.574Z","date":"2025-12-07","time":"19:10:49"},{"task":"memory_phase","broad_category":"M","image_png":"M_Slate_04.png","image_id":308,"category_name":"Slate","category":20,"distinct_rating":2.2,"distinct_type":"Bottom","rt":null,"stimulus":"Stimuli_Rocks480/M_Slate_04.png","response":null,"trial_type":"image-keyboard-response","trial_index":30,"plugin_version":"2.1.0","time_elapsed":87365,"subject_id":"90315","group":"Group2","full_date":"2025-12-07T19:10:49.574Z","date":"2025-12-07","time":"19:10:49"},{"rt":null,"stimulus":"<p style=\"font-size: 50px; margin: 0; text-align: center;\">+</p>","response":null,"trial_type":"html-keyboard-response","trial_index":31,"plugin_version":"2.1.0","time_elapsed":88380,"subject_id":"90315","group":"Group2","full_date":"2025-12-07T19:10:49.574Z","date":"2025-12-07","time":"19:10:49"},{"task":"memory_phase","broad_category":"M","image_png":"M_Marble_03.png","image_id":227,"category_name":"Marble","category":15,"distinct_rating":2.67,"distinct_type":"Bottom","rt":null,"stimulus":"Stimuli_Rocks480/M_Marble_03.png","response":null,"trial_type":"image-keyboard-response","trial_index":32,"plugin_version":"2.1.0","time_elapsed":90888,"subject_id":"90315","group":"Group2","full_date":"2025-12-07T19:10:49.574Z","date":"2025-12-07","time":"19:10:49"},{"rt":null,"stimulus":"<p style=\"font-size: 50px; margin: 0; text-align: center;\">+</p>","response":null,"trial_type":"html-keyboard-response","trial_index":33,"plugin_version":"2.1.0","time_elapsed":91903,"subject_id":"90315","group":"Group2","full_date":"2025-12-07T19:10:49.574Z","date":"2025-12-07","time":"19:10:49"},{"task":"memory_phase","broad_category":"I","image_png":"I_Pumice_01.png","image_id":129,"category_name":"Pumice","category":9,"distinct_rating":3.25,"distinct_type":"Bottom","rt":null,"stimulus":"Stimuli_Rocks480/I_Pumice_01.png","response":null,"trial_type":"image-keyboard-response","trial_index":34,"plugin_version":"2.1.0","time_elapsed":94417,"subject_id":"90315","group":"Group2","full_date":"2025-12-07T19:10:49.574Z","date":"2025-12-07","time":"19:10:49"},{"rt":null,"stimulus":"<p style=\"font-size: 50px; margin: 0; text-align: center;\">+</p>","response":null,"trial_type":"html-keyboard-response","trial_index":35,"plugin_version":"2.1.0","time_elapsed":95425,"subject_id":"90315","group":"Group2","full_date":"2025-12-07T19:10:49.574Z","date":"2025-12-07","time":"19:10:49"},{"task":"memory_phase","broad_category":"M","image_png":"M_Gneiss_14.png","image_id":206,"category_name":"Gneiss","category":13,"distinct_rating":3.41,"distinct_type":"Bottom","rt":null,"stimulus":"Stimuli_Rocks480/M_Gneiss_14.png","response":null,"trial_type":"image-keyboard-response","trial_index":36,"plugin_version":"2.1.0","time_elapsed":97937,"subject_id":"90315","group":"Group2","full_date":"2025-12-07T19:10:49.574Z","date":"2025-12-07","time":"19:10:49"},{"rt":null,"stimulus":"<p style=\"font-size: 50px; margin: 0; text-align: center;\">+</p>","response":null,"trial_type":"html-keyboard-response","trial_index":37,"plugin_version":"2.1.0","time_elapsed":98944,"subject_id":"90315","group":"Group2","full_date":"2025-12-07T19:10:49.574Z","date":"2025-12-07","time":"19:10:49"},{"task":"memory_phase","broad_category":"M","image_png":"M_Slate_10.png","image_id":314,"category_name":"Slate","category":20,"distinct_rating":1.94,"distinct_type":"Bottom","rt":null,"stimulus":"Stimuli_Rocks480/M_Slate_10.png","response":null,"trial_type":"image-keyboard-response","trial_index":38,"plugin_version":"2.1.0","time_elapsed":101451,"subject_id":"90315","group":"Group2","full_date":"2025-12-07T19:10:49.574Z","date":"2025-12-07","time":"19:10:49"},{"rt":null,"stimulus":"<p style=\"font-size: 50px; margin: 0; text-align: center;\">+</p>","response":null,"trial_type":"html-keyboard-response","trial_index":39,"plugin_version":"2.1.0","time_elapsed":102466,"subject_id":"90315","group":"Group2","full_date":"2025-12-07T19:10:49.574Z","date":"2025-12-07","time":"19:10:49"},{"task":"memory_phase","broad_category":"S","image_png":"S_Shale_07.png","image_id":471,"category_name":"Shale","category":30,"distinct_rating":2.73,"distinct_type":"Bottom","rt":null,"stimulus":"Stimuli_Rocks480/S_Shale_07.png","response":null,"trial_type":"image-keyboard-response","trial_index":40,"plugin_version":"2.1.0","time_elapsed":104974,"subject_id":"90315","group":"Group2","full_date":"2025-12-07T19:10:49.574Z","date":"2025-12-07","time":"19:10:49"},{"rt":null,"stimulus":"<p style=\"font-size: 50px; margin: 0; text-align: center;\">+</p>","response":null,"trial_type":"html-keyboard-response","trial_index":41,"plugin_version":"2.1.0","time_elapsed":105984,"subject_id":"90315","group":"Group2","full_date":"2025-12-07T19:10:49.574Z","date":"2025-12-07","time":"19:10:49"},{"task":"memory_phase","broad_category":"S","image_png":"S_Sandstone_04.png","image_id":452,"category_name":"Sandstone","category":29,"distinct_rating":1.8,"distinct_type":"Bottom","rt":null,"stimulus":"Stimuli_Rocks480/S_Sandstone_04.png","response":null,"trial_type":"image-keyboard-response","trial_index":42,"plugin_version":"2.1.0","time_elapsed":108494,"subject_id":"90315","group":"Group2","full_date":"2025-12-07T19:10:49.574Z","date":"2025-12-07","time":"19:10:49"},{"rt":null,"stimulus":"<p style=\"font-size: 50px; margin: 0; text-align: center;\">+</p>","response":null,"trial_type":"html-keyboard-response","trial_index":43,"plugin_version":"2.1.0","time_elapsed":109503,"subject_id":"90315","group":"Group2","full_date":"2025-12-07T19:10:49.574Z","date":"2025-12-07","time":"19:10:49"},{"task":"memory_phase","broad_category":"S","image_png":"S_Conglomerate_14.png","image_id":382,"category_name":"Conglomerate","category":24,"distinct_rating":6.86,"distinct_type":"Top","rt":null,"stimulus":"Stimuli_Rocks480/S_Conglomerate_14.png","response":null,"trial_type":"image-keyboard-response","trial_index":44,"plugin_version":"2.1.0","time_elapsed":112019,"subject_id":"90315","group":"Group2","full_date":"2025-12-07T19:10:49.574Z","date":"2025-12-07","time":"19:10:49"},{"rt":null,"stimulus":"<p style=\"font-size: 50px; margin: 0; text-align: center;\">+</p>","response":null,"trial_type":"html-keyboard-response","trial_index":45,"plugin_version":"2.1.0","time_elapsed":113033,"subject_id":"90315","group":"Group2","full_date":"2025-12-07T19:10:49.574Z","date":"2025-12-07","time":"19:10:49"},{"task":"memory_phase","broad_category":"I","image_png":"I_Diorite_01.png","image_id":33,"category_name":"Diorite","category":3,"distinct_rating":2.97,"distinct_type":"Bottom","rt":null,"stimulus":"Stimuli_Rocks480/I_Diorite_01.png","response":null,"trial_type":"image-keyboard-response","trial_index":46,"plugin_version":"2.1.0","time_elapsed":115549,"subject_id":"90315","group":"Group2","full_date":"2025-12-07T19:10:49.574Z","date":"2025-12-07","time":"19:10:49"},{"rt":null,"stimulus":"<p style=\"font-size: 50px; margin: 0; text-align: center;\">+</p>","response":null,"trial_type":"html-keyboard-response","trial_index":47,"plugin_version":"2.1.0","time_elapsed":116558,"subject_id":"90315","group":"Group2","full_date":"2025-12-07T19:10:49.574Z","date":"2025-12-07","time":"19:10:49"},{"task":"memory_phase","broad_category":"I","image_png":"I_Pumice_13.png","image_id":141,"category_name":"Pumice","category":9,"distinct_rating":3.12,"distinct_type":"Bottom","rt":null,"stimulus":"Stimuli_Rocks480/I_Pumice_13.png","response":null,"trial_type":"image-keyboard-response","trial_index":48,"plugin_version":"2.1.0","time_elapsed":119074,"subject_id":"90315","group":"Group2","full_date":"2025-12-07T19:10:49.574Z","date":"2025-12-07","time":"19:10:49"},{"rt":null,"stimulus":"<p style=\"font-size: 50px; margin: 0; text-align: center;\">+</p>","response":null,"trial_type":"html-keyboard-response","trial_index":49,"plugin_version":"2.1.0","time_elapsed":120085,"subject_id":"90315","group":"Group2","full_date":"2025-12-07T19:10:49.574Z","date":"2025-12-07","time":"19:10:49"},{"task":"memory_phase","broad_category":"I","image_png":"I_Gabbro_02.png","image_id":50,"category_name":"Gabbro","category":4,"distinct_rating":2.73,"distinct_type":"Bottom","rt":null,"stimulus":"Stimuli_Rocks480/I_Gabbro_02.png","response":null,"trial_type":"image-keyboard-response","trial_index":50,"plugin_version":"2.1.0","time_elapsed":122600,"subject_id":"90315","group":"Group2","full_date":"2025-12-07T19:10:49.574Z","date":"2025-12-07","time":"19:10:49"},{"rt":null,"stimulus":"<p style=\"font-size: 50px; margin: 0; text-align: center;\">+</p>","response":null,"trial_type":"html-keyboard-response","trial_index":51,"plugin_version":"2.1.0","time_elapsed":123614,"subject_id":"90315","group":"Group2","full_date":"2025-12-07T19:10:49.574Z","date":"2025-12-07","time":"19:10:49"},{"task":"memory_phase","broad_category":"I","image_png":"I_Gabbro_14.png","image_id":62,"category_name":"Gabbro","category":4,"distinct_rating":2.95,"distinct_type":"Bottom","rt":null,"stimulus":"Stimuli_Rocks480/I_Gabbro_14.png","response":null,"trial_type":"image-keyboard-response","trial_index":52,"plugin_version":"2.1.0","time_elapsed":126117,"subject_id":"90315","group":"Group2","full_date":"2025-12-07T19:10:49.574Z","date":"2025-12-07","time":"19:10:49"},{"rt":null,"stimulus":"<p style=\"font-size: 50px; margin: 0; text-align: center;\">+</p>","response":null,"trial_type":"html-keyboard-response","trial_index":53,"plugin_version":"2.1.0","time_elapsed":127126,"subject_id":"90315","group":"Group2","full_date":"2025-12-07T19:10:49.574Z","date":"2025-12-07","time":"19:10:49"},{"task":"memory_phase","broad_category":"S","image_png":"S_Dolomite_07.png","image_id":391,"category_name":"Dolomite","category":25,"distinct_rating":1.73,"distinct_type":"Bottom","rt":null,"stimulus":"Stimuli_Rocks480/S_Dolomite_07.png","response":null,"trial_type":"image-keyboard-response","trial_index":54,"plugin_version":"2.1.0","time_elapsed":129639,"subject_id":"90315","group":"Group2","full_date":"2025-12-07T19:10:49.574Z","date":"2025-12-07","time":"19:10:49"},{"rt":50108,"stimulus":"<p style=\"max-width: 760px; margin: auto; font-size: 35px; line-height: 1.5;\">Press SPACE to continue study phase</p>","response":" ","trial_type":"html-keyboard-response","trial_index":55,"plugin_version":"2.1.0","time_elapsed":179748,"subject_id":"90315","group":"Group2","full_date":"2025-12-07T19:10:49.574Z","date":"2025-12-07","time":"19:10:49"},{"rt":null,"stimulus":"<p style=\"font-size: 50px; margin: 0; text-align: center;\">+</p>","response":null,"trial_type":"html-keyboard-response","trial_index":56,"plugin_version":"2.1.0","time_elapsed":180749,"subject_id":"90315","group":"Group2","full_date":"2025-12-07T19:10:49.574Z","date":"2025-12-07","time":"19:10:49"},{"task":"memory_phase","broad_category":"M","image_png":"M_Quartzite_12.png","image_id":284,"category_name":"Quartzite","category":18,"distinct_rating":1.92,"distinct_type":"Bottom","rt":null,"stimulus":"Stimuli_Rocks480/M_Quartzite_12.png","response":null,"trial_type":"image-keyboard-response","trial_index":57,"plugin_version":"2.1.0","time_elapsed":183256,"subject_id":"90315","group":"Group2","full_date":"2025-12-07T19:10:49.574Z","date":"2025-12-07","time":"19:10:49"},{"rt":null,"stimulus":"<p style=\"font-size: 50px; margin: 0; text-align: center;\">+</p>","response":null,"trial_type":"html-keyboard-response","trial_index":58,"plugin_version":"2.1.0","time_elapsed":184270,"subject_id":"90315","group":"Group2","full_date":"2025-12-07T19:10:49.574Z","date":"2025-12-07","time":"19:10:49"},{"task":"memory_phase","broad_category":"I","image_png":"I_Rhyolite_10.png","image_id":154,"category_name":"Rhyolite","category":10,"distinct_rating":2.88,"distinct_type":"Bottom","rt":null,"stimulus":"Stimuli_Rocks480/I_Rhyolite_10.png","response":null,"trial_type":"image-keyboard-response","trial_index":59,"plugin_version":"2.1.0","time_elapsed":186784,"subject_id":"90315","group":"Group2","full_date":"2025-12-07T19:10:49.574Z","date":"2025-12-07","time":"19:10:49"},{"rt":null,"stimulus":"<p style=\"font-size: 50px; margin: 0; text-align: center;\">+</p>","response":null,"trial_type":"html-keyboard-response","trial_index":60,"plugin_version":"2.1.0","time_elapsed":187800,"subject_id":"90315","group":"Group2","full_date":"2025-12-07T19:10:49.574Z","date":"2025-12-07","time":"19:10:49"},{"task":"memory_phase","broad_category":"I","image_png":"I_Pumice_14.png","image_id":142,"category_name":"Pumice","category":9,"distinct_rating":3.22,"distinct_type":"Bottom","rt":null,"stimulus":"Stimuli_Rocks480/I_Pumice_14.png","response":null,"trial_type":"image-keyboard-response","trial_index":61,"plugin_version":"2.1.0","time_elapsed":190315,"subject_id":"90315","group":"Group2","full_date":"2025-12-07T19:10:49.574Z","date":"2025-12-07","time":"19:10:49"},{"rt":null,"stimulus":"<p style=\"font-size: 50px; margin: 0; text-align: center;\">+</p>","response":null,"trial_type":"html-keyboard-response","trial_index":62,"plugin_version":"2.1.0","time_elapsed":191318,"subject_id":"90315","group":"Group2","full_date":"2025-12-07T19:10:49.574Z","date":"2025-12-07","time":"19:10:49"},{"task":"memory_phase","broad_category":"S","image_png":"S_Sandstone_11.png","image_id":459,"category_name":"Sandstone","category":29,"distinct_rating":1.82,"distinct_type":"Bottom","rt":null,"stimulus":"Stimuli_Rocks480/S_Sandstone_11.png","response":null,"trial_type":"image-keyboard-response","trial_index":63,"plugin_version":"2.1.0","time_elapsed":193824,"subject_id":"90315","group":"Group2","full_date":"2025-12-07T19:10:49.574Z","date":"2025-12-07","time":"19:10:49"},{"rt":null,"stimulus":"<p style=\"font-size: 50px; margin: 0; text-align: center;\">+</p>","response":null,"trial_type":"html-keyboard-response","trial_index":64,"plugin_version":"2.1.0","time_elapsed":194833,"subject_id":"90315","group":"Group2","full_date":"2025-12-07T19:10:49.574Z","date":"2025-12-07","time":"19:10:49"},{"task":"memory_phase","broad_category":"M","image_png":"M_Slate_14.png","image_id":318,"category_name":"Slate","category":20,"distinct_rating":2.58,"distinct_type":"Bottom","rt":null,"stimulus":"Stimuli_Rocks480/M_Slate_14.png","response":null,"trial_type":"image-keyboard-response","trial_index":65,"plugin_version":"2.1.0","time_elapsed":197343,"subject_id":"90315","group":"Group2","full_date":"2025-12-07T19:10:49.574Z","date":"2025-12-07","time":"19:10:49"},{"rt":null,"stimulus":"<p style=\"font-size: 50px; margin: 0; text-align: center;\">+</p>","response":null,"trial_type":"html-keyboard-response","trial_index":66,"plugin_version":"2.1.0","time_elapsed":198353,"subject_id":"90315","group":"Group2","full_date":"2025-12-07T19:10:49.574Z","date":"2025-12-07","time":"19:10:49"},{"task":"memory_phase","broad_category":"I","image_png":"I_Rhyolite_08.png","image_id":152,"category_name":"Rhyolite","category":10,"distinct_rating":1.38,"distinct_type":"Bottom","rt":null,"stimulus":"Stimuli_Rocks480/I_Rhyolite_08.png","response":null,"trial_type":"image-keyboard-response","trial_index":67,"plugin_version":"2.1.0","time_elapsed":200863,"subject_id":"90315","group":"Group2","full_date":"2025-12-07T19:10:49.574Z","date":"2025-12-07","time":"19:10:49"},{"rt":null,"stimulus":"<p style=\"font-size: 50px; margin: 0; text-align: center;\">+</p>","response":null,"trial_type":"html-keyboard-response","trial_index":68,"plugin_version":"2.1.0","time_elapsed":201866,"subject_id":"90315","group":"Group2","full_date":"2025-12-07T19:10:49.574Z","date":"2025-12-07","time":"19:10:49"},{"task":"memory_phase","broad_category":"I","image_png":"I_Gabbro_12.png","image_id":60,"category_name":"Gabbro","category":4,"distinct_rating":2.6,"distinct_type":"Bottom","rt":null,"stimulus":"Stimuli_Rocks480/I_Gabbro_12.png","response":null,"trial_type":"image-keyboard-response","trial_index":69,"plugin_version":"2.1.0","time_elapsed":204375,"subject_id":"90315","group":"Group2","full_date":"2025-12-07T19:10:49.574Z","date":"2025-12-07","time":"19:10:49"},{"rt":null,"stimulus":"<p style=\"font-size: 50px; margin: 0; text-align: center;\">+</p>","response":null,"trial_type":"html-keyboard-response","trial_index":70,"plugin_version":"2.1.0","time_elapsed":205391,"subject_id":"90315","group":"Group2","full_date":"2025-12-07T19:10:49.574Z","date":"2025-12-07","time":"19:10:49"},{"task":"memory_phase","broad_category":"M","image_png":"M_Gneiss_10.png","image_id":202,"category_name":"Gneiss","category":13,"distinct_rating":3.09,"distinct_type":"Bottom","rt":null,"stimulus":"Stimuli_Rocks480/M_Gneiss_10.png","response":null,"trial_type":"image-keyboard-response","trial_index":71,"plugin_version":"2.1.0","time_elapsed":207894,"subject_id":"90315","group":"Group2","full_date":"2025-12-07T19:10:49.574Z","date":"2025-12-07","time":"19:10:49"},{"rt":null,"stimulus":"<p style=\"font-size: 50px; margin: 0; text-align: center;\">+</p>","response":null,"trial_type":"html-keyboard-response","trial_index":72,"plugin_version":"2.1.0","time_elapsed":208896,"subject_id":"90315","group":"Group2","full_date":"2025-12-07T19:10:49.574Z","date":"2025-12-07","time":"19:10:49"},{"task":"memory_phase","broad_category":"M","image_png":"M_Gneiss_15.png","image_id":207,"category_name":"Gneiss","category":13,"distinct_rating":3.11,"distinct_type":"Bottom","rt":null,"stimulus":"Stimuli_Rocks480/M_Gneiss_15.png","response":null,"trial_type":"image-keyboard-response","trial_index":73,"plugin_version":"2.1.0","time_elapsed":211408,"subject_id":"90315","group":"Group2","full_date":"2025-12-07T19:10:49.574Z","date":"2025-12-07","time":"19:10:49"},{"rt":null,"stimulus":"<p style=\"font-size: 50px; margin: 0; text-align: center;\">+</p>","response":null,"trial_type":"html-keyboard-response","trial_index":74,"plugin_version":"2.1.0","time_elapsed":212421,"subject_id":"90315","group":"Group2","full_date":"2025-12-07T19:10:49.574Z","date":"2025-12-07","time":"19:10:49"},{"task":"memory_phase","broad_category":"I","image_png":"I_Basalt_08.png","image_id":24,"category_name":"Basalt","category":2,"distinct_rating":2.31,"distinct_type":"Bottom","rt":null,"stimulus":"Stimuli_Rocks480/I_Basalt_08.png","response":null,"trial_type":"image-keyboard-response","trial_index":75,"plugin_version":"2.1.0","time_elapsed":214928,"subject_id":"90315","group":"Group2","full_date":"2025-12-07T19:10:49.574Z","date":"2025-12-07","time":"19:10:49"},{"rt":null,"stimulus":"<p style=\"font-size: 50px; margin: 0; text-align: center;\">+</p>","response":null,"trial_type":"html-keyboard-response","trial_index":76,"plugin_version":"2.1.0","time_elapsed":215931,"subject_id":"90315","group":"Group2","full_date":"2025-12-07T19:10:49.574Z","date":"2025-12-07","time":"19:10:49"},{"task":"memory_phase","broad_category":"I","image_png":"I_Andesite_03.png","image_id":3,"category_name":"Andesite","category":1,"distinct_rating":3.17,"distinct_type":"Bottom","rt":null,"stimulus":"Stimuli_Rocks480/I_Andesite_03.png","response":null,"trial_type":"image-keyboard-response","trial_index":77,"plugin_version":"2.1.0","time_elapsed":218439,"subject_id":"90315","group":"Group2","full_date":"2025-12-07T19:10:49.574Z","date":"2025-12-07","time":"19:10:49"},{"rt":null,"stimulus":"<p style=\"font-size: 50px; margin: 0; text-align: center;\">+</p>","response":null,"trial_type":"html-keyboard-response","trial_index":78,"plugin_version":"2.1.0","time_elapsed":219455,"subject_id":"90315","group":"Group2","full_date":"2025-12-07T19:10:49.574Z","date":"2025-12-07","time":"19:10:49"},{"task":"memory_phase","broad_category":"I","image_png":"I_Andesite_09.png","image_id":9,"category_name":"Andesite","category":1,"distinct_rating":2.49,"distinct_type":"Bottom","rt":null,"stimulus":"Stimuli_Rocks480/I_Andesite_09.png","response":null,"trial_type":"image-keyboard-response","trial_index":79,"plugin_version":"2.1.0","time_elapsed":221966,"subject_id":"90315","group":"Group2","full_date":"2025-12-07T19:10:49.574Z","date":"2025-12-07","time":"19:10:49"},{"rt":null,"stimulus":"<p style=\"font-size: 50px; margin: 0; text-align: center;\">+</p>","response":null,"trial_type":"html-keyboard-response","trial_index":80,"plugin_version":"2.1.0","time_elapsed":222968,"subject_id":"90315","group":"Group2","full_date":"2025-12-07T19:10:49.574Z","date":"2025-12-07","time":"19:10:49"},{"task":"memory_phase","broad_category":"M","image_png":"M_Phyllite_05.png","image_id":261,"category_name":"Phyllite","category":17,"distinct_rating":2.14,"distinct_type":"Bottom","rt":null,"stimulus":"Stimuli_Rocks480/M_Phyllite_05.png","response":null,"trial_type":"image-keyboard-response","trial_index":81,"plugin_version":"2.1.0","time_elapsed":225473,"subject_id":"90315","group":"Group2","full_date":"2025-12-07T19:10:49.574Z","date":"2025-12-07","time":"19:10:49"},{"rt":null,"stimulus":"<p style=\"font-size: 50px; margin: 0; text-align: center;\">+</p>","response":null,"trial_type":"html-keyboard-response","trial_index":82,"plugin_version":"2.1.0","time_elapsed":226482,"subject_id":"90315","group":"Group2","full_date":"2025-12-07T19:10:49.574Z","date":"2025-12-07","time":"19:10:49"},{"task":"memory_phase","broad_category":"I","image_png":"I_Basalt_10.png","image_id":26,"category_name":"Basalt","category":2,"distinct_rating":2.76,"distinct_type":"Bottom","rt":null,"stimulus":"Stimuli_Rocks480/I_Basalt_10.png","response":null,"trial_type":"image-keyboard-response","trial_index":83,"plugin_version":"2.1.0","time_elapsed":228996,"subject_id":"90315","group":"Group2","full_date":"2025-12-07T19:10:49.574Z","date":"2025-12-07","time":"19:10:49"},{"rt":null,"stimulus":"<p style=\"font-size: 50px; margin: 0; text-align: center;\">+</p>","response":null,"trial_type":"html-keyboard-response","trial_index":84,"plugin_version":"2.1.0","time_elapsed":230003,"subject_id":"90315","group":"Group2","full_date":"2025-12-07T19:10:49.574Z","date":"2025-12-07","time":"19:10:49"},{"task":"memory_phase","broad_category":"S","image_png":"S_Sandstone_08.png","image_id":456,"category_name":"Sandstone","category":29,"distinct_rating":1.5,"distinct_type":"Bottom","rt":null,"stimulus":"Stimuli_Rocks480/S_Sandstone_08.png","response":null,"trial_type":"image-keyboard-response","trial_index":85,"plugin_version":"2.1.0","time_elapsed":232514,"subject_id":"90315","group":"Group2","full_date":"2025-12-07T19:10:49.574Z","date":"2025-12-07","time":"19:10:49"},{"rt":null,"stimulus":"<p style=\"font-size: 50px; margin: 0; text-align: center;\">+</p>","response":null,"trial_type":"html-keyboard-response","trial_index":86,"plugin_version":"2.1.0","time_elapsed":233525,"subject_id":"90315","group":"Group2","full_date":"2025-12-07T19:10:49.574Z","date":"2025-12-07","time":"19:10:49"},{"task":"memory_phase","broad_category":"S","image_png":"S_Dolomite_16.png","image_id":400,"category_name":"Dolomite","category":25,"distinct_rating":1.71,"distinct_type":"Bottom","rt":null,"stimulus":"Stimuli_Rocks480/S_Dolomite_16.png","response":null,"trial_type":"image-keyboard-response","trial_index":87,"plugin_version":"2.1.0","time_elapsed":236038,"subject_id":"90315","group":"Group2","full_date":"2025-12-07T19:10:49.574Z","date":"2025-12-07","time":"19:10:49"},{"rt":null,"stimulus":"<p style=\"font-size: 50px; margin: 0; text-align: center;\">+</p>","response":null,"trial_type":"html-keyboard-response","trial_index":88,"plugin_version":"2.1.0","time_elapsed":237043,"subject_id":"90315","group":"Group2","full_date":"2025-12-07T19:10:49.574Z","date":"2025-12-07","time":"19:10:49"},{"task":"memory_phase","broad_category":"I","image_png":"I_Rhyolite_05.png","image_id":149,"category_name":"Rhyolite","category":10,"distinct_rating":3.02,"distinct_type":"Bottom","rt":null,"stimulus":"Stimuli_Rocks480/I_Rhyolite_05.png","response":null,"trial_type":"image-keyboard-response","trial_index":89,"plugin_version":"2.1.0","time_elapsed":239558,"subject_id":"90315","group":"Group2","full_date":"2025-12-07T19:10:49.574Z","date":"2025-12-07","time":"19:10:49"},{"rt":null,"stimulus":"<p style=\"font-size: 50px; margin: 0; text-align: center;\">+</p>","response":null,"trial_type":"html-keyboard-response","trial_index":90,"plugin_version":"2.1.0","time_elapsed":240566,"subject_id":"90315","group":"Group2","full_date":"2025-12-07T19:10:49.574Z","date":"2025-12-07","time":"19:10:49"},{"task":"memory_phase","broad_category":"I","image_png":"I_Diorite_15.png","image_id":47,"category_name":"Diorite","category":3,"distinct_rating":3.05,"distinct_type":"Bottom","rt":null,"stimulus":"Stimuli_Rocks480/I_Diorite_15.png","response":null,"trial_type":"image-keyboard-response","trial_index":91,"plugin_version":"2.1.0","time_elapsed":243079,"subject_id":"90315","group":"Group2","full_date":"2025-12-07T19:10:49.574Z","date":"2025-12-07","time":"19:10:49"},{"rt":null,"stimulus":"<p style=\"font-size: 50px; margin: 0; text-align: center;\">+</p>","response":null,"trial_type":"html-keyboard-response","trial_index":92,"plugin_version":"2.1.0","time_elapsed":244082,"subject_id":"90315","group":"Group2","full_date":"2025-12-07T19:10:49.574Z","date":"2025-12-07","time":"19:10:49"},{"task":"memory_phase","broad_category":"I","image_png":"I_Pegmatite_11.png","image_id":107,"category_name":"Pegmatite","category":7,"distinct_rating":7.11,"distinct_type":"Top","rt":null,"stimulus":"Stimuli_Rocks480/I_Pegmatite_11.png","response":null,"trial_type":"image-keyboard-response","trial_index":93,"plugin_version":"2.1.0","time_elapsed":246593,"subject_id":"90315","group":"Group2","full_date":"2025-12-07T19:10:49.574Z","date":"2025-12-07","time":"19:10:49"},{"rt":null,"stimulus":"<p style=\"font-size: 50px; margin: 0; text-align: center;\">+</p>","response":null,"trial_type":"html-keyboard-response","trial_index":94,"plugin_version":"2.1.0","time_elapsed":247597,"subject_id":"90315","group":"Group2","full_date":"2025-12-07T19:10:49.574Z","date":"2025-12-07","time":"19:10:49"},{"task":"memory_phase","broad_category":"M","image_png":"M_Marble_14.png","image_id":238,"category_name":"Marble","category":15,"distinct_rating":3.31,"distinct_type":"Bottom","rt":null,"stimulus":"Stimuli_Rocks480/M_Marble_14.png","response":null,"trial_type":"image-keyboard-response","trial_index":95,"plugin_version":"2.1.0","time_elapsed":250109,"subject_id":"90315","group":"Group2","full_date":"2025-12-07T19:10:49.574Z","date":"2025-12-07","time":"19:10:49"},{"rt":null,"stimulus":"<p style=\"font-size: 50px; margin: 0; text-align: center;\">+</p>","response":null,"trial_type":"html-keyboard-response","trial_index":96,"plugin_version":"2.1.0","time_elapsed":251121,"subject_id":"90315","group":"Group2","full_date":"2025-12-07T19:10:49.574Z","date":"2025-12-07","time":"19:10:49"},{"task":"memory_phase","broad_category":"S","image_png":"S_Shale_03.png","image_id":467,"category_name":"Shale","category":30,"distinct_rating":1.95,"distinct_type":"Bottom","rt":null,"stimulus":"Stimuli_Rocks480/S_Shale_03.png","response":null,"trial_type":"image-keyboard-response","trial_index":97,"plugin_version":"2.1.0","time_elapsed":253626,"subject_id":"90315","group":"Group2","full_date":"2025-12-07T19:10:49.574Z","date":"2025-12-07","time":"19:10:49"},{"rt":null,"stimulus":"<p style=\"font-size: 50px; margin: 0; text-align: center;\">+</p>","response":null,"trial_type":"html-keyboard-response","trial_index":98,"plugin_version":"2.1.0","time_elapsed":254637,"subject_id":"90315","group":"Group2","full_date":"2025-12-07T19:10:49.574Z","date":"2025-12-07","time":"19:10:49"},{"task":"memory_phase","broad_category":"S","image_png":"S_Chert_13.png","image_id":365,"category_name":"Chert","category":23,"distinct_rating":6.57,"distinct_type":"Top","rt":null,"stimulus":"Stimuli_Rocks480/S_Chert_13.png","response":null,"trial_type":"image-keyboard-response","trial_index":99,"plugin_version":"2.1.0","time_elapsed":257154,"subject_id":"90315","group":"Group2","full_date":"2025-12-07T19:10:49.574Z","date":"2025-12-07","time":"19:10:49"},{"rt":null,"stimulus":"<p style=\"font-size: 50px; margin: 0; text-align: center;\">+</p>","response":null,"trial_type":"html-keyboard-response","trial_index":100,"plugin_version":"2.1.0","time_elapsed":258165,"subject_id":"90315","group":"Group2","full_date":"2025-12-07T19:10:49.574Z","date":"2025-12-07","time":"19:10:49"},{"task":"memory_phase","broad_category":"I","image_png":"I_Andesite_04.png","image_id":4,"category_name":"Andesite","category":1,"distinct_rating":3.18,"distinct_type":"Bottom","rt":null,"stimulus":"Stimuli_Rocks480/I_Andesite_04.png","response":null,"trial_type":"image-keyboard-response","trial_index":101,"plugin_version":"2.1.0","time_elapsed":260672,"subject_id":"90315","group":"Group2","full_date":"2025-12-07T19:10:49.574Z","date":"2025-12-07","time":"19:10:49"},{"rt":null,"stimulus":"<p style=\"font-size: 50px; margin: 0; text-align: center;\">+</p>","response":null,"trial_type":"html-keyboard-response","trial_index":102,"plugin_version":"2.1.0","time_elapsed":261673,"subject_id":"90315","group":"Group2","full_date":"2025-12-07T19:10:49.574Z","date":"2025-12-07","time":"19:10:49"},{"task":"memory_phase","broad_category":"M","image_png":"M_Phyllite_13.png","image_id":269,"category_name":"Phyllite","category":17,"distinct_rating":2.8,"distinct_type":"Bottom","rt":null,"stimulus":"Stimuli_Rocks480/M_Phyllite_13.png","response":null,"trial_type":"image-keyboard-response","trial_index":103,"plugin_version":"2.1.0","time_elapsed":264182,"subject_id":"90315","group":"Group2","full_date":"2025-12-07T19:10:49.574Z","date":"2025-12-07","time":"19:10:49"},{"rt":null,"stimulus":"<p style=\"font-size: 50px; margin: 0; text-align: center;\">+</p>","response":null,"trial_type":"html-keyboard-response","trial_index":104,"plugin_version":"2.1.0","time_elapsed":265190,"subject_id":"90315","group":"Group2","full_date":"2025-12-07T19:10:49.574Z","date":"2025-12-07","time":"19:10:49"},{"task":"memory_phase","broad_category":"M","image_png":"M_Marble_02.png","image_id":226,"category_name":"Marble","category":15,"distinct_rating":3.2,"distinct_type":"Bottom","rt":null,"stimulus":"Stimuli_Rocks480/M_Marble_02.png","response":null,"trial_type":"image-keyboard-response","trial_index":105,"plugin_version":"2.1.0","time_elapsed":267695,"subject_id":"90315","group":"Group2","full_date":"2025-12-07T19:10:49.574Z","date":"2025-12-07","time":"19:10:49"},{"rt":36243,"stimulus":"<p style=\"max-width: 760px; margin: auto; font-size: 35px; line-height: 1.5;\">You have completed 1 study phase. Now, we'll show you all the images again 2 more times.<br><br>Press SPACE to continue</p>","response":" ","trial_type":"html-keyboard-response","trial_index":106,"plugin_version":"2.1.0","time_elapsed":303939,"subject_id":"90315","group":"Group2","full_date":"2025-12-07T19:10:49.574Z","date":"2025-12-07","time":"19:10:49"},{"rt":null,"stimulus":"<p style=\"font-size: 50px; margin: 0; text-align: center;\">+</p>","response":null,"trial_type":"html-keyboard-response","trial_index":107,"plugin_version":"2.1.0","time_elapsed":304942,"subject_id":"90315","group":"Group2","full_date":"2025-12-07T19:10:49.574Z","date":"2025-12-07","time":"19:10:49"},{"task":"memory_phase","broad_category":"I","image_png":"I_Gabbro_12.png","image_id":60,"category_name":"Gabbro","category":4,"distinct_rating":2.6,"distinct_type":"Bottom","rt":null,"stimulus":"Stimuli_Rocks480/I_Gabbro_12.png","response":null,"trial_type":"image-keyboard-response","trial_index":108,"plugin_version":"2.1.0","time_elapsed":307455,"subject_id":"90315","group":"Group2","full_date":"2025-12-07T19:10:49.574Z","date":"2025-12-07","time":"19:10:49"},{"rt":null,"stimulus":"<p style=\"font-size: 50px; margin: 0; text-align: center;\">+</p>","response":null,"trial_type":"html-keyboard-response","trial_index":109,"plugin_version":"2.1.0","time_elapsed":308466,"subject_id":"90315","group":"Group2","full_date":"2025-12-07T19:10:49.574Z","date":"2025-12-07","time":"19:10:49"},{"task":"memory_phase","broad_category":"I","image_png":"I_Pegmatite_03.png","image_id":99,"category_name":"Pegmatite","category":7,"distinct_rating":7.24,"distinct_type":"Top","rt":null,"stimulus":"Stimuli_Rocks480/I_Pegmatite_03.png","response":null,"trial_type":"image-keyboard-response","trial_index":110,"plugin_version":"2.1.0","time_elapsed":310967,"subject_id":"90315","group":"Group2","full_date":"2025-12-07T19:10:49.574Z","date":"2025-12-07","time":"19:10:49"},{"rt":null,"stimulus":"<p style=\"font-size: 50px; margin: 0; text-align: center;\">+</p>","response":null,"trial_type":"html-keyboard-response","trial_index":111,"plugin_version":"2.1.0","time_elapsed":311976,"subject_id":"90315","group":"Group2","full_date":"2025-12-07T19:10:49.574Z","date":"2025-12-07","time":"19:10:49"},{"task":"memory_phase","broad_category":"M","image_png":"M_Phyllite_13.png","image_id":269,"category_name":"Phyllite","category":17,"distinct_rating":2.8,"distinct_type":"Bottom","rt":null,"stimulus":"Stimuli_Rocks480/M_Phyllite_13.png","response":null,"trial_type":"image-keyboard-response","trial_index":112,"plugin_version":"2.1.0","time_elapsed":314478,"subject_id":"90315","group":"Group2","full_date":"2025-12-07T19:10:49.574Z","date":"2025-12-07","time":"19:10:49"},{"rt":null,"stimulus":"<p style=\"font-size: 50px; margin: 0; text-align: center;\">+</p>","response":null,"trial_type":"html-keyboard-response","trial_index":113,"plugin_version":"2.1.0","time_elapsed":315484,"subject_id":"90315","group":"Group2","full_date":"2025-12-07T19:10:49.574Z","date":"2025-12-07","time":"19:10:49"},{"task":"memory_phase","broad_category":"S","image_png":"S_Chert_13.png","image_id":365,"category_name":"Chert","category":23,"distinct_rating":6.57,"distinct_type":"Top","rt":null,"stimulus":"Stimuli_Rocks480/S_Chert_13.png","response":null,"trial_type":"image-keyboard-response","trial_index":114,"plugin_version":"2.1.0","time_elapsed":317986,"subject_id":"90315","group":"Group2","full_date":"2025-12-07T19:10:49.574Z","date":"2025-12-07","time":"19:10:49"},{"rt":null,"stimulus":"<p style=\"font-size: 50px; margin: 0; text-align: center;\">+</p>","response":null,"trial_type":"html-keyboard-response","trial_index":115,"plugin_version":"2.1.0","time_elapsed":318997,"subject_id":"90315","group":"Group2","full_date":"2025-12-07T19:10:49.574Z","date":"2025-12-07","time":"19:10:49"},{"task":"memory_phase","broad_category":"M","image_png":"M_Phyllite_05.png","image_id":261,"category_name":"Phyllite","category":17,"distinct_rating":2.14,"distinct_type":"Bottom","rt":null,"stimulus":"Stimuli_Rocks480/M_Phyllite_05.png","response":null,"trial_type":"image-keyboard-response","trial_index":116,"plugin_version":"2.1.0","time_elapsed":321514,"subject_id":"90315","group":"Group2","full_date":"2025-12-07T19:10:49.574Z","date":"2025-12-07","time":"19:10:49"},{"rt":null,"stimulus":"<p style=\"font-size: 50px; margin: 0; text-align: center;\">+</p>","response":null,"trial_type":"html-keyboard-response","trial_index":117,"plugin_version":"2.1.0","time_elapsed":322523,"subject_id":"90315","group":"Group2","full_date":"2025-12-07T19:10:49.574Z","date":"2025-12-07","time":"19:10:49"},{"task":"memory_phase","broad_category":"I","image_png":"I_Gabbro_14.png","image_id":62,"category_name":"Gabbro","category":4,"distinct_rating":2.95,"distinct_type":"Bottom","rt":null,"stimulus":"Stimuli_Rocks480/I_Gabbro_14.png","response":null,"trial_type":"image-keyboard-response","trial_index":118,"plugin_version":"2.1.0","time_elapsed":325027,"subject_id":"90315","group":"Group2","full_date":"2025-12-07T19:10:49.574Z","date":"2025-12-07","time":"19:10:49"},{"rt":null,"stimulus":"<p style=\"font-size: 50px; margin: 0; text-align: center;\">+</p>","response":null,"trial_type":"html-keyboard-response","trial_index":119,"plugin_version":"2.1.0","time_elapsed":326039,"subject_id":"90315","group":"Group2","full_date":"2025-12-07T19:10:49.574Z","date":"2025-12-07","time":"19:10:49"},{"task":"memory_phase","broad_category":"I","image_png":"I_Rhyolite_10.png","image_id":154,"category_name":"Rhyolite","category":10,"distinct_rating":2.88,"distinct_type":"Bottom","rt":null,"stimulus":"Stimuli_Rocks480/I_Rhyolite_10.png","response":null,"trial_type":"image-keyboard-response","trial_index":120,"plugin_version":"2.1.0","time_elapsed":328546,"subject_id":"90315","group":"Group2","full_date":"2025-12-07T19:10:49.574Z","date":"2025-12-07","time":"19:10:49"},{"rt":null,"stimulus":"<p style=\"font-size: 50px; margin: 0; text-align: center;\">+</p>","response":null,"trial_type":"html-keyboard-response","trial_index":121,"plugin_version":"2.1.0","time_elapsed":329562,"subject_id":"90315","group":"Group2","full_date":"2025-12-07T19:10:49.574Z","date":"2025-12-07","time":"19:10:49"},{"task":"memory_phase","broad_category":"I","image_png":"I_Andesite_04.png","image_id":4,"category_name":"Andesite","category":1,"distinct_rating":3.18,"distinct_type":"Bottom","rt":null,"stimulus":"Stimuli_Rocks480/I_Andesite_04.png","response":null,"trial_type":"image-keyboard-response","trial_index":122,"plugin_version":"2.1.0","time_elapsed":332069,"subject_id":"90315","group":"Group2","full_date":"2025-12-07T19:10:49.574Z","date":"2025-12-07","time":"19:10:49"},{"rt":null,"stimulus":"<p style=\"font-size: 50px; margin: 0; text-align: center;\">+</p>","response":null,"trial_type":"html-keyboard-response","trial_index":123,"plugin_version":"2.1.0","time_elapsed":333082,"subject_id":"90315","group":"Group2","full_date":"2025-12-07T19:10:49.574Z","date":"2025-12-07","time":"19:10:49"},{"task":"memory_phase","broad_category":"M","image_png":"M_Marble_02.png","image_id":226,"category_name":"Marble","category":15,"distinct_rating":3.2,"distinct_type":"Bottom","rt":null,"stimulus":"Stimuli_Rocks480/M_Marble_02.png","response":null,"trial_type":"image-keyboard-response","trial_index":124,"plugin_version":"2.1.0","time_elapsed":335590,"subject_id":"90315","group":"Group2","full_date":"2025-12-07T19:10:49.574Z","date":"2025-12-07","time":"19:10:49"},{"rt":null,"stimulus":"<p style=\"font-size: 50px; margin: 0; text-align: center;\">+</p>","response":null,"trial_type":"html-keyboard-response","trial_index":125,"plugin_version":"2.1.0","time_elapsed":336597,"subject_id":"90315","group":"Group2","full_date":"2025-12-07T19:10:49.574Z","date":"2025-12-07","time":"19:10:49"},{"task":"memory_phase","broad_category":"M","image_png":"M_Quartzite_07.png","image_id":279,"category_name":"Quartzite","category":18,"distinct_rating":1.97,"distinct_type":"Bottom","rt":null,"stimulus":"Stimuli_Rocks480/M_Quartzite_07.png","response":null,"trial_type":"image-keyboard-response","trial_index":126,"plugin_version":"2.1.0","time_elapsed":339113,"subject_id":"90315","group":"Group2","full_date":"2025-12-07T19:10:49.574Z","date":"2025-12-07","time":"19:10:49"},{"rt":null,"stimulus":"<p style=\"font-size: 50px; margin: 0; text-align: center;\">+</p>","response":null,"trial_type":"html-keyboard-response","trial_index":127,"plugin_version":"2.1.0","time_elapsed":340114,"subject_id":"90315","group":"Group2","full_date":"2025-12-07T19:10:49.574Z","date":"2025-12-07","time":"19:10:49"},{"task":"memory_phase","broad_category":"S","image_png":"S_Sandstone_11.png","image_id":459,"category_name":"Sandstone","category":29,"distinct_rating":1.82,"distinct_type":"Bottom","rt":null,"stimulus":"Stimuli_Rocks480/S_Sandstone_11.png","response":null,"trial_type":"image-keyboard-response","trial_index":128,"plugin_version":"2.1.0","time_elapsed":342631,"subject_id":"90315","group":"Group2","full_date":"2025-12-07T19:10:49.574Z","date":"2025-12-07","time":"19:10:49"},{"rt":null,"stimulus":"<p style=\"font-size: 50px; margin: 0; text-align: center;\">+</p>","response":null,"trial_type":"html-keyboard-response","trial_index":129,"plugin_version":"2.1.0","time_elapsed":343634,"subject_id":"90315","group":"Group2","full_date":"2025-12-07T19:10:49.574Z","date":"2025-12-07","time":"19:10:49"},{"task":"memory_phase","broad_category":"I","image_png":"I_Rhyolite_05.png","image_id":149,"category_name":"Rhyolite","category":10,"distinct_rating":3.02,"distinct_type":"Bottom","rt":null,"stimulus":"Stimuli_Rocks480/I_Rhyolite_05.png","response":null,"trial_type":"image-keyboard-response","trial_index":130,"plugin_version":"2.1.0","time_elapsed":346138,"subject_id":"90315","group":"Group2","full_date":"2025-12-07T19:10:49.574Z","date":"2025-12-07","time":"19:10:49"},{"rt":null,"stimulus":"<p style=\"font-size: 50px; margin: 0; text-align: center;\">+</p>","response":null,"trial_type":"html-keyboard-response","trial_index":131,"plugin_version":"2.1.0","time_elapsed":347154,"subject_id":"90315","group":"Group2","full_date":"2025-12-07T19:10:49.574Z","date":"2025-12-07","time":"19:10:49"},{"task":"memory_phase","broad_category":"I","image_png":"I_Pumice_01.png","image_id":129,"category_name":"Pumice","category":9,"distinct_rating":3.25,"distinct_type":"Bottom","rt":null,"stimulus":"Stimuli_Rocks480/I_Pumice_01.png","response":null,"trial_type":"image-keyboard-response","trial_index":132,"plugin_version":"2.1.0","time_elapsed":349663,"subject_id":"90315","group":"Group2","full_date":"2025-12-07T19:10:49.574Z","date":"2025-12-07","time":"19:10:49"},{"rt":null,"stimulus":"<p style=\"font-size: 50px; margin: 0; text-align: center;\">+</p>","response":null,"trial_type":"html-keyboard-response","trial_index":133,"plugin_version":"2.1.0","time_elapsed":350678,"subject_id":"90315","group":"Group2","full_date":"2025-12-07T19:10:49.574Z","date":"2025-12-07","time":"19:10:49"},{"task":"memory_phase","broad_category":"I","image_png":"I_Diorite_01.png","image_id":33,"category_name":"Diorite","category":3,"distinct_rating":2.97,"distinct_type":"Bottom","rt":null,"stimulus":"Stimuli_Rocks480/I_Diorite_01.png","response":null,"trial_type":"image-keyboard-response","trial_index":134,"plugin_version":"2.1.0","time_elapsed":353185,"subject_id":"90315","group":"Group2","full_date":"2025-12-07T19:10:49.574Z","date":"2025-12-07","time":"19:10:49"},{"rt":null,"stimulus":"<p style=\"font-size: 50px; margin: 0; text-align: center;\">+</p>","response":null,"trial_type":"html-keyboard-response","trial_index":135,"plugin_version":"2.1.0","time_elapsed":354188,"subject_id":"90315","group":"Group2","full_date":"2025-12-07T19:10:49.574Z","date":"2025-12-07","time":"19:10:49"},{"task":"memory_phase","broad_category":"I","image_png":"I_Andesite_03.png","image_id":3,"category_name":"Andesite","category":1,"distinct_rating":3.17,"distinct_type":"Bottom","rt":null,"stimulus":"Stimuli_Rocks480/I_Andesite_03.png","response":null,"trial_type":"image-keyboard-response","trial_index":136,"plugin_version":"2.1.0","time_elapsed":356691,"subject_id":"90315","group":"Group2","full_date":"2025-12-07T19:10:49.574Z","date":"2025-12-07","time":"19:10:49"},{"rt":null,"stimulus":"<p style=\"font-size: 50px; margin: 0; text-align: center;\">+</p>","response":null,"trial_type":"html-keyboard-response","trial_index":137,"plugin_version":"2.1.0","time_elapsed":357694,"subject_id":"90315","group":"Group2","full_date":"2025-12-07T19:10:49.574Z","date":"2025-12-07","time":"19:10:49"},{"task":"memory_phase","broad_category":"M","image_png":"M_Gneiss_10.png","image_id":202,"category_name":"Gneiss","category":13,"distinct_rating":3.09,"distinct_type":"Bottom","rt":null,"stimulus":"Stimuli_Rocks480/M_Gneiss_10.png","response":null,"trial_type":"image-keyboard-response","trial_index":138,"plugin_version":"2.1.0","time_elapsed":360203,"subject_id":"90315","group":"Group2","full_date":"2025-12-07T19:10:49.574Z","date":"2025-12-07","time":"19:10:49"},{"rt":null,"stimulus":"<p style=\"font-size: 50px; margin: 0; text-align: center;\">+</p>","response":null,"trial_type":"html-keyboard-response","trial_index":139,"plugin_version":"2.1.0","time_elapsed":361204,"subject_id":"90315","group":"Group2","full_date":"2025-12-07T19:10:49.574Z","date":"2025-12-07","time":"19:10:49"},{"task":"memory_phase","broad_category":"I","image_png":"I_Diorite_10.png","image_id":42,"category_name":"Diorite","category":3,"distinct_rating":2.84,"distinct_type":"Bottom","rt":null,"stimulus":"Stimuli_Rocks480/I_Diorite_10.png","response":null,"trial_type":"image-keyboard-response","trial_index":140,"plugin_version":"2.1.0","time_elapsed":363711,"subject_id":"90315","group":"Group2","full_date":"2025-12-07T19:10:49.574Z","date":"2025-12-07","time":"19:10:49"},{"rt":null,"stimulus":"<p style=\"font-size: 50px; margin: 0; text-align: center;\">+</p>","response":null,"trial_type":"html-keyboard-response","trial_index":141,"plugin_version":"2.1.0","time_elapsed":364725,"subject_id":"90315","group":"Group2","full_date":"2025-12-07T19:10:49.574Z","date":"2025-12-07","time":"19:10:49"},{"task":"memory_phase","broad_category":"I","image_png":"I_Basalt_13.png","image_id":29,"category_name":"Basalt","category":2,"distinct_rating":2.68,"distinct_type":"Bottom","rt":null,"stimulus":"Stimuli_Rocks480/I_Basalt_13.png","response":null,"trial_type":"image-keyboard-response","trial_index":142,"plugin_version":"2.1.0","time_elapsed":367229,"subject_id":"90315","group":"Group2","full_date":"2025-12-07T19:10:49.574Z","date":"2025-12-07","time":"19:10:49"},{"rt":null,"stimulus":"<p style=\"font-size: 50px; margin: 0; text-align: center;\">+</p>","response":null,"trial_type":"html-keyboard-response","trial_index":143,"plugin_version":"2.1.0","time_elapsed":368243,"subject_id":"90315","group":"Group2","full_date":"2025-12-07T19:10:49.574Z","date":"2025-12-07","time":"19:10:49"},{"task":"memory_phase","broad_category":"S","image_png":"S_Dolomite_07.png","image_id":391,"category_name":"Dolomite","category":25,"distinct_rating":1.73,"distinct_type":"Bottom","rt":null,"stimulus":"Stimuli_Rocks480/S_Dolomite_07.png","response":null,"trial_type":"image-keyboard-response","trial_index":144,"plugin_version":"2.1.0","time_elapsed":370746,"subject_id":"90315","group":"Group2","full_date":"2025-12-07T19:10:49.574Z","date":"2025-12-07","time":"19:10:49"},{"rt":null,"stimulus":"<p style=\"font-size: 50px; margin: 0; text-align: center;\">+</p>","response":null,"trial_type":"html-keyboard-response","trial_index":145,"plugin_version":"2.1.0","time_elapsed":371758,"subject_id":"90315","group":"Group2","full_date":"2025-12-07T19:10:49.574Z","date":"2025-12-07","time":"19:10:49"},{"task":"memory_phase","broad_category":"I","image_png":"I_Andesite_09.png","image_id":9,"category_name":"Andesite","category":1,"distinct_rating":2.49,"distinct_type":"Bottom","rt":null,"stimulus":"Stimuli_Rocks480/I_Andesite_09.png","response":null,"trial_type":"image-keyboard-response","trial_index":146,"plugin_version":"2.1.0","time_elapsed":374263,"subject_id":"90315","group":"Group2","full_date":"2025-12-07T19:10:49.574Z","date":"2025-12-07","time":"19:10:49"},{"rt":null,"stimulus":"<p style=\"font-size: 50px; margin: 0; text-align: center;\">+</p>","response":null,"trial_type":"html-keyboard-response","trial_index":147,"plugin_version":"2.1.0","time_elapsed":375272,"subject_id":"90315","group":"Group2","full_date":"2025-12-07T19:10:49.574Z","date":"2025-12-07","time":"19:10:49"},{"task":"memory_phase","broad_category":"S","image_png":"S_Dolomite_01.png","image_id":385,"category_name":"Dolomite","category":25,"distinct_rating":1.43,"distinct_type":"Bottom","rt":null,"stimulus":"Stimuli_Rocks480/S_Dolomite_01.png","response":null,"trial_type":"image-keyboard-response","trial_index":148,"plugin_version":"2.1.0","time_elapsed":377784,"subject_id":"90315","group":"Group2","full_date":"2025-12-07T19:10:49.574Z","date":"2025-12-07","time":"19:10:49"},{"rt":null,"stimulus":"<p style=\"font-size: 50px; margin: 0; text-align: center;\">+</p>","response":null,"trial_type":"html-keyboard-response","trial_index":149,"plugin_version":"2.1.0","time_elapsed":378797,"subject_id":"90315","group":"Group2","full_date":"2025-12-07T19:10:49.574Z","date":"2025-12-07","time":"19:10:49"},{"task":"memory_phase","broad_category":"I","image_png":"I_Pumice_14.png","image_id":142,"category_name":"Pumice","category":9,"distinct_rating":3.22,"distinct_type":"Bottom","rt":null,"stimulus":"Stimuli_Rocks480/I_Pumice_14.png","response":null,"trial_type":"image-keyboard-response","trial_index":150,"plugin_version":"2.1.0","time_elapsed":381309,"subject_id":"90315","group":"Group2","full_date":"2025-12-07T19:10:49.574Z","date":"2025-12-07","time":"19:10:49"},{"rt":null,"stimulus":"<p style=\"font-size: 50px; margin: 0; text-align: center;\">+</p>","response":null,"trial_type":"html-keyboard-response","trial_index":151,"plugin_version":"2.1.0","time_elapsed":382320,"subject_id":"90315","group":"Group2","full_date":"2025-12-07T19:10:49.574Z","date":"2025-12-07","time":"19:10:49"},{"task":"memory_phase","broad_category":"M","image_png":"M_Marble_03.png","image_id":227,"category_name":"Marble","category":15,"distinct_rating":2.67,"distinct_type":"Bottom","rt":null,"stimulus":"Stimuli_Rocks480/M_Marble_03.png","response":null,"trial_type":"image-keyboard-response","trial_index":152,"plugin_version":"2.1.0","time_elapsed":384835,"subject_id":"90315","group":"Group2","full_date":"2025-12-07T19:10:49.574Z","date":"2025-12-07","time":"19:10:49"},{"rt":null,"stimulus":"<p style=\"font-size: 50px; margin: 0; text-align: center;\">+</p>","response":null,"trial_type":"html-keyboard-response","trial_index":153,"plugin_version":"2.1.0","time_elapsed":385839,"subject_id":"90315","group":"Group2","full_date":"2025-12-07T19:10:49.574Z","date":"2025-12-07","time":"19:10:49"},{"task":"memory_phase","broad_category":"S","image_png":"S_Shale_02.png","image_id":466,"category_name":"Shale","category":30,"distinct_rating":2.9,"distinct_type":"Bottom","rt":null,"stimulus":"Stimuli_Rocks480/S_Shale_02.png","response":null,"trial_type":"image-keyboard-response","trial_index":154,"plugin_version":"2.1.0","time_elapsed":388344,"subject_id":"90315","group":"Group2","full_date":"2025-12-07T19:10:49.574Z","date":"2025-12-07","time":"19:10:49"},{"rt":null,"stimulus":"<p style=\"font-size: 50px; margin: 0; text-align: center;\">+</p>","response":null,"trial_type":"html-keyboard-response","trial_index":155,"plugin_version":"2.1.0","time_elapsed":389346,"subject_id":"90315","group":"Group2","full_date":"2025-12-07T19:10:49.574Z","date":"2025-12-07","time":"19:10:49"},{"task":"memory_phase","broad_category":"S","image_png":"S_Shale_07.png","image_id":471,"category_name":"Shale","category":30,"distinct_rating":2.73,"distinct_type":"Bottom","rt":null,"stimulus":"Stimuli_Rocks480/S_Shale_07.png","response":null,"trial_type":"image-keyboard-response","trial_index":156,"plugin_version":"2.1.0","time_elapsed":391858,"subject_id":"90315","group":"Group2","full_date":"2025-12-07T19:10:49.574Z","date":"2025-12-07","time":"19:10:49"},{"rt":4833,"stimulus":"<p style=\"max-width: 760px; margin: auto; font-size: 35px; line-height: 1.5;\">Press SPACE to continue study phase</p>","response":" ","trial_type":"html-keyboard-response","trial_index":157,"plugin_version":"2.1.0","time_elapsed":396691,"subject_id":"90315","group":"Group2","full_date":"2025-12-07T19:10:49.574Z","date":"2025-12-07","time":"19:10:49"},{"rt":null,"stimulus":"<p style=\"font-size: 50px; margin: 0; text-align: center;\">+</p>","response":null,"trial_type":"html-keyboard-response","trial_index":158,"plugin_version":"2.1.0","time_elapsed":397693,"subject_id":"90315","group":"Group2","full_date":"2025-12-07T19:10:49.574Z","date":"2025-12-07","time":"19:10:49"},{"task":"memory_phase","broad_category":"M","image_png":"M_Marble_14.png","image_id":238,"category_name":"Marble","category":15,"distinct_rating":3.31,"distinct_type":"Bottom","rt":null,"stimulus":"Stimuli_Rocks480/M_Marble_14.png","response":null,"trial_type":"image-keyboard-response","trial_index":159,"plugin_version":"2.1.0","time_elapsed":400203,"subject_id":"90315","group":"Group2","full_date":"2025-12-07T19:10:49.574Z","date":"2025-12-07","time":"19:10:49"},{"rt":null,"stimulus":"<p style=\"font-size: 50px; margin: 0; text-align: center;\">+</p>","response":null,"trial_type":"html-keyboard-response","trial_index":160,"plugin_version":"2.1.0","time_elapsed":401212,"subject_id":"90315","group":"Group2","full_date":"2025-12-07T19:10:49.574Z","date":"2025-12-07","time":"19:10:49"},{"task":"memory_phase","broad_category":"S","image_png":"S_Shale_03.png","image_id":467,"category_name":"Shale","category":30,"distinct_rating":1.95,"distinct_type":"Bottom","rt":null,"stimulus":"Stimuli_Rocks480/S_Shale_03.png","response":null,"trial_type":"image-keyboard-response","trial_index":161,"plugin_version":"2.1.0","time_elapsed":403727,"subject_id":"90315","group":"Group2","full_date":"2025-12-07T19:10:49.574Z","date":"2025-12-07","time":"19:10:49"},{"rt":null,"stimulus":"<p style=\"font-size: 50px; margin: 0; text-align: center;\">+</p>","response":null,"trial_type":"html-keyboard-response","trial_index":162,"plugin_version":"2.1.0","time_elapsed":404737,"subject_id":"90315","group":"Group2","full_date":"2025-12-07T19:10:49.574Z","date":"2025-12-07","time":"19:10:49"},{"task":"memory_phase","broad_category":"I","image_png":"I_Pegmatite_11.png","image_id":107,"category_name":"Pegmatite","category":7,"distinct_rating":7.11,"distinct_type":"Top","rt":null,"stimulus":"Stimuli_Rocks480/I_Pegmatite_11.png","response":null,"trial_type":"image-keyboard-response","trial_index":163,"plugin_version":"2.1.0","time_elapsed":407253,"subject_id":"90315","group":"Group2","full_date":"2025-12-07T19:10:49.574Z","date":"2025-12-07","time":"19:10:49"},{"rt":null,"stimulus":"<p style=\"font-size: 50px; margin: 0; text-align: center;\">+</p>","response":null,"trial_type":"html-keyboard-response","trial_index":164,"plugin_version":"2.1.0","time_elapsed":408268,"subject_id":"90315","group":"Group2","full_date":"2025-12-07T19:10:49.574Z","date":"2025-12-07","time":"19:10:49"},{"task":"memory_phase","broad_category":"S","image_png":"S_Rock Salt_15.png","image_id":447,"category_name":"Rock Salt","category":28,"distinct_rating":7.79,"distinct_type":"Top","rt":null,"stimulus":"Stimuli_Rocks480/S_Rock Salt_15.png","response":null,"trial_type":"image-keyboard-response","trial_index":165,"plugin_version":"2.1.0","time_elapsed":410784,"subject_id":"90315","group":"Group2","full_date":"2025-12-07T19:10:49.574Z","date":"2025-12-07","time":"19:10:49"},{"rt":null,"stimulus":"<p style=\"font-size: 50px; margin: 0; text-align: center;\">+</p>","response":null,"trial_type":"html-keyboard-response","trial_index":166,"plugin_version":"2.1.0","time_elapsed":411797,"subject_id":"90315","group":"Group2","full_date":"2025-12-07T19:10:49.574Z","date":"2025-12-07","time":"19:10:49"},{"task":"memory_phase","broad_category":"I","image_png":"I_Basalt_10.png","image_id":26,"category_name":"Basalt","category":2,"distinct_rating":2.76,"distinct_type":"Bottom","rt":null,"stimulus":"Stimuli_Rocks480/I_Basalt_10.png","response":null,"trial_type":"image-keyboard-response","trial_index":167,"plugin_version":"2.1.0","time_elapsed":414308,"subject_id":"90315","group":"Group2","full_date":"2025-12-07T19:10:49.574Z","date":"2025-12-07","time":"19:10:49"},{"rt":null,"stimulus":"<p style=\"font-size: 50px; margin: 0; text-align: center;\">+</p>","response":null,"trial_type":"html-keyboard-response","trial_index":168,"plugin_version":"2.1.0","time_elapsed":415322,"subject_id":"90315","group":"Group2","full_date":"2025-12-07T19:10:49.574Z","date":"2025-12-07","time":"19:10:49"},{"task":"memory_phase","broad_category":"I","image_png":"I_Peridotite_13.png","image_id":125,"category_name":"Peridotite","category":8,"distinct_rating":7.28,"distinct_type":"Top","rt":null,"stimulus":"Stimuli_Rocks480/I_Peridotite_13.png","response":null,"trial_type":"image-keyboard-response","trial_index":169,"plugin_version":"2.1.0","time_elapsed":417830,"subject_id":"90315","group":"Group2","full_date":"2025-12-07T19:10:49.574Z","date":"2025-12-07","time":"19:10:49"},{"rt":null,"stimulus":"<p style=\"font-size: 50px; margin: 0; text-align: center;\">+</p>","response":null,"trial_type":"html-keyboard-response","trial_index":170,"plugin_version":"2.1.0","time_elapsed":418840,"subject_id":"90315","group":"Group2","full_date":"2025-12-07T19:10:49.574Z","date":"2025-12-07","time":"19:10:49"},{"task":"memory_phase","broad_category":"M","image_png":"M_Slate_10.png","image_id":314,"category_name":"Slate","category":20,"distinct_rating":1.94,"distinct_type":"Bottom","rt":null,"stimulus":"Stimuli_Rocks480/M_Slate_10.png","response":null,"trial_type":"image-keyboard-response","trial_index":171,"plugin_version":"2.1.0","time_elapsed":421354,"subject_id":"90315","group":"Group2","full_date":"2025-12-07T19:10:49.574Z","date":"2025-12-07","time":"19:10:49"},{"rt":null,"stimulus":"<p style=\"font-size: 50px; margin: 0; text-align: center;\">+</p>","response":null,"trial_type":"html-keyboard-response","trial_index":172,"plugin_version":"2.1.0","time_elapsed":422360,"subject_id":"90315","group":"Group2","full_date":"2025-12-07T19:10:49.574Z","date":"2025-12-07","time":"19:10:49"},{"task":"memory_phase","broad_category":"I","image_png":"I_Rhyolite_08.png","image_id":152,"category_name":"Rhyolite","category":10,"distinct_rating":1.38,"distinct_type":"Bottom","rt":null,"stimulus":"Stimuli_Rocks480/I_Rhyolite_08.png","response":null,"trial_type":"image-keyboard-response","trial_index":173,"plugin_version":"2.1.0","time_elapsed":424867,"subject_id":"90315","group":"Group2","full_date":"2025-12-07T19:10:49.574Z","date":"2025-12-07","time":"19:10:49"},{"rt":null,"stimulus":"<p style=\"font-size: 50px; margin: 0; text-align: center;\">+</p>","response":null,"trial_type":"html-keyboard-response","trial_index":174,"plugin_version":"2.1.0","time_elapsed":425876,"subject_id":"90315","group":"Group2","full_date":"2025-12-07T19:10:49.574Z","date":"2025-12-07","time":"19:10:49"},{"task":"memory_phase","broad_category":"M","image_png":"M_Phyllite_02.png","image_id":258,"category_name":"Phyllite","category":17,"distinct_rating":2.89,"distinct_type":"Bottom","rt":null,"stimulus":"Stimuli_Rocks480/M_Phyllite_02.png","response":null,"trial_type":"image-keyboard-response","trial_index":175,"plugin_version":"2.1.0","time_elapsed":428391,"subject_id":"90315","group":"Group2","full_date":"2025-12-07T19:10:49.574Z","date":"2025-12-07","time":"19:10:49"},{"rt":null,"stimulus":"<p style=\"font-size: 50px; margin: 0; text-align: center;\">+</p>","response":null,"trial_type":"html-keyboard-response","trial_index":176,"plugin_version":"2.1.0","time_elapsed":429405,"subject_id":"90315","group":"Group2","full_date":"2025-12-07T19:10:49.574Z","date":"2025-12-07","time":"19:10:49"},{"task":"memory_phase","broad_category":"M","image_png":"M_Quartzite_15.png","image_id":287,"category_name":"Quartzite","category":18,"distinct_rating":2.19,"distinct_type":"Bottom","rt":null,"stimulus":"Stimuli_Rocks480/M_Quartzite_15.png","response":null,"trial_type":"image-keyboard-response","trial_index":177,"plugin_version":"2.1.0","time_elapsed":431918,"subject_id":"90315","group":"Group2","full_date":"2025-12-07T19:10:49.574Z","date":"2025-12-07","time":"19:10:49"},{"rt":null,"stimulus":"<p style=\"font-size: 50px; margin: 0; text-align: center;\">+</p>","response":null,"trial_type":"html-keyboard-response","trial_index":178,"plugin_version":"2.1.0","time_elapsed":432919,"subject_id":"90315","group":"Group2","full_date":"2025-12-07T19:10:49.574Z","date":"2025-12-07","time":"19:10:49"},{"task":"memory_phase","broad_category":"M","image_png":"M_Slate_04.png","image_id":308,"category_name":"Slate","category":20,"distinct_rating":2.2,"distinct_type":"Bottom","rt":null,"stimulus":"Stimuli_Rocks480/M_Slate_04.png","response":null,"trial_type":"image-keyboard-response","trial_index":179,"plugin_version":"2.1.0","time_elapsed":435433,"subject_id":"90315","group":"Group2","full_date":"2025-12-07T19:10:49.574Z","date":"2025-12-07","time":"19:10:49"},{"rt":null,"stimulus":"<p style=\"font-size: 50px; margin: 0; text-align: center;\">+</p>","response":null,"trial_type":"html-keyboard-response","trial_index":180,"plugin_version":"2.1.0","time_elapsed":436446,"subject_id":"90315","group":"Group2","full_date":"2025-12-07T19:10:49.574Z","date":"2025-12-07","time":"19:10:49"},{"task":"memory_phase","broad_category":"S","image_png":"S_Sandstone_04.png","image_id":452,"category_name":"Sandstone","category":29,"distinct_rating":1.8,"distinct_type":"Bottom","rt":null,"stimulus":"Stimuli_Rocks480/S_Sandstone_04.png","response":null,"trial_type":"image-keyboard-response","trial_index":181,"plugin_version":"2.1.0","time_elapsed":438956,"subject_id":"90315","group":"Group2","full_date":"2025-12-07T19:10:49.574Z","date":"2025-12-07","time":"19:10:49"},{"rt":null,"stimulus":"<p style=\"font-size: 50px; margin: 0; text-align: center;\">+</p>","response":null,"trial_type":"html-keyboard-response","trial_index":182,"plugin_version":"2.1.0","time_elapsed":439968,"subject_id":"90315","group":"Group2","full_date":"2025-12-07T19:10:49.574Z","date":"2025-12-07","time":"19:10:49"},{"task":"memory_phase","broad_category":"I","image_png":"I_Pumice_13.png","image_id":141,"category_name":"Pumice","category":9,"distinct_rating":3.12,"distinct_type":"Bottom","rt":null,"stimulus":"Stimuli_Rocks480/I_Pumice_13.png","response":null,"trial_type":"image-keyboard-response","trial_index":183,"plugin_version":"2.1.0","time_elapsed":442474,"subject_id":"90315","group":"Group2","full_date":"2025-12-07T19:10:49.574Z","date":"2025-12-07","time":"19:10:49"},{"rt":null,"stimulus":"<p style=\"font-size: 50px; margin: 0; text-align: center;\">+</p>","response":null,"trial_type":"html-keyboard-response","trial_index":184,"plugin_version":"2.1.0","time_elapsed":443488,"subject_id":"90315","group":"Group2","full_date":"2025-12-07T19:10:49.574Z","date":"2025-12-07","time":"19:10:49"},{"task":"memory_phase","broad_category":"I","image_png":"I_Obsidian_06.png","image_id":86,"category_name":"Obsidian","category":6,"distinct_rating":8.01,"distinct_type":"Top","rt":null,"stimulus":"Stimuli_Rocks480/I_Obsidian_06.png","response":null,"trial_type":"image-keyboard-response","trial_index":185,"plugin_version":"2.1.0","time_elapsed":445995,"subject_id":"90315","group":"Group2","full_date":"2025-12-07T19:10:49.574Z","date":"2025-12-07","time":"19:10:49"},{"rt":null,"stimulus":"<p style=\"font-size: 50px; margin: 0; text-align: center;\">+</p>","response":null,"trial_type":"html-keyboard-response","trial_index":186,"plugin_version":"2.1.0","time_elapsed":446999,"subject_id":"90315","group":"Group2","full_date":"2025-12-07T19:10:49.574Z","date":"2025-12-07","time":"19:10:49"},{"task":"memory_phase","broad_category":"M","image_png":"M_Quartzite_12.png","image_id":284,"category_name":"Quartzite","category":18,"distinct_rating":1.92,"distinct_type":"Bottom","rt":null,"stimulus":"Stimuli_Rocks480/M_Quartzite_12.png","response":null,"trial_type":"image-keyboard-response","trial_index":187,"plugin_version":"2.1.0","time_elapsed":449515,"subject_id":"90315","group":"Group2","full_date":"2025-12-07T19:10:49.574Z","date":"2025-12-07","time":"19:10:49"},{"rt":null,"stimulus":"<p style=\"font-size: 50px; margin: 0; text-align: center;\">+</p>","response":null,"trial_type":"html-keyboard-response","trial_index":188,"plugin_version":"2.1.0","time_elapsed":450530,"subject_id":"90315","group":"Group2","full_date":"2025-12-07T19:10:49.574Z","date":"2025-12-07","time":"19:10:49"},{"task":"memory_phase","broad_category":"M","image_png":"M_Gneiss_15.png","image_id":207,"category_name":"Gneiss","category":13,"distinct_rating":3.11,"distinct_type":"Bottom","rt":null,"stimulus":"Stimuli_Rocks480/M_Gneiss_15.png","response":null,"trial_type":"image-keyboard-response","trial_index":189,"plugin_version":"2.1.0","time_elapsed":453046,"subject_id":"90315","group":"Group2","full_date":"2025-12-07T19:10:49.574Z","date":"2025-12-07","time":"19:10:49"},{"rt":null,"stimulus":"<p style=\"font-size: 50px; margin: 0; text-align: center;\">+</p>","response":null,"trial_type":"html-keyboard-response","trial_index":190,"plugin_version":"2.1.0","time_elapsed":454061,"subject_id":"90315","group":"Group2","full_date":"2025-12-07T19:10:49.574Z","date":"2025-12-07","time":"19:10:49"},{"task":"memory_phase","broad_category":"I","image_png":"I_Gabbro_02.png","image_id":50,"category_name":"Gabbro","category":4,"distinct_rating":2.73,"distinct_type":"Bottom","rt":null,"stimulus":"Stimuli_Rocks480/I_Gabbro_02.png","response":null,"trial_type":"image-keyboard-response","trial_index":191,"plugin_version":"2.1.0","time_elapsed":456566,"subject_id":"90315","group":"Group2","full_date":"2025-12-07T19:10:49.574Z","date":"2025-12-07","time":"19:10:49"},{"rt":null,"stimulus":"<p style=\"font-size: 50px; margin: 0; text-align: center;\">+</p>","response":null,"trial_type":"html-keyboard-response","trial_index":192,"plugin_version":"2.1.0","time_elapsed":457580,"subject_id":"90315","group":"Group2","full_date":"2025-12-07T19:10:49.574Z","date":"2025-12-07","time":"19:10:49"},{"task":"memory_phase","broad_category":"I","image_png":"I_Diorite_15.png","image_id":47,"category_name":"Diorite","category":3,"distinct_rating":3.05,"distinct_type":"Bottom","rt":null,"stimulus":"Stimuli_Rocks480/I_Diorite_15.png","response":null,"trial_type":"image-keyboard-response","trial_index":193,"plugin_version":"2.1.0","time_elapsed":460084,"subject_id":"90315","group":"Group2","full_date":"2025-12-07T19:10:49.574Z","date":"2025-12-07","time":"19:10:49"},{"rt":null,"stimulus":"<p style=\"font-size: 50px; margin: 0; text-align: center;\">+</p>","response":null,"trial_type":"html-keyboard-response","trial_index":194,"plugin_version":"2.1.0","time_elapsed":461092,"subject_id":"90315","group":"Group2","full_date":"2025-12-07T19:10:49.574Z","date":"2025-12-07","time":"19:10:49"},{"task":"memory_phase","broad_category":"I","image_png":"I_Basalt_08.png","image_id":24,"category_name":"Basalt","category":2,"distinct_rating":2.31,"distinct_type":"Bottom","rt":null,"stimulus":"Stimuli_Rocks480/I_Basalt_08.png","response":null,"trial_type":"image-keyboard-response","trial_index":195,"plugin_version":"2.1.0","time_elapsed":463602,"subject_id":"90315","group":"Group2","full_date":"2025-12-07T19:10:49.574Z","date":"2025-12-07","time":"19:10:49"},{"rt":null,"stimulus":"<p style=\"font-size: 50px; margin: 0; text-align: center;\">+</p>","response":null,"trial_type":"html-keyboard-response","trial_index":196,"plugin_version":"2.1.0","time_elapsed":464612,"subject_id":"90315","group":"Group2","full_date":"2025-12-07T19:10:49.574Z","date":"2025-12-07","time":"19:10:49"},{"task":"memory_phase","broad_category":"M","image_png":"M_Gneiss_14.png","image_id":206,"category_name":"Gneiss","category":13,"distinct_rating":3.41,"distinct_type":"Bottom","rt":null,"stimulus":"Stimuli_Rocks480/M_Gneiss_14.png","response":null,"trial_type":"image-keyboard-response","trial_index":197,"plugin_version":"2.1.0","time_elapsed":467124,"subject_id":"90315","group":"Group2","full_date":"2025-12-07T19:10:49.574Z","date":"2025-12-07","time":"19:10:49"},{"rt":null,"stimulus":"<p style=\"font-size: 50px; margin: 0; text-align: center;\">+</p>","response":null,"trial_type":"html-keyboard-response","trial_index":198,"plugin_version":"2.1.0","time_elapsed":468139,"subject_id":"90315","group":"Group2","full_date":"2025-12-07T19:10:49.574Z","date":"2025-12-07","time":"19:10:49"},{"task":"memory_phase","broad_category":"S","image_png":"S_Sandstone_08.png","image_id":456,"category_name":"Sandstone","category":29,"distinct_rating":1.5,"distinct_type":"Bottom","rt":null,"stimulus":"Stimuli_Rocks480/S_Sandstone_08.png","response":null,"trial_type":"image-keyboard-response","trial_index":199,"plugin_version":"2.1.0","time_elapsed":470642,"subject_id":"90315","group":"Group2","full_date":"2025-12-07T19:10:49.574Z","date":"2025-12-07","time":"19:10:49"},{"rt":null,"stimulus":"<p style=\"font-size: 50px; margin: 0; text-align: center;\">+</p>","response":null,"trial_type":"html-keyboard-response","trial_index":200,"plugin_version":"2.1.0","time_elapsed":471650,"subject_id":"90315","group":"Group2","full_date":"2025-12-07T19:10:49.574Z","date":"2025-12-07","time":"19:10:49"},{"task":"memory_phase","broad_category":"S","image_png":"S_Conglomerate_14.png","image_id":382,"category_name":"Conglomerate","category":24,"distinct_rating":6.86,"distinct_type":"Top","rt":null,"stimulus":"Stimuli_Rocks480/S_Conglomerate_14.png","response":null,"trial_type":"image-keyboard-response","trial_index":201,"plugin_version":"2.1.0","time_elapsed":474165,"subject_id":"90315","group":"Group2","full_date":"2025-12-07T19:10:49.574Z","date":"2025-12-07","time":"19:10:49"},{"rt":null,"stimulus":"<p style=\"font-size: 50px; margin: 0; text-align: center;\">+</p>","response":null,"trial_type":"html-keyboard-response","trial_index":202,"plugin_version":"2.1.0","time_elapsed":475173,"subject_id":"90315","group":"Group2","full_date":"2025-12-07T19:10:49.574Z","date":"2025-12-07","time":"19:10:49"},{"task":"memory_phase","broad_category":"S","image_png":"S_Rock Salt_13.png","image_id":445,"category_name":"Rock Salt","category":28,"distinct_rating":7.58,"distinct_type":"Top","rt":null,"stimulus":"Stimuli_Rocks480/S_Rock Salt_13.png","response":null,"trial_type":"image-keyboard-response","trial_index":203,"plugin_version":"2.1.0","time_elapsed":477684,"subject_id":"90315","group":"Group2","full_date":"2025-12-07T19:10:49.574Z","date":"2025-12-07","time":"19:10:49"},{"rt":null,"stimulus":"<p style=\"font-size: 50px; margin: 0; text-align: center;\">+</p>","response":null,"trial_type":"html-keyboard-response","trial_index":204,"plugin_version":"2.1.0","time_elapsed":478688,"subject_id":"90315","group":"Group2","full_date":"2025-12-07T19:10:49.574Z","date":"2025-12-07","time":"19:10:49"},{"task":"memory_phase","broad_category":"S","image_png":"S_Dolomite_16.png","image_id":400,"category_name":"Dolomite","category":25,"distinct_rating":1.71,"distinct_type":"Bottom","rt":null,"stimulus":"Stimuli_Rocks480/S_Dolomite_16.png","response":null,"trial_type":"image-keyboard-response","trial_index":205,"plugin_version":"2.1.0","time_elapsed":481200,"subject_id":"90315","group":"Group2","full_date":"2025-12-07T19:10:49.574Z","date":"2025-12-07","time":"19:10:49"},{"rt":null,"stimulus":"<p style=\"font-size: 50px; margin: 0; text-align: center;\">+</p>","response":null,"trial_type":"html-keyboard-response","trial_index":206,"plugin_version":"2.1.0","time_elapsed":482208,"subject_id":"90315","group":"Group2","full_date":"2025-12-07T19:10:49.574Z","date":"2025-12-07","time":"19:10:49"},{"task":"memory_phase","broad_category":"M","image_png":"M_Slate_14.png","image_id":318,"category_name":"Slate","category":20,"distinct_rating":2.58,"distinct_type":"Bottom","rt":null,"stimulus":"Stimuli_Rocks480/M_Slate_14.png","response":null,"trial_type":"image-keyboard-response","trial_index":207,"plugin_version":"2.1.0","time_elapsed":484713,"subject_id":"90315","group":"Group2","full_date":"2025-12-07T19:10:49.574Z","date":"2025-12-07","time":"19:10:49"},{"rt":8634,"stimulus":"<p style=\"max-width: 760px; margin: auto; font-size: 35px; line-height: 1.5;\">You have completed 2 study phases. Now, we'll show you all the images again 1 more time.<br><br>Press SPACE to continue</p>","response":" ","trial_type":"html-keyboard-response","trial_index":208,"plugin_version":"2.1.0","time_elapsed":493347,"subject_id":"90315","group":"Group2","full_date":"2025-12-07T19:10:49.574Z","date":"2025-12-07","time":"19:10:49"},{"rt":null,"stimulus":"<p style=\"font-size: 50px; margin: 0; text-align: center;\">+</p>","response":null,"trial_type":"html-keyboard-response","trial_index":209,"plugin_version":"2.1.0","time_elapsed":494360,"subject_id":"90315","group":"Group2","full_date":"2025-12-07T19:10:49.574Z","date":"2025-12-07","time":"19:10:49"},{"task":"memory_phase","broad_category":"S","image_png":"S_Shale_07.png","image_id":471,"category_name":"Shale","category":30,"distinct_rating":2.73,"distinct_type":"Bottom","rt":null,"stimulus":"Stimuli_Rocks480/S_Shale_07.png","response":null,"trial_type":"image-keyboard-response","trial_index":210,"plugin_version":"2.1.0","time_elapsed":496865,"subject_id":"90315","group":"Group2","full_date":"2025-12-07T19:10:49.574Z","date":"2025-12-07","time":"19:10:49"},{"rt":null,"stimulus":"<p style=\"font-size: 50px; margin: 0; text-align: center;\">+</p>","response":null,"trial_type":"html-keyboard-response","trial_index":211,"plugin_version":"2.1.0","time_elapsed":497876,"subject_id":"90315","group":"Group2","full_date":"2025-12-07T19:10:49.574Z","date":"2025-12-07","time":"19:10:49"},{"task":"memory_phase","broad_category":"I","image_png":"I_Pumice_13.png","image_id":141,"category_name":"Pumice","category":9,"distinct_rating":3.12,"distinct_type":"Bottom","rt":null,"stimulus":"Stimuli_Rocks480/I_Pumice_13.png","response":null,"trial_type":"image-keyboard-response","trial_index":212,"plugin_version":"2.1.0","time_elapsed":500381,"subject_id":"90315","group":"Group2","full_date":"2025-12-07T19:10:49.574Z","date":"2025-12-07","time":"19:10:49"},{"rt":null,"stimulus":"<p style=\"font-size: 50px; margin: 0; text-align: center;\">+</p>","response":null,"trial_type":"html-keyboard-response","trial_index":213,"plugin_version":"2.1.0","time_elapsed":501395,"subject_id":"90315","group":"Group2","full_date":"2025-12-07T19:10:49.574Z","date":"2025-12-07","time":"19:10:49"},{"task":"memory_phase","broad_category":"S","image_png":"S_Rock Salt_13.png","image_id":445,"category_name":"Rock Salt","category":28,"distinct_rating":7.58,"distinct_type":"Top","rt":null,"stimulus":"Stimuli_Rocks480/S_Rock Salt_13.png","response":null,"trial_type":"image-keyboard-response","trial_index":214,"plugin_version":"2.1.0","time_elapsed":503905,"subject_id":"90315","group":"Group2","full_date":"2025-12-07T19:10:49.574Z","date":"2025-12-07","time":"19:10:49"},{"rt":null,"stimulus":"<p style=\"font-size: 50px; margin: 0; text-align: center;\">+</p>","response":null,"trial_type":"html-keyboard-response","trial_index":215,"plugin_version":"2.1.0","time_elapsed":504912,"subject_id":"90315","group":"Group2","full_date":"2025-12-07T19:10:49.574Z","date":"2025-12-07","time":"19:10:49"},{"task":"memory_phase","broad_category":"I","image_png":"I_Gabbro_02.png","image_id":50,"category_name":"Gabbro","category":4,"distinct_rating":2.73,"distinct_type":"Bottom","rt":null,"stimulus":"Stimuli_Rocks480/I_Gabbro_02.png","response":null,"trial_type":"image-keyboard-response","trial_index":216,"plugin_version":"2.1.0","time_elapsed":507428,"subject_id":"90315","group":"Group2","full_date":"2025-12-07T19:10:49.574Z","date":"2025-12-07","time":"19:10:49"},{"rt":null,"stimulus":"<p style=\"font-size: 50px; margin: 0; text-align: center;\">+</p>","response":null,"trial_type":"html-keyboard-response","trial_index":217,"plugin_version":"2.1.0","time_elapsed":508437,"subject_id":"90315","group":"Group2","full_date":"2025-12-07T19:10:49.574Z","date":"2025-12-07","time":"19:10:49"},{"task":"memory_phase","broad_category":"I","image_png":"I_Pegmatite_03.png","image_id":99,"category_name":"Pegmatite","category":7,"distinct_rating":7.24,"distinct_type":"Top","rt":null,"stimulus":"Stimuli_Rocks480/I_Pegmatite_03.png","response":null,"trial_type":"image-keyboard-response","trial_index":218,"plugin_version":"2.1.0","time_elapsed":510945,"subject_id":"90315","group":"Group2","full_date":"2025-12-07T19:10:49.574Z","date":"2025-12-07","time":"19:10:49"},{"rt":null,"stimulus":"<p style=\"font-size: 50px; margin: 0; text-align: center;\">+</p>","response":null,"trial_type":"html-keyboard-response","trial_index":219,"plugin_version":"2.1.0","time_elapsed":511954,"subject_id":"90315","group":"Group2","full_date":"2025-12-07T19:10:49.574Z","date":"2025-12-07","time":"19:10:49"},{"task":"memory_phase","broad_category":"M","image_png":"M_Quartzite_07.png","image_id":279,"category_name":"Quartzite","category":18,"distinct_rating":1.97,"distinct_type":"Bottom","rt":null,"stimulus":"Stimuli_Rocks480/M_Quartzite_07.png","response":null,"trial_type":"image-keyboard-response","trial_index":220,"plugin_version":"2.1.0","time_elapsed":514462,"subject_id":"90315","group":"Group2","full_date":"2025-12-07T19:10:49.574Z","date":"2025-12-07","time":"19:10:49"},{"rt":null,"stimulus":"<p style=\"font-size: 50px; margin: 0; text-align: center;\">+</p>","response":null,"trial_type":"html-keyboard-response","trial_index":221,"plugin_version":"2.1.0","time_elapsed":515475,"subject_id":"90315","group":"Group2","full_date":"2025-12-07T19:10:49.574Z","date":"2025-12-07","time":"19:10:49"},{"task":"memory_phase","broad_category":"M","image_png":"M_Slate_04.png","image_id":308,"category_name":"Slate","category":20,"distinct_rating":2.2,"distinct_type":"Bottom","rt":null,"stimulus":"Stimuli_Rocks480/M_Slate_04.png","response":null,"trial_type":"image-keyboard-response","trial_index":222,"plugin_version":"2.1.0","time_elapsed":517983,"subject_id":"90315","group":"Group2","full_date":"2025-12-07T19:10:49.574Z","date":"2025-12-07","time":"19:10:49"},{"rt":null,"stimulus":"<p style=\"font-size: 50px; margin: 0; text-align: center;\">+</p>","response":null,"trial_type":"html-keyboard-response","trial_index":223,"plugin_version":"2.1.0","time_elapsed":518990,"subject_id":"90315","group":"Group2","full_date":"2025-12-07T19:10:49.574Z","date":"2025-12-07","time":"19:10:49"},{"task":"memory_phase","broad_category":"M","image_png":"M_Gneiss_10.png","image_id":202,"category_name":"Gneiss","category":13,"distinct_rating":3.09,"distinct_type":"Bottom","rt":null,"stimulus":"Stimuli_Rocks480/M_Gneiss_10.png","response":null,"trial_type":"image-keyboard-response","trial_index":224,"plugin_version":"2.1.0","time_elapsed":521497,"subject_id":"90315","group":"Group2","full_date":"2025-12-07T19:10:49.574Z","date":"2025-12-07","time":"19:10:49"},{"rt":null,"stimulus":"<p style=\"font-size: 50px; margin: 0; text-align: center;\">+</p>","response":null,"trial_type":"html-keyboard-response","trial_index":225,"plugin_version":"2.1.0","time_elapsed":522509,"subject_id":"90315","group":"Group2","full_date":"2025-12-07T19:10:49.574Z","date":"2025-12-07","time":"19:10:49"},{"task":"memory_phase","broad_category":"I","image_png":"I_Rhyolite_05.png","image_id":149,"category_name":"Rhyolite","category":10,"distinct_rating":3.02,"distinct_type":"Bottom","rt":null,"stimulus":"Stimuli_Rocks480/I_Rhyolite_05.png","response":null,"trial_type":"image-keyboard-response","trial_index":226,"plugin_version":"2.1.0","time_elapsed":525017,"subject_id":"90315","group":"Group2","full_date":"2025-12-07T19:10:49.574Z","date":"2025-12-07","time":"19:10:49"},{"rt":null,"stimulus":"<p style=\"font-size: 50px; margin: 0; text-align: center;\">+</p>","response":null,"trial_type":"html-keyboard-response","trial_index":227,"plugin_version":"2.1.0","time_elapsed":526024,"subject_id":"90315","group":"Group2","full_date":"2025-12-07T19:10:49.574Z","date":"2025-12-07","time":"19:10:49"},{"task":"memory_phase","broad_category":"M","image_png":"M_Marble_02.png","image_id":226,"category_name":"Marble","category":15,"distinct_rating":3.2,"distinct_type":"Bottom","rt":null,"stimulus":"Stimuli_Rocks480/M_Marble_02.png","response":null,"trial_type":"image-keyboard-response","trial_index":228,"plugin_version":"2.1.0","time_elapsed":528541,"subject_id":"90315","group":"Group2","full_date":"2025-12-07T19:10:49.574Z","date":"2025-12-07","time":"19:10:49"},{"rt":null,"stimulus":"<p style=\"font-size: 50px; margin: 0; text-align: center;\">+</p>","response":null,"trial_type":"html-keyboard-response","trial_index":229,"plugin_version":"2.1.0","time_elapsed":529542,"subject_id":"90315","group":"Group2","full_date":"2025-12-07T19:10:49.574Z","date":"2025-12-07","time":"19:10:49"},{"task":"memory_phase","broad_category":"I","image_png":"I_Gabbro_14.png","image_id":62,"category_name":"Gabbro","category":4,"distinct_rating":2.95,"distinct_type":"Bottom","rt":null,"stimulus":"Stimuli_Rocks480/I_Gabbro_14.png","response":null,"trial_type":"image-keyboard-response","trial_index":230,"plugin_version":"2.1.0","time_elapsed":532044,"subject_id":"90315","group":"Group2","full_date":"2025-12-07T19:10:49.574Z","date":"2025-12-07","time":"19:10:49"},{"rt":null,"stimulus":"<p style=\"font-size: 50px; margin: 0; text-align: center;\">+</p>","response":null,"trial_type":"html-keyboard-response","trial_index":231,"plugin_version":"2.1.0","time_elapsed":533056,"subject_id":"90315","group":"Group2","full_date":"2025-12-07T19:10:49.574Z","date":"2025-12-07","time":"19:10:49"},{"task":"memory_phase","broad_category":"S","image_png":"S_Rock Salt_15.png","image_id":447,"category_name":"Rock Salt","category":28,"distinct_rating":7.79,"distinct_type":"Top","rt":null,"stimulus":"Stimuli_Rocks480/S_Rock Salt_15.png","response":null,"trial_type":"image-keyboard-response","trial_index":232,"plugin_version":"2.1.0","time_elapsed":535573,"subject_id":"90315","group":"Group2","full_date":"2025-12-07T19:10:49.574Z","date":"2025-12-07","time":"19:10:49"},{"rt":null,"stimulus":"<p style=\"font-size: 50px; margin: 0; text-align: center;\">+</p>","response":null,"trial_type":"html-keyboard-response","trial_index":233,"plugin_version":"2.1.0","time_elapsed":536582,"subject_id":"90315","group":"Group2","full_date":"2025-12-07T19:10:49.574Z","date":"2025-12-07","time":"19:10:49"},{"task":"memory_phase","broad_category":"I","image_png":"I_Rhyolite_10.png","image_id":154,"category_name":"Rhyolite","category":10,"distinct_rating":2.88,"distinct_type":"Bottom","rt":null,"stimulus":"Stimuli_Rocks480/I_Rhyolite_10.png","response":null,"trial_type":"image-keyboard-response","trial_index":234,"plugin_version":"2.1.0","time_elapsed":539103,"subject_id":"90315","group":"Group2","full_date":"2025-12-07T19:10:49.574Z","date":"2025-12-07","time":"19:10:49"},{"rt":null,"stimulus":"<p style=\"font-size: 50px; margin: 0; text-align: center;\">+</p>","response":null,"trial_type":"html-keyboard-response","trial_index":235,"plugin_version":"2.1.0","time_elapsed":540104,"subject_id":"90315","group":"Group2","full_date":"2025-12-07T19:10:49.574Z","date":"2025-12-07","time":"19:10:49"},{"task":"memory_phase","broad_category":"I","image_png":"I_Pegmatite_11.png","image_id":107,"category_name":"Pegmatite","category":7,"distinct_rating":7.11,"distinct_type":"Top","rt":null,"stimulus":"Stimuli_Rocks480/I_Pegmatite_11.png","response":null,"trial_type":"image-keyboard-response","trial_index":236,"plugin_version":"2.1.0","time_elapsed":542616,"subject_id":"90315","group":"Group2","full_date":"2025-12-07T19:10:49.574Z","date":"2025-12-07","time":"19:10:49"},{"rt":null,"stimulus":"<p style=\"font-size: 50px; margin: 0; text-align: center;\">+</p>","response":null,"trial_type":"html-keyboard-response","trial_index":237,"plugin_version":"2.1.0","time_elapsed":544243,"subject_id":"90315","group":"Group2","full_date":"2025-12-07T19:10:49.574Z","date":"2025-12-07","time":"19:10:49"},{"task":"memory_phase","broad_category":"I","image_png":"I_Gabbro_12.png","image_id":60,"category_name":"Gabbro","category":4,"distinct_rating":2.6,"distinct_type":"Bottom","rt":null,"stimulus":"Stimuli_Rocks480/I_Gabbro_12.png","response":null,"trial_type":"image-keyboard-response","trial_index":238,"plugin_version":"2.1.0","time_elapsed":547237,"subject_id":"90315","group":"Group2","full_date":"2025-12-07T19:10:49.574Z","date":"2025-12-07","time":"19:10:49"},{"rt":null,"stimulus":"<p style=\"font-size: 50px; margin: 0; text-align: center;\">+</p>","response":null,"trial_type":"html-keyboard-response","trial_index":239,"plugin_version":"2.1.0","time_elapsed":548248,"subject_id":"90315","group":"Group2","full_date":"2025-12-07T19:10:49.574Z","date":"2025-12-07","time":"19:10:49"},{"task":"memory_phase","broad_category":"I","image_png":"I_Obsidian_06.png","image_id":86,"category_name":"Obsidian","category":6,"distinct_rating":8.01,"distinct_type":"Top","rt":null,"stimulus":"Stimuli_Rocks480/I_Obsidian_06.png","response":null,"trial_type":"image-keyboard-response","trial_index":240,"plugin_version":"2.1.0","time_elapsed":550772,"subject_id":"90315","group":"Group2","full_date":"2025-12-07T19:10:49.574Z","date":"2025-12-07","time":"19:10:49"},{"rt":null,"stimulus":"<p style=\"font-size: 50px; margin: 0; text-align: center;\">+</p>","response":null,"trial_type":"html-keyboard-response","trial_index":241,"plugin_version":"2.1.0","time_elapsed":552246,"subject_id":"90315","group":"Group2","full_date":"2025-12-07T19:10:49.574Z","date":"2025-12-07","time":"19:10:49"},{"task":"memory_phase","broad_category":"I","image_png":"I_Basalt_13.png","image_id":29,"category_name":"Basalt","category":2,"distinct_rating":2.68,"distinct_type":"Bottom","rt":null,"stimulus":"Stimuli_Rocks480/I_Basalt_13.png","response":null,"trial_type":"image-keyboard-response","trial_index":242,"plugin_version":"2.1.0","time_elapsed":555236,"subject_id":"90315","group":"Group2","full_date":"2025-12-07T19:10:49.574Z","date":"2025-12-07","time":"19:10:49"},{"rt":null,"stimulus":"<p style=\"font-size: 50px; margin: 0; text-align: center;\">+</p>","response":null,"trial_type":"html-keyboard-response","trial_index":243,"plugin_version":"2.1.0","time_elapsed":556245,"subject_id":"90315","group":"Group2","full_date":"2025-12-07T19:10:49.574Z","date":"2025-12-07","time":"19:10:49"},{"task":"memory_phase","broad_category":"I","image_png":"I_Peridotite_13.png","image_id":125,"category_name":"Peridotite","category":8,"distinct_rating":7.28,"distinct_type":"Top","rt":null,"stimulus":"Stimuli_Rocks480/I_Peridotite_13.png","response":null,"trial_type":"image-keyboard-response","trial_index":244,"plugin_version":"2.1.0","time_elapsed":559249,"subject_id":"90315","group":"Group2","full_date":"2025-12-07T19:10:49.574Z","date":"2025-12-07","time":"19:10:49"},{"rt":null,"stimulus":"<p style=\"font-size: 50px; margin: 0; text-align: center;\">+</p>","response":null,"trial_type":"html-keyboard-response","trial_index":245,"plugin_version":"2.1.0","time_elapsed":561247,"subject_id":"90315","group":"Group2","full_date":"2025-12-07T19:10:49.574Z","date":"2025-12-07","time":"19:10:49"},{"task":"memory_phase","broad_category":"S","image_png":"S_Dolomite_07.png","image_id":391,"category_name":"Dolomite","category":25,"distinct_rating":1.73,"distinct_type":"Bottom","rt":null,"stimulus":"Stimuli_Rocks480/S_Dolomite_07.png","response":null,"trial_type":"image-keyboard-response","trial_index":246,"plugin_version":"2.1.0","time_elapsed":564246,"subject_id":"90315","group":"Group2","full_date":"2025-12-07T19:10:49.574Z","date":"2025-12-07","time":"19:10:49"},{"rt":null,"stimulus":"<p style=\"font-size: 50px; margin: 0; text-align: center;\">+</p>","response":null,"trial_type":"html-keyboard-response","trial_index":247,"plugin_version":"2.1.0","time_elapsed":566245,"subject_id":"90315","group":"Group2","full_date":"2025-12-07T19:10:49.574Z","date":"2025-12-07","time":"19:10:49"},{"task":"memory_phase","broad_category":"S","image_png":"S_Dolomite_01.png","image_id":385,"category_name":"Dolomite","category":25,"distinct_rating":1.43,"distinct_type":"Bottom","rt":null,"stimulus":"Stimuli_Rocks480/S_Dolomite_01.png","response":null,"trial_type":"image-keyboard-response","trial_index":248,"plugin_version":"2.1.0","time_elapsed":569242,"subject_id":"90315","g