[{"width":1272,"height":674,"webaudio":true,"browser":"edge-chromium","browser_version":"142.0.0","mobile":false,"os":"Windows 10","fullscreen":true,"vsync_rate":60.73,"webcam":true,"microphone":true,"trial_type":"browser-check","trial_index":0,"plugin_version":"2.1.0","time_elapsed":1021,"subject_id":"89689","group":"Group1","full_date":"2025-11-30T15:21:51.753Z","date":"2025-11-30","time":"15:21:51"},{"success":true,"timeout":false,"failed_images":[],"failed_audio":[],"failed_video":[],"trial_type":"preload","trial_index":1,"plugin_version":"2.1.0","time_elapsed":5721,"subject_id":"89689","group":"Group1","full_date":"2025-11-30T15:21:51.753Z","date":"2025-11-30","time":"15:21:51"},{"rt":10355,"url":"SONA_consent_memorability.html","trial_type":"external-html","trial_index":2,"plugin_version":"2.1.0","time_elapsed":16243,"subject_id":"89689","group":"Group1","full_date":"2025-11-30T15:21:51.753Z","date":"2025-11-30","time":"15:21:51"},{"success":true,"rt":2191,"trial_type":"fullscreen","trial_index":3,"plugin_version":"2.1.0","time_elapsed":19446,"subject_id":"89689","group":"Group1","full_date":"2025-11-30T15:21:51.753Z","date":"2025-11-30","time":"15:21:51"},{"rt":2176,"stimulus":"<div style=\"max-width: 760px; margin: auto; font-size: 20px; line-height: 1.5;\">\n      <h1 style=\"text-align:center; font-size: 30px;\">Instructions</h1>\n      <p>\n        Welcome to the study on <b>visual memory</b>. This experiment consists of <b>two phases</b>: \n        a <b>study phase</b> and a <b>test phase</b>.\n      </p>\n      <p>\n        In the study phase, you will see a series of rock images along with their category labels.\n        The images will appear one at a time.\n        <b>Your task</b> is to learn the categories to which the rock images belong \n        and to remember each image as accurately as possible.\n      </p> \n      <p>\n        Note that we will repeat the study phase <b>3 times</b>, \n        so you will have multiple opportunities to see and remember each image.\n      </p>\n      <p>\n        After the study phase, <b>your memory will be tested</b>. \n        Additional instructions for the test phase will be provided at that time.\n      </p>\n      <p>\n        If your computer has multiple <b>language settings</b> (e.g., English and another language),\n        please make sure it is set to English before starting.\n      </p>\n      <p>\n        You can track your progress using the <b>completion bar</b> at the top of the screen. \n        Please note that the bar will refresh when the test phase begins \n        to give you an accurate sense of your progress in both phases.\n      </p> \n      <p>\n        Press the button below when you are ready to begin.\n      </p>\n    </div>","response":0,"trial_type":"html-button-response","trial_index":4,"plugin_version":"2.1.0","time_elapsed":21629,"subject_id":"89689","group":"Group1","full_date":"2025-11-30T15:21:51.753Z","date":"2025-11-30","time":"15:21:51"},{"rt":null,"stimulus":"<p style=\"font-size: 50px; margin: 0; text-align: center;\">+</p>","response":null,"trial_type":"html-keyboard-response","trial_index":5,"plugin_version":"2.1.0","time_elapsed":22638,"subject_id":"89689","group":"Group1","full_date":"2025-11-30T15:21:51.753Z","date":"2025-11-30","time":"15:21:51"},{"task":"memory_phase","broad_category":"I","image_png":"I_Rhyolite_11.png","image_id":155,"category_name":"Rhyolite","category":10,"distinct_rating":1.73,"distinct_type":"Bottom","rt":null,"stimulus":"Stimuli_Rocks480/I_Rhyolite_11.png","response":null,"trial_type":"image-keyboard-response","trial_index":6,"plugin_version":"2.1.0","time_elapsed":25152,"subject_id":"89689","group":"Group1","full_date":"2025-11-30T15:21:51.753Z","date":"2025-11-30","time":"15:21:51"},{"rt":null,"stimulus":"<p style=\"font-size: 50px; margin: 0; text-align: center;\">+</p>","response":null,"trial_type":"html-keyboard-response","trial_index":7,"plugin_version":"2.1.0","time_elapsed":26170,"subject_id":"89689","group":"Group1","full_date":"2025-11-30T15:21:51.753Z","date":"2025-11-30","time":"15:21:51"},{"task":"memory_phase","broad_category":"I","image_png":"I_Pumice_08.png","image_id":136,"category_name":"Pumice","category":9,"distinct_rating":3.1,"distinct_type":"Bottom","rt":null,"stimulus":"Stimuli_Rocks480/I_Pumice_08.png","response":null,"trial_type":"image-keyboard-response","trial_index":8,"plugin_version":"2.1.0","time_elapsed":28685,"subject_id":"89689","group":"Group1","full_date":"2025-11-30T15:21:51.753Z","date":"2025-11-30","time":"15:21:51"},{"rt":null,"stimulus":"<p style=\"font-size: 50px; margin: 0; text-align: center;\">+</p>","response":null,"trial_type":"html-keyboard-response","trial_index":9,"plugin_version":"2.1.0","time_elapsed":29695,"subject_id":"89689","group":"Group1","full_date":"2025-11-30T15:21:51.753Z","date":"2025-11-30","time":"15:21:51"},{"task":"memory_phase","broad_category":"M","image_png":"M_Marble_04.png","image_id":228,"category_name":"Marble","category":15,"distinct_rating":3.15,"distinct_type":"Bottom","rt":null,"stimulus":"Stimuli_Rocks480/M_Marble_04.png","response":null,"trial_type":"image-keyboard-response","trial_index":10,"plugin_version":"2.1.0","time_elapsed":32211,"subject_id":"89689","group":"Group1","full_date":"2025-11-30T15:21:51.753Z","date":"2025-11-30","time":"15:21:51"},{"rt":null,"stimulus":"<p style=\"font-size: 50px; margin: 0; text-align: center;\">+</p>","response":null,"trial_type":"html-keyboard-response","trial_index":11,"plugin_version":"2.1.0","time_elapsed":33221,"subject_id":"89689","group":"Group1","full_date":"2025-11-30T15:21:51.753Z","date":"2025-11-30","time":"15:21:51"},{"task":"memory_phase","broad_category":"M","image_png":"M_Quartzite_13.png","image_id":285,"category_name":"Quartzite","category":18,"distinct_rating":2.27,"distinct_type":"Bottom","rt":null,"stimulus":"Stimuli_Rocks480/M_Quartzite_13.png","response":null,"trial_type":"image-keyboard-response","trial_index":12,"plugin_version":"2.1.0","time_elapsed":35728,"subject_id":"89689","group":"Group1","full_date":"2025-11-30T15:21:51.753Z","date":"2025-11-30","time":"15:21:51"},{"rt":null,"stimulus":"<p style=\"font-size: 50px; margin: 0; text-align: center;\">+</p>","response":null,"trial_type":"html-keyboard-response","trial_index":13,"plugin_version":"2.1.0","time_elapsed":36745,"subject_id":"89689","group":"Group1","full_date":"2025-11-30T15:21:51.753Z","date":"2025-11-30","time":"15:21:51"},{"task":"memory_phase","broad_category":"M","image_png":"M_Slate_15.png","image_id":319,"category_name":"Slate","category":20,"distinct_rating":2.13,"distinct_type":"Bottom","rt":null,"stimulus":"Stimuli_Rocks480/M_Slate_15.png","response":null,"trial_type":"image-keyboard-response","trial_index":14,"plugin_version":"2.1.0","time_elapsed":39257,"subject_id":"89689","group":"Group1","full_date":"2025-11-30T15:21:51.753Z","date":"2025-11-30","time":"15:21:51"},{"rt":null,"stimulus":"<p style=\"font-size: 50px; margin: 0; text-align: center;\">+</p>","response":null,"trial_type":"html-keyboard-response","trial_index":15,"plugin_version":"2.1.0","time_elapsed":40262,"subject_id":"89689","group":"Group1","full_date":"2025-11-30T15:21:51.753Z","date":"2025-11-30","time":"15:21:51"},{"task":"memory_phase","broad_category":"I","image_png":"I_Pegmatite_10.png","image_id":106,"category_name":"Pegmatite","category":7,"distinct_rating":7.66,"distinct_type":"Top","rt":null,"stimulus":"Stimuli_Rocks480/I_Pegmatite_10.png","response":null,"trial_type":"image-keyboard-response","trial_index":16,"plugin_version":"2.1.0","time_elapsed":42768,"subject_id":"89689","group":"Group1","full_date":"2025-11-30T15:21:51.753Z","date":"2025-11-30","time":"15:21:51"},{"rt":null,"stimulus":"<p style=\"font-size: 50px; margin: 0; text-align: center;\">+</p>","response":null,"trial_type":"html-keyboard-response","trial_index":17,"plugin_version":"2.1.0","time_elapsed":43784,"subject_id":"89689","group":"Group1","full_date":"2025-11-30T15:21:51.753Z","date":"2025-11-30","time":"15:21:51"},{"task":"memory_phase","broad_category":"S","image_png":"S_Rock Gypsum_04.png","image_id":420,"category_name":"Rock Gypsum","category":27,"distinct_rating":7.61,"distinct_type":"Top","rt":null,"stimulus":"Stimuli_Rocks480/S_Rock Gypsum_04.png","response":null,"trial_type":"image-keyboard-response","trial_index":18,"plugin_version":"2.1.0","time_elapsed":46296,"subject_id":"89689","group":"Group1","full_date":"2025-11-30T15:21:51.753Z","date":"2025-11-30","time":"15:21:51"},{"rt":null,"stimulus":"<p style=\"font-size: 50px; margin: 0; text-align: center;\">+</p>","response":null,"trial_type":"html-keyboard-response","trial_index":19,"plugin_version":"2.1.0","time_elapsed":47308,"subject_id":"89689","group":"Group1","full_date":"2025-11-30T15:21:51.753Z","date":"2025-11-30","time":"15:21:51"},{"task":"memory_phase","broad_category":"M","image_png":"M_Gneiss_13.png","image_id":205,"category_name":"Gneiss","category":13,"distinct_rating":3.26,"distinct_type":"Bottom","rt":null,"stimulus":"Stimuli_Rocks480/M_Gneiss_13.png","response":null,"trial_type":"image-keyboard-response","trial_index":20,"plugin_version":"2.1.0","time_elapsed":49821,"subject_id":"89689","group":"Group1","full_date":"2025-11-30T15:21:51.753Z","date":"2025-11-30","time":"15:21:51"},{"rt":null,"stimulus":"<p style=\"font-size: 50px; margin: 0; text-align: center;\">+</p>","response":null,"trial_type":"html-keyboard-response","trial_index":21,"plugin_version":"2.1.0","time_elapsed":50824,"subject_id":"89689","group":"Group1","full_date":"2025-11-30T15:21:51.753Z","date":"2025-11-30","time":"15:21:51"},{"task":"memory_phase","broad_category":"M","image_png":"M_Gneiss_06.png","image_id":198,"category_name":"Gneiss","category":13,"distinct_rating":2.65,"distinct_type":"Bottom","rt":null,"stimulus":"Stimuli_Rocks480/M_Gneiss_06.png","response":null,"trial_type":"image-keyboard-response","trial_index":22,"plugin_version":"2.1.0","time_elapsed":53333,"subject_id":"89689","group":"Group1","full_date":"2025-11-30T15:21:51.753Z","date":"2025-11-30","time":"15:21:51"},{"rt":null,"stimulus":"<p style=\"font-size: 50px; margin: 0; text-align: center;\">+</p>","response":null,"trial_type":"html-keyboard-response","trial_index":23,"plugin_version":"2.1.0","time_elapsed":54347,"subject_id":"89689","group":"Group1","full_date":"2025-11-30T15:21:51.753Z","date":"2025-11-30","time":"15:21:51"},{"task":"memory_phase","broad_category":"I","image_png":"I_Gabbro_11.png","image_id":59,"category_name":"Gabbro","category":4,"distinct_rating":1.99,"distinct_type":"Bottom","rt":null,"stimulus":"Stimuli_Rocks480/I_Gabbro_11.png","response":null,"trial_type":"image-keyboard-response","trial_index":24,"plugin_version":"2.1.0","time_elapsed":56855,"subject_id":"89689","group":"Group1","full_date":"2025-11-30T15:21:51.753Z","date":"2025-11-30","time":"15:21:51"},{"rt":null,"stimulus":"<p style=\"font-size: 50px; margin: 0; text-align: center;\">+</p>","response":null,"trial_type":"html-keyboard-response","trial_index":25,"plugin_version":"2.1.0","time_elapsed":57863,"subject_id":"89689","group":"Group1","full_date":"2025-11-30T15:21:51.753Z","date":"2025-11-30","time":"15:21:51"},{"task":"memory_phase","broad_category":"S","image_png":"S_Shale_12.png","image_id":476,"category_name":"Shale","category":30,"distinct_rating":2.48,"distinct_type":"Bottom","rt":null,"stimulus":"Stimuli_Rocks480/S_Shale_12.png","response":null,"trial_type":"image-keyboard-response","trial_index":26,"plugin_version":"2.1.0","time_elapsed":60370,"subject_id":"89689","group":"Group1","full_date":"2025-11-30T15:21:51.753Z","date":"2025-11-30","time":"15:21:51"},{"rt":null,"stimulus":"<p style=\"font-size: 50px; margin: 0; text-align: center;\">+</p>","response":null,"trial_type":"html-keyboard-response","trial_index":27,"plugin_version":"2.1.0","time_elapsed":61413,"subject_id":"89689","group":"Group1","full_date":"2025-11-30T15:21:51.753Z","date":"2025-11-30","time":"15:21:51"},{"task":"memory_phase","broad_category":"M","image_png":"M_Gneiss_05.png","image_id":197,"category_name":"Gneiss","category":13,"distinct_rating":2.97,"distinct_type":"Bottom","rt":null,"stimulus":"Stimuli_Rocks480/M_Gneiss_05.png","response":null,"trial_type":"image-keyboard-response","trial_index":28,"plugin_version":"2.1.0","time_elapsed":63935,"subject_id":"89689","group":"Group1","full_date":"2025-11-30T15:21:51.753Z","date":"2025-11-30","time":"15:21:51"},{"rt":null,"stimulus":"<p style=\"font-size: 50px; margin: 0; text-align: center;\">+</p>","response":null,"trial_type":"html-keyboard-response","trial_index":29,"plugin_version":"2.1.0","time_elapsed":64946,"subject_id":"89689","group":"Group1","full_date":"2025-11-30T15:21:51.753Z","date":"2025-11-30","time":"15:21:51"},{"task":"memory_phase","broad_category":"I","image_png":"I_Basalt_02.png","image_id":18,"category_name":"Basalt","category":2,"distinct_rating":1.84,"distinct_type":"Bottom","rt":null,"stimulus":"Stimuli_Rocks480/I_Basalt_02.png","response":null,"trial_type":"image-keyboard-response","trial_index":30,"plugin_version":"2.1.0","time_elapsed":67468,"subject_id":"89689","group":"Group1","full_date":"2025-11-30T15:21:51.753Z","date":"2025-11-30","time":"15:21:51"},{"rt":null,"stimulus":"<p style=\"font-size: 50px; margin: 0; text-align: center;\">+</p>","response":null,"trial_type":"html-keyboard-response","trial_index":31,"plugin_version":"2.1.0","time_elapsed":68471,"subject_id":"89689","group":"Group1","full_date":"2025-11-30T15:21:51.753Z","date":"2025-11-30","time":"15:21:51"},{"task":"memory_phase","broad_category":"S","image_png":"S_Sandstone_16.png","image_id":464,"category_name":"Sandstone","category":29,"distinct_rating":1.93,"distinct_type":"Bottom","rt":null,"stimulus":"Stimuli_Rocks480/S_Sandstone_16.png","response":null,"trial_type":"image-keyboard-response","trial_index":32,"plugin_version":"2.1.0","time_elapsed":70989,"subject_id":"89689","group":"Group1","full_date":"2025-11-30T15:21:51.753Z","date":"2025-11-30","time":"15:21:51"},{"rt":null,"stimulus":"<p style=\"font-size: 50px; margin: 0; text-align: center;\">+</p>","response":null,"trial_type":"html-keyboard-response","trial_index":33,"plugin_version":"2.1.0","time_elapsed":72001,"subject_id":"89689","group":"Group1","full_date":"2025-11-30T15:21:51.753Z","date":"2025-11-30","time":"15:21:51"},{"task":"memory_phase","broad_category":"I","image_png":"I_Pumice_11.png","image_id":139,"category_name":"Pumice","category":9,"distinct_rating":1.74,"distinct_type":"Bottom","rt":null,"stimulus":"Stimuli_Rocks480/I_Pumice_11.png","response":null,"trial_type":"image-keyboard-response","trial_index":34,"plugin_version":"2.1.0","time_elapsed":74519,"subject_id":"89689","group":"Group1","full_date":"2025-11-30T15:21:51.753Z","date":"2025-11-30","time":"15:21:51"},{"rt":null,"stimulus":"<p style=\"font-size: 50px; margin: 0; text-align: center;\">+</p>","response":null,"trial_type":"html-keyboard-response","trial_index":35,"plugin_version":"2.1.0","time_elapsed":75522,"subject_id":"89689","group":"Group1","full_date":"2025-11-30T15:21:51.753Z","date":"2025-11-30","time":"15:21:51"},{"task":"memory_phase","broad_category":"S","image_png":"S_Sandstone_15.png","image_id":463,"category_name":"Sandstone","category":29,"distinct_rating":2,"distinct_type":"Bottom","rt":null,"stimulus":"Stimuli_Rocks480/S_Sandstone_15.png","response":null,"trial_type":"image-keyboard-response","trial_index":36,"plugin_version":"2.1.0","time_elapsed":78038,"subject_id":"89689","group":"Group1","full_date":"2025-11-30T15:21:51.753Z","date":"2025-11-30","time":"15:21:51"},{"rt":null,"stimulus":"<p style=\"font-size: 50px; margin: 0; text-align: center;\">+</p>","response":null,"trial_type":"html-keyboard-response","trial_index":37,"plugin_version":"2.1.0","time_elapsed":79050,"subject_id":"89689","group":"Group1","full_date":"2025-11-30T15:21:51.753Z","date":"2025-11-30","time":"15:21:51"},{"task":"memory_phase","broad_category":"I","image_png":"I_Andesite_06.png","image_id":6,"category_name":"Andesite","category":1,"distinct_rating":3.17,"distinct_type":"Bottom","rt":null,"stimulus":"Stimuli_Rocks480/I_Andesite_06.png","response":null,"trial_type":"image-keyboard-response","trial_index":38,"plugin_version":"2.1.0","time_elapsed":81564,"subject_id":"89689","group":"Group1","full_date":"2025-11-30T15:21:51.753Z","date":"2025-11-30","time":"15:21:51"},{"rt":null,"stimulus":"<p style=\"font-size: 50px; margin: 0; text-align: center;\">+</p>","response":null,"trial_type":"html-keyboard-response","trial_index":39,"plugin_version":"2.1.0","time_elapsed":82573,"subject_id":"89689","group":"Group1","full_date":"2025-11-30T15:21:51.753Z","date":"2025-11-30","time":"15:21:51"},{"task":"memory_phase","broad_category":"S","image_png":"S_Dolomite_14.png","image_id":398,"category_name":"Dolomite","category":25,"distinct_rating":1.43,"distinct_type":"Bottom","rt":null,"stimulus":"Stimuli_Rocks480/S_Dolomite_14.png","response":null,"trial_type":"image-keyboard-response","trial_index":40,"plugin_version":"2.1.0","time_elapsed":85090,"subject_id":"89689","group":"Group1","full_date":"2025-11-30T15:21:51.753Z","date":"2025-11-30","time":"15:21:51"},{"rt":null,"stimulus":"<p style=\"font-size: 50px; margin: 0; text-align: center;\">+</p>","response":null,"trial_type":"html-keyboard-response","trial_index":41,"plugin_version":"2.1.0","time_elapsed":86109,"subject_id":"89689","group":"Group1","full_date":"2025-11-30T15:21:51.753Z","date":"2025-11-30","time":"15:21:51"},{"task":"memory_phase","broad_category":"M","image_png":"M_Marble_06.png","image_id":230,"category_name":"Marble","category":15,"distinct_rating":3.4,"distinct_type":"Bottom","rt":null,"stimulus":"Stimuli_Rocks480/M_Marble_06.png","response":null,"trial_type":"image-keyboard-response","trial_index":42,"plugin_version":"2.1.0","time_elapsed":88618,"subject_id":"89689","group":"Group1","full_date":"2025-11-30T15:21:51.753Z","date":"2025-11-30","time":"15:21:51"},{"rt":null,"stimulus":"<p style=\"font-size: 50px; margin: 0; text-align: center;\">+</p>","response":null,"trial_type":"html-keyboard-response","trial_index":43,"plugin_version":"2.1.0","time_elapsed":89627,"subject_id":"89689","group":"Group1","full_date":"2025-11-30T15:21:51.753Z","date":"2025-11-30","time":"15:21:51"},{"task":"memory_phase","broad_category":"S","image_png":"S_Dolomite_13.png","image_id":397,"category_name":"Dolomite","category":25,"distinct_rating":1.77,"distinct_type":"Bottom","rt":null,"stimulus":"Stimuli_Rocks480/S_Dolomite_13.png","response":null,"trial_type":"image-keyboard-response","trial_index":44,"plugin_version":"2.1.0","time_elapsed":92136,"subject_id":"89689","group":"Group1","full_date":"2025-11-30T15:21:51.753Z","date":"2025-11-30","time":"15:21:51"},{"rt":null,"stimulus":"<p style=\"font-size: 50px; margin: 0; text-align: center;\">+</p>","response":null,"trial_type":"html-keyboard-response","trial_index":45,"plugin_version":"2.1.0","time_elapsed":93143,"subject_id":"89689","group":"Group1","full_date":"2025-11-30T15:21:51.753Z","date":"2025-11-30","time":"15:21:51"},{"task":"memory_phase","broad_category":"M","image_png":"M_Quartzite_08.png","image_id":280,"category_name":"Quartzite","category":18,"distinct_rating":2.15,"distinct_type":"Bottom","rt":null,"stimulus":"Stimuli_Rocks480/M_Quartzite_08.png","response":null,"trial_type":"image-keyboard-response","trial_index":46,"plugin_version":"2.1.0","time_elapsed":95663,"subject_id":"89689","group":"Group1","full_date":"2025-11-30T15:21:51.753Z","date":"2025-11-30","time":"15:21:51"},{"rt":null,"stimulus":"<p style=\"font-size: 50px; margin: 0; text-align: center;\">+</p>","response":null,"trial_type":"html-keyboard-response","trial_index":47,"plugin_version":"2.1.0","time_elapsed":96678,"subject_id":"89689","group":"Group1","full_date":"2025-11-30T15:21:51.753Z","date":"2025-11-30","time":"15:21:51"},{"task":"memory_phase","broad_category":"S","image_png":"S_Breccia_11.png","image_id":347,"category_name":"Breccia","category":22,"distinct_rating":6.7,"distinct_type":"Top","rt":null,"stimulus":"Stimuli_Rocks480/S_Breccia_11.png","response":null,"trial_type":"image-keyboard-response","trial_index":48,"plugin_version":"2.1.0","time_elapsed":99199,"subject_id":"89689","group":"Group1","full_date":"2025-11-30T15:21:51.753Z","date":"2025-11-30","time":"15:21:51"},{"rt":null,"stimulus":"<p style=\"font-size: 50px; margin: 0; text-align: center;\">+</p>","response":null,"trial_type":"html-keyboard-response","trial_index":49,"plugin_version":"2.1.0","time_elapsed":100215,"subject_id":"89689","group":"Group1","full_date":"2025-11-30T15:21:51.753Z","date":"2025-11-30","time":"15:21:51"},{"task":"memory_phase","broad_category":"I","image_png":"I_Diorite_05.png","image_id":37,"category_name":"Diorite","category":3,"distinct_rating":3.08,"distinct_type":"Bottom","rt":null,"stimulus":"Stimuli_Rocks480/I_Diorite_05.png","response":null,"trial_type":"image-keyboard-response","trial_index":50,"plugin_version":"2.1.0","time_elapsed":102733,"subject_id":"89689","group":"Group1","full_date":"2025-11-30T15:21:51.753Z","date":"2025-11-30","time":"15:21:51"},{"rt":null,"stimulus":"<p style=\"font-size: 50px; margin: 0; text-align: center;\">+</p>","response":null,"trial_type":"html-keyboard-response","trial_index":51,"plugin_version":"2.1.0","time_elapsed":103749,"subject_id":"89689","group":"Group1","full_date":"2025-11-30T15:21:51.753Z","date":"2025-11-30","time":"15:21:51"},{"task":"memory_phase","broad_category":"I","image_png":"I_Andesite_08.png","image_id":8,"category_name":"Andesite","category":1,"distinct_rating":1.95,"distinct_type":"Bottom","rt":null,"stimulus":"Stimuli_Rocks480/I_Andesite_08.png","response":null,"trial_type":"image-keyboard-response","trial_index":52,"plugin_version":"2.1.0","time_elapsed":106269,"subject_id":"89689","group":"Group1","full_date":"2025-11-30T15:21:51.753Z","date":"2025-11-30","time":"15:21:51"},{"rt":null,"stimulus":"<p style=\"font-size: 50px; margin: 0; text-align: center;\">+</p>","response":null,"trial_type":"html-keyboard-response","trial_index":53,"plugin_version":"2.1.0","time_elapsed":107286,"subject_id":"89689","group":"Group1","full_date":"2025-11-30T15:21:51.753Z","date":"2025-11-30","time":"15:21:51"},{"task":"memory_phase","broad_category":"S","image_png":"S_Conglomerate_05.png","image_id":373,"category_name":"Conglomerate","category":24,"distinct_rating":7.32,"distinct_type":"Top","rt":null,"stimulus":"Stimuli_Rocks480/S_Conglomerate_05.png","response":null,"trial_type":"image-keyboard-response","trial_index":54,"plugin_version":"2.1.0","time_elapsed":109803,"subject_id":"89689","group":"Group1","full_date":"2025-11-30T15:21:51.753Z","date":"2025-11-30","time":"15:21:51"},{"rt":2183,"stimulus":"<p style=\"max-width: 760px; margin: auto; font-size: 35px; line-height: 1.5;\">Press SPACE to continue study phase</p>","response":" ","trial_type":"html-keyboard-response","trial_index":55,"plugin_version":"2.1.0","time_elapsed":111991,"subject_id":"89689","group":"Group1","full_date":"2025-11-30T15:21:51.753Z","date":"2025-11-30","time":"15:21:51"},{"rt":null,"stimulus":"<p style=\"font-size: 50px; margin: 0; text-align: center;\">+</p>","response":null,"trial_type":"html-keyboard-response","trial_index":56,"plugin_version":"2.1.0","time_elapsed":113005,"subject_id":"89689","group":"Group1","full_date":"2025-11-30T15:21:51.753Z","date":"2025-11-30","time":"15:21:51"},{"task":"memory_phase","broad_category":"I","image_png":"I_Rhyolite_16.png","image_id":160,"category_name":"Rhyolite","category":10,"distinct_rating":2.19,"distinct_type":"Bottom","rt":null,"stimulus":"Stimuli_Rocks480/I_Rhyolite_16.png","response":null,"trial_type":"image-keyboard-response","trial_index":57,"plugin_version":"2.1.0","time_elapsed":115511,"subject_id":"89689","group":"Group1","full_date":"2025-11-30T15:21:51.753Z","date":"2025-11-30","time":"15:21:51"},{"rt":null,"stimulus":"<p style=\"font-size: 50px; margin: 0; text-align: center;\">+</p>","response":null,"trial_type":"html-keyboard-response","trial_index":58,"plugin_version":"2.1.0","time_elapsed":116522,"subject_id":"89689","group":"Group1","full_date":"2025-11-30T15:21:51.753Z","date":"2025-11-30","time":"15:21:51"},{"task":"memory_phase","broad_category":"I","image_png":"I_Rhyolite_14.png","image_id":158,"category_name":"Rhyolite","category":10,"distinct_rating":2.59,"distinct_type":"Bottom","rt":null,"stimulus":"Stimuli_Rocks480/I_Rhyolite_14.png","response":null,"trial_type":"image-keyboard-response","trial_index":59,"plugin_version":"2.1.0","time_elapsed":119042,"subject_id":"89689","group":"Group1","full_date":"2025-11-30T15:21:51.753Z","date":"2025-11-30","time":"15:21:51"},{"rt":null,"stimulus":"<p style=\"font-size: 50px; margin: 0; text-align: center;\">+</p>","response":null,"trial_type":"html-keyboard-response","trial_index":60,"plugin_version":"2.1.0","time_elapsed":120059,"subject_id":"89689","group":"Group1","full_date":"2025-11-30T15:21:51.753Z","date":"2025-11-30","time":"15:21:51"},{"task":"memory_phase","broad_category":"M","image_png":"M_Slate_11.png","image_id":315,"category_name":"Slate","category":20,"distinct_rating":2.75,"distinct_type":"Bottom","rt":null,"stimulus":"Stimuli_Rocks480/M_Slate_11.png","response":null,"trial_type":"image-keyboard-response","trial_index":61,"plugin_version":"2.1.0","time_elapsed":122578,"subject_id":"89689","group":"Group1","full_date":"2025-11-30T15:21:51.753Z","date":"2025-11-30","time":"15:21:51"},{"rt":null,"stimulus":"<p style=\"font-size: 50px; margin: 0; text-align: center;\">+</p>","response":null,"trial_type":"html-keyboard-response","trial_index":62,"plugin_version":"2.1.0","time_elapsed":123594,"subject_id":"89689","group":"Group1","full_date":"2025-11-30T15:21:51.753Z","date":"2025-11-30","time":"15:21:51"},{"task":"memory_phase","broad_category":"S","image_png":"S_Rock Salt_01.png","image_id":433,"category_name":"Rock Salt","category":28,"distinct_rating":7.18,"distinct_type":"Top","rt":null,"stimulus":"Stimuli_Rocks480/S_Rock Salt_01.png","response":null,"trial_type":"image-keyboard-response","trial_index":63,"plugin_version":"2.1.0","time_elapsed":126112,"subject_id":"89689","group":"Group1","full_date":"2025-11-30T15:21:51.753Z","date":"2025-11-30","time":"15:21:51"},{"rt":null,"stimulus":"<p style=\"font-size: 50px; margin: 0; text-align: center;\">+</p>","response":null,"trial_type":"html-keyboard-response","trial_index":64,"plugin_version":"2.1.0","time_elapsed":127129,"subject_id":"89689","group":"Group1","full_date":"2025-11-30T15:21:51.753Z","date":"2025-11-30","time":"15:21:51"},{"task":"memory_phase","broad_category":"M","image_png":"M_Phyllite_10.png","image_id":266,"category_name":"Phyllite","category":17,"distinct_rating":2.6,"distinct_type":"Bottom","rt":null,"stimulus":"Stimuli_Rocks480/M_Phyllite_10.png","response":null,"trial_type":"image-keyboard-response","trial_index":65,"plugin_version":"2.1.0","time_elapsed":129647,"subject_id":"89689","group":"Group1","full_date":"2025-11-30T15:21:51.753Z","date":"2025-11-30","time":"15:21:51"},{"rt":null,"stimulus":"<p style=\"font-size: 50px; margin: 0; text-align: center;\">+</p>","response":null,"trial_type":"html-keyboard-response","trial_index":66,"plugin_version":"2.1.0","time_elapsed":130664,"subject_id":"89689","group":"Group1","full_date":"2025-11-30T15:21:51.753Z","date":"2025-11-30","time":"15:21:51"},{"task":"memory_phase","broad_category":"I","image_png":"I_Obsidian_05.png","image_id":85,"category_name":"Obsidian","category":6,"distinct_rating":7.32,"distinct_type":"Top","rt":null,"stimulus":"Stimuli_Rocks480/I_Obsidian_05.png","response":null,"trial_type":"image-keyboard-response","trial_index":67,"plugin_version":"2.1.0","time_elapsed":133182,"subject_id":"89689","group":"Group1","full_date":"2025-11-30T15:21:51.753Z","date":"2025-11-30","time":"15:21:51"},{"rt":null,"stimulus":"<p style=\"font-size: 50px; margin: 0; text-align: center;\">+</p>","response":null,"trial_type":"html-keyboard-response","trial_index":68,"plugin_version":"2.1.0","time_elapsed":134199,"subject_id":"89689","group":"Group1","full_date":"2025-11-30T15:21:51.753Z","date":"2025-11-30","time":"15:21:51"},{"task":"memory_phase","broad_category":"I","image_png":"I_Diorite_04.png","image_id":36,"category_name":"Diorite","category":3,"distinct_rating":2.98,"distinct_type":"Bottom","rt":null,"stimulus":"Stimuli_Rocks480/I_Diorite_04.png","response":null,"trial_type":"image-keyboard-response","trial_index":69,"plugin_version":"2.1.0","time_elapsed":136718,"subject_id":"89689","group":"Group1","full_date":"2025-11-30T15:21:51.753Z","date":"2025-11-30","time":"15:21:51"},{"rt":null,"stimulus":"<p style=\"font-size: 50px; margin: 0; text-align: center;\">+</p>","response":null,"trial_type":"html-keyboard-response","trial_index":70,"plugin_version":"2.1.0","time_elapsed":137735,"subject_id":"89689","group":"Group1","full_date":"2025-11-30T15:21:51.753Z","date":"2025-11-30","time":"15:21:51"},{"task":"memory_phase","broad_category":"S","image_png":"S_Dolomite_12.png","image_id":396,"category_name":"Dolomite","category":25,"distinct_rating":1.85,"distinct_type":"Bottom","rt":null,"stimulus":"Stimuli_Rocks480/S_Dolomite_12.png","response":null,"trial_type":"image-keyboard-response","trial_index":71,"plugin_version":"2.1.0","time_elapsed":140253,"subject_id":"89689","group":"Group1","full_date":"2025-11-30T15:21:51.753Z","date":"2025-11-30","time":"15:21:51"},{"rt":null,"stimulus":"<p style=\"font-size: 50px; margin: 0; text-align: center;\">+</p>","response":null,"trial_type":"html-keyboard-response","trial_index":72,"plugin_version":"2.1.0","time_elapsed":141270,"subject_id":"89689","group":"Group1","full_date":"2025-11-30T15:21:51.753Z","date":"2025-11-30","time":"15:21:51"},{"task":"memory_phase","broad_category":"I","image_png":"I_Diorite_03.png","image_id":35,"category_name":"Diorite","category":3,"distinct_rating":3.14,"distinct_type":"Bottom","rt":null,"stimulus":"Stimuli_Rocks480/I_Diorite_03.png","response":null,"trial_type":"image-keyboard-response","trial_index":73,"plugin_version":"2.1.0","time_elapsed":143788,"subject_id":"89689","group":"Group1","full_date":"2025-11-30T15:21:51.753Z","date":"2025-11-30","time":"15:21:51"},{"rt":null,"stimulus":"<p style=\"font-size: 50px; margin: 0; text-align: center;\">+</p>","response":null,"trial_type":"html-keyboard-response","trial_index":74,"plugin_version":"2.1.0","time_elapsed":144805,"subject_id":"89689","group":"Group1","full_date":"2025-11-30T15:21:51.753Z","date":"2025-11-30","time":"15:21:51"},{"task":"memory_phase","broad_category":"M","image_png":"M_Phyllite_03.png","image_id":259,"category_name":"Phyllite","category":17,"distinct_rating":2.5,"distinct_type":"Bottom","rt":null,"stimulus":"Stimuli_Rocks480/M_Phyllite_03.png","response":null,"trial_type":"image-keyboard-response","trial_index":75,"plugin_version":"2.1.0","time_elapsed":147324,"subject_id":"89689","group":"Group1","full_date":"2025-11-30T15:21:51.753Z","date":"2025-11-30","time":"15:21:51"},{"rt":null,"stimulus":"<p style=\"font-size: 50px; margin: 0; text-align: center;\">+</p>","response":null,"trial_type":"html-keyboard-response","trial_index":76,"plugin_version":"2.1.0","time_elapsed":148341,"subject_id":"89689","group":"Group1","full_date":"2025-11-30T15:21:51.753Z","date":"2025-11-30","time":"15:21:51"},{"task":"memory_phase","broad_category":"M","image_png":"M_Slate_03.png","image_id":307,"category_name":"Slate","category":20,"distinct_rating":1.87,"distinct_type":"Bottom","rt":null,"stimulus":"Stimuli_Rocks480/M_Slate_03.png","response":null,"trial_type":"image-keyboard-response","trial_index":77,"plugin_version":"2.1.0","time_elapsed":150859,"subject_id":"89689","group":"Group1","full_date":"2025-11-30T15:21:51.753Z","date":"2025-11-30","time":"15:21:51"},{"rt":null,"stimulus":"<p style=\"font-size: 50px; margin: 0; text-align: center;\">+</p>","response":null,"trial_type":"html-keyboard-response","trial_index":78,"plugin_version":"2.1.0","time_elapsed":151872,"subject_id":"89689","group":"Group1","full_date":"2025-11-30T15:21:51.753Z","date":"2025-11-30","time":"15:21:51"},{"task":"memory_phase","broad_category":"M","image_png":"M_Quartzite_05.png","image_id":277,"category_name":"Quartzite","category":18,"distinct_rating":2.23,"distinct_type":"Bottom","rt":null,"stimulus":"Stimuli_Rocks480/M_Quartzite_05.png","response":null,"trial_type":"image-keyboard-response","trial_index":79,"plugin_version":"2.1.0","time_elapsed":154393,"subject_id":"89689","group":"Group1","full_date":"2025-11-30T15:21:51.753Z","date":"2025-11-30","time":"15:21:51"},{"rt":null,"stimulus":"<p style=\"font-size: 50px; margin: 0; text-align: center;\">+</p>","response":null,"trial_type":"html-keyboard-response","trial_index":80,"plugin_version":"2.1.0","time_elapsed":155411,"subject_id":"89689","group":"Group1","full_date":"2025-11-30T15:21:51.753Z","date":"2025-11-30","time":"15:21:51"},{"task":"memory_phase","broad_category":"S","image_png":"S_Shale_08.png","image_id":472,"category_name":"Shale","category":30,"distinct_rating":2.55,"distinct_type":"Bottom","rt":null,"stimulus":"Stimuli_Rocks480/S_Shale_08.png","response":null,"trial_type":"image-keyboard-response","trial_index":81,"plugin_version":"2.1.0","time_elapsed":157929,"subject_id":"89689","group":"Group1","full_date":"2025-11-30T15:21:51.753Z","date":"2025-11-30","time":"15:21:51"},{"rt":null,"stimulus":"<p style=\"font-size: 50px; margin: 0; text-align: center;\">+</p>","response":null,"trial_type":"html-keyboard-response","trial_index":82,"plugin_version":"2.1.0","time_elapsed":158946,"subject_id":"89689","group":"Group1","full_date":"2025-11-30T15:21:51.753Z","date":"2025-11-30","time":"15:21:51"},{"task":"memory_phase","broad_category":"I","image_png":"I_Basalt_09.png","image_id":25,"category_name":"Basalt","category":2,"distinct_rating":1.89,"distinct_type":"Bottom","rt":null,"stimulus":"Stimuli_Rocks480/I_Basalt_09.png","response":null,"trial_type":"image-keyboard-response","trial_index":83,"plugin_version":"2.1.0","time_elapsed":161464,"subject_id":"89689","group":"Group1","full_date":"2025-11-30T15:21:51.753Z","date":"2025-11-30","time":"15:21:51"},{"rt":null,"stimulus":"<p style=\"font-size: 50px; margin: 0; text-align: center;\">+</p>","response":null,"trial_type":"html-keyboard-response","trial_index":84,"plugin_version":"2.1.0","time_elapsed":162482,"subject_id":"89689","group":"Group1","full_date":"2025-11-30T15:21:51.753Z","date":"2025-11-30","time":"15:21:51"},{"task":"memory_phase","broad_category":"M","image_png":"M_Marble_16.png","image_id":240,"category_name":"Marble","category":15,"distinct_rating":2.57,"distinct_type":"Bottom","rt":null,"stimulus":"Stimuli_Rocks480/M_Marble_16.png","response":null,"trial_type":"image-keyboard-response","trial_index":85,"plugin_version":"2.1.0","time_elapsed":165000,"subject_id":"89689","group":"Group1","full_date":"2025-11-30T15:21:51.753Z","date":"2025-11-30","time":"15:21:51"},{"rt":null,"stimulus":"<p style=\"font-size: 50px; margin: 0; text-align: center;\">+</p>","response":null,"trial_type":"html-keyboard-response","trial_index":86,"plugin_version":"2.1.0","time_elapsed":166017,"subject_id":"89689","group":"Group1","full_date":"2025-11-30T15:21:51.753Z","date":"2025-11-30","time":"15:21:51"},{"task":"memory_phase","broad_category":"I","image_png":"I_Andesite_10.png","image_id":10,"category_name":"Andesite","category":1,"distinct_rating":3.15,"distinct_type":"Bottom","rt":null,"stimulus":"Stimuli_Rocks480/I_Andesite_10.png","response":null,"trial_type":"image-keyboard-response","trial_index":87,"plugin_version":"2.1.0","time_elapsed":168536,"subject_id":"89689","group":"Group1","full_date":"2025-11-30T15:21:51.753Z","date":"2025-11-30","time":"15:21:51"},{"rt":null,"stimulus":"<p style=\"font-size: 50px; margin: 0; text-align: center;\">+</p>","response":null,"trial_type":"html-keyboard-response","trial_index":88,"plugin_version":"2.1.0","time_elapsed":169552,"subject_id":"89689","group":"Group1","full_date":"2025-11-30T15:21:51.753Z","date":"2025-11-30","time":"15:21:51"},{"task":"memory_phase","broad_category":"M","image_png":"M_Phyllite_07.png","image_id":263,"category_name":"Phyllite","category":17,"distinct_rating":2.59,"distinct_type":"Bottom","rt":null,"stimulus":"Stimuli_Rocks480/M_Phyllite_07.png","response":null,"trial_type":"image-keyboard-response","trial_index":89,"plugin_version":"2.1.0","time_elapsed":172071,"subject_id":"89689","group":"Group1","full_date":"2025-11-30T15:21:51.753Z","date":"2025-11-30","time":"15:21:51"},{"rt":null,"stimulus":"<p style=\"font-size: 50px; margin: 0; text-align: center;\">+</p>","response":null,"trial_type":"html-keyboard-response","trial_index":90,"plugin_version":"2.1.0","time_elapsed":173088,"subject_id":"89689","group":"Group1","full_date":"2025-11-30T15:21:51.753Z","date":"2025-11-30","time":"15:21:51"},{"task":"memory_phase","broad_category":"I","image_png":"I_Gabbro_16.png","image_id":64,"category_name":"Gabbro","category":4,"distinct_rating":2.52,"distinct_type":"Bottom","rt":null,"stimulus":"Stimuli_Rocks480/I_Gabbro_16.png","response":null,"trial_type":"image-keyboard-response","trial_index":91,"plugin_version":"2.1.0","time_elapsed":175604,"subject_id":"89689","group":"Group1","full_date":"2025-11-30T15:21:51.753Z","date":"2025-11-30","time":"15:21:51"},{"rt":null,"stimulus":"<p style=\"font-size: 50px; margin: 0; text-align: center;\">+</p>","response":null,"trial_type":"html-keyboard-response","trial_index":92,"plugin_version":"2.1.0","time_elapsed":176623,"subject_id":"89689","group":"Group1","full_date":"2025-11-30T15:21:51.753Z","date":"2025-11-30","time":"15:21:51"},{"task":"memory_phase","broad_category":"I","image_png":"I_Pumice_12.png","image_id":140,"category_name":"Pumice","category":9,"distinct_rating":2.97,"distinct_type":"Bottom","rt":null,"stimulus":"Stimuli_Rocks480/I_Pumice_12.png","response":null,"trial_type":"image-keyboard-response","trial_index":93,"plugin_version":"2.1.0","time_elapsed":179140,"subject_id":"89689","group":"Group1","full_date":"2025-11-30T15:21:51.753Z","date":"2025-11-30","time":"15:21:51"},{"rt":null,"stimulus":"<p style=\"font-size: 50px; margin: 0; text-align: center;\">+</p>","response":null,"trial_type":"html-keyboard-response","trial_index":94,"plugin_version":"2.1.0","time_elapsed":180159,"subject_id":"89689","group":"Group1","full_date":"2025-11-30T15:21:51.753Z","date":"2025-11-30","time":"15:21:51"},{"task":"memory_phase","broad_category":"I","image_png":"I_Pegmatite_16.png","image_id":112,"category_name":"Pegmatite","category":7,"distinct_rating":7.03,"distinct_type":"Top","rt":null,"stimulus":"Stimuli_Rocks480/I_Pegmatite_16.png","response":null,"trial_type":"image-keyboard-response","trial_index":95,"plugin_version":"2.1.0","time_elapsed":182676,"subject_id":"89689","group":"Group1","full_date":"2025-11-30T15:21:51.753Z","date":"2025-11-30","time":"15:21:51"},{"rt":null,"stimulus":"<p style=\"font-size: 50px; margin: 0; text-align: center;\">+</p>","response":null,"trial_type":"html-keyboard-response","trial_index":96,"plugin_version":"2.1.0","time_elapsed":183693,"subject_id":"89689","group":"Group1","full_date":"2025-11-30T15:21:51.753Z","date":"2025-11-30","time":"15:21:51"},{"task":"memory_phase","broad_category":"S","image_png":"S_Shale_01.png","image_id":465,"category_name":"Shale","category":30,"distinct_rating":2.7,"distinct_type":"Bottom","rt":null,"stimulus":"Stimuli_Rocks480/S_Shale_01.png","response":null,"trial_type":"image-keyboard-response","trial_index":97,"plugin_version":"2.1.0","time_elapsed":186201,"subject_id":"89689","group":"Group1","full_date":"2025-11-30T15:21:51.753Z","date":"2025-11-30","time":"15:21:51"},{"rt":null,"stimulus":"<p style=\"font-size: 50px; margin: 0; text-align: center;\">+</p>","response":null,"trial_type":"html-keyboard-response","trial_index":98,"plugin_version":"2.1.0","time_elapsed":187213,"subject_id":"89689","group":"Group1","full_date":"2025-11-30T15:21:51.753Z","date":"2025-11-30","time":"15:21:51"},{"task":"memory_phase","broad_category":"S","image_png":"S_Chert_10.png","image_id":362,"category_name":"Chert","category":23,"distinct_rating":7.17,"distinct_type":"Top","rt":null,"stimulus":"Stimuli_Rocks480/S_Chert_10.png","response":null,"trial_type":"image-keyboard-response","trial_index":99,"plugin_version":"2.1.0","time_elapsed":189730,"subject_id":"89689","group":"Group1","full_date":"2025-11-30T15:21:51.753Z","date":"2025-11-30","time":"15:21:51"},{"rt":null,"stimulus":"<p style=\"font-size: 50px; margin: 0; text-align: center;\">+</p>","response":null,"trial_type":"html-keyboard-response","trial_index":100,"plugin_version":"2.1.0","time_elapsed":190748,"subject_id":"89689","group":"Group1","full_date":"2025-11-30T15:21:51.753Z","date":"2025-11-30","time":"15:21:51"},{"task":"memory_phase","broad_category":"S","image_png":"S_Sandstone_03.png","image_id":451,"category_name":"Sandstone","category":29,"distinct_rating":1.86,"distinct_type":"Bottom","rt":null,"stimulus":"Stimuli_Rocks480/S_Sandstone_03.png","response":null,"trial_type":"image-keyboard-response","trial_index":101,"plugin_version":"2.1.0","time_elapsed":193262,"subject_id":"89689","group":"Group1","full_date":"2025-11-30T15:21:51.753Z","date":"2025-11-30","time":"15:21:51"},{"rt":null,"stimulus":"<p style=\"font-size: 50px; margin: 0; text-align: center;\">+</p>","response":null,"trial_type":"html-keyboard-response","trial_index":102,"plugin_version":"2.1.0","time_elapsed":194283,"subject_id":"89689","group":"Group1","full_date":"2025-11-30T15:21:51.753Z","date":"2025-11-30","time":"15:21:51"},{"task":"memory_phase","broad_category":"I","image_png":"I_Gabbro_08.png","image_id":56,"category_name":"Gabbro","category":4,"distinct_rating":3.02,"distinct_type":"Bottom","rt":null,"stimulus":"Stimuli_Rocks480/I_Gabbro_08.png","response":null,"trial_type":"image-keyboard-response","trial_index":103,"plugin_version":"2.1.0","time_elapsed":196802,"subject_id":"89689","group":"Group1","full_date":"2025-11-30T15:21:51.753Z","date":"2025-11-30","time":"15:21:51"},{"rt":null,"stimulus":"<p style=\"font-size: 50px; margin: 0; text-align: center;\">+</p>","response":null,"trial_type":"html-keyboard-response","trial_index":104,"plugin_version":"2.1.0","time_elapsed":197819,"subject_id":"89689","group":"Group1","full_date":"2025-11-30T15:21:51.753Z","date":"2025-11-30","time":"15:21:51"},{"task":"memory_phase","broad_category":"I","image_png":"I_Basalt_01.png","image_id":17,"category_name":"Basalt","category":2,"distinct_rating":1.92,"distinct_type":"Bottom","rt":null,"stimulus":"Stimuli_Rocks480/I_Basalt_01.png","response":null,"trial_type":"image-keyboard-response","trial_index":105,"plugin_version":"2.1.0","time_elapsed":200337,"subject_id":"89689","group":"Group1","full_date":"2025-11-30T15:21:51.753Z","date":"2025-11-30","time":"15:21:51"},{"rt":5192,"stimulus":"<p style=\"max-width: 760px; margin: auto; font-size: 35px; line-height: 1.5;\">You have completed 1 study phase. Now, we'll show you all the images again 2 more times.<br><br>Press SPACE to continue</p>","response":" ","trial_type":"html-keyboard-response","trial_index":106,"plugin_version":"2.1.0","time_elapsed":205532,"subject_id":"89689","group":"Group1","full_date":"2025-11-30T15:21:51.753Z","date":"2025-11-30","time":"15:21:51"},{"rt":null,"stimulus":"<p style=\"font-size: 50px; margin: 0; text-align: center;\">+</p>","response":null,"trial_type":"html-keyboard-response","trial_index":107,"plugin_version":"2.1.0","time_elapsed":206541,"subject_id":"89689","group":"Group1","full_date":"2025-11-30T15:21:51.753Z","date":"2025-11-30","time":"15:21:51"},{"task":"memory_phase","broad_category":"S","image_png":"S_Shale_08.png","image_id":472,"category_name":"Shale","category":30,"distinct_rating":2.55,"distinct_type":"Bottom","rt":null,"stimulus":"Stimuli_Rocks480/S_Shale_08.png","response":null,"trial_type":"image-keyboard-response","trial_index":108,"plugin_version":"2.1.0","time_elapsed":209057,"subject_id":"89689","group":"Group1","full_date":"2025-11-30T15:21:51.753Z","date":"2025-11-30","time":"15:21:51"},{"rt":null,"stimulus":"<p style=\"font-size: 50px; margin: 0; text-align: center;\">+</p>","response":null,"trial_type":"html-keyboard-response","trial_index":109,"plugin_version":"2.1.0","time_elapsed":210076,"subject_id":"89689","group":"Group1","full_date":"2025-11-30T15:21:51.753Z","date":"2025-11-30","time":"15:21:51"},{"task":"memory_phase","broad_category":"I","image_png":"I_Diorite_04.png","image_id":36,"category_name":"Diorite","category":3,"distinct_rating":2.98,"distinct_type":"Bottom","rt":null,"stimulus":"Stimuli_Rocks480/I_Diorite_04.png","response":null,"trial_type":"image-keyboard-response","trial_index":110,"plugin_version":"2.1.0","time_elapsed":212595,"subject_id":"89689","group":"Group1","full_date":"2025-11-30T15:21:51.753Z","date":"2025-11-30","time":"15:21:51"},{"rt":null,"stimulus":"<p style=\"font-size: 50px; margin: 0; text-align: center;\">+</p>","response":null,"trial_type":"html-keyboard-response","trial_index":111,"plugin_version":"2.1.0","time_elapsed":213610,"subject_id":"89689","group":"Group1","full_date":"2025-11-30T15:21:51.753Z","date":"2025-11-30","time":"15:21:51"},{"task":"memory_phase","broad_category":"S","image_png":"S_Sandstone_15.png","image_id":463,"category_name":"Sandstone","category":29,"distinct_rating":2,"distinct_type":"Bottom","rt":null,"stimulus":"Stimuli_Rocks480/S_Sandstone_15.png","response":null,"trial_type":"image-keyboard-response","trial_index":112,"plugin_version":"2.1.0","time_elapsed":216129,"subject_id":"89689","group":"Group1","full_date":"2025-11-30T15:21:51.753Z","date":"2025-11-30","time":"15:21:51"},{"rt":null,"stimulus":"<p style=\"font-size: 50px; margin: 0; text-align: center;\">+</p>","response":null,"trial_type":"html-keyboard-response","trial_index":113,"plugin_version":"2.1.0","time_elapsed":217146,"subject_id":"89689","group":"Group1","full_date":"2025-11-30T15:21:51.753Z","date":"2025-11-30","time":"15:21:51"},{"task":"memory_phase","broad_category":"I","image_png":"I_Diorite_03.png","image_id":35,"category_name":"Diorite","category":3,"distinct_rating":3.14,"distinct_type":"Bottom","rt":null,"stimulus":"Stimuli_Rocks480/I_Diorite_03.png","response":null,"trial_type":"image-keyboard-response","trial_index":114,"plugin_version":"2.1.0","time_elapsed":219664,"subject_id":"89689","group":"Group1","full_date":"2025-11-30T15:21:51.753Z","date":"2025-11-30","time":"15:21:51"},{"rt":null,"stimulus":"<p style=\"font-size: 50px; margin: 0; text-align: center;\">+</p>","response":null,"trial_type":"html-keyboard-response","trial_index":115,"plugin_version":"2.1.0","time_elapsed":220682,"subject_id":"89689","group":"Group1","full_date":"2025-11-30T15:21:51.753Z","date":"2025-11-30","time":"15:21:51"},{"task":"memory_phase","broad_category":"I","image_png":"I_Andesite_10.png","image_id":10,"category_name":"Andesite","category":1,"distinct_rating":3.15,"distinct_type":"Bottom","rt":null,"stimulus":"Stimuli_Rocks480/I_Andesite_10.png","response":null,"trial_type":"image-keyboard-response","trial_index":116,"plugin_version":"2.1.0","time_elapsed":223200,"subject_id":"89689","group":"Group1","full_date":"2025-11-30T15:21:51.753Z","date":"2025-11-30","time":"15:21:51"},{"rt":null,"stimulus":"<p style=\"font-size: 50px; margin: 0; text-align: center;\">+</p>","response":null,"trial_type":"html-keyboard-response","trial_index":117,"plugin_version":"2.1.0","time_elapsed":224217,"subject_id":"89689","group":"Group1","full_date":"2025-11-30T15:21:51.753Z","date":"2025-11-30","time":"15:21:51"},{"task":"memory_phase","broad_category":"M","image_png":"M_Slate_11.png","image_id":315,"category_name":"Slate","category":20,"distinct_rating":2.75,"distinct_type":"Bottom","rt":null,"stimulus":"Stimuli_Rocks480/M_Slate_11.png","response":null,"trial_type":"image-keyboard-response","trial_index":118,"plugin_version":"2.1.0","time_elapsed":226736,"subject_id":"89689","group":"Group1","full_date":"2025-11-30T15:21:51.753Z","date":"2025-11-30","time":"15:21:51"},{"rt":null,"stimulus":"<p style=\"font-size: 50px; margin: 0; text-align: center;\">+</p>","response":null,"trial_type":"html-keyboard-response","trial_index":119,"plugin_version":"2.1.0","time_elapsed":227749,"subject_id":"89689","group":"Group1","full_date":"2025-11-30T15:21:51.753Z","date":"2025-11-30","time":"15:21:51"},{"task":"memory_phase","broad_category":"S","image_png":"S_Breccia_11.png","image_id":347,"category_name":"Breccia","category":22,"distinct_rating":6.7,"distinct_type":"Top","rt":null,"stimulus":"Stimuli_Rocks480/S_Breccia_11.png","response":null,"trial_type":"image-keyboard-response","trial_index":120,"plugin_version":"2.1.0","time_elapsed":230271,"subject_id":"89689","group":"Group1","full_date":"2025-11-30T15:21:51.753Z","date":"2025-11-30","time":"15:21:51"},{"rt":null,"stimulus":"<p style=\"font-size: 50px; margin: 0; text-align: center;\">+</p>","response":null,"trial_type":"html-keyboard-response","trial_index":121,"plugin_version":"2.1.0","time_elapsed":231288,"subject_id":"89689","group":"Group1","full_date":"2025-11-30T15:21:51.753Z","date":"2025-11-30","time":"15:21:51"},{"task":"memory_phase","broad_category":"I","image_png":"I_Gabbro_08.png","image_id":56,"category_name":"Gabbro","category":4,"distinct_rating":3.02,"distinct_type":"Bottom","rt":null,"stimulus":"Stimuli_Rocks480/I_Gabbro_08.png","response":null,"trial_type":"image-keyboard-response","trial_index":122,"plugin_version":"2.1.0","time_elapsed":233807,"subject_id":"89689","group":"Group1","full_date":"2025-11-30T15:21:51.753Z","date":"2025-11-30","time":"15:21:51"},{"rt":null,"stimulus":"<p style=\"font-size: 50px; margin: 0; text-align: center;\">+</p>","response":null,"trial_type":"html-keyboard-response","trial_index":123,"plugin_version":"2.1.0","time_elapsed":234825,"subject_id":"89689","group":"Group1","full_date":"2025-11-30T15:21:51.753Z","date":"2025-11-30","time":"15:21:51"},{"task":"memory_phase","broad_category":"S","image_png":"S_Sandstone_03.png","image_id":451,"category_name":"Sandstone","category":29,"distinct_rating":1.86,"distinct_type":"Bottom","rt":null,"stimulus":"Stimuli_Rocks480/S_Sandstone_03.png","response":null,"trial_type":"image-keyboard-response","trial_index":124,"plugin_version":"2.1.0","time_elapsed":237337,"subject_id":"89689","group":"Group1","full_date":"2025-11-30T15:21:51.753Z","date":"2025-11-30","time":"15:21:51"},{"rt":null,"stimulus":"<p style=\"font-size: 50px; margin: 0; text-align: center;\">+</p>","response":null,"trial_type":"html-keyboard-response","trial_index":125,"plugin_version":"2.1.0","time_elapsed":238355,"subject_id":"89689","group":"Group1","full_date":"2025-11-30T15:21:51.753Z","date":"2025-11-30","time":"15:21:51"},{"task":"memory_phase","broad_category":"I","image_png":"I_Rhyolite_14.png","image_id":158,"category_name":"Rhyolite","category":10,"distinct_rating":2.59,"distinct_type":"Bottom","rt":null,"stimulus":"Stimuli_Rocks480/I_Rhyolite_14.png","response":null,"trial_type":"image-keyboard-response","trial_index":126,"plugin_version":"2.1.0","time_elapsed":240875,"subject_id":"89689","group":"Group1","full_date":"2025-11-30T15:21:51.753Z","date":"2025-11-30","time":"15:21:51"},{"rt":null,"stimulus":"<p style=\"font-size: 50px; margin: 0; text-align: center;\">+</p>","response":null,"trial_type":"html-keyboard-response","trial_index":127,"plugin_version":"2.1.0","time_elapsed":241893,"subject_id":"89689","group":"Group1","full_date":"2025-11-30T15:21:51.753Z","date":"2025-11-30","time":"15:21:51"},{"task":"memory_phase","broad_category":"S","image_png":"S_Rock Salt_01.png","image_id":433,"category_name":"Rock Salt","category":28,"distinct_rating":7.18,"distinct_type":"Top","rt":null,"stimulus":"Stimuli_Rocks480/S_Rock Salt_01.png","response":null,"trial_type":"image-keyboard-response","trial_index":128,"plugin_version":"2.1.0","time_elapsed":244411,"subject_id":"89689","group":"Group1","full_date":"2025-11-30T15:21:51.753Z","date":"2025-11-30","time":"15:21:51"},{"rt":null,"stimulus":"<p style=\"font-size: 50px; margin: 0; text-align: center;\">+</p>","response":null,"trial_type":"html-keyboard-response","trial_index":129,"plugin_version":"2.1.0","time_elapsed":245428,"subject_id":"89689","group":"Group1","full_date":"2025-11-30T15:21:51.753Z","date":"2025-11-30","time":"15:21:51"},{"task":"memory_phase","broad_category":"S","image_png":"S_Dolomite_12.png","image_id":396,"category_name":"Dolomite","category":25,"distinct_rating":1.85,"distinct_type":"Bottom","rt":null,"stimulus":"Stimuli_Rocks480/S_Dolomite_12.png","response":null,"trial_type":"image-keyboard-response","trial_index":130,"plugin_version":"2.1.0","time_elapsed":247946,"subject_id":"89689","group":"Group1","full_date":"2025-11-30T15:21:51.753Z","date":"2025-11-30","time":"15:21:51"},{"rt":null,"stimulus":"<p style=\"font-size: 50px; margin: 0; text-align: center;\">+</p>","response":null,"trial_type":"html-keyboard-response","trial_index":131,"plugin_version":"2.1.0","time_elapsed":248963,"subject_id":"89689","group":"Group1","full_date":"2025-11-30T15:21:51.753Z","date":"2025-11-30","time":"15:21:51"},{"task":"memory_phase","broad_category":"I","image_png":"I_Obsidian_05.png","image_id":85,"category_name":"Obsidian","category":6,"distinct_rating":7.32,"distinct_type":"Top","rt":null,"stimulus":"Stimuli_Rocks480/I_Obsidian_05.png","response":null,"trial_type":"image-keyboard-response","trial_index":132,"plugin_version":"2.1.0","time_elapsed":251480,"subject_id":"89689","group":"Group1","full_date":"2025-11-30T15:21:51.753Z","date":"2025-11-30","time":"15:21:51"},{"rt":null,"stimulus":"<p style=\"font-size: 50px; margin: 0; text-align: center;\">+</p>","response":null,"trial_type":"html-keyboard-response","trial_index":133,"plugin_version":"2.1.0","time_elapsed":252498,"subject_id":"89689","group":"Group1","full_date":"2025-11-30T15:21:51.753Z","date":"2025-11-30","time":"15:21:51"},{"task":"memory_phase","broad_category":"M","image_png":"M_Marble_16.png","image_id":240,"category_name":"Marble","category":15,"distinct_rating":2.57,"distinct_type":"Bottom","rt":null,"stimulus":"Stimuli_Rocks480/M_Marble_16.png","response":null,"trial_type":"image-keyboard-response","trial_index":134,"plugin_version":"2.1.0","time_elapsed":255016,"subject_id":"89689","group":"Group1","full_date":"2025-11-30T15:21:51.753Z","date":"2025-11-30","time":"15:21:51"},{"rt":null,"stimulus":"<p style=\"font-size: 50px; margin: 0; text-align: center;\">+</p>","response":null,"trial_type":"html-keyboard-response","trial_index":135,"plugin_version":"2.1.0","time_elapsed":256034,"subject_id":"89689","group":"Group1","full_date":"2025-11-30T15:21:51.753Z","date":"2025-11-30","time":"15:21:51"},{"task":"memory_phase","broad_category":"I","image_png":"I_Gabbro_16.png","image_id":64,"category_name":"Gabbro","category":4,"distinct_rating":2.52,"distinct_type":"Bottom","rt":null,"stimulus":"Stimuli_Rocks480/I_Gabbro_16.png","response":null,"trial_type":"image-keyboard-response","trial_index":136,"plugin_version":"2.1.0","time_elapsed":258551,"subject_id":"89689","group":"Group1","full_date":"2025-11-30T15:21:51.753Z","date":"2025-11-30","time":"15:21:51"},{"rt":null,"stimulus":"<p style=\"font-size: 50px; margin: 0; text-align: center;\">+</p>","response":null,"trial_type":"html-keyboard-response","trial_index":137,"plugin_version":"2.1.0","time_elapsed":259571,"subject_id":"89689","group":"Group1","full_date":"2025-11-30T15:21:51.753Z","date":"2025-11-30","time":"15:21:51"},{"task":"memory_phase","broad_category":"S","image_png":"S_Dolomite_13.png","image_id":397,"category_name":"Dolomite","category":25,"distinct_rating":1.77,"distinct_type":"Bottom","rt":null,"stimulus":"Stimuli_Rocks480/S_Dolomite_13.png","response":null,"trial_type":"image-keyboard-response","trial_index":138,"plugin_version":"2.1.0","time_elapsed":262087,"subject_id":"89689","group":"Group1","full_date":"2025-11-30T15:21:51.753Z","date":"2025-11-30","time":"15:21:51"},{"rt":null,"stimulus":"<p style=\"font-size: 50px; margin: 0; text-align: center;\">+</p>","response":null,"trial_type":"html-keyboard-response","trial_index":139,"plugin_version":"2.1.0","time_elapsed":263107,"subject_id":"89689","group":"Group1","full_date":"2025-11-30T15:21:51.753Z","date":"2025-11-30","time":"15:21:51"},{"task":"memory_phase","broad_category":"M","image_png":"M_Slate_03.png","image_id":307,"category_name":"Slate","category":20,"distinct_rating":1.87,"distinct_type":"Bottom","rt":null,"stimulus":"Stimuli_Rocks480/M_Slate_03.png","response":null,"trial_type":"image-keyboard-response","trial_index":140,"plugin_version":"2.1.0","time_elapsed":265623,"subject_id":"89689","group":"Group1","full_date":"2025-11-30T15:21:51.753Z","date":"2025-11-30","time":"15:21:51"},{"rt":null,"stimulus":"<p style=\"font-size: 50px; margin: 0; text-align: center;\">+</p>","response":null,"trial_type":"html-keyboard-response","trial_index":141,"plugin_version":"2.1.0","time_elapsed":266640,"subject_id":"89689","group":"Group1","full_date":"2025-11-30T15:21:51.753Z","date":"2025-11-30","time":"15:21:51"},{"task":"memory_phase","broad_category":"S","image_png":"S_Rock Gypsum_04.png","image_id":420,"category_name":"Rock Gypsum","category":27,"distinct_rating":7.61,"distinct_type":"Top","rt":null,"stimulus":"Stimuli_Rocks480/S_Rock Gypsum_04.png","response":null,"trial_type":"image-keyboard-response","trial_index":142,"plugin_version":"2.1.0","time_elapsed":269156,"subject_id":"89689","group":"Group1","full_date":"2025-11-30T15:21:51.753Z","date":"2025-11-30","time":"15:21:51"},{"rt":null,"stimulus":"<p style=\"font-size: 50px; margin: 0; text-align: center;\">+</p>","response":null,"trial_type":"html-keyboard-response","trial_index":143,"plugin_version":"2.1.0","time_elapsed":270176,"subject_id":"89689","group":"Group1","full_date":"2025-11-30T15:21:51.753Z","date":"2025-11-30","time":"15:21:51"},{"task":"memory_phase","broad_category":"I","image_png":"I_Rhyolite_11.png","image_id":155,"category_name":"Rhyolite","category":10,"distinct_rating":1.73,"distinct_type":"Bottom","rt":null,"stimulus":"Stimuli_Rocks480/I_Rhyolite_11.png","response":null,"trial_type":"image-keyboard-response","trial_index":144,"plugin_version":"2.1.0","time_elapsed":272693,"subject_id":"89689","group":"Group1","full_date":"2025-11-30T15:21:51.753Z","date":"2025-11-30","time":"15:21:51"},{"rt":null,"stimulus":"<p style=\"font-size: 50px; margin: 0; text-align: center;\">+</p>","response":null,"trial_type":"html-keyboard-response","trial_index":145,"plugin_version":"2.1.0","time_elapsed":273710,"subject_id":"89689","group":"Group1","full_date":"2025-11-30T15:21:51.753Z","date":"2025-11-30","time":"15:21:51"},{"task":"memory_phase","broad_category":"S","image_png":"S_Shale_01.png","image_id":465,"category_name":"Shale","category":30,"distinct_rating":2.7,"distinct_type":"Bottom","rt":null,"stimulus":"Stimuli_Rocks480/S_Shale_01.png","response":null,"trial_type":"image-keyboard-response","trial_index":146,"plugin_version":"2.1.0","time_elapsed":276229,"subject_id":"89689","group":"Group1","full_date":"2025-11-30T15:21:51.753Z","date":"2025-11-30","time":"15:21:51"},{"rt":null,"stimulus":"<p style=\"font-size: 50px; margin: 0; text-align: center;\">+</p>","response":null,"trial_type":"html-keyboard-response","trial_index":147,"plugin_version":"2.1.0","time_elapsed":277246,"subject_id":"89689","group":"Group1","full_date":"2025-11-30T15:21:51.753Z","date":"2025-11-30","time":"15:21:51"},{"task":"memory_phase","broad_category":"M","image_png":"M_Gneiss_05.png","image_id":197,"category_name":"Gneiss","category":13,"distinct_rating":2.97,"distinct_type":"Bottom","rt":null,"stimulus":"Stimuli_Rocks480/M_Gneiss_05.png","response":null,"trial_type":"image-keyboard-response","trial_index":148,"plugin_version":"2.1.0","time_elapsed":279763,"subject_id":"89689","group":"Group1","full_date":"2025-11-30T15:21:51.753Z","date":"2025-11-30","time":"15:21:51"},{"rt":null,"stimulus":"<p style=\"font-size: 50px; margin: 0; text-align: center;\">+</p>","response":null,"trial_type":"html-keyboard-response","trial_index":149,"plugin_version":"2.1.0","time_elapsed":280781,"subject_id":"89689","group":"Group1","full_date":"2025-11-30T15:21:51.753Z","date":"2025-11-30","time":"15:21:51"},{"task":"memory_phase","broad_category":"S","image_png":"S_Chert_10.png","image_id":362,"category_name":"Chert","category":23,"distinct_rating":7.17,"distinct_type":"Top","rt":null,"stimulus":"Stimuli_Rocks480/S_Chert_10.png","response":null,"trial_type":"image-keyboard-response","trial_index":150,"plugin_version":"2.1.0","time_elapsed":283300,"subject_id":"89689","group":"Group1","full_date":"2025-11-30T15:21:51.753Z","date":"2025-11-30","time":"15:21:51"},{"rt":null,"stimulus":"<p style=\"font-size: 50px; margin: 0; text-align: center;\">+</p>","response":null,"trial_type":"html-keyboard-response","trial_index":151,"plugin_version":"2.1.0","time_elapsed":284317,"subject_id":"89689","group":"Group1","full_date":"2025-11-30T15:21:51.753Z","date":"2025-11-30","time":"15:21:51"},{"task":"memory_phase","broad_category":"I","image_png":"I_Basalt_02.png","image_id":18,"category_name":"Basalt","category":2,"distinct_rating":1.84,"distinct_type":"Bottom","rt":null,"stimulus":"Stimuli_Rocks480/I_Basalt_02.png","response":null,"trial_type":"image-keyboard-response","trial_index":152,"plugin_version":"2.1.0","time_elapsed":286836,"subject_id":"89689","group":"Group1","full_date":"2025-11-30T15:21:51.753Z","date":"2025-11-30","time":"15:21:51"},{"rt":null,"stimulus":"<p style=\"font-size: 50px; margin: 0; text-align: center;\">+</p>","response":null,"trial_type":"html-keyboard-response","trial_index":153,"plugin_version":"2.1.0","time_elapsed":287852,"subject_id":"89689","group":"Group1","full_date":"2025-11-30T15:21:51.753Z","date":"2025-11-30","time":"15:21:51"},{"task":"memory_phase","broad_category":"M","image_png":"M_Marble_04.png","image_id":228,"category_name":"Marble","category":15,"distinct_rating":3.15,"distinct_type":"Bottom","rt":null,"stimulus":"Stimuli_Rocks480/M_Marble_04.png","response":null,"trial_type":"image-keyboard-response","trial_index":154,"plugin_version":"2.1.0","time_elapsed":290371,"subject_id":"89689","group":"Group1","full_date":"2025-11-30T15:21:51.753Z","date":"2025-11-30","time":"15:21:51"},{"rt":null,"stimulus":"<p style=\"font-size: 50px; margin: 0; text-align: center;\">+</p>","response":null,"trial_type":"html-keyboard-response","trial_index":155,"plugin_version":"2.1.0","time_elapsed":291388,"subject_id":"89689","group":"Group1","full_date":"2025-11-30T15:21:51.753Z","date":"2025-11-30","time":"15:21:51"},{"task":"memory_phase","broad_category":"I","image_png":"I_Pumice_12.png","image_id":140,"category_name":"Pumice","category":9,"distinct_rating":2.97,"distinct_type":"Bottom","rt":null,"stimulus":"Stimuli_Rocks480/I_Pumice_12.png","response":null,"trial_type":"image-keyboard-response","trial_index":156,"plugin_version":"2.1.0","time_elapsed":293908,"subject_id":"89689","group":"Group1","full_date":"2025-11-30T15:21:51.753Z","date":"2025-11-30","time":"15:21:51"},{"rt":1716,"stimulus":"<p style=\"max-width: 760px; margin: auto; font-size: 35px; line-height: 1.5;\">Press SPACE to continue study phase</p>","response":" ","trial_type":"html-keyboard-response","trial_index":157,"plugin_version":"2.1.0","time_elapsed":295626,"subject_id":"89689","group":"Group1","full_date":"2025-11-30T15:21:51.753Z","date":"2025-11-30","time":"15:21:51"},{"rt":null,"stimulus":"<p style=\"font-size: 50px; margin: 0; text-align: center;\">+</p>","response":null,"trial_type":"html-keyboard-response","trial_index":158,"plugin_version":"2.1.0","time_elapsed":296640,"subject_id":"89689","group":"Group1","full_date":"2025-11-30T15:21:51.753Z","date":"2025-11-30","time":"15:21:51"},{"task":"memory_phase","broad_category":"I","image_png":"I_Basalt_01.png","image_id":17,"category_name":"Basalt","category":2,"distinct_rating":1.92,"distinct_type":"Bottom","rt":null,"stimulus":"Stimuli_Rocks480/I_Basalt_01.png","response":null,"trial_type":"image-keyboard-response","trial_index":159,"plugin_version":"2.1.0","time_elapsed":299158,"subject_id":"89689","group":"Group1","full_date":"2025-11-30T15:21:51.753Z","date":"2025-11-30","time":"15:21:51"},{"rt":null,"stimulus":"<p style=\"font-size: 50px; margin: 0; text-align: center;\">+</p>","response":null,"trial_type":"html-keyboard-response","trial_index":160,"plugin_version":"2.1.0","time_elapsed":300171,"subject_id":"89689","group":"Group1","full_date":"2025-11-30T15:21:51.753Z","date":"2025-11-30","time":"15:21:51"},{"task":"memory_phase","broad_category":"S","image_png":"S_Conglomerate_05.png","image_id":373,"category_name":"Conglomerate","category":24,"distinct_rating":7.32,"distinct_type":"Top","rt":null,"stimulus":"Stimuli_Rocks480/S_Conglomerate_05.png","response":null,"trial_type":"image-keyboard-response","trial_index":161,"plugin_version":"2.1.0","time_elapsed":302676,"subject_id":"89689","group":"Group1","full_date":"2025-11-30T15:21:51.753Z","date":"2025-11-30","time":"15:21:51"},{"rt":null,"stimulus":"<p style=\"font-size: 50px; margin: 0; text-align: center;\">+</p>","response":null,"trial_type":"html-keyboard-response","trial_index":162,"plugin_version":"2.1.0","time_elapsed":303694,"subject_id":"89689","group":"Group1","full_date":"2025-11-30T15:21:51.753Z","date":"2025-11-30","time":"15:21:51"},{"task":"memory_phase","broad_category":"M","image_png":"M_Quartzite_13.png","image_id":285,"category_name":"Quartzite","category":18,"distinct_rating":2.27,"distinct_type":"Bottom","rt":null,"stimulus":"Stimuli_Rocks480/M_Quartzite_13.png","response":null,"trial_type":"image-keyboard-response","trial_index":163,"plugin_version":"2.1.0","time_elapsed":306212,"subject_id":"89689","group":"Group1","full_date":"2025-11-30T15:21:51.753Z","date":"2025-11-30","time":"15:21:51"},{"rt":null,"stimulus":"<p style=\"font-size: 50px; margin: 0; text-align: center;\">+</p>","response":null,"trial_type":"html-keyboard-response","trial_index":164,"plugin_version":"2.1.0","time_elapsed":307229,"subject_id":"89689","group":"Group1","full_date":"2025-11-30T15:21:51.753Z","date":"2025-11-30","time":"15:21:51"},{"task":"memory_phase","broad_category":"I","image_png":"I_Gabbro_11.png","image_id":59,"category_name":"Gabbro","category":4,"distinct_rating":1.99,"distinct_type":"Bottom","rt":null,"stimulus":"Stimuli_Rocks480/I_Gabbro_11.png","response":null,"trial_type":"image-keyboard-response","trial_index":165,"plugin_version":"2.1.0","time_elapsed":309747,"subject_id":"89689","group":"Group1","full_date":"2025-11-30T15:21:51.753Z","date":"2025-11-30","time":"15:21:51"},{"rt":null,"stimulus":"<p style=\"font-size: 50px; margin: 0; text-align: center;\">+</p>","response":null,"trial_type":"html-keyboard-response","trial_index":166,"plugin_version":"2.1.0","time_elapsed":310765,"subject_id":"89689","group":"Group1","full_date":"2025-11-30T15:21:51.753Z","date":"2025-11-30","time":"15:21:51"},{"task":"memory_phase","broad_category":"M","image_png":"M_Quartzite_05.png","image_id":277,"category_name":"Quartzite","category":18,"distinct_rating":2.23,"distinct_type":"Bottom","rt":null,"stimulus":"Stimuli_Rocks480/M_Quartzite_05.png","response":null,"trial_type":"image-keyboard-response","trial_index":167,"plugin_version":"2.1.0","time_elapsed":313285,"subject_id":"89689","group":"Group1","full_date":"2025-11-30T15:21:51.753Z","date":"2025-11-30","time":"15:21:51"},{"rt":null,"stimulus":"<p style=\"font-size: 50px; margin: 0; text-align: center;\">+</p>","response":null,"trial_type":"html-keyboard-response","trial_index":168,"plugin_version":"2.1.0","time_elapsed":314293,"subject_id":"89689","group":"Group1","full_date":"2025-11-30T15:21:51.753Z","date":"2025-11-30","time":"15:21:51"},{"task":"memory_phase","broad_category":"S","image_png":"S_Dolomite_14.png","image_id":398,"category_name":"Dolomite","category":25,"distinct_rating":1.43,"distinct_type":"Bottom","rt":null,"stimulus":"Stimuli_Rocks480/S_Dolomite_14.png","response":null,"trial_type":"image-keyboard-response","trial_index":169,"plugin_version":"2.1.0","time_elapsed":316801,"subject_id":"89689","group":"Group1","full_date":"2025-11-30T15:21:51.753Z","date":"2025-11-30","time":"15:21:51"},{"rt":null,"stimulus":"<p style=\"font-size: 50px; margin: 0; text-align: center;\">+</p>","response":null,"trial_type":"html-keyboard-response","trial_index":170,"plugin_version":"2.1.0","time_elapsed":317819,"subject_id":"89689","group":"Group1","full_date":"2025-11-30T15:21:51.753Z","date":"2025-11-30","time":"15:21:51"},{"task":"memory_phase","broad_category":"I","image_png":"I_Pumice_08.png","image_id":136,"category_name":"Pumice","category":9,"distinct_rating":3.1,"distinct_type":"Bottom","rt":null,"stimulus":"Stimuli_Rocks480/I_Pumice_08.png","response":null,"trial_type":"image-keyboard-response","trial_index":171,"plugin_version":"2.1.0","time_elapsed":320332,"subject_id":"89689","group":"Group1","full_date":"2025-11-30T15:21:51.753Z","date":"2025-11-30","time":"15:21:51"},{"rt":null,"stimulus":"<p style=\"font-size: 50px; margin: 0; text-align: center;\">+</p>","response":null,"trial_type":"html-keyboard-response","trial_index":172,"plugin_version":"2.1.0","time_elapsed":321337,"subject_id":"89689","group":"Group1","full_date":"2025-11-30T15:21:51.753Z","date":"2025-11-30","time":"15:21:51"},{"task":"memory_phase","broad_category":"I","image_png":"I_Diorite_05.png","image_id":37,"category_name":"Diorite","category":3,"distinct_rating":3.08,"distinct_type":"Bottom","rt":null,"stimulus":"Stimuli_Rocks480/I_Diorite_05.png","response":null,"trial_type":"image-keyboard-response","trial_index":173,"plugin_version":"2.1.0","time_elapsed":323857,"subject_id":"89689","group":"Group1","full_date":"2025-11-30T15:21:51.753Z","date":"2025-11-30","time":"15:21:51"},{"rt":null,"stimulus":"<p style=\"font-size: 50px; margin: 0; text-align: center;\">+</p>","response":null,"trial_type":"html-keyboard-response","trial_index":174,"plugin_version":"2.1.0","time_elapsed":324872,"subject_id":"89689","group":"Group1","full_date":"2025-11-30T15:21:51.753Z","date":"2025-11-30","time":"15:21:51"},{"task":"memory_phase","broad_category":"M","image_png":"M_Gneiss_13.png","image_id":205,"category_name":"Gneiss","category":13,"distinct_rating":3.26,"distinct_type":"Bottom","rt":null,"stimulus":"Stimuli_Rocks480/M_Gneiss_13.png","response":null,"trial_type":"image-keyboard-response","trial_index":175,"plugin_version":"2.1.0","time_elapsed":327393,"subject_id":"89689","group":"Group1","full_date":"2025-11-30T15:21:51.753Z","date":"2025-11-30","time":"15:21:51"},{"rt":null,"stimulus":"<p style=\"font-size: 50px; margin: 0; text-align: center;\">+</p>","response":null,"trial_type":"html-keyboard-response","trial_index":176,"plugin_version":"2.1.0","time_elapsed":328408,"subject_id":"89689","group":"Group1","full_date":"2025-11-30T15:21:51.753Z","date":"2025-11-30","time":"15:21:51"},{"task":"memory_phase","broad_category":"S","image_png":"S_Sandstone_16.png","image_id":464,"category_name":"Sandstone","category":29,"distinct_rating":1.93,"distinct_type":"Bottom","rt":null,"stimulus":"Stimuli_Rocks480/S_Sandstone_16.png","response":null,"trial_type":"image-keyboard-response","trial_index":177,"plugin_version":"2.1.0","time_elapsed":330926,"subject_id":"89689","group":"Group1","full_date":"2025-11-30T15:21:51.753Z","date":"2025-11-30","time":"15:21:51"},{"rt":null,"stimulus":"<p style=\"font-size: 50px; margin: 0; text-align: center;\">+</p>","response":null,"trial_type":"html-keyboard-response","trial_index":178,"plugin_version":"2.1.0","time_elapsed":331938,"subject_id":"89689","group":"Group1","full_date":"2025-11-30T15:21:51.753Z","date":"2025-11-30","time":"15:21:51"},{"task":"memory_phase","broad_category":"M","image_png":"M_Phyllite_03.png","image_id":259,"category_name":"Phyllite","category":17,"distinct_rating":2.5,"distinct_type":"Bottom","rt":null,"stimulus":"Stimuli_Rocks480/M_Phyllite_03.png","response":null,"trial_type":"image-keyboard-response","trial_index":179,"plugin_version":"2.1.0","time_elapsed":334445,"subject_id":"89689","group":"Group1","full_date":"2025-11-30T15:21:51.753Z","date":"2025-11-30","time":"15:21:51"},{"rt":null,"stimulus":"<p style=\"font-size: 50px; margin: 0; text-align: center;\">+</p>","response":null,"trial_type":"html-keyboard-response","trial_index":180,"plugin_version":"2.1.0","time_elapsed":335464,"subject_id":"89689","group":"Group1","full_date":"2025-11-30T15:21:51.753Z","date":"2025-11-30","time":"15:21:51"},{"task":"memory_phase","broad_category":"M","image_png":"M_Phyllite_07.png","image_id":263,"category_name":"Phyllite","category":17,"distinct_rating":2.59,"distinct_type":"Bottom","rt":null,"stimulus":"Stimuli_Rocks480/M_Phyllite_07.png","response":null,"trial_type":"image-keyboard-response","trial_index":181,"plugin_version":"2.1.0","time_elapsed":337978,"subject_id":"89689","group":"Group1","full_date":"2025-11-30T15:21:51.753Z","date":"2025-11-30","time":"15:21:51"},{"rt":null,"stimulus":"<p style=\"font-size: 50px; margin: 0; text-align: center;\">+</p>","response":null,"trial_type":"html-keyboard-response","trial_index":182,"plugin_version":"2.1.0","time_elapsed":338997,"subject_id":"89689","group":"Group1","full_date":"2025-11-30T15:21:51.753Z","date":"2025-11-30","time":"15:21:51"},{"task":"memory_phase","broad_category":"I","image_png":"I_Andesite_08.png","image_id":8,"category_name":"Andesite","category":1,"distinct_rating":1.95,"distinct_type":"Bottom","rt":null,"stimulus":"Stimuli_Rocks480/I_Andesite_08.png","response":null,"trial_type":"image-keyboard-response","trial_index":183,"plugin_version":"2.1.0","time_elapsed":341515,"subject_id":"89689","group":"Group1","full_date":"2025-11-30T15:21:51.753Z","date":"2025-11-30","time":"15:21:51"},{"rt":null,"stimulus":"<p style=\"font-size: 50px; margin: 0; text-align: center;\">+</p>","response":null,"trial_type":"html-keyboard-response","trial_index":184,"plugin_version":"2.1.0","time_elapsed":342531,"subject_id":"89689","group":"Group1","full_date":"2025-11-30T15:21:51.753Z","date":"2025-11-30","time":"15:21:51"},{"task":"memory_phase","broad_category":"M","image_png":"M_Marble_06.png","image_id":230,"category_name":"Marble","category":15,"distinct_rating":3.4,"distinct_type":"Bottom","rt":null,"stimulus":"Stimuli_Rocks480/M_Marble_06.png","response":null,"trial_type":"image-keyboard-response","trial_index":185,"plugin_version":"2.1.0","time_elapsed":345051,"subject_id":"89689","group":"Group1","full_date":"2025-11-30T15:21:51.753Z","date":"2025-11-30","time":"15:21:51"},{"rt":null,"stimulus":"<p style=\"font-size: 50px; margin: 0; text-align: center;\">+</p>","response":null,"trial_type":"html-keyboard-response","trial_index":186,"plugin_version":"2.1.0","time_elapsed":346068,"subject_id":"89689","group":"Group1","full_date":"2025-11-30T15:21:51.753Z","date":"2025-11-30","time":"15:21:51"},{"task":"memory_phase","broad_category":"I","image_png":"I_Pumice_11.png","image_id":139,"category_name":"Pumice","category":9,"distinct_rating":1.74,"distinct_type":"Bottom","rt":null,"stimulus":"Stimuli_Rocks480/I_Pumice_11.png","response":null,"trial_type":"image-keyboard-response","trial_index":187,"plugin_version":"2.1.0","time_elapsed":348587,"subject_id":"89689","group":"Group1","full_date":"2025-11-30T15:21:51.753Z","date":"2025-11-30","time":"15:21:51"},{"rt":null,"stimulus":"<p style=\"font-size: 50px; margin: 0; text-align: center;\">+</p>","response":null,"trial_type":"html-keyboard-response","trial_index":188,"plugin_version":"2.1.0","time_elapsed":349604,"subject_id":"89689","group":"Group1","full_date":"2025-11-30T15:21:51.753Z","date":"2025-11-30","time":"15:21:51"},{"task":"memory_phase","broad_category":"I","image_png":"I_Pegmatite_16.png","image_id":112,"category_name":"Pegmatite","category":7,"distinct_rating":7.03,"distinct_type":"Top","rt":null,"stimulus":"Stimuli_Rocks480/I_Pegmatite_16.png","response":null,"trial_type":"image-keyboard-response","trial_index":189,"plugin_version":"2.1.0","time_elapsed":352122,"subject_id":"89689","group":"Group1","full_date":"2025-11-30T15:21:51.753Z","date":"2025-11-30","time":"15:21:51"},{"rt":null,"stimulus":"<p style=\"font-size: 50px; margin: 0; text-align: center;\">+</p>","response":null,"trial_type":"html-keyboard-response","trial_index":190,"plugin_version":"2.1.0","time_elapsed":353139,"subject_id":"89689","group":"Group1","full_date":"2025-11-30T15:21:51.753Z","date":"2025-11-30","time":"15:21:51"},{"task":"memory_phase","broad_category":"I","image_png":"I_Pegmatite_10.png","image_id":106,"category_name":"Pegmatite","category":7,"distinct_rating":7.66,"distinct_type":"Top","rt":null,"stimulus":"Stimuli_Rocks480/I_Pegmatite_10.png","response":null,"trial_type":"image-keyboard-response","trial_index":191,"plugin_version":"2.1.0","time_elapsed":355655,"subject_id":"89689","group":"Group1","full_date":"2025-11-30T15:21:51.753Z","date":"2025-11-30","time":"15:21:51"},{"rt":null,"stimulus":"<p style=\"font-size: 50px; margin: 0; text-align: center;\">+</p>","response":null,"trial_type":"html-keyboard-response","trial_index":192,"plugin_version":"2.1.0","time_elapsed":356674,"subject_id":"89689","group":"Group1","full_date":"2025-11-30T15:21:51.753Z","date":"2025-11-30","time":"15:21:51"},{"task":"memory_phase","broad_category":"M","image_png":"M_Phyllite_10.png","image_id":266,"category_name":"Phyllite","category":17,"distinct_rating":2.6,"distinct_type":"Bottom","rt":null,"stimulus":"Stimuli_Rocks480/M_Phyllite_10.png","response":null,"trial_type":"image-keyboard-response","trial_index":193,"plugin_version":"2.1.0","time_elapsed":359192,"subject_id":"89689","group":"Group1","full_date":"2025-11-30T15:21:51.753Z","date":"2025-11-30","time":"15:21:51"},{"rt":null,"stimulus":"<p style=\"font-size: 50px; margin: 0; text-align: center;\">+</p>","response":null,"trial_type":"html-keyboard-response","trial_index":194,"plugin_version":"2.1.0","time_elapsed":360210,"subject_id":"89689","group":"Group1","full_date":"2025-11-30T15:21:51.753Z","date":"2025-11-30","time":"15:21:51"},{"task":"memory_phase","broad_category":"M","image_png":"M_Gneiss_06.png","image_id":198,"category_name":"Gneiss","category":13,"distinct_rating":2.65,"distinct_type":"Bottom","rt":null,"stimulus":"Stimuli_Rocks480/M_Gneiss_06.png","response":null,"trial_type":"image-keyboard-response","trial_index":195,"plugin_version":"2.1.0","time_elapsed":362728,"subject_id":"89689","group":"Group1","full_date":"2025-11-30T15:21:51.753Z","date":"2025-11-30","time":"15:21:51"},{"rt":null,"stimulus":"<p style=\"font-size: 50px; margin: 0; text-align: center;\">+</p>","response":null,"trial_type":"html-keyboard-response","trial_index":196,"plugin_version":"2.1.0","time_elapsed":363745,"subject_id":"89689","group":"Group1","full_date":"2025-11-30T15:21:51.753Z","date":"2025-11-30","time":"15:21:51"},{"task":"memory_phase","broad_category":"I","image_png":"I_Rhyolite_16.png","image_id":160,"category_name":"Rhyolite","category":10,"distinct_rating":2.19,"distinct_type":"Bottom","rt":null,"stimulus":"Stimuli_Rocks480/I_Rhyolite_16.png","response":null,"trial_type":"image-keyboard-response","trial_index":197,"plugin_version":"2.1.0","time_elapsed":366254,"subject_id":"89689","group":"Group1","full_date":"2025-11-30T15:21:51.753Z","date":"2025-11-30","time":"15:21:51"},{"rt":null,"stimulus":"<p style=\"font-size: 50px; margin: 0; text-align: center;\">+</p>","response":null,"trial_type":"html-keyboard-response","trial_index":198,"plugin_version":"2.1.0","time_elapsed":367263,"subject_id":"89689","group":"Group1","full_date":"2025-11-30T15:21:51.753Z","date":"2025-11-30","time":"15:21:51"},{"task":"memory_phase","broad_category":"M","image_png":"M_Quartzite_08.png","image_id":280,"category_name":"Quartzite","category":18,"distinct_rating":2.15,"distinct_type":"Bottom","rt":null,"stimulus":"Stimuli_Rocks480/M_Quartzite_08.png","response":null,"trial_type":"image-keyboard-response","trial_index":199,"plugin_version":"2.1.0","time_elapsed":369781,"subject_id":"89689","group":"Group1","full_date":"2025-11-30T15:21:51.753Z","date":"2025-11-30","time":"15:21:51"},{"rt":null,"stimulus":"<p style=\"font-size: 50px; margin: 0; text-align: center;\">+</p>","response":null,"trial_type":"html-keyboard-response","trial_index":200,"plugin_version":"2.1.0","time_elapsed":370798,"subject_id":"89689","group":"Group1","full_date":"2025-11-30T15:21:51.753Z","date":"2025-11-30","time":"15:21:51"},{"task":"memory_phase","broad_category":"M","image_png":"M_Slate_15.png","image_id":319,"category_name":"Slate","category":20,"distinct_rating":2.13,"distinct_type":"Bottom","rt":null,"stimulus":"Stimuli_Rocks480/M_Slate_15.png","response":null,"trial_type":"image-keyboard-response","trial_index":201,"plugin_version":"2.1.0","time_elapsed":373317,"subject_id":"89689","group":"Group1","full_date":"2025-11-30T15:21:51.753Z","date":"2025-11-30","time":"15:21:51"},{"rt":null,"stimulus":"<p style=\"font-size: 50px; margin: 0; text-align: center;\">+</p>","response":null,"trial_type":"html-keyboard-response","trial_index":202,"plugin_version":"2.1.0","time_elapsed":374334,"subject_id":"89689","group":"Group1","full_date":"2025-11-30T15:21:51.753Z","date":"2025-11-30","time":"15:21:51"},{"task":"memory_phase","broad_category":"I","image_png":"I_Andesite_06.png","image_id":6,"category_name":"Andesite","category":1,"distinct_rating":3.17,"distinct_type":"Bottom","rt":null,"stimulus":"Stimuli_Rocks480/I_Andesite_06.png","response":null,"trial_type":"image-keyboard-response","trial_index":203,"plugin_version":"2.1.0","time_elapsed":376851,"subject_id":"89689","group":"Group1","full_date":"2025-11-30T15:21:51.753Z","date":"2025-11-30","time":"15:21:51"},{"rt":null,"stimulus":"<p style=\"font-size: 50px; margin: 0; text-align: center;\">+</p>","response":null,"trial_type":"html-keyboard-response","trial_index":204,"plugin_version":"2.1.0","time_elapsed":377868,"subject_id":"89689","group":"Group1","full_date":"2025-11-30T15:21:51.753Z","date":"2025-11-30","time":"15:21:51"},{"task":"memory_phase","broad_category":"S","image_png":"S_Shale_12.png","image_id":476,"category_name":"Shale","category":30,"distinct_rating":2.48,"distinct_type":"Bottom","rt":null,"stimulus":"Stimuli_Rocks480/S_Shale_12.png","response":null,"trial_type":"image-keyboard-response","trial_index":205,"plugin_version":"2.1.0","time_elapsed":380387,"subject_id":"89689","group":"Group1","full_date":"2025-11-30T15:21:51.753Z","date":"2025-11-30","time":"15:21:51"},{"rt":null,"stimulus":"<p style=\"font-size: 50px; margin: 0; text-align: center;\">+</p>","response":null,"trial_type":"html-keyboard-response","trial_index":206,"plugin_version":"2.1.0","time_elapsed":381404,"subject_id":"89689","group":"Group1","full_date":"2025-11-30T15:21:51.753Z","date":"2025-11-30","time":"15:21:51"},{"task":"memory_phase","broad_category":"I","image_png":"I_Basalt_09.png","image_id":25,"category_name":"Basalt","category":2,"distinct_rating":1.89,"distinct_type":"Bottom","rt":null,"stimulus":"Stimuli_Rocks480/I_Basalt_09.png","response":null,"trial_type":"image-keyboard-response","trial_index":207,"plugin_version":"2.1.0","time_elapsed":383922,"subject_id":"89689","group":"Group1","full_date":"2025-11-30T15:21:51.753Z","date":"2025-11-30","time":"15:21:51"},{"rt":20520,"stimulus":"<p style=\"max-width: 760px; margin: auto; font-size: 35px; line-height: 1.5;\">You have completed 2 study phases. Now, we'll show you all the images again 1 more time.<br><br>Press SPACE to continue</p>","response":" ","trial_type":"html-keyboard-response","trial_index":208,"plugin_version":"2.1.0","time_elapsed":404445,"subject_id":"89689","group":"Group1","full_date":"2025-11-30T15:21:51.753Z","date":"2025-11-30","time":"15:21:51"},{"rt":null,"stimulus":"<p style=\"font-size: 50px; margin: 0; text-align: center;\">+</p>","response":null,"trial_type":"html-keyboard-response","trial_index":209,"plugin_version":"2.1.0","time_elapsed":405453,"subject_id":"89689","group":"Group1","full_date":"2025-11-30T15:21:51.753Z","date":"2025-11-30","time":"15:21:51"},{"task":"memory_phase","broad_category":"I","image_png":"I_Diorite_05.png","image_id":37,"category_name":"Diorite","category":3,"distinct_rating":3.08,"distinct_type":"Bottom","rt":null,"stimulus":"Stimuli_Rocks480/I_Diorite_05.png","response":null,"trial_type":"image-keyboard-response","trial_index":210,"plugin_version":"2.1.0","time_elapsed":407973,"subject_id":"89689","group":"Group1","full_date":"2025-11-30T15:21:51.753Z","date":"2025-11-30","time":"15:21:51"},{"rt":null,"stimulus":"<p style=\"font-size: 50px; margin: 0; text-align: center;\">+</p>","response":null,"trial_type":"html-keyboard-response","trial_index":211,"plugin_version":"2.1.0","time_elapsed":408989,"subject_id":"89689","group":"Group1","full_date":"2025-11-30T15:21:51.753Z","date":"2025-11-30","time":"15:21:51"},{"task":"memory_phase","broad_category":"S","image_png":"S_Dolomite_14.png","image_id":398,"category_name":"Dolomite","category":25,"distinct_rating":1.43,"distinct_type":"Bottom","rt":null,"stimulus":"Stimuli_Rocks480/S_Dolomite_14.png","response":null,"trial_type":"image-keyboard-response","trial_index":212,"plugin_version":"2.1.0","time_elapsed":411506,"subject_id":"89689","group":"Group1","full_date":"2025-11-30T15:21:51.753Z","date":"2025-11-30","time":"15:21:51"},{"rt":null,"stimulus":"<p style=\"font-size: 50px; margin: 0; text-align: center;\">+</p>","response":null,"trial_type":"html-keyboard-response","trial_index":213,"plugin_version":"2.1.0","time_elapsed":412524,"subject_id":"89689","group":"Group1","full_date":"2025-11-30T15:21:51.753Z","date":"2025-11-30","time":"15:21:51"},{"task":"memory_phase","broad_category":"S","image_png":"S_Rock Gypsum_04.png","image_id":420,"category_name":"Rock Gypsum","category":27,"distinct_rating":7.61,"distinct_type":"Top","rt":null,"stimulus":"Stimuli_Rocks480/S_Rock Gypsum_04.png","response":null,"trial_type":"image-keyboard-response","trial_index":214,"plugin_version":"2.1.0","time_elapsed":415042,"subject_id":"89689","group":"Group1","full_date":"2025-11-30T15:21:51.753Z","date":"2025-11-30","time":"15:21:51"},{"rt":null,"stimulus":"<p style=\"font-size: 50px; margin: 0; text-align: center;\">+</p>","response":null,"trial_type":"html-keyboard-response","trial_index":215,"plugin_version":"2.1.0","time_elapsed":416059,"subject_id":"89689","group":"Group1","full_date":"2025-11-30T15:21:51.753Z","date":"2025-11-30","time":"15:21:51"},{"task":"memory_phase","broad_category":"S","image_png":"S_Dolomite_12.png","image_id":396,"category_name":"Dolomite","category":25,"distinct_rating":1.85,"distinct_type":"Bottom","rt":null,"stimulus":"Stimuli_Rocks480/S_Dolomite_12.png","response":null,"trial_type":"image-keyboard-response","trial_index":216,"plugin_version":"2.1.0","time_elapsed":418577,"subject_id":"89689","group":"Group1","full_date":"2025-11-30T15:21:51.753Z","date":"2025-11-30","time":"15:21:51"},{"rt":null,"stimulus":"<p style=\"font-size: 50px; margin: 0; text-align: center;\">+</p>","response":null,"trial_type":"html-keyboard-response","trial_index":217,"plugin_version":"2.1.0","time_elapsed":419594,"subject_id":"89689","group":"Group1","full_date":"2025-11-30T15:21:51.753Z","date":"2025-11-30","time":"15:21:51"},{"task":"memory_phase","broad_category":"I","image_png":"I_Basalt_09.png","image_id":25,"category_name":"Basalt","category":2,"distinct_rating":1.89,"distinct_type":"Bottom","rt":null,"stimulus":"Stimuli_Rocks480/I_Basalt_09.png","response":null,"trial_type":"image-keyboard-response","trial_index":218,"plugin_version":"2.1.0","time_elapsed":422112,"subject_id":"89689","group":"Group1","full_date":"2025-11-30T15:21:51.753Z","date":"2025-11-30","time":"15:21:51"},{"rt":null,"stimulus":"<p style=\"font-size: 50px; margin: 0; text-align: center;\">+</p>","response":null,"trial_type":"html-keyboard-response","trial_index":219,"plugin_version":"2.1.0","time_elapsed":423131,"subject_id":"89689","group":"Group1","full_date":"2025-11-30T15:21:51.753Z","date":"2025-11-30","time":"15:21:51"},{"task":"memory_phase","broad_category":"M","image_png":"M_Phyllite_10.png","image_id":266,"category_name":"Phyllite","category":17,"distinct_rating":2.6,"distinct_type":"Bottom","rt":null,"stimulus":"Stimuli_Rocks480/M_Phyllite_10.png","response":null,"trial_type":"image-keyboard-response","trial_index":220,"plugin_version":"2.1.0","time_elapsed":425647,"subject_id":"89689","group":"Group1","full_date":"2025-11-30T15:21:51.753Z","date":"2025-11-30","time":"15:21:51"},{"rt":null,"stimulus":"<p style=\"font-size: 50px; margin: 0; text-align: center;\">+</p>","response":null,"trial_type":"html-keyboard-response","trial_index":221,"plugin_version":"2.1.0","time_elapsed":426665,"subject_id":"89689","group":"Group1","full_date":"2025-11-30T15:21:51.753Z","date":"2025-11-30","time":"15:21:51"},{"task":"memory_phase","broad_category":"S","image_png":"S_Dolomite_13.png","image_id":397,"category_name":"Dolomite","category":25,"distinct_rating":1.77,"distinct_type":"Bottom","rt":null,"stimulus":"Stimuli_Rocks480/S_Dolomite_13.png","response":null,"trial_type":"image-keyboard-response","trial_index":222,"plugin_version":"2.1.0","time_elapsed":429183,"subject_id":"89689","group":"Group1","full_date":"2025-11-30T15:21:51.753Z","date":"2025-11-30","time":"15:21:51"},{"rt":null,"stimulus":"<p style=\"font-size: 50px; margin: 0; text-align: center;\">+</p>","response":null,"trial_type":"html-keyboard-response","trial_index":223,"plugin_version":"2.1.0","time_elapsed":430200,"subject_id":"89689","group":"Group1","full_date":"2025-11-30T15:21:51.753Z","date":"2025-11-30","time":"15:21:51"},{"task":"memory_phase","broad_category":"I","image_png":"I_Andesite_08.png","image_id":8,"category_name":"Andesite","category":1,"distinct_rating":1.95,"distinct_type":"Bottom","rt":null,"stimulus":"Stimuli_Rocks480/I_Andesite_08.png","response":null,"trial_type":"image-keyboard-response","trial_index":224,"plugin_version":"2.1.0","time_elapsed":432718,"subject_id":"89689","group":"Group1","full_date":"2025-11-30T15:21:51.753Z","date":"2025-11-30","time":"15:21:51"},{"rt":null,"stimulus":"<p style=\"font-size: 50px; margin: 0; text-align: center;\">+</p>","response":null,"trial_type":"html-keyboard-response","trial_index":225,"plugin_version":"2.1.0","time_elapsed":433734,"subject_id":"89689","group":"Group1","full_date":"2025-11-30T15:21:51.753Z","date":"2025-11-30","time":"15:21:51"},{"task":"memory_phase","broad_category":"M","image_png":"M_Marble_04.png","image_id":228,"category_name":"Marble","category":15,"distinct_rating":3.15,"distinct_type":"Bottom","rt":null,"stimulus":"Stimuli_Rocks480/M_Marble_04.png","response":null,"trial_type":"image-keyboard-response","trial_index":226,"plugin_version":"2.1.0","time_elapsed":436254,"subject_id":"89689","group":"Group1","full_date":"2025-11-30T15:21:51.753Z","date":"2025-11-30","time":"15:21:51"},{"rt":null,"stimulus":"<p style=\"font-size: 50px; margin: 0; text-align: center;\">+</p>","response":null,"trial_type":"html-keyboard-response","trial_index":227,"plugin_version":"2.1.0","time_elapsed":437271,"subject_id":"89689","group":"Group1","full_date":"2025-11-30T15:21:51.753Z","date":"2025-11-30","time":"15:21:51"},{"task":"memory_phase","broad_category":"M","image_png":"M_Phyllite_07.png","image_id":263,"category_name":"Phyllite","category":17,"distinct_rating":2.59,"distinct_type":"Bottom","rt":null,"stimulus":"Stimuli_Rocks480/M_Phyllite_07.png","response":null,"trial_type":"image-keyboard-response","trial_index":228,"plugin_version":"2.1.0","time_elapsed":439790,"subject_id":"89689","group":"Group1","full_date":"2025-11-30T15:21:51.753Z","date":"2025-11-30","time":"15:21:51"},{"rt":null,"stimulus":"<p style=\"font-size: 50px; margin: 0; text-align: center;\">+</p>","response":null,"trial_type":"html-keyboard-response","trial_index":229,"plugin_version":"2.1.0","time_elapsed":440798,"subject_id":"89689","group":"Group1","full_date":"2025-11-30T15:21:51.753Z","date":"2025-11-30","time":"15:21:51"},{"task":"memory_phase","broad_category":"I","image_png":"I_Pumice_08.png","image_id":136,"category_name":"Pumice","category":9,"distinct_rating":3.1,"distinct_type":"Bottom","rt":null,"stimulus":"Stimuli_Rocks480/I_Pumice_08.png","response":null,"trial_type":"image-keyboard-response","trial_index":230,"plugin_version":"2.1.0","time_elapsed":443308,"subject_id":"89689","group":"Group1","full_date":"2025-11-30T15:21:51.753Z","date":"2025-11-30","time":"15:21:51"},{"rt":null,"stimulus":"<p style=\"font-size: 50px; margin: 0; text-align: center;\">+</p>","response":null,"trial_type":"html-keyboard-response","trial_index":231,"plugin_version":"2.1.0","time_elapsed":444325,"subject_id":"89689","group":"Group1","full_date":"2025-11-30T15:21:51.753Z","date":"2025-11-30","time":"15:21:51"},{"task":"memory_phase","broad_category":"M","image_png":"M_Phyllite_03.png","image_id":259,"category_name":"Phyllite","category":17,"distinct_rating":2.5,"distinct_type":"Bottom","rt":null,"stimulus":"Stimuli_Rocks480/M_Phyllite_03.png","response":null,"trial_type":"image-keyboard-response","trial_index":232,"plugin_version":"2.1.0","time_elapsed":446844,"subject_id":"89689","group":"Group1","full_date":"2025-11-30T15:21:51.753Z","date":"2025-11-30","time":"15:21:51"},{"rt":null,"stimulus":"<p style=\"font-size: 50px; margin: 0; text-align: center;\">+</p>","response":null,"trial_type":"html-keyboard-response","trial_index":233,"plugin_version":"2.1.0","time_elapsed":447861,"subject_id":"89689","group":"Group1","full_date":"2025-11-30T15:21:51.753Z","date":"2025-11-30","time":"15:21:51"},{"task":"memory_phase","broad_category":"I","image_png":"I_Gabbro_08.png","image_id":56,"category_name":"Gabbro","category":4,"distinct_rating":3.02,"distinct_type":"Bottom","rt":null,"stimulus":"Stimuli_Rocks480/I_Gabbro_08.png","response":null,"trial_type":"image-keyboard-response","trial_index":234,"plugin_version":"2.1.0","time_elapsed":450378,"subject_id":"89689","group":"Group1","full_date":"2025-11-30T15:21:51.753Z","date":"2025-11-30","time":"15:21:51"},{"rt":null,"stimulus":"<p style=\"font-size: 50px; margin: 0; text-align: center;\">+</p>","response":null,"trial_type":"html-keyboard-response","trial_index":235,"plugin_version":"2.1.0","time_elapsed":451396,"subject_id":"89689","group":"Group1","full_date":"2025-11-30T15:21:51.753Z","date":"2025-11-30","time":"15:21:51"},{"task":"memory_phase","broad_category":"I","image_png":"I_Gabbro_11.png","image_id":59,"category_name":"Gabbro","category":4,"distinct_rating":1.99,"distinct_type":"Bottom","rt":null,"stimulus":"Stimuli_Rocks480/I_Gabbro_11.png","response":null,"trial_type":"image-keyboard-response","trial_index":236,"plugin_version":"2.1.0","time_elapsed":453914,"subject_id":"89689","group":"Group1","full_date":"2025-11-30T15:21:51.753Z","date":"2025-11-30","time":"15:21:51"},{"rt":null,"stimulus":"<p style=\"font-size: 50px; margin: 0; text-align: center;\">+</p>","response":null,"trial_type":"html-keyboard-response","trial_index":237,"plugin_version":"2.1.0","time_elapsed":454932,"subject_id":"89689","group":"Group1","full_date":"2025-11-30T15:21:51.753Z","date":"2025-11-30","time":"15:21:51"},{"task":"memory_phase","broad_category":"I","image_png":"I_Pegmatite_10.png","image_id":106,"category_name":"Pegmatite","category":7,"distinct_rating":7.66,"distinct_type":"Top","rt":null,"stimulus":"Stimuli_Rocks480/I_Pegmatite_10.png","response":null,"trial_type":"image-keyboard-response","trial_index":238,"plugin_version":"2.1.0","time_elapsed":457450,"subject_id":"89689","group":"Group1","full_date":"2025-11-30T15:21:51.753Z","date":"2025-11-30","time":"15:21:51"},{"rt":null,"stimulus":"<p style=\"font-size: 50px; margin: 0; text-align: center;\">+</p>","response":null,"trial_type":"html-keyboard-response","trial_index":239,"plugin_version":"2.1.0","time_elapsed":458469,"subject_id":"89689","group":"Group1","full_date":"2025-11-30T15:21:51.753Z","date":"2025-11-30","time":"15:21:51"},{"task":"memory_phase","broad_category":"I","image_png":"I_Gabbro_16.png","image_id":64,"category_name":"Gabbro","category":4,"distinct_rating":2.52,"distinct_type":"Bottom","rt":null,"stimulus":"Stimuli_Rocks480/I_Gabbro_16.png","response":null,"trial_type":"image-keyboard-response","trial_index":240,"plugin_version":"2.1.0","time_elapsed":460986,"subject_id":"89689","group":"Group1","full_date":"2025-11-30T15:21:51.753Z","date":"2025-11-30","time":"15:21:51"},{"rt":null,"stimulus":"<p style=\"font-size: 50px; margin: 0; text-align: center;\">+</p>","response":null,"trial_type":"html-keyboard-response","trial_index":241,"plugin_version":"2.1.0","time_elapsed":462003,"subject_id":"89689","group":"Group1","full_date":"2025-11-30T15:21:51.753Z","date":"2025-11-30","time":"15:21:51"},{"task":"memory_phase","broad_category":"I","image_png":"I_Diorite_03.png","image_id":35,"category_name":"Diorite","category":3,"distinct_rating":3.14,"distinct_type":"Bottom","rt":null,"stimulus":"Stimuli_Rocks480/I_Diorite_03.png","response":null,"trial_type":"image-keyboard-response","trial_index":242,"plugin_version":"2.1.0","time_elapsed":464521,"subject_id":"89689","group":"Group1","full_date":"2025-11-30T15:21:51.753Z","date":"2025-11-30","time":"15:21:51"},{"rt":null,"stimulus":"<p style=\"font-size: 50px; margin: 0; text-align: center;\">+</p>","response":null,"trial_type":"html-keyboard-response","trial_index":243,"plugin_version":"2.1.0","time_elapsed":465539,"subject_id":"89689","group":"Group1","full_date":"2025-11-30T15:21:51.753Z","date":"2025-11-30","time":"15:21:51"},{"task":"memory_phase","broad_category":"M","image_png":"M_Marble_06.png","image_id":230,"category_name":"Marble","category":15,"distinct_rating":3.4,"distinct_type":"Bottom","rt":null,"stimulus":"Stimuli_Rocks480/M_Marble_06.png","response":null,"trial_type":"image-keyboard-response","trial_index":244,"plugin_version":"2.1.0","time_elapsed":468057,"subject_id":"89689","group":"Group1","full_date":"2025-11-30T15:21:51.753Z","date":"2025-11-30","time":"15:21:51"},{"rt":null,"stimulus":"<p style=\"font-size: 50px; margin: 0; text-align: center;\">+</p>","response":null,"trial_type":"html-keyboard-response","trial_index":245,"plugin_version":"2.1.0","time_elapsed":469073,"subject_id":"89689","group":"Group1","full_date":"2025-11-30T15:21:51.753Z","date":"2025-11-30","time":"15:21:51"},{"task":"memory_phase","broad_category":"S","image_png":"S_Shale_12.png","image_id":476,"category_name":"Shale","category":30,"distinct_rating":2.48,"distinct_type":"Bottom","rt":null,"stimulus":"Stimuli_Rocks480/S_Shale_12.png","response":null,"trial_type":"image-keyboard-response","trial_index":246,"plugin_version":"2.1.0","time_elapsed":471592,"subject_id":"89689","group":"Group1","full_date":"2025-11-30T15:21:51.753Z","date":"2025-11-30","time":"15:21:51"},{"rt":null,"stimulus":"<p style=\"font-size: 50px; margin: 0; text-align: center;\">+</p>","response":null,"trial_type":"html-keyboard-response","trial_index":247,"plugin_version":"2.1.0","time_elapsed":472609,"subject_id":"89689","group":"Group1","full_date":"2025-11-30T15:21:51.753Z","date":"2025-11-30","time":"15:21:51"},{"task":"memory_phase","broad_category":"I","image_png":"I_Basalt_01.png","image_id":17,"category_name":"Basalt","category":2,"distinct_rating":1.92,"distinct_type":"Bottom","rt":null,"stimulus":"Stimuli_Rocks480/I_Basalt_01.png","response":null,"trial_type":"image-keyboard-response","trial_index":248,"plugin_version":"2.1.0","time_elapsed":475127,"subject_id":"89689","group":"Group1"