[{"width":1470,"height":831,"webaudio":true,"browser":"chrome","browser_version":"141.0.0","mobile":false,"os":"Mac OS","fullscreen":true,"vsync_rate":60.01,"webcam":true,"microphone":true,"trial_type":"browser-check","trial_index":0,"plugin_version":"2.1.0","time_elapsed":1011,"subject_id":"87691","group":"Group1","full_date":"2025-12-02T23:35:41.089Z","date":"2025-12-02","time":"23:35:41"},{"success":true,"timeout":false,"failed_images":[],"failed_audio":[],"failed_video":[],"trial_type":"preload","trial_index":1,"plugin_version":"2.1.0","time_elapsed":3512,"subject_id":"87691","group":"Group1","full_date":"2025-12-02T23:35:41.089Z","date":"2025-12-02","time":"23:35:41"},{"rt":110244,"url":"SONA_consent_memorability.html","trial_type":"external-html","trial_index":2,"plugin_version":"2.1.0","time_elapsed":113808,"subject_id":"87691","group":"Group1","full_date":"2025-12-02T23:35:41.089Z","date":"2025-12-02","time":"23:35:41"},{"success":true,"rt":1115,"trial_type":"fullscreen","trial_index":3,"plugin_version":"2.1.0","time_elapsed":115926,"subject_id":"87691","group":"Group1","full_date":"2025-12-02T23:35:41.089Z","date":"2025-12-02","time":"23:35:41"},{"rt":36328,"stimulus":"<div style=\"max-width: 760px; margin: auto; font-size: 20px; line-height: 1.5;\">\n      <h1 style=\"text-align:center; font-size: 30px;\">Instructions</h1>\n      <p>\n        Welcome to the study on <b>visual memory</b>. This experiment consists of <b>two phases</b>: \n        a <b>study phase</b> and a <b>test phase</b>.\n      </p>\n      <p>\n        In the study phase, you will see a series of rock images along with their category labels.\n        The images will appear one at a time.\n        <b>Your task</b> is to learn the categories to which the rock images belong \n        and to remember each image as accurately as possible.\n      </p> \n      <p>\n        Note that we will repeat the study phase <b>3 times</b>, \n        so you will have multiple opportunities to see and remember each image.\n      </p>\n      <p>\n        After the study phase, <b>your memory will be tested</b>. \n        Additional instructions for the test phase will be provided at that time.\n      </p>\n      <p>\n        If your computer has multiple <b>language settings</b> (e.g., English and another language),\n        please make sure it is set to English before starting.\n      </p>\n      <p>\n        You can track your progress using the <b>completion bar</b> at the top of the screen. \n        Please note that the bar will refresh when the test phase begins \n        to give you an accurate sense of your progress in both phases.\n      </p> \n      <p>\n        Press the button below when you are ready to begin.\n      </p>\n    </div>","response":0,"trial_type":"html-button-response","trial_index":4,"plugin_version":"2.1.0","time_elapsed":152257,"subject_id":"87691","group":"Group1","full_date":"2025-12-02T23:35:41.089Z","date":"2025-12-02","time":"23:35:41"},{"rt":null,"stimulus":"<p style=\"font-size: 50px; margin: 0; text-align: center;\">+</p>","response":null,"trial_type":"html-keyboard-response","trial_index":5,"plugin_version":"2.1.0","time_elapsed":153260,"subject_id":"87691","group":"Group1","full_date":"2025-12-02T23:35:41.089Z","date":"2025-12-02","time":"23:35:41"},{"task":"memory_phase","broad_category":"S","image_png":"S_Shale_08.png","image_id":472,"category_name":"Shale","category":30,"distinct_rating":2.55,"distinct_type":"Bottom","rt":null,"stimulus":"Stimuli_Rocks480/S_Shale_08.png","response":null,"trial_type":"image-keyboard-response","trial_index":6,"plugin_version":"2.1.0","time_elapsed":155766,"subject_id":"87691","group":"Group1","full_date":"2025-12-02T23:35:41.089Z","date":"2025-12-02","time":"23:35:41"},{"rt":null,"stimulus":"<p style=\"font-size: 50px; margin: 0; text-align: center;\">+</p>","response":null,"trial_type":"html-keyboard-response","trial_index":7,"plugin_version":"2.1.0","time_elapsed":156769,"subject_id":"87691","group":"Group1","full_date":"2025-12-02T23:35:41.089Z","date":"2025-12-02","time":"23:35:41"},{"task":"memory_phase","broad_category":"M","image_png":"M_Phyllite_10.png","image_id":266,"category_name":"Phyllite","category":17,"distinct_rating":2.6,"distinct_type":"Bottom","rt":null,"stimulus":"Stimuli_Rocks480/M_Phyllite_10.png","response":null,"trial_type":"image-keyboard-response","trial_index":8,"plugin_version":"2.1.0","time_elapsed":159273,"subject_id":"87691","group":"Group1","full_date":"2025-12-02T23:35:41.089Z","date":"2025-12-02","time":"23:35:41"},{"rt":null,"stimulus":"<p style=\"font-size: 50px; margin: 0; text-align: center;\">+</p>","response":null,"trial_type":"html-keyboard-response","trial_index":9,"plugin_version":"2.1.0","time_elapsed":160275,"subject_id":"87691","group":"Group1","full_date":"2025-12-02T23:35:41.089Z","date":"2025-12-02","time":"23:35:41"},{"task":"memory_phase","broad_category":"S","image_png":"S_Dolomite_13.png","image_id":397,"category_name":"Dolomite","category":25,"distinct_rating":1.77,"distinct_type":"Bottom","rt":null,"stimulus":"Stimuli_Rocks480/S_Dolomite_13.png","response":null,"trial_type":"image-keyboard-response","trial_index":10,"plugin_version":"2.1.0","time_elapsed":162779,"subject_id":"87691","group":"Group1","full_date":"2025-12-02T23:35:41.089Z","date":"2025-12-02","time":"23:35:41"},{"rt":null,"stimulus":"<p style=\"font-size: 50px; margin: 0; text-align: center;\">+</p>","response":null,"trial_type":"html-keyboard-response","trial_index":11,"plugin_version":"2.1.0","time_elapsed":163782,"subject_id":"87691","group":"Group1","full_date":"2025-12-02T23:35:41.089Z","date":"2025-12-02","time":"23:35:41"},{"task":"memory_phase","broad_category":"M","image_png":"M_Gneiss_13.png","image_id":205,"category_name":"Gneiss","category":13,"distinct_rating":3.26,"distinct_type":"Bottom","rt":null,"stimulus":"Stimuli_Rocks480/M_Gneiss_13.png","response":null,"trial_type":"image-keyboard-response","trial_index":12,"plugin_version":"2.1.0","time_elapsed":166285,"subject_id":"87691","group":"Group1","full_date":"2025-12-02T23:35:41.089Z","date":"2025-12-02","time":"23:35:41"},{"rt":null,"stimulus":"<p style=\"font-size: 50px; margin: 0; text-align: center;\">+</p>","response":null,"trial_type":"html-keyboard-response","trial_index":13,"plugin_version":"2.1.0","time_elapsed":167287,"subject_id":"87691","group":"Group1","full_date":"2025-12-02T23:35:41.089Z","date":"2025-12-02","time":"23:35:41"},{"task":"memory_phase","broad_category":"S","image_png":"S_Breccia_11.png","image_id":347,"category_name":"Breccia","category":22,"distinct_rating":6.7,"distinct_type":"Top","rt":null,"stimulus":"Stimuli_Rocks480/S_Breccia_11.png","response":null,"trial_type":"image-keyboard-response","trial_index":14,"plugin_version":"2.1.0","time_elapsed":169790,"subject_id":"87691","group":"Group1","full_date":"2025-12-02T23:35:41.089Z","date":"2025-12-02","time":"23:35:41"},{"rt":null,"stimulus":"<p style=\"font-size: 50px; margin: 0; text-align: center;\">+</p>","response":null,"trial_type":"html-keyboard-response","trial_index":15,"plugin_version":"2.1.0","time_elapsed":170793,"subject_id":"87691","group":"Group1","full_date":"2025-12-02T23:35:41.089Z","date":"2025-12-02","time":"23:35:41"},{"task":"memory_phase","broad_category":"S","image_png":"S_Sandstone_15.png","image_id":463,"category_name":"Sandstone","category":29,"distinct_rating":2,"distinct_type":"Bottom","rt":null,"stimulus":"Stimuli_Rocks480/S_Sandstone_15.png","response":null,"trial_type":"image-keyboard-response","trial_index":16,"plugin_version":"2.1.0","time_elapsed":173296,"subject_id":"87691","group":"Group1","full_date":"2025-12-02T23:35:41.089Z","date":"2025-12-02","time":"23:35:41"},{"rt":null,"stimulus":"<p style=\"font-size: 50px; margin: 0; text-align: center;\">+</p>","response":null,"trial_type":"html-keyboard-response","trial_index":17,"plugin_version":"2.1.0","time_elapsed":174297,"subject_id":"87691","group":"Group1","full_date":"2025-12-02T23:35:41.089Z","date":"2025-12-02","time":"23:35:41"},{"task":"memory_phase","broad_category":"S","image_png":"S_Conglomerate_05.png","image_id":373,"category_name":"Conglomerate","category":24,"distinct_rating":7.32,"distinct_type":"Top","rt":null,"stimulus":"Stimuli_Rocks480/S_Conglomerate_05.png","response":null,"trial_type":"image-keyboard-response","trial_index":18,"plugin_version":"2.1.0","time_elapsed":176801,"subject_id":"87691","group":"Group1","full_date":"2025-12-02T23:35:41.089Z","date":"2025-12-02","time":"23:35:41"},{"rt":null,"stimulus":"<p style=\"font-size: 50px; margin: 0; text-align: center;\">+</p>","response":null,"trial_type":"html-keyboard-response","trial_index":19,"plugin_version":"2.1.0","time_elapsed":177803,"subject_id":"87691","group":"Group1","full_date":"2025-12-02T23:35:41.089Z","date":"2025-12-02","time":"23:35:41"},{"task":"memory_phase","broad_category":"S","image_png":"S_Shale_12.png","image_id":476,"category_name":"Shale","category":30,"distinct_rating":2.48,"distinct_type":"Bottom","rt":null,"stimulus":"Stimuli_Rocks480/S_Shale_12.png","response":null,"trial_type":"image-keyboard-response","trial_index":20,"plugin_version":"2.1.0","time_elapsed":180306,"subject_id":"87691","group":"Group1","full_date":"2025-12-02T23:35:41.089Z","date":"2025-12-02","time":"23:35:41"},{"rt":null,"stimulus":"<p style=\"font-size: 50px; margin: 0; text-align: center;\">+</p>","response":null,"trial_type":"html-keyboard-response","trial_index":21,"plugin_version":"2.1.0","time_elapsed":181308,"subject_id":"87691","group":"Group1","full_date":"2025-12-02T23:35:41.089Z","date":"2025-12-02","time":"23:35:41"},{"task":"memory_phase","broad_category":"I","image_png":"I_Rhyolite_14.png","image_id":158,"category_name":"Rhyolite","category":10,"distinct_rating":2.59,"distinct_type":"Bottom","rt":null,"stimulus":"Stimuli_Rocks480/I_Rhyolite_14.png","response":null,"trial_type":"image-keyboard-response","trial_index":22,"plugin_version":"2.1.0","time_elapsed":183811,"subject_id":"87691","group":"Group1","full_date":"2025-12-02T23:35:41.089Z","date":"2025-12-02","time":"23:35:41"},{"rt":null,"stimulus":"<p style=\"font-size: 50px; margin: 0; text-align: center;\">+</p>","response":null,"trial_type":"html-keyboard-response","trial_index":23,"plugin_version":"2.1.0","time_elapsed":184814,"subject_id":"87691","group":"Group1","full_date":"2025-12-02T23:35:41.089Z","date":"2025-12-02","time":"23:35:41"},{"task":"memory_phase","broad_category":"I","image_png":"I_Pumice_08.png","image_id":136,"category_name":"Pumice","category":9,"distinct_rating":3.1,"distinct_type":"Bottom","rt":null,"stimulus":"Stimuli_Rocks480/I_Pumice_08.png","response":null,"trial_type":"image-keyboard-response","trial_index":24,"plugin_version":"2.1.0","time_elapsed":187317,"subject_id":"87691","group":"Group1","full_date":"2025-12-02T23:35:41.089Z","date":"2025-12-02","time":"23:35:41"},{"rt":null,"stimulus":"<p style=\"font-size: 50px; margin: 0; text-align: center;\">+</p>","response":null,"trial_type":"html-keyboard-response","trial_index":25,"plugin_version":"2.1.0","time_elapsed":188320,"subject_id":"87691","group":"Group1","full_date":"2025-12-02T23:35:41.089Z","date":"2025-12-02","time":"23:35:41"},{"task":"memory_phase","broad_category":"I","image_png":"I_Gabbro_16.png","image_id":64,"category_name":"Gabbro","category":4,"distinct_rating":2.52,"distinct_type":"Bottom","rt":null,"stimulus":"Stimuli_Rocks480/I_Gabbro_16.png","response":null,"trial_type":"image-keyboard-response","trial_index":26,"plugin_version":"2.1.0","time_elapsed":190823,"subject_id":"87691","group":"Group1","full_date":"2025-12-02T23:35:41.089Z","date":"2025-12-02","time":"23:35:41"},{"rt":null,"stimulus":"<p style=\"font-size: 50px; margin: 0; text-align: center;\">+</p>","response":null,"trial_type":"html-keyboard-response","trial_index":27,"plugin_version":"2.1.0","time_elapsed":191825,"subject_id":"87691","group":"Group1","full_date":"2025-12-02T23:35:41.089Z","date":"2025-12-02","time":"23:35:41"},{"task":"memory_phase","broad_category":"I","image_png":"I_Andesite_08.png","image_id":8,"category_name":"Andesite","category":1,"distinct_rating":1.95,"distinct_type":"Bottom","rt":null,"stimulus":"Stimuli_Rocks480/I_Andesite_08.png","response":null,"trial_type":"image-keyboard-response","trial_index":28,"plugin_version":"2.1.0","time_elapsed":194328,"subject_id":"87691","group":"Group1","full_date":"2025-12-02T23:35:41.089Z","date":"2025-12-02","time":"23:35:41"},{"rt":null,"stimulus":"<p style=\"font-size: 50px; margin: 0; text-align: center;\">+</p>","response":null,"trial_type":"html-keyboard-response","trial_index":29,"plugin_version":"2.1.0","time_elapsed":195331,"subject_id":"87691","group":"Group1","full_date":"2025-12-02T23:35:41.089Z","date":"2025-12-02","time":"23:35:41"},{"task":"memory_phase","broad_category":"I","image_png":"I_Andesite_10.png","image_id":10,"category_name":"Andesite","category":1,"distinct_rating":3.15,"distinct_type":"Bottom","rt":null,"stimulus":"Stimuli_Rocks480/I_Andesite_10.png","response":null,"trial_type":"image-keyboard-response","trial_index":30,"plugin_version":"2.1.0","time_elapsed":197835,"subject_id":"87691","group":"Group1","full_date":"2025-12-02T23:35:41.089Z","date":"2025-12-02","time":"23:35:41"},{"rt":null,"stimulus":"<p style=\"font-size: 50px; margin: 0; text-align: center;\">+</p>","response":null,"trial_type":"html-keyboard-response","trial_index":31,"plugin_version":"2.1.0","time_elapsed":198837,"subject_id":"87691","group":"Group1","full_date":"2025-12-02T23:35:41.089Z","date":"2025-12-02","time":"23:35:41"},{"task":"memory_phase","broad_category":"I","image_png":"I_Pegmatite_16.png","image_id":112,"category_name":"Pegmatite","category":7,"distinct_rating":7.03,"distinct_type":"Top","rt":null,"stimulus":"Stimuli_Rocks480/I_Pegmatite_16.png","response":null,"trial_type":"image-keyboard-response","trial_index":32,"plugin_version":"2.1.0","time_elapsed":201340,"subject_id":"87691","group":"Group1","full_date":"2025-12-02T23:35:41.089Z","date":"2025-12-02","time":"23:35:41"},{"rt":null,"stimulus":"<p style=\"font-size: 50px; margin: 0; text-align: center;\">+</p>","response":null,"trial_type":"html-keyboard-response","trial_index":33,"plugin_version":"2.1.0","time_elapsed":202343,"subject_id":"87691","group":"Group1","full_date":"2025-12-02T23:35:41.089Z","date":"2025-12-02","time":"23:35:41"},{"task":"memory_phase","broad_category":"I","image_png":"I_Andesite_06.png","image_id":6,"category_name":"Andesite","category":1,"distinct_rating":3.17,"distinct_type":"Bottom","rt":null,"stimulus":"Stimuli_Rocks480/I_Andesite_06.png","response":null,"trial_type":"image-keyboard-response","trial_index":34,"plugin_version":"2.1.0","time_elapsed":204846,"subject_id":"87691","group":"Group1","full_date":"2025-12-02T23:35:41.089Z","date":"2025-12-02","time":"23:35:41"},{"rt":null,"stimulus":"<p style=\"font-size: 50px; margin: 0; text-align: center;\">+</p>","response":null,"trial_type":"html-keyboard-response","trial_index":35,"plugin_version":"2.1.0","time_elapsed":205848,"subject_id":"87691","group":"Group1","full_date":"2025-12-02T23:35:41.089Z","date":"2025-12-02","time":"23:35:41"},{"task":"memory_phase","broad_category":"S","image_png":"S_Sandstone_16.png","image_id":464,"category_name":"Sandstone","category":29,"distinct_rating":1.93,"distinct_type":"Bottom","rt":null,"stimulus":"Stimuli_Rocks480/S_Sandstone_16.png","response":null,"trial_type":"image-keyboard-response","trial_index":36,"plugin_version":"2.1.0","time_elapsed":208352,"subject_id":"87691","group":"Group1","full_date":"2025-12-02T23:35:41.089Z","date":"2025-12-02","time":"23:35:41"},{"rt":null,"stimulus":"<p style=\"font-size: 50px; margin: 0; text-align: center;\">+</p>","response":null,"trial_type":"html-keyboard-response","trial_index":37,"plugin_version":"2.1.0","time_elapsed":209354,"subject_id":"87691","group":"Group1","full_date":"2025-12-02T23:35:41.089Z","date":"2025-12-02","time":"23:35:41"},{"task":"memory_phase","broad_category":"S","image_png":"S_Dolomite_12.png","image_id":396,"category_name":"Dolomite","category":25,"distinct_rating":1.85,"distinct_type":"Bottom","rt":null,"stimulus":"Stimuli_Rocks480/S_Dolomite_12.png","response":null,"trial_type":"image-keyboard-response","trial_index":38,"plugin_version":"2.1.0","time_elapsed":211857,"subject_id":"87691","group":"Group1","full_date":"2025-12-02T23:35:41.089Z","date":"2025-12-02","time":"23:35:41"},{"rt":null,"stimulus":"<p style=\"font-size: 50px; margin: 0; text-align: center;\">+</p>","response":null,"trial_type":"html-keyboard-response","trial_index":39,"plugin_version":"2.1.0","time_elapsed":212860,"subject_id":"87691","group":"Group1","full_date":"2025-12-02T23:35:41.089Z","date":"2025-12-02","time":"23:35:41"},{"task":"memory_phase","broad_category":"M","image_png":"M_Gneiss_06.png","image_id":198,"category_name":"Gneiss","category":13,"distinct_rating":2.65,"distinct_type":"Bottom","rt":null,"stimulus":"Stimuli_Rocks480/M_Gneiss_06.png","response":null,"trial_type":"image-keyboard-response","trial_index":40,"plugin_version":"2.1.0","time_elapsed":215364,"subject_id":"87691","group":"Group1","full_date":"2025-12-02T23:35:41.089Z","date":"2025-12-02","time":"23:35:41"},{"rt":null,"stimulus":"<p style=\"font-size: 50px; margin: 0; text-align: center;\">+</p>","response":null,"trial_type":"html-keyboard-response","trial_index":41,"plugin_version":"2.1.0","time_elapsed":216366,"subject_id":"87691","group":"Group1","full_date":"2025-12-02T23:35:41.089Z","date":"2025-12-02","time":"23:35:41"},{"task":"memory_phase","broad_category":"S","image_png":"S_Sandstone_03.png","image_id":451,"category_name":"Sandstone","category":29,"distinct_rating":1.86,"distinct_type":"Bottom","rt":null,"stimulus":"Stimuli_Rocks480/S_Sandstone_03.png","response":null,"trial_type":"image-keyboard-response","trial_index":42,"plugin_version":"2.1.0","time_elapsed":218869,"subject_id":"87691","group":"Group1","full_date":"2025-12-02T23:35:41.089Z","date":"2025-12-02","time":"23:35:41"},{"rt":null,"stimulus":"<p style=\"font-size: 50px; margin: 0; text-align: center;\">+</p>","response":null,"trial_type":"html-keyboard-response","trial_index":43,"plugin_version":"2.1.0","time_elapsed":219871,"subject_id":"87691","group":"Group1","full_date":"2025-12-02T23:35:41.089Z","date":"2025-12-02","time":"23:35:41"},{"task":"memory_phase","broad_category":"I","image_png":"I_Rhyolite_11.png","image_id":155,"category_name":"Rhyolite","category":10,"distinct_rating":1.73,"distinct_type":"Bottom","rt":null,"stimulus":"Stimuli_Rocks480/I_Rhyolite_11.png","response":null,"trial_type":"image-keyboard-response","trial_index":44,"plugin_version":"2.1.0","time_elapsed":222374,"subject_id":"87691","group":"Group1","full_date":"2025-12-02T23:35:41.089Z","date":"2025-12-02","time":"23:35:41"},{"rt":null,"stimulus":"<p style=\"font-size: 50px; margin: 0; text-align: center;\">+</p>","response":null,"trial_type":"html-keyboard-response","trial_index":45,"plugin_version":"2.1.0","time_elapsed":223377,"subject_id":"87691","group":"Group1","full_date":"2025-12-02T23:35:41.089Z","date":"2025-12-02","time":"23:35:41"},{"task":"memory_phase","broad_category":"M","image_png":"M_Marble_04.png","image_id":228,"category_name":"Marble","category":15,"distinct_rating":3.15,"distinct_type":"Bottom","rt":null,"stimulus":"Stimuli_Rocks480/M_Marble_04.png","response":null,"trial_type":"image-keyboard-response","trial_index":46,"plugin_version":"2.1.0","time_elapsed":225879,"subject_id":"87691","group":"Group1","full_date":"2025-12-02T23:35:41.089Z","date":"2025-12-02","time":"23:35:41"},{"rt":null,"stimulus":"<p style=\"font-size: 50px; margin: 0; text-align: center;\">+</p>","response":null,"trial_type":"html-keyboard-response","trial_index":47,"plugin_version":"2.1.0","time_elapsed":226882,"subject_id":"87691","group":"Group1","full_date":"2025-12-02T23:35:41.089Z","date":"2025-12-02","time":"23:35:41"},{"task":"memory_phase","broad_category":"M","image_png":"M_Marble_06.png","image_id":230,"category_name":"Marble","category":15,"distinct_rating":3.4,"distinct_type":"Bottom","rt":null,"stimulus":"Stimuli_Rocks480/M_Marble_06.png","response":null,"trial_type":"image-keyboard-response","trial_index":48,"plugin_version":"2.1.0","time_elapsed":229386,"subject_id":"87691","group":"Group1","full_date":"2025-12-02T23:35:41.089Z","date":"2025-12-02","time":"23:35:41"},{"rt":null,"stimulus":"<p style=\"font-size: 50px; margin: 0; text-align: center;\">+</p>","response":null,"trial_type":"html-keyboard-response","trial_index":49,"plugin_version":"2.1.0","time_elapsed":230388,"subject_id":"87691","group":"Group1","full_date":"2025-12-02T23:35:41.089Z","date":"2025-12-02","time":"23:35:41"},{"task":"memory_phase","broad_category":"S","image_png":"S_Chert_10.png","image_id":362,"category_name":"Chert","category":23,"distinct_rating":7.17,"distinct_type":"Top","rt":null,"stimulus":"Stimuli_Rocks480/S_Chert_10.png","response":null,"trial_type":"image-keyboard-response","trial_index":50,"plugin_version":"2.1.0","time_elapsed":232891,"subject_id":"87691","group":"Group1","full_date":"2025-12-02T23:35:41.089Z","date":"2025-12-02","time":"23:35:41"},{"rt":null,"stimulus":"<p style=\"font-size: 50px; margin: 0; text-align: center;\">+</p>","response":null,"trial_type":"html-keyboard-response","trial_index":51,"plugin_version":"2.1.0","time_elapsed":233893,"subject_id":"87691","group":"Group1","full_date":"2025-12-02T23:35:41.089Z","date":"2025-12-02","time":"23:35:41"},{"task":"memory_phase","broad_category":"I","image_png":"I_Rhyolite_16.png","image_id":160,"category_name":"Rhyolite","category":10,"distinct_rating":2.19,"distinct_type":"Bottom","rt":null,"stimulus":"Stimuli_Rocks480/I_Rhyolite_16.png","response":null,"trial_type":"image-keyboard-response","trial_index":52,"plugin_version":"2.1.0","time_elapsed":236395,"subject_id":"87691","group":"Group1","full_date":"2025-12-02T23:35:41.089Z","date":"2025-12-02","time":"23:35:41"},{"rt":null,"stimulus":"<p style=\"font-size: 50px; margin: 0; text-align: center;\">+</p>","response":null,"trial_type":"html-keyboard-response","trial_index":53,"plugin_version":"2.1.0","time_elapsed":237397,"subject_id":"87691","group":"Group1","full_date":"2025-12-02T23:35:41.089Z","date":"2025-12-02","time":"23:35:41"},{"task":"memory_phase","broad_category":"M","image_png":"M_Marble_16.png","image_id":240,"category_name":"Marble","category":15,"distinct_rating":2.57,"distinct_type":"Bottom","rt":null,"stimulus":"Stimuli_Rocks480/M_Marble_16.png","response":null,"trial_type":"image-keyboard-response","trial_index":54,"plugin_version":"2.1.0","time_elapsed":239901,"subject_id":"87691","group":"Group1","full_date":"2025-12-02T23:35:41.089Z","date":"2025-12-02","time":"23:35:41"},{"rt":1819,"stimulus":"<p style=\"max-width: 760px; margin: auto; font-size: 35px; line-height: 1.5;\">Press SPACE to continue study phase</p>","response":" ","trial_type":"html-keyboard-response","trial_index":55,"plugin_version":"2.1.0","time_elapsed":241721,"subject_id":"87691","group":"Group1","full_date":"2025-12-02T23:35:41.089Z","date":"2025-12-02","time":"23:35:41"},{"rt":null,"stimulus":"<p style=\"font-size: 50px; margin: 0; text-align: center;\">+</p>","response":null,"trial_type":"html-keyboard-response","trial_index":56,"plugin_version":"2.1.0","time_elapsed":242724,"subject_id":"87691","group":"Group1","full_date":"2025-12-02T23:35:41.089Z","date":"2025-12-02","time":"23:35:41"},{"task":"memory_phase","broad_category":"I","image_png":"I_Pumice_11.png","image_id":139,"category_name":"Pumice","category":9,"distinct_rating":1.74,"distinct_type":"Bottom","rt":null,"stimulus":"Stimuli_Rocks480/I_Pumice_11.png","response":null,"trial_type":"image-keyboard-response","trial_index":57,"plugin_version":"2.1.0","time_elapsed":245227,"subject_id":"87691","group":"Group1","full_date":"2025-12-02T23:35:41.089Z","date":"2025-12-02","time":"23:35:41"},{"rt":null,"stimulus":"<p style=\"font-size: 50px; margin: 0; text-align: center;\">+</p>","response":null,"trial_type":"html-keyboard-response","trial_index":58,"plugin_version":"2.1.0","time_elapsed":246230,"subject_id":"87691","group":"Group1","full_date":"2025-12-02T23:35:41.089Z","date":"2025-12-02","time":"23:35:41"},{"task":"memory_phase","broad_category":"I","image_png":"I_Diorite_03.png","image_id":35,"category_name":"Diorite","category":3,"distinct_rating":3.14,"distinct_type":"Bottom","rt":null,"stimulus":"Stimuli_Rocks480/I_Diorite_03.png","response":null,"trial_type":"image-keyboard-response","trial_index":59,"plugin_version":"2.1.0","time_elapsed":248733,"subject_id":"87691","group":"Group1","full_date":"2025-12-02T23:35:41.089Z","date":"2025-12-02","time":"23:35:41"},{"rt":null,"stimulus":"<p style=\"font-size: 50px; margin: 0; text-align: center;\">+</p>","response":null,"trial_type":"html-keyboard-response","trial_index":60,"plugin_version":"2.1.0","time_elapsed":249736,"subject_id":"87691","group":"Group1","full_date":"2025-12-02T23:35:41.089Z","date":"2025-12-02","time":"23:35:41"},{"task":"memory_phase","broad_category":"I","image_png":"I_Obsidian_05.png","image_id":85,"category_name":"Obsidian","category":6,"distinct_rating":7.32,"distinct_type":"Top","rt":null,"stimulus":"Stimuli_Rocks480/I_Obsidian_05.png","response":null,"trial_type":"image-keyboard-response","trial_index":61,"plugin_version":"2.1.0","time_elapsed":252239,"subject_id":"87691","group":"Group1","full_date":"2025-12-02T23:35:41.089Z","date":"2025-12-02","time":"23:35:41"},{"rt":null,"stimulus":"<p style=\"font-size: 50px; margin: 0; text-align: center;\">+</p>","response":null,"trial_type":"html-keyboard-response","trial_index":62,"plugin_version":"2.1.0","time_elapsed":253241,"subject_id":"87691","group":"Group1","full_date":"2025-12-02T23:35:41.089Z","date":"2025-12-02","time":"23:35:41"},{"task":"memory_phase","broad_category":"S","image_png":"S_Dolomite_14.png","image_id":398,"category_name":"Dolomite","category":25,"distinct_rating":1.43,"distinct_type":"Bottom","rt":null,"stimulus":"Stimuli_Rocks480/S_Dolomite_14.png","response":null,"trial_type":"image-keyboard-response","trial_index":63,"plugin_version":"2.1.0","time_elapsed":255744,"subject_id":"87691","group":"Group1","full_date":"2025-12-02T23:35:41.089Z","date":"2025-12-02","time":"23:35:41"},{"rt":null,"stimulus":"<p style=\"font-size: 50px; margin: 0; text-align: center;\">+</p>","response":null,"trial_type":"html-keyboard-response","trial_index":64,"plugin_version":"2.1.0","time_elapsed":256747,"subject_id":"87691","group":"Group1","full_date":"2025-12-02T23:35:41.089Z","date":"2025-12-02","time":"23:35:41"},{"task":"memory_phase","broad_category":"I","image_png":"I_Basalt_01.png","image_id":17,"category_name":"Basalt","category":2,"distinct_rating":1.92,"distinct_type":"Bottom","rt":null,"stimulus":"Stimuli_Rocks480/I_Basalt_01.png","response":null,"trial_type":"image-keyboard-response","trial_index":65,"plugin_version":"2.1.0","time_elapsed":259250,"subject_id":"87691","group":"Group1","full_date":"2025-12-02T23:35:41.089Z","date":"2025-12-02","time":"23:35:41"},{"rt":null,"stimulus":"<p style=\"font-size: 50px; margin: 0; text-align: center;\">+</p>","response":null,"trial_type":"html-keyboard-response","trial_index":66,"plugin_version":"2.1.0","time_elapsed":260251,"subject_id":"87691","group":"Group1","full_date":"2025-12-02T23:35:41.089Z","date":"2025-12-02","time":"23:35:41"},{"task":"memory_phase","broad_category":"I","image_png":"I_Diorite_04.png","image_id":36,"category_name":"Diorite","category":3,"distinct_rating":2.98,"distinct_type":"Bottom","rt":null,"stimulus":"Stimuli_Rocks480/I_Diorite_04.png","response":null,"trial_type":"image-keyboard-response","trial_index":67,"plugin_version":"2.1.0","time_elapsed":262755,"subject_id":"87691","group":"Group1","full_date":"2025-12-02T23:35:41.089Z","date":"2025-12-02","time":"23:35:41"},{"rt":null,"stimulus":"<p style=\"font-size: 50px; margin: 0; text-align: center;\">+</p>","response":null,"trial_type":"html-keyboard-response","trial_index":68,"plugin_version":"2.1.0","time_elapsed":263757,"subject_id":"87691","group":"Group1","full_date":"2025-12-02T23:35:41.089Z","date":"2025-12-02","time":"23:35:41"},{"task":"memory_phase","broad_category":"I","image_png":"I_Diorite_05.png","image_id":37,"category_name":"Diorite","category":3,"distinct_rating":3.08,"distinct_type":"Bottom","rt":null,"stimulus":"Stimuli_Rocks480/I_Diorite_05.png","response":null,"trial_type":"image-keyboard-response","trial_index":69,"plugin_version":"2.1.0","time_elapsed":266260,"subject_id":"87691","group":"Group1","full_date":"2025-12-02T23:35:41.089Z","date":"2025-12-02","time":"23:35:41"},{"rt":null,"stimulus":"<p style=\"font-size: 50px; margin: 0; text-align: center;\">+</p>","response":null,"trial_type":"html-keyboard-response","trial_index":70,"plugin_version":"2.1.0","time_elapsed":267262,"subject_id":"87691","group":"Group1","full_date":"2025-12-02T23:35:41.089Z","date":"2025-12-02","time":"23:35:41"},{"task":"memory_phase","broad_category":"M","image_png":"M_Slate_03.png","image_id":307,"category_name":"Slate","category":20,"distinct_rating":1.87,"distinct_type":"Bottom","rt":null,"stimulus":"Stimuli_Rocks480/M_Slate_03.png","response":null,"trial_type":"image-keyboard-response","trial_index":71,"plugin_version":"2.1.0","time_elapsed":269765,"subject_id":"87691","group":"Group1","full_date":"2025-12-02T23:35:41.089Z","date":"2025-12-02","time":"23:35:41"},{"rt":null,"stimulus":"<p style=\"font-size: 50px; margin: 0; text-align: center;\">+</p>","response":null,"trial_type":"html-keyboard-response","trial_index":72,"plugin_version":"2.1.0","time_elapsed":270768,"subject_id":"87691","group":"Group1","full_date":"2025-12-02T23:35:41.089Z","date":"2025-12-02","time":"23:35:41"},{"task":"memory_phase","broad_category":"I","image_png":"I_Gabbro_08.png","image_id":56,"category_name":"Gabbro","category":4,"distinct_rating":3.02,"distinct_type":"Bottom","rt":null,"stimulus":"Stimuli_Rocks480/I_Gabbro_08.png","response":null,"trial_type":"image-keyboard-response","trial_index":73,"plugin_version":"2.1.0","time_elapsed":273271,"subject_id":"87691","group":"Group1","full_date":"2025-12-02T23:35:41.089Z","date":"2025-12-02","time":"23:35:41"},{"rt":null,"stimulus":"<p style=\"font-size: 50px; margin: 0; text-align: center;\">+</p>","response":null,"trial_type":"html-keyboard-response","trial_index":74,"plugin_version":"2.1.0","time_elapsed":274273,"subject_id":"87691","group":"Group1","full_date":"2025-12-02T23:35:41.089Z","date":"2025-12-02","time":"23:35:41"},{"task":"memory_phase","broad_category":"I","image_png":"I_Basalt_02.png","image_id":18,"category_name":"Basalt","category":2,"distinct_rating":1.84,"distinct_type":"Bottom","rt":null,"stimulus":"Stimuli_Rocks480/I_Basalt_02.png","response":null,"trial_type":"image-keyboard-response","trial_index":75,"plugin_version":"2.1.0","time_elapsed":276776,"subject_id":"87691","group":"Group1","full_date":"2025-12-02T23:35:41.089Z","date":"2025-12-02","time":"23:35:41"},{"rt":null,"stimulus":"<p style=\"font-size: 50px; margin: 0; text-align: center;\">+</p>","response":null,"trial_type":"html-keyboard-response","trial_index":76,"plugin_version":"2.1.0","time_elapsed":277779,"subject_id":"87691","group":"Group1","full_date":"2025-12-02T23:35:41.089Z","date":"2025-12-02","time":"23:35:41"},{"task":"memory_phase","broad_category":"M","image_png":"M_Quartzite_08.png","image_id":280,"category_name":"Quartzite","category":18,"distinct_rating":2.15,"distinct_type":"Bottom","rt":null,"stimulus":"Stimuli_Rocks480/M_Quartzite_08.png","response":null,"trial_type":"image-keyboard-response","trial_index":77,"plugin_version":"2.1.0","time_elapsed":280282,"subject_id":"87691","group":"Group1","full_date":"2025-12-02T23:35:41.089Z","date":"2025-12-02","time":"23:35:41"},{"rt":null,"stimulus":"<p style=\"font-size: 50px; margin: 0; text-align: center;\">+</p>","response":null,"trial_type":"html-keyboard-response","trial_index":78,"plugin_version":"2.1.0","time_elapsed":281284,"subject_id":"87691","group":"Group1","full_date":"2025-12-02T23:35:41.089Z","date":"2025-12-02","time":"23:35:41"},{"task":"memory_phase","broad_category":"M","image_png":"M_Quartzite_05.png","image_id":277,"category_name":"Quartzite","category":18,"distinct_rating":2.23,"distinct_type":"Bottom","rt":null,"stimulus":"Stimuli_Rocks480/M_Quartzite_05.png","response":null,"trial_type":"image-keyboard-response","trial_index":79,"plugin_version":"2.1.0","time_elapsed":283786,"subject_id":"87691","group":"Group1","full_date":"2025-12-02T23:35:41.089Z","date":"2025-12-02","time":"23:35:41"},{"rt":null,"stimulus":"<p style=\"font-size: 50px; margin: 0; text-align: center;\">+</p>","response":null,"trial_type":"html-keyboard-response","trial_index":80,"plugin_version":"2.1.0","time_elapsed":284789,"subject_id":"87691","group":"Group1","full_date":"2025-12-02T23:35:41.089Z","date":"2025-12-02","time":"23:35:41"},{"task":"memory_phase","broad_category":"S","image_png":"S_Rock Salt_01.png","image_id":433,"category_name":"Rock Salt","category":28,"distinct_rating":7.18,"distinct_type":"Top","rt":null,"stimulus":"Stimuli_Rocks480/S_Rock Salt_01.png","response":null,"trial_type":"image-keyboard-response","trial_index":81,"plugin_version":"2.1.0","time_elapsed":287292,"subject_id":"87691","group":"Group1","full_date":"2025-12-02T23:35:41.089Z","date":"2025-12-02","time":"23:35:41"},{"rt":null,"stimulus":"<p style=\"font-size: 50px; margin: 0; text-align: center;\">+</p>","response":null,"trial_type":"html-keyboard-response","trial_index":82,"plugin_version":"2.1.0","time_elapsed":288294,"subject_id":"87691","group":"Group1","full_date":"2025-12-02T23:35:41.089Z","date":"2025-12-02","time":"23:35:41"},{"task":"memory_phase","broad_category":"M","image_png":"M_Slate_15.png","image_id":319,"category_name":"Slate","category":20,"distinct_rating":2.13,"distinct_type":"Bottom","rt":null,"stimulus":"Stimuli_Rocks480/M_Slate_15.png","response":null,"trial_type":"image-keyboard-response","trial_index":83,"plugin_version":"2.1.0","time_elapsed":290796,"subject_id":"87691","group":"Group1","full_date":"2025-12-02T23:35:41.089Z","date":"2025-12-02","time":"23:35:41"},{"rt":null,"stimulus":"<p style=\"font-size: 50px; margin: 0; text-align: center;\">+</p>","response":null,"trial_type":"html-keyboard-response","trial_index":84,"plugin_version":"2.1.0","time_elapsed":291798,"subject_id":"87691","group":"Group1","full_date":"2025-12-02T23:35:41.089Z","date":"2025-12-02","time":"23:35:41"},{"task":"memory_phase","broad_category":"I","image_png":"I_Basalt_09.png","image_id":25,"category_name":"Basalt","category":2,"distinct_rating":1.89,"distinct_type":"Bottom","rt":null,"stimulus":"Stimuli_Rocks480/I_Basalt_09.png","response":null,"trial_type":"image-keyboard-response","trial_index":85,"plugin_version":"2.1.0","time_elapsed":294301,"subject_id":"87691","group":"Group1","full_date":"2025-12-02T23:35:41.089Z","date":"2025-12-02","time":"23:35:41"},{"rt":null,"stimulus":"<p style=\"font-size: 50px; margin: 0; text-align: center;\">+</p>","response":null,"trial_type":"html-keyboard-response","trial_index":86,"plugin_version":"2.1.0","time_elapsed":295308,"subject_id":"87691","group":"Group1","full_date":"2025-12-02T23:35:41.089Z","date":"2025-12-02","time":"23:35:41"},{"task":"memory_phase","broad_category":"I","image_png":"I_Gabbro_11.png","image_id":59,"category_name":"Gabbro","category":4,"distinct_rating":1.99,"distinct_type":"Bottom","rt":null,"stimulus":"Stimuli_Rocks480/I_Gabbro_11.png","response":null,"trial_type":"image-keyboard-response","trial_index":87,"plugin_version":"2.1.0","time_elapsed":297810,"subject_id":"87691","group":"Group1","full_date":"2025-12-02T23:35:41.089Z","date":"2025-12-02","time":"23:35:41"},{"rt":null,"stimulus":"<p style=\"font-size: 50px; margin: 0; text-align: center;\">+</p>","response":null,"trial_type":"html-keyboard-response","trial_index":88,"plugin_version":"2.1.0","time_elapsed":298812,"subject_id":"87691","group":"Group1","full_date":"2025-12-02T23:35:41.089Z","date":"2025-12-02","time":"23:35:41"},{"task":"memory_phase","broad_category":"M","image_png":"M_Quartzite_13.png","image_id":285,"category_name":"Quartzite","category":18,"distinct_rating":2.27,"distinct_type":"Bottom","rt":null,"stimulus":"Stimuli_Rocks480/M_Quartzite_13.png","response":null,"trial_type":"image-keyboard-response","trial_index":89,"plugin_version":"2.1.0","time_elapsed":301316,"subject_id":"87691","group":"Group1","full_date":"2025-12-02T23:35:41.089Z","date":"2025-12-02","time":"23:35:41"},{"rt":null,"stimulus":"<p style=\"font-size: 50px; margin: 0; text-align: center;\">+</p>","response":null,"trial_type":"html-keyboard-response","trial_index":90,"plugin_version":"2.1.0","time_elapsed":302318,"subject_id":"87691","group":"Group1","full_date":"2025-12-02T23:35:41.089Z","date":"2025-12-02","time":"23:35:41"},{"task":"memory_phase","broad_category":"M","image_png":"M_Phyllite_03.png","image_id":259,"category_name":"Phyllite","category":17,"distinct_rating":2.5,"distinct_type":"Bottom","rt":null,"stimulus":"Stimuli_Rocks480/M_Phyllite_03.png","response":null,"trial_type":"image-keyboard-response","trial_index":91,"plugin_version":"2.1.0","time_elapsed":304822,"subject_id":"87691","group":"Group1","full_date":"2025-12-02T23:35:41.089Z","date":"2025-12-02","time":"23:35:41"},{"rt":null,"stimulus":"<p style=\"font-size: 50px; margin: 0; text-align: center;\">+</p>","response":null,"trial_type":"html-keyboard-response","trial_index":92,"plugin_version":"2.1.0","time_elapsed":305824,"subject_id":"87691","group":"Group1","full_date":"2025-12-02T23:35:41.089Z","date":"2025-12-02","time":"23:35:41"},{"task":"memory_phase","broad_category":"S","image_png":"S_Rock Gypsum_04.png","image_id":420,"category_name":"Rock Gypsum","category":27,"distinct_rating":7.61,"distinct_type":"Top","rt":null,"stimulus":"Stimuli_Rocks480/S_Rock Gypsum_04.png","response":null,"trial_type":"image-keyboard-response","trial_index":93,"plugin_version":"2.1.0","time_elapsed":308327,"subject_id":"87691","group":"Group1","full_date":"2025-12-02T23:35:41.089Z","date":"2025-12-02","time":"23:35:41"},{"rt":null,"stimulus":"<p style=\"font-size: 50px; margin: 0; text-align: center;\">+</p>","response":null,"trial_type":"html-keyboard-response","trial_index":94,"plugin_version":"2.1.0","time_elapsed":309330,"subject_id":"87691","group":"Group1","full_date":"2025-12-02T23:35:41.089Z","date":"2025-12-02","time":"23:35:41"},{"task":"memory_phase","broad_category":"M","image_png":"M_Slate_11.png","image_id":315,"category_name":"Slate","category":20,"distinct_rating":2.75,"distinct_type":"Bottom","rt":null,"stimulus":"Stimuli_Rocks480/M_Slate_11.png","response":null,"trial_type":"image-keyboard-response","trial_index":95,"plugin_version":"2.1.0","time_elapsed":311833,"subject_id":"87691","group":"Group1","full_date":"2025-12-02T23:35:41.089Z","date":"2025-12-02","time":"23:35:41"},{"rt":null,"stimulus":"<p style=\"font-size: 50px; margin: 0; text-align: center;\">+</p>","response":null,"trial_type":"html-keyboard-response","trial_index":96,"plugin_version":"2.1.0","time_elapsed":312836,"subject_id":"87691","group":"Group1","full_date":"2025-12-02T23:35:41.089Z","date":"2025-12-02","time":"23:35:41"},{"task":"memory_phase","broad_category":"I","image_png":"I_Pumice_12.png","image_id":140,"category_name":"Pumice","category":9,"distinct_rating":2.97,"distinct_type":"Bottom","rt":null,"stimulus":"Stimuli_Rocks480/I_Pumice_12.png","response":null,"trial_type":"image-keyboard-response","trial_index":97,"plugin_version":"2.1.0","time_elapsed":315339,"subject_id":"87691","group":"Group1","full_date":"2025-12-02T23:35:41.089Z","date":"2025-12-02","time":"23:35:41"},{"rt":null,"stimulus":"<p style=\"font-size: 50px; margin: 0; text-align: center;\">+</p>","response":null,"trial_type":"html-keyboard-response","trial_index":98,"plugin_version":"2.1.0","time_elapsed":316341,"subject_id":"87691","group":"Group1","full_date":"2025-12-02T23:35:41.089Z","date":"2025-12-02","time":"23:35:41"},{"task":"memory_phase","broad_category":"M","image_png":"M_Gneiss_05.png","image_id":197,"category_name":"Gneiss","category":13,"distinct_rating":2.97,"distinct_type":"Bottom","rt":null,"stimulus":"Stimuli_Rocks480/M_Gneiss_05.png","response":null,"trial_type":"image-keyboard-response","trial_index":99,"plugin_version":"2.1.0","time_elapsed":318845,"subject_id":"87691","group":"Group1","full_date":"2025-12-02T23:35:41.089Z","date":"2025-12-02","time":"23:35:41"},{"rt":null,"stimulus":"<p style=\"font-size: 50px; margin: 0; text-align: center;\">+</p>","response":null,"trial_type":"html-keyboard-response","trial_index":100,"plugin_version":"2.1.0","time_elapsed":319847,"subject_id":"87691","group":"Group1","full_date":"2025-12-02T23:35:41.089Z","date":"2025-12-02","time":"23:35:41"},{"task":"memory_phase","broad_category":"S","image_png":"S_Shale_01.png","image_id":465,"category_name":"Shale","category":30,"distinct_rating":2.7,"distinct_type":"Bottom","rt":null,"stimulus":"Stimuli_Rocks480/S_Shale_01.png","response":null,"trial_type":"image-keyboard-response","trial_index":101,"plugin_version":"2.1.0","time_elapsed":322350,"subject_id":"87691","group":"Group1","full_date":"2025-12-02T23:35:41.089Z","date":"2025-12-02","time":"23:35:41"},{"rt":null,"stimulus":"<p style=\"font-size: 50px; margin: 0; text-align: center;\">+</p>","response":null,"trial_type":"html-keyboard-response","trial_index":102,"plugin_version":"2.1.0","time_elapsed":323353,"subject_id":"87691","group":"Group1","full_date":"2025-12-02T23:35:41.089Z","date":"2025-12-02","time":"23:35:41"},{"task":"memory_phase","broad_category":"I","image_png":"I_Pegmatite_10.png","image_id":106,"category_name":"Pegmatite","category":7,"distinct_rating":7.66,"distinct_type":"Top","rt":null,"stimulus":"Stimuli_Rocks480/I_Pegmatite_10.png","response":null,"trial_type":"image-keyboard-response","trial_index":103,"plugin_version":"2.1.0","time_elapsed":325856,"subject_id":"87691","group":"Group1","full_date":"2025-12-02T23:35:41.089Z","date":"2025-12-02","time":"23:35:41"},{"rt":null,"stimulus":"<p style=\"font-size: 50px; margin: 0; text-align: center;\">+</p>","response":null,"trial_type":"html-keyboard-response","trial_index":104,"plugin_version":"2.1.0","time_elapsed":326858,"subject_id":"87691","group":"Group1","full_date":"2025-12-02T23:35:41.089Z","date":"2025-12-02","time":"23:35:41"},{"task":"memory_phase","broad_category":"M","image_png":"M_Phyllite_07.png","image_id":263,"category_name":"Phyllite","category":17,"distinct_rating":2.59,"distinct_type":"Bottom","rt":null,"stimulus":"Stimuli_Rocks480/M_Phyllite_07.png","response":null,"trial_type":"image-keyboard-response","trial_index":105,"plugin_version":"2.1.0","time_elapsed":329361,"subject_id":"87691","group":"Group1","full_date":"2025-12-02T23:35:41.089Z","date":"2025-12-02","time":"23:35:41"},{"rt":6593,"stimulus":"<p style=\"max-width: 760px; margin: auto; font-size: 35px; line-height: 1.5;\">You have completed 1 study phase. Now, we'll show you all the images again 2 more times.<br><br>Press SPACE to continue</p>","response":" ","trial_type":"html-keyboard-response","trial_index":106,"plugin_version":"2.1.0","time_elapsed":335956,"subject_id":"87691","group":"Group1","full_date":"2025-12-02T23:35:41.089Z","date":"2025-12-02","time":"23:35:41"},{"rt":null,"stimulus":"<p style=\"font-size: 50px; margin: 0; text-align: center;\">+</p>","response":null,"trial_type":"html-keyboard-response","trial_index":107,"plugin_version":"2.1.0","time_elapsed":336958,"subject_id":"87691","group":"Group1","full_date":"2025-12-02T23:35:41.089Z","date":"2025-12-02","time":"23:35:41"},{"task":"memory_phase","broad_category":"I","image_png":"I_Rhyolite_14.png","image_id":158,"category_name":"Rhyolite","category":10,"distinct_rating":2.59,"distinct_type":"Bottom","rt":null,"stimulus":"Stimuli_Rocks480/I_Rhyolite_14.png","response":null,"trial_type":"image-keyboard-response","trial_index":108,"plugin_version":"2.1.0","time_elapsed":339461,"subject_id":"87691","group":"Group1","full_date":"2025-12-02T23:35:41.089Z","date":"2025-12-02","time":"23:35:41"},{"rt":null,"stimulus":"<p style=\"font-size: 50px; margin: 0; text-align: center;\">+</p>","response":null,"trial_type":"html-keyboard-response","trial_index":109,"plugin_version":"2.1.0","time_elapsed":340463,"subject_id":"87691","group":"Group1","full_date":"2025-12-02T23:35:41.089Z","date":"2025-12-02","time":"23:35:41"},{"task":"memory_phase","broad_category":"I","image_png":"I_Basalt_02.png","image_id":18,"category_name":"Basalt","category":2,"distinct_rating":1.84,"distinct_type":"Bottom","rt":null,"stimulus":"Stimuli_Rocks480/I_Basalt_02.png","response":null,"trial_type":"image-keyboard-response","trial_index":110,"plugin_version":"2.1.0","time_elapsed":342966,"subject_id":"87691","group":"Group1","full_date":"2025-12-02T23:35:41.089Z","date":"2025-12-02","time":"23:35:41"},{"rt":null,"stimulus":"<p style=\"font-size: 50px; margin: 0; text-align: center;\">+</p>","response":null,"trial_type":"html-keyboard-response","trial_index":111,"plugin_version":"2.1.0","time_elapsed":343968,"subject_id":"87691","group":"Group1","full_date":"2025-12-02T23:35:41.089Z","date":"2025-12-02","time":"23:35:41"},{"task":"memory_phase","broad_category":"M","image_png":"M_Gneiss_13.png","image_id":205,"category_name":"Gneiss","category":13,"distinct_rating":3.26,"distinct_type":"Bottom","rt":null,"stimulus":"Stimuli_Rocks480/M_Gneiss_13.png","response":null,"trial_type":"image-keyboard-response","trial_index":112,"plugin_version":"2.1.0","time_elapsed":346472,"subject_id":"87691","group":"Group1","full_date":"2025-12-02T23:35:41.089Z","date":"2025-12-02","time":"23:35:41"},{"rt":null,"stimulus":"<p style=\"font-size: 50px; margin: 0; text-align: center;\">+</p>","response":null,"trial_type":"html-keyboard-response","trial_index":113,"plugin_version":"2.1.0","time_elapsed":347474,"subject_id":"87691","group":"Group1","full_date":"2025-12-02T23:35:41.089Z","date":"2025-12-02","time":"23:35:41"},{"task":"memory_phase","broad_category":"S","image_png":"S_Shale_01.png","image_id":465,"category_name":"Shale","category":30,"distinct_rating":2.7,"distinct_type":"Bottom","rt":null,"stimulus":"Stimuli_Rocks480/S_Shale_01.png","response":null,"trial_type":"image-keyboard-response","trial_index":114,"plugin_version":"2.1.0","time_elapsed":349977,"subject_id":"87691","group":"Group1","full_date":"2025-12-02T23:35:41.089Z","date":"2025-12-02","time":"23:35:41"},{"rt":null,"stimulus":"<p style=\"font-size: 50px; margin: 0; text-align: center;\">+</p>","response":null,"trial_type":"html-keyboard-response","trial_index":115,"plugin_version":"2.1.0","time_elapsed":350979,"subject_id":"87691","group":"Group1","full_date":"2025-12-02T23:35:41.089Z","date":"2025-12-02","time":"23:35:41"},{"task":"memory_phase","broad_category":"S","image_png":"S_Rock Salt_01.png","image_id":433,"category_name":"Rock Salt","category":28,"distinct_rating":7.18,"distinct_type":"Top","rt":null,"stimulus":"Stimuli_Rocks480/S_Rock Salt_01.png","response":null,"trial_type":"image-keyboard-response","trial_index":116,"plugin_version":"2.1.0","time_elapsed":353482,"subject_id":"87691","group":"Group1","full_date":"2025-12-02T23:35:41.089Z","date":"2025-12-02","time":"23:35:41"},{"rt":null,"stimulus":"<p style=\"font-size: 50px; margin: 0; text-align: center;\">+</p>","response":null,"trial_type":"html-keyboard-response","trial_index":117,"plugin_version":"2.1.0","time_elapsed":354485,"subject_id":"87691","group":"Group1","full_date":"2025-12-02T23:35:41.089Z","date":"2025-12-02","time":"23:35:41"},{"task":"memory_phase","broad_category":"M","image_png":"M_Marble_16.png","image_id":240,"category_name":"Marble","category":15,"distinct_rating":2.57,"distinct_type":"Bottom","rt":null,"stimulus":"Stimuli_Rocks480/M_Marble_16.png","response":null,"trial_type":"image-keyboard-response","trial_index":118,"plugin_version":"2.1.0","time_elapsed":356987,"subject_id":"87691","group":"Group1","full_date":"2025-12-02T23:35:41.089Z","date":"2025-12-02","time":"23:35:41"},{"rt":null,"stimulus":"<p style=\"font-size: 50px; margin: 0; text-align: center;\">+</p>","response":null,"trial_type":"html-keyboard-response","trial_index":119,"plugin_version":"2.1.0","time_elapsed":357990,"subject_id":"87691","group":"Group1","full_date":"2025-12-02T23:35:41.089Z","date":"2025-12-02","time":"23:35:41"},{"task":"memory_phase","broad_category":"M","image_png":"M_Gneiss_06.png","image_id":198,"category_name":"Gneiss","category":13,"distinct_rating":2.65,"distinct_type":"Bottom","rt":null,"stimulus":"Stimuli_Rocks480/M_Gneiss_06.png","response":null,"trial_type":"image-keyboard-response","trial_index":120,"plugin_version":"2.1.0","time_elapsed":360493,"subject_id":"87691","group":"Group1","full_date":"2025-12-02T23:35:41.089Z","date":"2025-12-02","time":"23:35:41"},{"rt":null,"stimulus":"<p style=\"font-size: 50px; margin: 0; text-align: center;\">+</p>","response":null,"trial_type":"html-keyboard-response","trial_index":121,"plugin_version":"2.1.0","time_elapsed":361495,"subject_id":"87691","group":"Group1","full_date":"2025-12-02T23:35:41.089Z","date":"2025-12-02","time":"23:35:41"},{"task":"memory_phase","broad_category":"I","image_png":"I_Pumice_12.png","image_id":140,"category_name":"Pumice","category":9,"distinct_rating":2.97,"distinct_type":"Bottom","rt":null,"stimulus":"Stimuli_Rocks480/I_Pumice_12.png","response":null,"trial_type":"image-keyboard-response","trial_index":122,"plugin_version":"2.1.0","time_elapsed":363999,"subject_id":"87691","group":"Group1","full_date":"2025-12-02T23:35:41.089Z","date":"2025-12-02","time":"23:35:41"},{"rt":null,"stimulus":"<p style=\"font-size: 50px; margin: 0; text-align: center;\">+</p>","response":null,"trial_type":"html-keyboard-response","trial_index":123,"plugin_version":"2.1.0","time_elapsed":365001,"subject_id":"87691","group":"Group1","full_date":"2025-12-02T23:35:41.089Z","date":"2025-12-02","time":"23:35:41"},{"task":"memory_phase","broad_category":"I","image_png":"I_Pumice_11.png","image_id":139,"category_name":"Pumice","category":9,"distinct_rating":1.74,"distinct_type":"Bottom","rt":null,"stimulus":"Stimuli_Rocks480/I_Pumice_11.png","response":null,"trial_type":"image-keyboard-response","trial_index":124,"plugin_version":"2.1.0","time_elapsed":367505,"subject_id":"87691","group":"Group1","full_date":"2025-12-02T23:35:41.089Z","date":"2025-12-02","time":"23:35:41"},{"rt":null,"stimulus":"<p style=\"font-size: 50px; margin: 0; text-align: center;\">+</p>","response":null,"trial_type":"html-keyboard-response","trial_index":125,"plugin_version":"2.1.0","time_elapsed":368507,"subject_id":"87691","group":"Group1","full_date":"2025-12-02T23:35:41.089Z","date":"2025-12-02","time":"23:35:41"},{"task":"memory_phase","broad_category":"M","image_png":"M_Marble_06.png","image_id":230,"category_name":"Marble","category":15,"distinct_rating":3.4,"distinct_type":"Bottom","rt":null,"stimulus":"Stimuli_Rocks480/M_Marble_06.png","response":null,"trial_type":"image-keyboard-response","trial_index":126,"plugin_version":"2.1.0","time_elapsed":371010,"subject_id":"87691","group":"Group1","full_date":"2025-12-02T23:35:41.089Z","date":"2025-12-02","time":"23:35:41"},{"rt":null,"stimulus":"<p style=\"font-size: 50px; margin: 0; text-align: center;\">+</p>","response":null,"trial_type":"html-keyboard-response","trial_index":127,"plugin_version":"2.1.0","time_elapsed":372013,"subject_id":"87691","group":"Group1","full_date":"2025-12-02T23:35:41.089Z","date":"2025-12-02","time":"23:35:41"},{"task":"memory_phase","broad_category":"M","image_png":"M_Phyllite_03.png","image_id":259,"category_name":"Phyllite","category":17,"distinct_rating":2.5,"distinct_type":"Bottom","rt":null,"stimulus":"Stimuli_Rocks480/M_Phyllite_03.png","response":null,"trial_type":"image-keyboard-response","trial_index":128,"plugin_version":"2.1.0","time_elapsed":374517,"subject_id":"87691","group":"Group1","full_date":"2025-12-02T23:35:41.089Z","date":"2025-12-02","time":"23:35:41"},{"rt":null,"stimulus":"<p style=\"font-size: 50px; margin: 0; text-align: center;\">+</p>","response":null,"trial_type":"html-keyboard-response","trial_index":129,"plugin_version":"2.1.0","time_elapsed":375519,"subject_id":"87691","group":"Group1","full_date":"2025-12-02T23:35:41.089Z","date":"2025-12-02","time":"23:35:41"},{"task":"memory_phase","broad_category":"S","image_png":"S_Shale_12.png","image_id":476,"category_name":"Shale","category":30,"distinct_rating":2.48,"distinct_type":"Bottom","rt":null,"stimulus":"Stimuli_Rocks480/S_Shale_12.png","response":null,"trial_type":"image-keyboard-response","trial_index":130,"plugin_version":"2.1.0","time_elapsed":378022,"subject_id":"87691","group":"Group1","full_date":"2025-12-02T23:35:41.089Z","date":"2025-12-02","time":"23:35:41"},{"rt":null,"stimulus":"<p style=\"font-size: 50px; margin: 0; text-align: center;\">+</p>","response":null,"trial_type":"html-keyboard-response","trial_index":131,"plugin_version":"2.1.0","time_elapsed":379024,"subject_id":"87691","group":"Group1","full_date":"2025-12-02T23:35:41.089Z","date":"2025-12-02","time":"23:35:41"},{"task":"memory_phase","broad_category":"S","image_png":"S_Dolomite_13.png","image_id":397,"category_name":"Dolomite","category":25,"distinct_rating":1.77,"distinct_type":"Bottom","rt":null,"stimulus":"Stimuli_Rocks480/S_Dolomite_13.png","response":null,"trial_type":"image-keyboard-response","trial_index":132,"plugin_version":"2.1.0","time_elapsed":381527,"subject_id":"87691","group":"Group1","full_date":"2025-12-02T23:35:41.089Z","date":"2025-12-02","time":"23:35:41"},{"rt":null,"stimulus":"<p style=\"font-size: 50px; margin: 0; text-align: center;\">+</p>","response":null,"trial_type":"html-keyboard-response","trial_index":133,"plugin_version":"2.1.0","time_elapsed":382530,"subject_id":"87691","group":"Group1","full_date":"2025-12-02T23:35:41.089Z","date":"2025-12-02","time":"23:35:41"},{"task":"memory_phase","broad_category":"I","image_png":"I_Diorite_05.png","image_id":37,"category_name":"Diorite","category":3,"distinct_rating":3.08,"distinct_type":"Bottom","rt":null,"stimulus":"Stimuli_Rocks480/I_Diorite_05.png","response":null,"trial_type":"image-keyboard-response","trial_index":134,"plugin_version":"2.1.0","time_elapsed":385033,"subject_id":"87691","group":"Group1","full_date":"2025-12-02T23:35:41.089Z","date":"2025-12-02","time":"23:35:41"},{"rt":null,"stimulus":"<p style=\"font-size: 50px; margin: 0; text-align: center;\">+</p>","response":null,"trial_type":"html-keyboard-response","trial_index":135,"plugin_version":"2.1.0","time_elapsed":386036,"subject_id":"87691","group":"Group1","full_date":"2025-12-02T23:35:41.089Z","date":"2025-12-02","time":"23:35:41"},{"task":"memory_phase","broad_category":"S","image_png":"S_Chert_10.png","image_id":362,"category_name":"Chert","category":23,"distinct_rating":7.17,"distinct_type":"Top","rt":null,"stimulus":"Stimuli_Rocks480/S_Chert_10.png","response":null,"trial_type":"image-keyboard-response","trial_index":136,"plugin_version":"2.1.0","time_elapsed":388538,"subject_id":"87691","group":"Group1","full_date":"2025-12-02T23:35:41.089Z","date":"2025-12-02","time":"23:35:41"},{"rt":null,"stimulus":"<p style=\"font-size: 50px; margin: 0; text-align: center;\">+</p>","response":null,"trial_type":"html-keyboard-response","trial_index":137,"plugin_version":"2.1.0","time_elapsed":389541,"subject_id":"87691","group":"Group1","full_date":"2025-12-02T23:35:41.089Z","date":"2025-12-02","time":"23:35:41"},{"task":"memory_phase","broad_category":"I","image_png":"I_Andesite_06.png","image_id":6,"category_name":"Andesite","category":1,"distinct_rating":3.17,"distinct_type":"Bottom","rt":null,"stimulus":"Stimuli_Rocks480/I_Andesite_06.png","response":null,"trial_type":"image-keyboard-response","trial_index":138,"plugin_version":"2.1.0","time_elapsed":392044,"subject_id":"87691","group":"Group1","full_date":"2025-12-02T23:35:41.089Z","date":"2025-12-02","time":"23:35:41"},{"rt":null,"stimulus":"<p style=\"font-size: 50px; margin: 0; text-align: center;\">+</p>","response":null,"trial_type":"html-keyboard-response","trial_index":139,"plugin_version":"2.1.0","time_elapsed":393046,"subject_id":"87691","group":"Group1","full_date":"2025-12-02T23:35:41.089Z","date":"2025-12-02","time":"23:35:41"},{"task":"memory_phase","broad_category":"S","image_png":"S_Dolomite_14.png","image_id":398,"category_name":"Dolomite","category":25,"distinct_rating":1.43,"distinct_type":"Bottom","rt":null,"stimulus":"Stimuli_Rocks480/S_Dolomite_14.png","response":null,"trial_type":"image-keyboard-response","trial_index":140,"plugin_version":"2.1.0","time_elapsed":395549,"subject_id":"87691","group":"Group1","full_date":"2025-12-02T23:35:41.089Z","date":"2025-12-02","time":"23:35:41"},{"rt":null,"stimulus":"<p style=\"font-size: 50px; margin: 0; text-align: center;\">+</p>","response":null,"trial_type":"html-keyboard-response","trial_index":141,"plugin_version":"2.1.0","time_elapsed":396551,"subject_id":"87691","group":"Group1","full_date":"2025-12-02T23:35:41.089Z","date":"2025-12-02","time":"23:35:41"},{"task":"memory_phase","broad_category":"S","image_png":"S_Dolomite_12.png","image_id":396,"category_name":"Dolomite","category":25,"distinct_rating":1.85,"distinct_type":"Bottom","rt":null,"stimulus":"Stimuli_Rocks480/S_Dolomite_12.png","response":null,"trial_type":"image-keyboard-response","trial_index":142,"plugin_version":"2.1.0","time_elapsed":399054,"subject_id":"87691","group":"Group1","full_date":"2025-12-02T23:35:41.089Z","date":"2025-12-02","time":"23:35:41"},{"rt":null,"stimulus":"<p style=\"font-size: 50px; margin: 0; text-align: center;\">+</p>","response":null,"trial_type":"html-keyboard-response","trial_index":143,"plugin_version":"2.1.0","time_elapsed":400056,"subject_id":"87691","group":"Group1","full_date":"2025-12-02T23:35:41.089Z","date":"2025-12-02","time":"23:35:41"},{"task":"memory_phase","broad_category":"M","image_png":"M_Quartzite_08.png","image_id":280,"category_name":"Quartzite","category":18,"distinct_rating":2.15,"distinct_type":"Bottom","rt":null,"stimulus":"Stimuli_Rocks480/M_Quartzite_08.png","response":null,"trial_type":"image-keyboard-response","trial_index":144,"plugin_version":"2.1.0","time_elapsed":402559,"subject_id":"87691","group":"Group1","full_date":"2025-12-02T23:35:41.089Z","date":"2025-12-02","time":"23:35:41"},{"rt":null,"stimulus":"<p style=\"font-size: 50px; margin: 0; text-align: center;\">+</p>","response":null,"trial_type":"html-keyboard-response","trial_index":145,"plugin_version":"2.1.0","time_elapsed":403562,"subject_id":"87691","group":"Group1","full_date":"2025-12-02T23:35:41.089Z","date":"2025-12-02","time":"23:35:41"},{"task":"memory_phase","broad_category":"I","image_png":"I_Diorite_03.png","image_id":35,"category_name":"Diorite","category":3,"distinct_rating":3.14,"distinct_type":"Bottom","rt":null,"stimulus":"Stimuli_Rocks480/I_Diorite_03.png","response":null,"trial_type":"image-keyboard-response","trial_index":146,"plugin_version":"2.1.0","time_elapsed":406065,"subject_id":"87691","group":"Group1","full_date":"2025-12-02T23:35:41.089Z","date":"2025-12-02","time":"23:35:41"},{"rt":null,"stimulus":"<p style=\"font-size: 50px; margin: 0; text-align: center;\">+</p>","response":null,"trial_type":"html-keyboard-response","trial_index":147,"plugin_version":"2.1.0","time_elapsed":407067,"subject_id":"87691","group":"Group1","full_date":"2025-12-02T23:35:41.089Z","date":"2025-12-02","time":"23:35:41"},{"task":"memory_phase","broad_category":"I","image_png":"I_Gabbro_16.png","image_id":64,"category_name":"Gabbro","category":4,"distinct_rating":2.52,"distinct_type":"Bottom","rt":null,"stimulus":"Stimuli_Rocks480/I_Gabbro_16.png","response":null,"trial_type":"image-keyboard-response","trial_index":148,"plugin_version":"2.1.0","time_elapsed":409570,"subject_id":"87691","group":"Group1","full_date":"2025-12-02T23:35:41.089Z","date":"2025-12-02","time":"23:35:41"},{"rt":null,"stimulus":"<p style=\"font-size: 50px; margin: 0; text-align: center;\">+</p>","response":null,"trial_type":"html-keyboard-response","trial_index":149,"plugin_version":"2.1.0","time_elapsed":410572,"subject_id":"87691","group":"Group1","full_date":"2025-12-02T23:35:41.089Z","date":"2025-12-02","time":"23:35:41"},{"task":"memory_phase","broad_category":"I","image_png":"I_Pegmatite_10.png","image_id":106,"category_name":"Pegmatite","category":7,"distinct_rating":7.66,"distinct_type":"Top","rt":null,"stimulus":"Stimuli_Rocks480/I_Pegmatite_10.png","response":null,"trial_type":"image-keyboard-response","trial_index":150,"plugin_version":"2.1.0","time_elapsed":413075,"subject_id":"87691","group":"Group1","full_date":"2025-12-02T23:35:41.089Z","date":"2025-12-02","time":"23:35:41"},{"rt":null,"stimulus":"<p style=\"font-size: 50px; margin: 0; text-align: center;\">+</p>","response":null,"trial_type":"html-keyboard-response","trial_index":151,"plugin_version":"2.1.0","time_elapsed":414077,"subject_id":"87691","group":"Group1","full_date":"2025-12-02T23:35:41.089Z","date":"2025-12-02","time":"23:35:41"},{"task":"memory_phase","broad_category":"M","image_png":"M_Slate_11.png","image_id":315,"category_name":"Slate","category":20,"distinct_rating":2.75,"distinct_type":"Bottom","rt":null,"stimulus":"Stimuli_Rocks480/M_Slate_11.png","response":null,"trial_type":"image-keyboard-response","trial_index":152,"plugin_version":"2.1.0","time_elapsed":416581,"subject_id":"87691","group":"Group1","full_date":"2025-12-02T23:35:41.089Z","date":"2025-12-02","time":"23:35:41"},{"rt":null,"stimulus":"<p style=\"font-size: 50px; margin: 0; text-align: center;\">+</p>","response":null,"trial_type":"html-keyboard-response","trial_index":153,"plugin_version":"2.1.0","time_elapsed":417583,"subject_id":"87691","group":"Group1","full_date":"2025-12-02T23:35:41.089Z","date":"2025-12-02","time":"23:35:41"},{"task":"memory_phase","broad_category":"M","image_png":"M_Quartzite_13.png","image_id":285,"category_name":"Quartzite","category":18,"distinct_rating":2.27,"distinct_type":"Bottom","rt":null,"stimulus":"Stimuli_Rocks480/M_Quartzite_13.png","response":null,"trial_type":"image-keyboard-response","trial_index":154,"plugin_version":"2.1.0","time_elapsed":420086,"subject_id":"87691","group":"Group1","full_date":"2025-12-02T23:35:41.089Z","date":"2025-12-02","time":"23:35:41"},{"rt":null,"stimulus":"<p style=\"font-size: 50px; margin: 0; text-align: center;\">+</p>","response":null,"trial_type":"html-keyboard-response","trial_index":155,"plugin_version":"2.1.0","time_elapsed":421088,"subject_id":"87691","group":"Group1","full_date":"2025-12-02T23:35:41.089Z","date":"2025-12-02","time":"23:35:41"},{"task":"memory_phase","broad_category":"M","image_png":"M_Quartzite_05.png","image_id":277,"category_name":"Quartzite","category":18,"distinct_rating":2.23,"distinct_type":"Bottom","rt":null,"stimulus":"Stimuli_Rocks480/M_Quartzite_05.png","response":null,"trial_type":"image-keyboard-response","trial_index":156,"plugin_version":"2.1.0","time_elapsed":423592,"subject_id":"87691","group":"Group1","full_date":"2025-12-02T23:35:41.089Z","date":"2025-12-02","time":"23:35:41"},{"rt":1800,"stimulus":"<p style=\"max-width: 760px; margin: auto; font-size: 35px; line-height: 1.5;\">Press SPACE to continue study phase</p>","response":" ","trial_type":"html-keyboard-response","trial_index":157,"plugin_version":"2.1.0","time_elapsed":425393,"subject_id":"87691","group":"Group1","full_date":"2025-12-02T23:35:41.089Z","date":"2025-12-02","time":"23:35:41"},{"rt":null,"stimulus":"<p style=\"font-size: 50px; margin: 0; text-align: center;\">+</p>","response":null,"trial_type":"html-keyboard-response","trial_index":158,"plugin_version":"2.1.0","time_elapsed":426394,"subject_id":"87691","group":"Group1","full_date":"2025-12-02T23:35:41.089Z","date":"2025-12-02","time":"23:35:41"},{"task":"memory_phase","broad_category":"M","image_png":"M_Gneiss_05.png","image_id":197,"category_name":"Gneiss","category":13,"distinct_rating":2.97,"distinct_type":"Bottom","rt":null,"stimulus":"Stimuli_Rocks480/M_Gneiss_05.png","response":null,"trial_type":"image-keyboard-response","trial_index":159,"plugin_version":"2.1.0","time_elapsed":428897,"subject_id":"87691","group":"Group1","full_date":"2025-12-02T23:35:41.089Z","date":"2025-12-02","time":"23:35:41"},{"rt":null,"stimulus":"<p style=\"font-size: 50px; margin: 0; text-align: center;\">+</p>","response":null,"trial_type":"html-keyboard-response","trial_index":160,"plugin_version":"2.1.0","time_elapsed":429899,"subject_id":"87691","group":"Group1","full_date":"2025-12-02T23:35:41.089Z","date":"2025-12-02","time":"23:35:41"},{"task":"memory_phase","broad_category":"S","image_png":"S_Breccia_11.png","image_id":347,"category_name":"Breccia","category":22,"distinct_rating":6.7,"distinct_type":"Top","rt":null,"stimulus":"Stimuli_Rocks480/S_Breccia_11.png","response":null,"trial_type":"image-keyboard-response","trial_index":161,"plugin_version":"2.1.0","time_elapsed":432402,"subject_id":"87691","group":"Group1","full_date":"2025-12-02T23:35:41.089Z","date":"2025-12-02","time":"23:35:41"},{"rt":null,"stimulus":"<p style=\"font-size: 50px; margin: 0; text-align: center;\">+</p>","response":null,"trial_type":"html-keyboard-response","trial_index":162,"plugin_version":"2.1.0","time_elapsed":433404,"subject_id":"87691","group":"Group1","full_date":"2025-12-02T23:35:41.089Z","date":"2025-12-02","time":"23:35:41"},{"task":"memory_phase","broad_category":"I","image_png":"I_Pumice_08.png","image_id":136,"category_name":"Pumice","category":9,"distinct_rating":3.1,"distinct_type":"Bottom","rt":null,"stimulus":"Stimuli_Rocks480/I_Pumice_08.png","response":null,"trial_type":"image-keyboard-response","trial_index":163,"plugin_version":"2.1.0","time_elapsed":435907,"subject_id":"87691","group":"Group1","full_date":"2025-12-02T23:35:41.089Z","date":"2025-12-02","time":"23:35:41"},{"rt":null,"stimulus":"<p style=\"font-size: 50px; margin: 0; text-align: center;\">+</p>","response":null,"trial_type":"html-keyboard-response","trial_index":164,"plugin_version":"2.1.0","time_elapsed":436909,"subject_id":"87691","group":"Group1","full_date":"2025-12-02T23:35:41.089Z","date":"2025-12-02","time":"23:35:41"},{"task":"memory_phase","broad_category":"M","image_png":"M_Phyllite_10.png","image_id":266,"category_name":"Phyllite","category":17,"distinct_rating":2.6,"distinct_type":"Bottom","rt":null,"stimulus":"Stimuli_Rocks480/M_Phyllite_10.png","response":null,"trial_type":"image-keyboard-response","trial_index":165,"plugin_version":"2.1.0","time_elapsed":439413,"subject_id":"87691","group":"Group1","full_date":"2025-12-02T23:35:41.089Z","date":"2025-12-02","time":"23:35:41"},{"rt":null,"stimulus":"<p style=\"font-size: 50px; margin: 0; text-align: center;\">+</p>","response":null,"trial_type":"html-keyboard-response","trial_index":166,"plugin_version":"2.1.0","time_elapsed":440415,"subject_id":"87691","group":"Group1","full_date":"2025-12-02T23:35:41.089Z","date":"2025-12-02","time":"23:35:41"},{"task":"memory_phase","broad_category":"I","image_png":"I_Gabbro_08.png","image_id":56,"category_name":"Gabbro","category":4,"distinct_rating":3.02,"distinct_type":"Bottom","rt":null,"stimulus":"Stimuli_Rocks480/I_Gabbro_08.png","response":null,"trial_type":"image-keyboard-response","trial_index":167,"plugin_version":"2.1.0","time_elapsed":442918,"subject_id":"87691","group":"Group1","full_date":"2025-12-02T23:35:41.089Z","date":"2025-12-02","time":"23:35:41"},{"rt":null,"stimulus":"<p style=\"font-size: 50px; margin: 0; text-align: center;\">+</p>","response":null,"trial_type":"html-keyboard-response","trial_index":168,"plugin_version":"2.1.0","time_elapsed":443920,"subject_id":"87691","group":"Group1","full_date":"2025-12-02T23:35:41.089Z","date":"2025-12-02","time":"23:35:41"},{"task":"memory_phase","broad_category":"M","image_png":"M_Marble_04.png","image_id":228,"category_name":"Marble","category":15,"distinct_rating":3.15,"distinct_type":"Bottom","rt":null,"stimulus":"Stimuli_Rocks480/M_Marble_04.png","response":null,"trial_type":"image-keyboard-response","trial_index":169,"plugin_version":"2.1.0","time_elapsed":446423,"subject_id":"87691","group":"Group1","full_date":"2025-12-02T23:35:41.089Z","date":"2025-12-02","time":"23:35:41"},{"rt":null,"stimulus":"<p style=\"font-size: 50px; margin: 0; text-align: center;\">+</p>","response":null,"trial_type":"html-keyboard-response","trial_index":170,"plugin_version":"2.1.0","time_elapsed":447426,"subject_id":"87691","group":"Group1","full_date":"2025-12-02T23:35:41.089Z","date":"2025-12-02","time":"23:35:41"},{"task":"memory_phase","broad_category":"I","image_png":"I_Rhyolite_16.png","image_id":160,"category_name":"Rhyolite","category":10,"distinct_rating":2.19,"distinct_type":"Bottom","rt":null,"stimulus":"Stimuli_Rocks480/I_Rhyolite_16.png","response":null,"trial_type":"image-keyboard-response","trial_index":171,"plugin_version":"2.1.0","time_elapsed":449928,"subject_id":"87691","group":"Group1","full_date":"2025-12-02T23:35:41.089Z","date":"2025-12-02","time":"23:35:41"},{"rt":null,"stimulus":"<p style=\"font-size: 50px; margin: 0; text-align: center;\">+</p>","response":null,"trial_type":"html-keyboard-response","trial_index":172,"plugin_version":"2.1.0","time_elapsed":450931,"subject_id":"87691","group":"Group1","full_date":"2025-12-02T23:35:41.089Z","date":"2025-12-02","time":"23:35:41"},{"task":"memory_phase","broad_category":"S","image_png":"S_Shale_08.png","image_id":472,"category_name":"Shale","category":30,"distinct_rating":2.55,"distinct_type":"Bottom","rt":null,"stimulus":"Stimuli_Rocks480/S_Shale_08.png","response":null,"trial_type":"image-keyboard-response","trial_index":173,"plugin_version":"2.1.0","time_elapsed":453434,"subject_id":"87691","group":"Group1","full_date":"2025-12-02T23:35:41.089Z","date":"2025-12-02","time":"23:35:41"},{"rt":null,"stimulus":"<p style=\"font-size: 50px; margin: 0; text-align: center;\">+</p>","response":null,"trial_type":"html-keyboard-response","trial_index":174,"plugin_version":"2.1.0","time_elapsed":454436,"subject_id":"87691","group":"Group1","full_date":"2025-12-02T23:35:41.089Z","date":"2025-12-02","time":"23:35:41"},{"task":"memory_phase","broad_category":"S","image_png":"S_Rock Gypsum_04.png","image_id":420,"category_name":"Rock Gypsum","category":27,"distinct_rating":7.61,"distinct_type":"Top","rt":null,"stimulus":"Stimuli_Rocks480/S_Rock Gypsum_04.png","response":null,"trial_type":"image-keyboard-response","trial_index":175,"plugin_version":"2.1.0","time_elapsed":456940,"subject_id":"87691","group":"Group1","full_date":"2025-12-02T23:35:41.089Z","date":"2025-12-02","time":"23:35:41"},{"rt":null,"stimulus":"<p style=\"font-size: 50px; margin: 0; text-align: center;\">+</p>","response":null,"trial_type":"html-keyboard-response","trial_index":176,"plugin_version":"2.1.0","time_elapsed":457942,"subject_id":"87691","group":"Group1","full_date":"2025-12-02T23:35:41.089Z","date":"2025-12-02","time":"23:35:41"},{"task":"memory_phase","broad_category":"I","image_png":"I_Andesite_08.png","image_id":8,"category_name":"Andesite","category":1,"distinct_rating":1.95,"distinct_type":"Bottom","rt":null,"stimulus":"Stimuli_Rocks480/I_Andesite_08.png","response":null,"trial_type":"image-keyboard-response","trial_index":177,"plugin_version":"2.1.0","time_elapsed":460445,"subject_id":"87691","group":"Group1","full_date":"2025-12-02T23:35:41.089Z","date":"2025-12-02","time":"23:35:41"},{"rt":null,"stimulus":"<p style=\"font-size: 50px; margin: 0; text-align: center;\">+</p>","response":null,"trial_type":"html-keyboard-response","trial_index":178,"plugin_version":"2.1.0","time_elapsed":461448,"subject_id":"87691","group":"Group1","full_date":"2025-12-02T23:35:41.089Z","date":"2025-12-02","time":"23:35:41"},{"task":"memory_phase","broad_category":"M","image_png":"M_Slate_03.png","image_id":307,"category_name":"Slate","category":20,"distinct_rating":1.87,"distinct_type":"Bottom","rt":null,"stimulus":"Stimuli_Rocks480/M_Slate_03.png","response":null,"trial_type":"image-keyboard-response","trial_index":179,"plugin_version":"2.1.0","time_elapsed":463955,"subject_id":"87691","group":"Group1","full_date":"2025-12-02T23:35:41.089Z","date":"2025-12-02","time":"23:35:41"},{"rt":null,"stimulus":"<p style=\"font-size: 50px; margin: 0; text-align: center;\">+</p>","response":null,"trial_type":"html-keyboard-response","trial_index":180,"plugin_version":"2.1.0","time_elapsed":464958,"subject_id":"87691","group":"Group1","full_date":"2025-12-02T23:35:41.089Z","date":"2025-12-02","time":"23:35:41"},{"task":"memory_phase","broad_category":"I","image_png":"I_Gabbro_11.png","image_id":59,"category_name":"Gabbro","category":4,"distinct_rating":1.99,"distinct_type":"Bottom","rt":null,"stimulus":"Stimuli_Rocks480/I_Gabbro_11.png","response":null,"trial_type":"image-keyboard-response","trial_index":181,"plugin_version":"2.1.0","time_elapsed":467461,"subject_id":"87691","group":"Group1","full_date":"2025-12-02T23:35:41.089Z","date":"2025-12-02","time":"23:35:41"},{"rt":null,"stimulus":"<p style=\"font-size: 50px; margin: 0; text-align: center;\">+</p>","response":null,"trial_type":"html-keyboard-response","trial_index":182,"plugin_version":"2.1.0","time_elapsed":468463,"subject_id":"87691","group":"Group1","full_date":"2025-12-02T23:35:41.089Z","date":"2025-12-02","time":"23:35:41"},{"task":"memory_phase","broad_category":"S","image_png":"S_Conglomerate_05.png","image_id":373,"category_name":"Conglomerate","category":24,"distinct_rating":7.32,"distinct_type":"Top","rt":null,"stimulus":"Stimuli_Rocks480/S_Conglomerate_05.png","response":null,"trial_type":"image-keyboard-response","trial_index":183,"plugin_version":"2.1.0","time_elapsed":470966,"subject_id":"87691","group":"Group1","full_date":"2025-12-02T23:35:41.089Z","date":"2025-12-02","time":"23:35:41"},{"rt":null,"stimulus":"<p style=\"font-size: 50px; margin: 0; text-align: center;\">+</p>","response":null,"trial_type":"html-keyboard-response","trial_index":184,"plugin_version":"2.1.0","time_elapsed":471968,"subject_id":"87691","group":"Group1","full_date":"2025-12-02T23:35:41.089Z","date":"2025-12-02","time":"23:35:41"},{"task":"memory_phase","broad_category":"S","image_png":"S_Sandstone_15.png","image_id":463,"category_name":"Sandstone","category":29,"distinct_rating":2,"distinct_type":"Bottom","rt":null,"stimulus":"Stimuli_Rocks480/S_Sandstone_15.png","response":null,"trial_type":"image-keyboard-response","trial_index":185,"plugin_version":"2.1.0","time_elapsed":474471,"subject_id":"87691","group":"Group1","full_date":"2025-12-02T23:35:41.089Z","date":"2025-12-02","time":"23:35:41"},{"rt":null,"stimulus":"<p style=\"font-size: 50px; margin: 0; text-align: center;\">+</p>","response":null,"trial_type":"html-keyboard-response","trial_index":186,"plugin_version":"2.1.0","time_elapsed":475474,"subject_id":"87691","group":"Group1","full_date":"2025-12-02T23:35:41.089Z","date":"2025-12-02","time":"23:35:41"},{"task":"memory_phase","broad_category":"I","image_png":"I_Andesite_10.png","image_id":10,"category_name":"Andesite","category":1,"distinct_rating":3.15,"distinct_type":"Bottom","rt":null,"stimulus":"Stimuli_Rocks480/I_Andesite_10.png","response":null,"trial_type":"image-keyboard-response","trial_index":187,"plugin_version":"2.1.0","time_elapsed":477977,"subject_id":"87691","group":"Group1","full_date":"2025-12-02T23:35:41.089Z","date":"2025-12-02","time":"23:35:41"},{"rt":null,"stimulus":"<p style=\"font-size: 50px; margin: 0; text-align: center;\">+</p>","response":null,"trial_type":"html-keyboard-response","trial_index":188,"plugin_version":"2.1.0","time_elapsed":478979,"subject_id":"87691","group":"Group1","full_date":"2025-12-02T23:35:41.089Z","date":"2025-12-02","time":"23:35:41"},{"task":"memory_phase","broad_category":"S","image_png":"S_Sandstone_16.png","image_id":464,"category_name":"Sandstone","category":29,"distinct_rating":1.93,"distinct_type":"Bottom","rt":null,"stimulus":"Stimuli_Rocks480/S_Sandstone_16.png","response":null,"trial_type":"image-keyboard-response","trial_index":189,"plugin_version":"2.1.0","time_elapsed":481482,"subject_id":"87691","group":"Group1","full_date":"2025-12-02T23:35:41.089Z","date":"2025-12-02","time":"23:35:41"},{"rt":null,"stimulus":"<p style=\"font-size: 50px; margin: 0; text-align: center;\">+</p>","response":null,"trial_type":"html-keyboard-response","trial_index":190,"plugin_version":"2.1.0","time_elapsed":482484,"subject_id":"87691","group":"Group1","full_date":"2025-12-02T23:35:41.089Z","date":"2025-12-02","time":"23:35:41"},{"task":"memory_phase","broad_category":"M","image_png":"M_Phyllite_07.png","image_id":263,"category_name":"Phyllite","category":17,"distinct_rating":2.59,"distinct_type":"Bottom","rt":null,"stimulus":"Stimuli_Rocks480/M_Phyllite_07.png","response":null,"trial_type":"image-keyboard-response","trial_index":191,"plugin_version":"2.1.0","time_elapsed":484987,"subject_id":"87691","group":"Group1","full_date":"2025-12-02T23:35:41.089Z","date":"2025-12-02","time":"23:35:41"},{"rt":null,"stimulus":"<p style=\"font-size: 50px; margin: 0; text-align: center;\">+</p>","response":null,"trial_type":"html-keyboard-response","trial_index":192,"plugin_version":"2.1.0","time_elapsed":485989,"subject_id":"87691","group":"Group1","full_date":"2025-12-02T23:35:41.089Z","date":"2025-12-02","time":"23:35:41"},{"task":"memory_phase","broad_category":"M","image_png":"M_Slate_15.png","image_id":319,"category_name":"Slate","category":20,"distinct_rating":2.13,"distinct_type":"Bottom","rt":null,"stimulus":"Stimuli_Rocks480/M_Slate_15.png","response":null,"trial_type":"image-keyboard-response","trial_index":193,"plugin_version":"2.1.0","time_elapsed":488492,"subject_id":"87691","group":"Group1","full_date":"2025-12-02T23:35:41.089Z","date":"2025-12-02","time":"23:35:41"},{"rt":null,"stimulus":"<p style=\"font-size: 50px; margin: 0; text-align: center;\">+</p>","response":null,"trial_type":"html-keyboard-response","trial_index":194,"plugin_version":"2.1.0","time_elapsed":489495,"subject_id":"87691","group":"Group1","full_date":"2025-12-02T23:35:41.089Z","date":"2025-12-02","time":"23:35:41"},{"task":"memory_phase","broad_category":"I","image_png":"I_Obsidian_05.png","image_id":85,"category_name":"Obsidian","category":6,"distinct_rating":7.32,"distinct_type":"Top","rt":null,"stimulus":"Stimuli_Rocks480/I_Obsidian_05.png","response":null,"trial_type":"image-keyboard-response","trial_index":195,"plugin_version":"2.1.0","time_elapsed":491998,"subject_id":"87691","group":"Group1","full_date":"2025-12-02T23:35:41.089Z","date":"2025-12-02","time":"23:35:41"},{"rt":null,"stimulus":"<p style=\"font-size: 50px; margin: 0; text-align: center;\">+</p>","response":null,"trial_type":"html-keyboard-response","trial_index":196,"plugin_version":"2.1.0","time_elapsed":493000,"subject_id":"87691","group":"Group1","full_date":"2025-12-02T23:35:41.089Z","date":"2025-12-02","time":"23:35:41"},{"task":"memory_phase","broad_category":"I","image_png":"I_Pegmatite_16.png","image_id":112,"category_name":"Pegmatite","category":7,"distinct_rating":7.03,"distinct_type":"Top","rt":null,"stimulus":"Stimuli_Rocks480/I_Pegmatite_16.png","response":null,"trial_type":"image-keyboard-response","trial_index":197,"plugin_version":"2.1.0","time_elapsed":495503,"subject_id":"87691","group":"Group1","full_date":"2025-12-02T23:35:41.089Z","date":"2025-12-02","time":"23:35:41"},{"rt":null,"stimulus":"<p style=\"font-size: 50px; margin: 0; text-align: center;\">+</p>","response":null,"trial_type":"html-keyboard-response","trial_index":198,"plugin_version":"2.1.0","time_elapsed":496506,"subject_id":"87691","group":"Group1","full_date":"2025-12-02T23:35:41.089Z","date":"2025-12-02","time":"23:35:41"},{"task":"memory_phase","broad_category":"I","image_png":"I_Diorite_04.png","image_id":36,"category_name":"Diorite","category":3,"distinct_rating":2.98,"distinct_type":"Bottom","rt":null,"stimulus":"Stimuli_Rocks480/I_Diorite_04.png","response":null,"trial_type":"image-keyboard-response","trial_index":199,"plugin_version":"2.1.0","time_elapsed":499008,"subject_id":"87691","group":"Group1","full_date":"2025-12-02T23:35:41.089Z","date":"2025-12-02","time":"23:35:41"},{"rt":null,"stimulus":"<p style=\"font-size: 50px; margin: 0; text-align: center;\">+</p>","response":null,"trial_type":"html-keyboard-response","trial_index":200,"plugin_version":"2.1.0","time_elapsed":500010,"subject_id":"87691","group":"Group1","full_date":"2025-12-02T23:35:41.089Z","date":"2025-12-02","time":"23:35:41"},{"task":"memory_phase","broad_category":"S","image_png":"S_Sandstone_03.png","image_id":451,"category_name":"Sandstone","category":29,"distinct_rating":1.86,"distinct_type":"Bottom","rt":null,"stimulus":"Stimuli_Rocks480/S_Sandstone_03.png","response":null,"trial_type":"image-keyboard-response","trial_index":201,"plugin_version":"2.1.0","time_elapsed":502513,"subject_id":"87691","group":"Group1","full_date":"2025-12-02T23:35:41.089Z","date":"2025-12-02","time":"23:35:41"},{"rt":null,"stimulus":"<p style=\"font-size: 50px; margin: 0; text-align: center;\">+</p>","response":null,"trial_type":"html-keyboard-response","trial_index":202,"plugin_version":"2.1.0","time_elapsed":503516,"subject_id":"87691","group":"Group1","full_date":"2025-12-02T23:35:41.089Z","date":"2025-12-02","time":"23:35:41"},{"task":"memory_phase","broad_category":"I","image_png":"I_Rhyolite_11.png","image_id":155,"category_name":"Rhyolite","category":10,"distinct_rating":1.73,"distinct_type":"Bottom","rt":null,"stimulus":"Stimuli_Rocks480/I_Rhyolite_11.png","response":null,"trial_type":"image-keyboard-response","trial_index":203,"plugin_version":"2.1.0","time_elapsed":506019,"subject_id":"87691","group":"Group1","full_date":"2025-12-02T23:35:41.089Z","date":"2025-12-02","time":"23:35:41"},{"rt":null,"stimulus":"<p style=\"font-size: 50px; margin: 0; text-align: center;\">+</p>","response":null,"trial_type":"html-keyboard-response","trial_index":204,"plugin_version":"2.1.0","time_elapsed":507022,"subject_id":"87691","group":"Group1","full_date":"2025-12-02T23:35:41.089Z","date":"2025-12-02","time":"23:35:41"},{"task":"memory_phase","broad_category":"I","image_png":"I_Basalt_01.png","image_id":17,"category_name":"Basalt","category":2,"distinct_rating":1.92,"distinct_type":"Bottom","rt":null,"stimulus":"Stimuli_Rocks480/I_Basalt_01.png","response":null,"trial_type":"image-keyboard-response","trial_index":205,"plugin_version":"2.1.0","time_elapsed":509525,"subject_id":"87691","group":"Group1","full_date":"2025-12-02T23:35:41.089Z","date":"2025-12-02","time":"23:35:41"},{"rt":null,"stimulus":"<p style=\"font-size: 50px; margin: 0; text-align: center;\">+</p>","response":null,"trial_type":"html-keyboard-response","trial_index":206,"plugin_version":"2.1.0","time_elapsed":510527,"subject_id":"87691","group":"Group1","full_date":"2025-12-02T23:35:41.089Z","date":"2025-12-02","time":"23:35:41"},{"task":"memory_phase","broad_category":"I","image_png":"I_Basalt_09.png","image_id":25,"category_name":"Basalt","category":2,"distinct_rating":1.89,"distinct_type":"Bottom","rt":null,"stimulus":"Stimuli_Rocks480/I_Basalt_09.png","response":null,"trial_type":"image-keyboard-response","trial_index":207,"plugin_version":"2.1.0","time_elapsed":513031,"subject_id":"87691","group":"Group1","full_date":"2025-12-02T23:35:41.089Z","date":"2025-12-02","time":"23:35:41"},{"rt":5619,"stimulus":"<p style=\"max-width: 760px; margin: auto; font-size: 35px; line-height: 1.5;\">You have completed 2 study phases. Now, we'll show you all the images again 1 more time.<br><br>Press SPACE to continue</p>","response":" ","trial_type":"html-keyboard-response","trial_index":208,"plugin_version":"2.1.0","time_elapsed":518650,"subject_id":"87691","group":"Group1","full_date":"2025-12-02T23:35:41.089Z","date":"2025-12-02","time":"23:35:41"},{"rt":null,"stimulus":"<p style=\"font-size: 50px; margin: 0; text-align: center;\">+</p>","response":null,"trial_type":"html-keyboard-response","trial_index":209,"plugin_version":"2.1.0","time_elapsed":519653,"subject_id":"87691","group":"Group1","full_date":"2025-12-02T23:35:41.089Z","date":"2025-12-02","time":"23:35:41"},{"task":"memory_phase","broad_category":"M","image_png":"M_Quartzite_08.png","image_id":280,"category_name":"Quartzite","category":18,"distinct_rating":2.15,"distinct_type":"Bottom","rt":null,"stimulus":"Stimuli_Rocks480/M_Quartzite_08.png","response":null,"trial_type":"image-keyboard-response","trial_index":210,"plugin_version":"2.1.0","time_elapsed":522157,"subject_id":"87691","group":"Group1","full_date":"2025-12-02T23:35:41.089Z","date":"2025-12-02","time":"23:35:41"},{"rt":null,"stimulus":"<p style=\"font-size: 50px; margin: 0; text-align: center;\">+</p>","response":null,"trial_type":"html-keyboard-response","trial_index":211,"plugin_version":"2.1.0","time_elapsed":523159,"subject_id":"87691","group":"Group1","full_date":"2025-12-02T23:35:41.089Z","date":"2025-12-02","time":"23:35:41"},{"task":"memory_phase","broad_category":"I","image_png":"I_Pumice_11.png","image_id":139,"category_name":"Pumice","category":9,"distinct_rating":1.74,"distinct_type":"Bottom","rt":null,"stimulus":"Stimuli_Rocks480/I_Pumice_11.png","response":null,"trial_type":"image-keyboard-response","trial_index":212,"plugin_version":"2.1.0","time_elapsed":525662,"subject_id":"87691","group":"Group1","full_date":"2025-12-02T23:35:41.089Z","date":"2025-12-02","time":"23:35:41"},{"rt":null,"stimulus":"<p style=\"font-size: 50px; margin: 0; text-align: center;\">+</p>","response":null,"trial_type":"html-keyboard-response","trial_index":213,"plugin_version":"2.1.0","time_elapsed":526664,"subject_id":"87691","group":"Group1","full_date":"2025-12-02T23:35:41.089Z","date":"2025-12-02","time":"23:35:41"},{"task":"memory_phase","broad_category":"I","image_png":"I_Basalt_09.png","image_id":25,"category_name":"Basalt","category":2,"distinct_rating":1.89,"distinct_type":"Bottom","rt":null,"stimulus":"Stimuli_Rocks480/I_Basalt_09.png","response":null,"trial_type":"image-keyboard-response","trial_index":214,"plugin_version":"2.1.0","time_elapsed":529168,"subject_id":"87691","group":"Group1","full_date":"2025-12-02T23:35:41.089Z","date":"2025-12-02","time":"23:35:41"},{"rt":null,"stimulus":"<p style=\"font-size: 50px; margin: 0; text-align: center;\">+</p>","response":null,"trial_type":"html-keyboard-response","trial_index":215,"plugin_version":"2.1.0","time_elapsed":530170,"subject_id":"87691","group":"Group1","full_date":"2025-12-02T23:35:41.089Z","date":"2025-12-02","time":"23:35:41"},{"task":"memory_phase","broad_category":"S","image_png":"S_Dolomite_13.png","image_id":397,"category_name":"Dolomite","category":25,"distinct_rating":1.77,"distinct_type":"Bottom","rt":null,"stimulus":"Stimuli_Rocks480/S_Dolomite_13.png","response":null,"trial_type":"image-keyboard-response","trial_index":216,"plugin_version":"2.1.0","time_elapsed":532673,"subject_id":"87691","group":"Group1","full_date":"2025-12-02T23:35:41.089Z","date":"2025-12-02","time":"23:35:41"},{"rt":null,"stimulus":"<p style=\"font-size: 50px; margin: 0; text-align: center;\">+</p>","response":null,"trial_type":"html-keyboard-response","trial_index":217,"plugin_version":"2.1.0","time_elapsed":533676,"subject_id":"87691","group":"Group1","full_date":"2025-12-02T23:35:41.089Z","date":"2025-12-02","time":"23:35:41"},{"task":"memory_phase","broad_category":"M","image_png":"M_Slate_11.png","image_id":315,"category_name":"Slate","category":20,"distinct_rating":2.75,"distinct_type":"Bottom","rt":null,"stimulus":"Stimuli_Rocks480/M_Slate_11.png","response":null,"trial_type":"image-keyboard-response","trial_index":218,"plugin_version":"2.1.0","time_elapsed":536179,"subject_id":"87691","group":"Group1","full_date":"2025-12-02T23:35:41.089Z","date":"2025-12-02","time":"23:35:41"},{"rt":null,"stimulus":"<p style=\"font-size: 50px; margin: 0; text-align: center;\">+</p>","response":null,"trial_type":"html-keyboard-response","trial_index":219,"plugin_version":"2.1.0","time_elapsed":537181,"subject_id":"87691","group":"Group1","full_date":"2025-12-02T23:35:41.089Z","date":"2025-12-02","time":"23:35:41"},{"task":"memory_phase","broad_category":"I","image_png":"I_Gabbro_11.png","image_id":59,"category_name":"Gabbro","category":4,"distinct_rating":1.99,"distinct_type":"Bottom","rt":null,"stimulus":"Stimuli_Rocks480/I_Gabbro_11.png","response":null,"trial_type":"image-keyboard-response","trial_index":220,"plugin_version":"2.1.0","time_elapsed":539683,"subject_id":"87691","group":"Group1","full_date":"2025-12-02T23:35:41.089Z","date":"2025-12-02","time":"23:35:41"},{"rt":null,"stimulus":"<p style=\"font-size: 50px; margin: 0; text-align: center;\">+</p>","response":null,"trial_type":"html-keyboard-response","trial_index":221,"plugin_version":"2.1.0","time_elapsed":540686,"subject_id":"87691","group":"Group1","full_date":"2025-12-02T23:35:41.089Z","date":"2025-12-02","time":"23:35:41"},{"task":"memory_phase","broad_category":"I","image_png":"I_Pumice_12.png","image_id":140,"category_name":"Pumice","category":9,"distinct_rating":2.97,"distinct_type":"Bottom","rt":null,"stimulus":"Stimuli_Rocks480/I_Pumice_12.png","response":null,"trial_type":"image-keyboard-response","trial_index":222,"plugin_version":"2.1.0","time_elapsed":543188,"subject_id":"87691","group":"Group1","full_date":"2025-12-02T23:35:41.089Z","date":"2025-12-02","time":"23:35:41"},{"rt":null,"stimulus":"<p style=\"font-size: 50px; margin: 0; text-align: center;\">+</p>","response":null,"trial_type":"html-keyboard-response","trial_index":223,"plugin_version":"2.1.0","time_elapsed":544190,"subject_id":"87691","group":"Group1","full_date":"2025-12-02T23:35:41.089Z","date":"2025-12-02","time":"23:35:41"},{"task":"memory_phase","broad_category":"S","image_png":"S_Sandstone_15.png","image_id":463,"category_name":"Sandstone","category":29,"distinct_rating":2,"distinct_type":"Bottom","rt":null,"stimulus":"Stimuli_Rocks480/S_Sandstone_15.png","response":null,"trial_type":"image-keyboard-response","trial_index":224,"plugin_version":"2.1.0","time_elapsed":546694,"subject_id":"87691","group":"Group1","full_date":"2025-12-02T23:35:41.089Z","date":"2025-12-02","time":"23:35:41"},{"rt":null,"stimulus":"<p style=\"font-size: 50px; margin: 0; text-align: center;\">+</p>","response":null,"trial_type":"html-keyboard-response","trial_index":225,"plugin_version":"2.1.0","time_elapsed":547696,"subject_id":"87691","group":"Group1","full_date":"2025-12-02T23:35:41.089Z","date":"2025-12-02","time":"23:35:41"},{"task":"memory_phase","broad_category":"S","image_png":"S_Dolomite_12.png","image_id":396,"category_name":"Dolomite","category":25,"distinct_rating":1.85,"distinct_type":"Bottom","rt":null,"stimulus":"Stimuli_Rocks480/S_Dolomite_12.png","response":null,"trial_type":"image-keyboard-response","trial_index":226,"plugin_version":"2.1.0","time_elapsed":550199,"subject_id":"87691","group":"Group1","full_date":"2025-12-02T23:35:41.089Z","date":"2025-12-02","time":"23:35:41"},{"rt":null,"stimulus":"<p style=\"font-size: 50px; margin: 0; text-align: center;\">+</p>","response":null,"trial_type":"html-keyboard-response","trial_index":227,"plugin_version":"2.1.0","time_elapsed":551202,"subject_id":"87691","group":"Group1","full_date":"2025-12-02T23:35:41.089Z","date":"2025-12-02","time":"23:35:41"},{"task":"memory_phase","broad_category":"M","image_png":"M_Slate_03.png","image_id":307,"category_name":"Slate","category":20,"distinct_rating":1.87,"distinct_type":"Bottom","rt":null,"stimulus":"Stimuli_Rocks480/M_Slate_03.png","response":null,"trial_type":"image-keyboard-response","trial_index":228,"plugin_version":"2.1.0","time_elapsed":553704,"subject_id":"87691","group":"Group1","full_date":"2025-12-02T23:35:41.089Z","date":"2025-12-02","time":"23:35:41"},{"rt":null,"stimulus":"<p style=\"font-size: 50px; margin: 0; text-align: center;\">+</p>","response":null,"trial_type":"html-keyboard-response","trial_index":229,"plugin_version":"2.1.0","time_elapsed":554706,"subject_id":"87691","group":"Group1","full_date":"2025-12-02T23:35:41.089Z","date":"2025-12-02","time":"23:35:41"},{"task":"memory_phase","broad_category":"S","image_png":"S_Shale_12.png","image_id":476,"category_name":"Shale","category":30,"distinct_rating":2.48,"distinct_type":"Bottom","rt":null,"stimulus":"Stimuli_Rocks480/S_Shale_12.png","response":null,"trial_type":"image-keyboard-response","trial_index":230,"plugin_version":"2.1.0","time_elapsed":557209,"subject_id":"87691","group":"Group1","full_date":"2025-12-02T23:35:41.089Z","date":"2025-12-02","time":"23:35:41"},{"rt":null,"stimulus":"<p style=\"font-size: 50px; margin: 0; text-align: center;\">+</p>","response":null,"trial_type":"html-keyboard-response","trial_index":231,"plugin_version":"2.1.0","time_elapsed":558211,"subject_id":"87691","group":"Group1","full_date":"2025-12-02T23:35:41.089Z","date":"2025-12-02","time":"23:35:41"},{"task":"memory_phase","broad_category":"M","image_png":"M_Quartzite_13.png","image_id":285,"category_name":"Quartzite","category":18,"distinct_rating":2.27,"distinct_type":"Bottom","rt":null,"stimulus":"Stimuli_Rocks480/M_Quartzite_13.png","response":null,"trial_type":"image-keyboard-response","trial_index":232,"plugin_version":"2.1.0","time_elapsed":560714,"subject_id":"87691","group":"Group1","full_date":"2025-12-02T23:35:41.089Z","date":"2025-12-02","time":"23:35:41"},{"rt":null,"stimulus":"<p style=\"font-size: 50px; margin: 0; text-align: center;\">+</p>","response":null,"trial_type":"html-keyboard-response","trial_index":233,"plugin_version":"2.1.0","time_elapsed":561717,"subject_id":"87691","group":"Group1","full_date":"2025-12-02T23:35:41.089Z","date":"2025-12-02","time":"23:35:41"},{"task":"memory_phase","broad_category":"I","image_png":"I_Pumice_08.png","image_id":136,"category_name":"Pumice","category":9,"distinct_rating":3.1,"distinct_type":"Bottom","rt":null,"stimulus":"Stimuli_Rocks480/I_Pumice_08.png","response":null,"trial_type":"image-keyboard-response","trial_index":234,"plugin_version":"2.1.0","time_elapsed":564220,"subject_id":"87691","group":"Group1","full_date":"2025-12-02T23:35:41.089Z","date":"2025-12-02","time":"23:35:41"},{"rt":null,"stimulus":"<p style=\"font-size: 50px; margin: 0; text-align: center;\">+</p>","response":null,"trial_type":"html-keyboard-response","trial_index":235,"plugin_version":"2.1.0","time_elapsed":565222,"subject_id":"87691","group":"Group1","full_date":"2025-12-02T23:35:41.089Z","date":"2025-12-02","time":"23:35:41"},{"task":"memory_phase","broad_category":"I","image_png":"I_Gabbro_08.png","image_id":56,"category_name":"Gabbro","category":4,"distinct_rating":3.02,"distinct_type":"Bottom","rt":null,"stimulus":"Stimuli_Rocks480/I_Gabbro_08.png","response":null,"trial_type":"image-keyboard-response","trial_index":236,"plugin_version":"2.1.0","time_elapsed":567725,"subject_id":"87691","group":"Group1","full_date":"2025-12-02T23:35:41.089Z","date":"2025-12-02","time":"23:35:41"},{"rt":null,"stimulus":"<p style=\"font-size: 50px; margin: 0; text-align: center;\">+</p>","response":null,"trial_type":"html-keyboard-response","trial_index":237,"plugin_version":"2.1.0","time_elapsed":568728,"subject_id":"87691","group":"Group1","full_date":"2025-12-02T23:35:41.089Z","date":"2025-12-02","time":"23:35:41"},{"task":"memory_phase","broad_category":"M","image_png":"M_Phyllite_07.png","image_id":263,"category_name":"Phyllite","category":17,"distinct_rating":2.59,"distinct_type":"Bottom","rt":null,"stimulus":"Stimuli_Rocks480/M_Phyllite_07.png","response":null,"trial_type":"image-keyboard-response","trial_index":238,"plugin_version":"2.1.0","time_elapsed":571231,"subject_id":"87691","group":"Group1","full_date":"2025-12-02T23:35:41.089Z","date":"2025-12-02","time":"23:35:41"},{"rt":null,"stimulus":"<p style=\"font-size: 50px; margin: 0; text-align: center;\">+</p>","response":null,"trial_type":"html-keyboard-response","trial_index":239,"plugin_version":"2.1.0","time_elapsed":572233,"subject_id":"87691","group":"Group1","full_date":"2025-12-02T23:35:41.089Z","date":"2025-12-02","time":"23:35:41"},{"task":"memory_phase","broad_category":"S","image_png":"S_Shale_08.png","image_id":472,"category_name":"Shale","category":30,"distinct_rating":2.55,"distinct_type":"Bottom","rt":null,"stimulus":"Stimuli_Rocks480/S_Shale_08.png","response":null,"trial_type":"image-keyboard-response","trial_index":240,"plugin_version":"2.1.0","time_elapsed":574737,"subject_id":"87691","group":"Group1","full_date":"2025-12-02T23:35:41.089Z","date":"2025-12-02","time":"23:35:41"},{"rt":null,"stimulus":"<p style=\"font-size: 50px; margin: 0; text-align: center;\">+</p>","response":null,"trial_type":"html-keyboard-response","trial_index":241,"plugin_version":"2.1.0","time_elapsed":575739,"subject_id":"87691","group":"Group1","full_date":"2025-12-02T23:35:41.089Z","date":"2025-12-02","time":"23:35:41"},{"task":"memory_phase","broad_category":"I","image_png":"I_Pegmatite_10.png","image_id":106,"category_name":"Pegmatite","category":7,"distinct_rating":7.66,"distinct_type":"Top","rt":null,"stimulus":"Stimuli_Rocks480/I_Pegmatite_10.png","response":null,"trial_type":"image-keyboard-response","trial_index":242,"plugin_version":"2.1.0","time_elapsed":578242,"subject_id":"87691","group":"Group1","full_date":"2025-12-02T23:35:41.089Z","date":"2025-12-02","time":"23:35:41"},{"rt":null,"stimulus":"<p style=\"font-size: 50px; margin: 0; text-align: center;\">+</p>","response":null,"trial_type":"html-keyboard-response","trial_index":243,"plugin_version":"2.1.0","time_elapsed":579244,"subject_id":"87691","group":"Group1","full_date":"2025-12-02T23:35:41.089Z","date":"2025-12-02","time":"23:35:41"},{"task":"memory_phase","broad_category":"I","image_png":"I_Diorite_03.png","image_id":35,"category_name":"Diorite","category":3,"distinct_rating":3.14,"distinct_type":"Bottom","rt":null,"stimulus":"Stimuli_Rocks480/I_Diorite_03.png","response":null,"trial_type":"image-keyboard-response","trial_index":244,"plugin_version":"2.1.0","time_elapsed":581747,"subject_id":"87691","group":"Group1","full_date":"2025-12-02T23:35:41.089Z","date":"2025-12-02","time":"23:35:41"},{"rt":null,"stimulus":"<p style=\"font-size: 50px; margin: 0; text-align: center;\">+</p>","response":null,"trial_type":"html-keyboard-response","trial_index":245,"plugin_version":"2.1.0","time_elapsed":582749,"subject_id":"87691","group":"Group1","full_date":"2025-12-02T23:35:41.089Z","date":"2025-12-02","time":"23:35:41"},{"task":"memory_phase","broad_category":"M","image_png":"M_Slate_15.png","image_id":319,"category_name":"Slate","category":20,"distinct_rating":2.13,"distinct_type":"Bottom","rt":null,"stimulus":"Stimuli_Rocks480/M_Slate_15.png","response":null,"trial_type":"image-keyboard-response","trial_index":246,"plugin_version":"2.1.0","time_elapsed":585253,"subject_id":"87691","group":"Group1","full_date":"2025-12-02T23:35:41.089Z","date":"2025-12-02","time":"23:35:41"},{"rt":null,"stimulus":"<p style=\"font-size: 50px; margin: 0; text-align: center;\">+</p>","response":null,"trial_type":"html-keyboard-response","trial_index":247,"plugin_version":"2.1.0","time_elapsed":586255,"subject_id":"87691","group":"Group1","full_date":"2025-12-02T23:35:41.089Z","date":"2025-12-02","time":"23:35:41"},{"task":"memory_phase","broad_category":"M","image_png":"M_Phyllite_03.png","image_id":259,"category_name":"Phyllite","category":17,"distinct_rating":2.5,"distinct_type":"Bottom","rt":null,"stimulus":"Stimuli_Rocks480/M_Phyllite_03.png","response":null,"trial_type":"image-keyboard-response","trial_index":248,"plugin_version":"2.1.0","time_elapsed":588758,"subject_id"