[{"width":1470,"height":840,"webaudio":true,"browser":"safari","browser_version":"16.4.0","mobile":false,"os":"Mac OS","fullscreen":true,"vsync_rate":30.02,"webcam":true,"microphone":true,"trial_type":"browser-check","trial_index":0,"plugin_version":"2.1.0","time_elapsed":2016,"subject_id":"86834","group":"Group2","full_date":"2025-12-09T21:47:59.426Z","date":"2025-12-09","time":"21:47:59"},{"success":true,"timeout":false,"failed_images":[],"failed_audio":[],"failed_video":[],"trial_type":"preload","trial_index":1,"plugin_version":"2.1.0","time_elapsed":9060,"subject_id":"86834","group":"Group2","full_date":"2025-12-09T21:47:59.426Z","date":"2025-12-09","time":"21:47:59"},{"rt":32435,"url":"SONA_consent_memorability.html","trial_type":"external-html","trial_index":2,"plugin_version":"2.1.0","time_elapsed":41544,"subject_id":"86834","group":"Group2","full_date":"2025-12-09T21:47:59.426Z","date":"2025-12-09","time":"21:47:59"},{"success":true,"rt":2588,"trial_type":"fullscreen","trial_index":3,"plugin_version":"2.1.0","time_elapsed":45141,"subject_id":"86834","group":"Group2","full_date":"2025-12-09T21:47:59.426Z","date":"2025-12-09","time":"21:47:59"},{"rt":57670,"stimulus":"<div style=\"max-width: 760px; margin: auto; font-size: 20px; line-height: 1.5;\">\n      <h1 style=\"text-align:center; font-size: 30px;\">Instructions</h1>\n      <p>\n        Welcome to the study on <b>visual memory</b>. This experiment consists of <b>two phases</b>: \n        a <b>study phase</b> and a <b>test phase</b>.\n      </p>\n      <p>\n        In the study phase, you will see a series of rock images along with their category labels.\n        The images will appear one at a time.\n        <b>Your task</b> is to learn the categories to which the rock images belong \n        and to remember each image as accurately as possible.\n      </p> \n      <p>\n        Note that we will repeat the study phase <b>3 times</b>, \n        so you will have multiple opportunities to see and remember each image.\n      </p>\n      <p>\n        After the study phase, <b>your memory will be tested</b>. \n        Additional instructions for the test phase will be provided at that time.\n      </p>\n      <p>\n        If your computer has multiple <b>language settings</b> (e.g., English and another language),\n        please make sure it is set to English before starting.\n      </p>\n      <p>\n        You can track your progress using the <b>completion bar</b> at the top of the screen. \n        Please note that the bar will refresh when the test phase begins \n        to give you an accurate sense of your progress in both phases.\n      </p> \n      <p>\n        Press the button below when you are ready to begin.\n      </p>\n    </div>","response":0,"trial_type":"html-button-response","trial_index":4,"plugin_version":"2.1.0","time_elapsed":102816,"subject_id":"86834","group":"Group2","full_date":"2025-12-09T21:47:59.426Z","date":"2025-12-09","time":"21:47:59"},{"rt":null,"stimulus":"<p style=\"font-size: 50px; margin: 0; text-align: center;\">+</p>","response":null,"trial_type":"html-keyboard-response","trial_index":5,"plugin_version":"2.1.0","time_elapsed":103820,"subject_id":"86834","group":"Group2","full_date":"2025-12-09T21:47:59.426Z","date":"2025-12-09","time":"21:47:59"},{"task":"memory_phase","broad_category":"M","image_png":"M_Marble_02.png","image_id":226,"category_name":"Marble","category":15,"distinct_rating":3.2,"distinct_type":"Bottom","rt":null,"stimulus":"Stimuli_Rocks480/M_Marble_02.png","response":null,"trial_type":"image-keyboard-response","trial_index":6,"plugin_version":"2.1.0","time_elapsed":106356,"subject_id":"86834","group":"Group2","full_date":"2025-12-09T21:47:59.426Z","date":"2025-12-09","time":"21:47:59"},{"rt":null,"stimulus":"<p style=\"font-size: 50px; margin: 0; text-align: center;\">+</p>","response":null,"trial_type":"html-keyboard-response","trial_index":7,"plugin_version":"2.1.0","time_elapsed":107360,"subject_id":"86834","group":"Group2","full_date":"2025-12-09T21:47:59.426Z","date":"2025-12-09","time":"21:47:59"},{"task":"memory_phase","broad_category":"I","image_png":"I_Pumice_13.png","image_id":141,"category_name":"Pumice","category":9,"distinct_rating":3.12,"distinct_type":"Bottom","rt":null,"stimulus":"Stimuli_Rocks480/I_Pumice_13.png","response":null,"trial_type":"image-keyboard-response","trial_index":8,"plugin_version":"2.1.0","time_elapsed":109896,"subject_id":"86834","group":"Group2","full_date":"2025-12-09T21:47:59.426Z","date":"2025-12-09","time":"21:47:59"},{"rt":null,"stimulus":"<p style=\"font-size: 50px; margin: 0; text-align: center;\">+</p>","response":null,"trial_type":"html-keyboard-response","trial_index":9,"plugin_version":"2.1.0","time_elapsed":110900,"subject_id":"86834","group":"Group2","full_date":"2025-12-09T21:47:59.426Z","date":"2025-12-09","time":"21:47:59"},{"task":"memory_phase","broad_category":"I","image_png":"I_Diorite_01.png","image_id":33,"category_name":"Diorite","category":3,"distinct_rating":2.97,"distinct_type":"Bottom","rt":null,"stimulus":"Stimuli_Rocks480/I_Diorite_01.png","response":null,"trial_type":"image-keyboard-response","trial_index":10,"plugin_version":"2.1.0","time_elapsed":113436,"subject_id":"86834","group":"Group2","full_date":"2025-12-09T21:47:59.426Z","date":"2025-12-09","time":"21:47:59"},{"rt":null,"stimulus":"<p style=\"font-size: 50px; margin: 0; text-align: center;\">+</p>","response":null,"trial_type":"html-keyboard-response","trial_index":11,"plugin_version":"2.1.0","time_elapsed":114440,"subject_id":"86834","group":"Group2","full_date":"2025-12-09T21:47:59.426Z","date":"2025-12-09","time":"21:47:59"},{"task":"memory_phase","broad_category":"M","image_png":"M_Gneiss_14.png","image_id":206,"category_name":"Gneiss","category":13,"distinct_rating":3.41,"distinct_type":"Bottom","rt":null,"stimulus":"Stimuli_Rocks480/M_Gneiss_14.png","response":null,"trial_type":"image-keyboard-response","trial_index":12,"plugin_version":"2.1.0","time_elapsed":116973,"subject_id":"86834","group":"Group2","full_date":"2025-12-09T21:47:59.426Z","date":"2025-12-09","time":"21:47:59"},{"rt":null,"stimulus":"<p style=\"font-size: 50px; margin: 0; text-align: center;\">+</p>","response":null,"trial_type":"html-keyboard-response","trial_index":13,"plugin_version":"2.1.0","time_elapsed":117978,"subject_id":"86834","group":"Group2","full_date":"2025-12-09T21:47:59.426Z","date":"2025-12-09","time":"21:47:59"},{"task":"memory_phase","broad_category":"M","image_png":"M_Gneiss_10.png","image_id":202,"category_name":"Gneiss","category":13,"distinct_rating":3.09,"distinct_type":"Bottom","rt":null,"stimulus":"Stimuli_Rocks480/M_Gneiss_10.png","response":null,"trial_type":"image-keyboard-response","trial_index":14,"plugin_version":"2.1.0","time_elapsed":120511,"subject_id":"86834","group":"Group2","full_date":"2025-12-09T21:47:59.426Z","date":"2025-12-09","time":"21:47:59"},{"rt":null,"stimulus":"<p style=\"font-size: 50px; margin: 0; text-align: center;\">+</p>","response":null,"trial_type":"html-keyboard-response","trial_index":15,"plugin_version":"2.1.0","time_elapsed":121517,"subject_id":"86834","group":"Group2","full_date":"2025-12-09T21:47:59.426Z","date":"2025-12-09","time":"21:47:59"},{"task":"memory_phase","broad_category":"I","image_png":"I_Diorite_10.png","image_id":42,"category_name":"Diorite","category":3,"distinct_rating":2.84,"distinct_type":"Bottom","rt":null,"stimulus":"Stimuli_Rocks480/I_Diorite_10.png","response":null,"trial_type":"image-keyboard-response","trial_index":16,"plugin_version":"2.1.0","time_elapsed":124067,"subject_id":"86834","group":"Group2","full_date":"2025-12-09T21:47:59.426Z","date":"2025-12-09","time":"21:47:59"},{"rt":null,"stimulus":"<p style=\"font-size: 50px; margin: 0; text-align: center;\">+</p>","response":null,"trial_type":"html-keyboard-response","trial_index":17,"plugin_version":"2.1.0","time_elapsed":125086,"subject_id":"86834","group":"Group2","full_date":"2025-12-09T21:47:59.426Z","date":"2025-12-09","time":"21:47:59"},{"task":"memory_phase","broad_category":"I","image_png":"I_Rhyolite_10.png","image_id":154,"category_name":"Rhyolite","category":10,"distinct_rating":2.88,"distinct_type":"Bottom","rt":null,"stimulus":"Stimuli_Rocks480/I_Rhyolite_10.png","response":null,"trial_type":"image-keyboard-response","trial_index":18,"plugin_version":"2.1.0","time_elapsed":127637,"subject_id":"86834","group":"Group2","full_date":"2025-12-09T21:47:59.426Z","date":"2025-12-09","time":"21:47:59"},{"rt":null,"stimulus":"<p style=\"font-size: 50px; margin: 0; text-align: center;\">+</p>","response":null,"trial_type":"html-keyboard-response","trial_index":19,"plugin_version":"2.1.0","time_elapsed":128656,"subject_id":"86834","group":"Group2","full_date":"2025-12-09T21:47:59.426Z","date":"2025-12-09","time":"21:47:59"},{"task":"memory_phase","broad_category":"M","image_png":"M_Phyllite_02.png","image_id":258,"category_name":"Phyllite","category":17,"distinct_rating":2.89,"distinct_type":"Bottom","rt":null,"stimulus":"Stimuli_Rocks480/M_Phyllite_02.png","response":null,"trial_type":"image-keyboard-response","trial_index":20,"plugin_version":"2.1.0","time_elapsed":131207,"subject_id":"86834","group":"Group2","full_date":"2025-12-09T21:47:59.426Z","date":"2025-12-09","time":"21:47:59"},{"rt":null,"stimulus":"<p style=\"font-size: 50px; margin: 0; text-align: center;\">+</p>","response":null,"trial_type":"html-keyboard-response","trial_index":21,"plugin_version":"2.1.0","time_elapsed":132226,"subject_id":"86834","group":"Group2","full_date":"2025-12-09T21:47:59.426Z","date":"2025-12-09","time":"21:47:59"},{"task":"memory_phase","broad_category":"I","image_png":"I_Gabbro_02.png","image_id":50,"category_name":"Gabbro","category":4,"distinct_rating":2.73,"distinct_type":"Bottom","rt":null,"stimulus":"Stimuli_Rocks480/I_Gabbro_02.png","response":null,"trial_type":"image-keyboard-response","trial_index":22,"plugin_version":"2.1.0","time_elapsed":134777,"subject_id":"86834","group":"Group2","full_date":"2025-12-09T21:47:59.426Z","date":"2025-12-09","time":"21:47:59"},{"rt":null,"stimulus":"<p style=\"font-size: 50px; margin: 0; text-align: center;\">+</p>","response":null,"trial_type":"html-keyboard-response","trial_index":23,"plugin_version":"2.1.0","time_elapsed":135797,"subject_id":"86834","group":"Group2","full_date":"2025-12-09T21:47:59.426Z","date":"2025-12-09","time":"21:47:59"},{"task":"memory_phase","broad_category":"I","image_png":"I_Pumice_01.png","image_id":129,"category_name":"Pumice","category":9,"distinct_rating":3.25,"distinct_type":"Bottom","rt":null,"stimulus":"Stimuli_Rocks480/I_Pumice_01.png","response":null,"trial_type":"image-keyboard-response","trial_index":24,"plugin_version":"2.1.0","time_elapsed":138347,"subject_id":"86834","group":"Group2","full_date":"2025-12-09T21:47:59.426Z","date":"2025-12-09","time":"21:47:59"},{"rt":null,"stimulus":"<p style=\"font-size: 50px; margin: 0; text-align: center;\">+</p>","response":null,"trial_type":"html-keyboard-response","trial_index":25,"plugin_version":"2.1.0","time_elapsed":139366,"subject_id":"86834","group":"Group2","full_date":"2025-12-09T21:47:59.426Z","date":"2025-12-09","time":"21:47:59"},{"task":"memory_phase","broad_category":"S","image_png":"S_Sandstone_11.png","image_id":459,"category_name":"Sandstone","category":29,"distinct_rating":1.82,"distinct_type":"Bottom","rt":null,"stimulus":"Stimuli_Rocks480/S_Sandstone_11.png","response":null,"trial_type":"image-keyboard-response","trial_index":26,"plugin_version":"2.1.0","time_elapsed":141917,"subject_id":"86834","group":"Group2","full_date":"2025-12-09T21:47:59.426Z","date":"2025-12-09","time":"21:47:59"},{"rt":null,"stimulus":"<p style=\"font-size: 50px; margin: 0; text-align: center;\">+</p>","response":null,"trial_type":"html-keyboard-response","trial_index":27,"plugin_version":"2.1.0","time_elapsed":142936,"subject_id":"86834","group":"Group2","full_date":"2025-12-09T21:47:59.426Z","date":"2025-12-09","time":"21:47:59"},{"task":"memory_phase","broad_category":"I","image_png":"I_Obsidian_06.png","image_id":86,"category_name":"Obsidian","category":6,"distinct_rating":8.01,"distinct_type":"Top","rt":null,"stimulus":"Stimuli_Rocks480/I_Obsidian_06.png","response":null,"trial_type":"image-keyboard-response","trial_index":28,"plugin_version":"2.1.0","time_elapsed":145487,"subject_id":"86834","group":"Group2","full_date":"2025-12-09T21:47:59.426Z","date":"2025-12-09","time":"21:47:59"},{"rt":null,"stimulus":"<p style=\"font-size: 50px; margin: 0; text-align: center;\">+</p>","response":null,"trial_type":"html-keyboard-response","trial_index":29,"plugin_version":"2.1.0","time_elapsed":146506,"subject_id":"86834","group":"Group2","full_date":"2025-12-09T21:47:59.426Z","date":"2025-12-09","time":"21:47:59"},{"task":"memory_phase","broad_category":"M","image_png":"M_Quartzite_15.png","image_id":287,"category_name":"Quartzite","category":18,"distinct_rating":2.19,"distinct_type":"Bottom","rt":null,"stimulus":"Stimuli_Rocks480/M_Quartzite_15.png","response":null,"trial_type":"image-keyboard-response","trial_index":30,"plugin_version":"2.1.0","time_elapsed":149057,"subject_id":"86834","group":"Group2","full_date":"2025-12-09T21:47:59.426Z","date":"2025-12-09","time":"21:47:59"},{"rt":null,"stimulus":"<p style=\"font-size: 50px; margin: 0; text-align: center;\">+</p>","response":null,"trial_type":"html-keyboard-response","trial_index":31,"plugin_version":"2.1.0","time_elapsed":150077,"subject_id":"86834","group":"Group2","full_date":"2025-12-09T21:47:59.426Z","date":"2025-12-09","time":"21:47:59"},{"task":"memory_phase","broad_category":"I","image_png":"I_Basalt_13.png","image_id":29,"category_name":"Basalt","category":2,"distinct_rating":2.68,"distinct_type":"Bottom","rt":null,"stimulus":"Stimuli_Rocks480/I_Basalt_13.png","response":null,"trial_type":"image-keyboard-response","trial_index":32,"plugin_version":"2.1.0","time_elapsed":152628,"subject_id":"86834","group":"Group2","full_date":"2025-12-09T21:47:59.426Z","date":"2025-12-09","time":"21:47:59"},{"rt":null,"stimulus":"<p style=\"font-size: 50px; margin: 0; text-align: center;\">+</p>","response":null,"trial_type":"html-keyboard-response","trial_index":33,"plugin_version":"2.1.0","time_elapsed":153647,"subject_id":"86834","group":"Group2","full_date":"2025-12-09T21:47:59.426Z","date":"2025-12-09","time":"21:47:59"},{"task":"memory_phase","broad_category":"S","image_png":"S_Rock Salt_13.png","image_id":445,"category_name":"Rock Salt","category":28,"distinct_rating":7.58,"distinct_type":"Top","rt":null,"stimulus":"Stimuli_Rocks480/S_Rock Salt_13.png","response":null,"trial_type":"image-keyboard-response","trial_index":34,"plugin_version":"2.1.0","time_elapsed":156201,"subject_id":"86834","group":"Group2","full_date":"2025-12-09T21:47:59.426Z","date":"2025-12-09","time":"21:47:59"},{"rt":null,"stimulus":"<p style=\"font-size: 50px; margin: 0; text-align: center;\">+</p>","response":null,"trial_type":"html-keyboard-response","trial_index":35,"plugin_version":"2.1.0","time_elapsed":157217,"subject_id":"86834","group":"Group2","full_date":"2025-12-09T21:47:59.426Z","date":"2025-12-09","time":"21:47:59"},{"task":"memory_phase","broad_category":"M","image_png":"M_Slate_14.png","image_id":318,"category_name":"Slate","category":20,"distinct_rating":2.58,"distinct_type":"Bottom","rt":null,"stimulus":"Stimuli_Rocks480/M_Slate_14.png","response":null,"trial_type":"image-keyboard-response","trial_index":36,"plugin_version":"2.1.0","time_elapsed":159767,"subject_id":"86834","group":"Group2","full_date":"2025-12-09T21:47:59.426Z","date":"2025-12-09","time":"21:47:59"},{"rt":null,"stimulus":"<p style=\"font-size: 50px; margin: 0; text-align: center;\">+</p>","response":null,"trial_type":"html-keyboard-response","trial_index":37,"plugin_version":"2.1.0","time_elapsed":160786,"subject_id":"86834","group":"Group2","full_date":"2025-12-09T21:47:59.426Z","date":"2025-12-09","time":"21:47:59"},{"task":"memory_phase","broad_category":"I","image_png":"I_Rhyolite_05.png","image_id":149,"category_name":"Rhyolite","category":10,"distinct_rating":3.02,"distinct_type":"Bottom","rt":null,"stimulus":"Stimuli_Rocks480/I_Rhyolite_05.png","response":null,"trial_type":"image-keyboard-response","trial_index":38,"plugin_version":"2.1.0","time_elapsed":163337,"subject_id":"86834","group":"Group2","full_date":"2025-12-09T21:47:59.426Z","date":"2025-12-09","time":"21:47:59"},{"rt":null,"stimulus":"<p style=\"font-size: 50px; margin: 0; text-align: center;\">+</p>","response":null,"trial_type":"html-keyboard-response","trial_index":39,"plugin_version":"2.1.0","time_elapsed":164356,"subject_id":"86834","group":"Group2","full_date":"2025-12-09T21:47:59.426Z","date":"2025-12-09","time":"21:47:59"},{"task":"memory_phase","broad_category":"I","image_png":"I_Peridotite_13.png","image_id":125,"category_name":"Peridotite","category":8,"distinct_rating":7.28,"distinct_type":"Top","rt":null,"stimulus":"Stimuli_Rocks480/I_Peridotite_13.png","response":null,"trial_type":"image-keyboard-response","trial_index":40,"plugin_version":"2.1.0","time_elapsed":166907,"subject_id":"86834","group":"Group2","full_date":"2025-12-09T21:47:59.426Z","date":"2025-12-09","time":"21:47:59"},{"rt":null,"stimulus":"<p style=\"font-size: 50px; margin: 0; text-align: center;\">+</p>","response":null,"trial_type":"html-keyboard-response","trial_index":41,"plugin_version":"2.1.0","time_elapsed":167926,"subject_id":"86834","group":"Group2","full_date":"2025-12-09T21:47:59.426Z","date":"2025-12-09","time":"21:47:59"},{"task":"memory_phase","broad_category":"M","image_png":"M_Slate_10.png","image_id":314,"category_name":"Slate","category":20,"distinct_rating":1.94,"distinct_type":"Bottom","rt":null,"stimulus":"Stimuli_Rocks480/M_Slate_10.png","response":null,"trial_type":"image-keyboard-response","trial_index":42,"plugin_version":"2.1.0","time_elapsed":170477,"subject_id":"86834","group":"Group2","full_date":"2025-12-09T21:47:59.426Z","date":"2025-12-09","time":"21:47:59"},{"rt":null,"stimulus":"<p style=\"font-size: 50px; margin: 0; text-align: center;\">+</p>","response":null,"trial_type":"html-keyboard-response","trial_index":43,"plugin_version":"2.1.0","time_elapsed":171498,"subject_id":"86834","group":"Group2","full_date":"2025-12-09T21:47:59.426Z","date":"2025-12-09","time":"21:47:59"},{"task":"memory_phase","broad_category":"I","image_png":"I_Andesite_03.png","image_id":3,"category_name":"Andesite","category":1,"distinct_rating":3.17,"distinct_type":"Bottom","rt":null,"stimulus":"Stimuli_Rocks480/I_Andesite_03.png","response":null,"trial_type":"image-keyboard-response","trial_index":44,"plugin_version":"2.1.0","time_elapsed":174049,"subject_id":"86834","group":"Group2","full_date":"2025-12-09T21:47:59.426Z","date":"2025-12-09","time":"21:47:59"},{"rt":null,"stimulus":"<p style=\"font-size: 50px; margin: 0; text-align: center;\">+</p>","response":null,"trial_type":"html-keyboard-response","trial_index":45,"plugin_version":"2.1.0","time_elapsed":175066,"subject_id":"86834","group":"Group2","full_date":"2025-12-09T21:47:59.426Z","date":"2025-12-09","time":"21:47:59"},{"task":"memory_phase","broad_category":"S","image_png":"S_Dolomite_07.png","image_id":391,"category_name":"Dolomite","category":25,"distinct_rating":1.73,"distinct_type":"Bottom","rt":null,"stimulus":"Stimuli_Rocks480/S_Dolomite_07.png","response":null,"trial_type":"image-keyboard-response","trial_index":46,"plugin_version":"2.1.0","time_elapsed":177617,"subject_id":"86834","group":"Group2","full_date":"2025-12-09T21:47:59.426Z","date":"2025-12-09","time":"21:47:59"},{"rt":null,"stimulus":"<p style=\"font-size: 50px; margin: 0; text-align: center;\">+</p>","response":null,"trial_type":"html-keyboard-response","trial_index":47,"plugin_version":"2.1.0","time_elapsed":178640,"subject_id":"86834","group":"Group2","full_date":"2025-12-09T21:47:59.426Z","date":"2025-12-09","time":"21:47:59"},{"task":"memory_phase","broad_category":"S","image_png":"S_Sandstone_04.png","image_id":452,"category_name":"Sandstone","category":29,"distinct_rating":1.8,"distinct_type":"Bottom","rt":null,"stimulus":"Stimuli_Rocks480/S_Sandstone_04.png","response":null,"trial_type":"image-keyboard-response","trial_index":48,"plugin_version":"2.1.0","time_elapsed":181187,"subject_id":"86834","group":"Group2","full_date":"2025-12-09T21:47:59.426Z","date":"2025-12-09","time":"21:47:59"},{"rt":null,"stimulus":"<p style=\"font-size: 50px; margin: 0; text-align: center;\">+</p>","response":null,"trial_type":"html-keyboard-response","trial_index":49,"plugin_version":"2.1.0","time_elapsed":182206,"subject_id":"86834","group":"Group2","full_date":"2025-12-09T21:47:59.426Z","date":"2025-12-09","time":"21:47:59"},{"task":"memory_phase","broad_category":"M","image_png":"M_Marble_14.png","image_id":238,"category_name":"Marble","category":15,"distinct_rating":3.31,"distinct_type":"Bottom","rt":null,"stimulus":"Stimuli_Rocks480/M_Marble_14.png","response":null,"trial_type":"image-keyboard-response","trial_index":50,"plugin_version":"2.1.0","time_elapsed":184760,"subject_id":"86834","group":"Group2","full_date":"2025-12-09T21:47:59.426Z","date":"2025-12-09","time":"21:47:59"},{"rt":null,"stimulus":"<p style=\"font-size: 50px; margin: 0; text-align: center;\">+</p>","response":null,"trial_type":"html-keyboard-response","trial_index":51,"plugin_version":"2.1.0","time_elapsed":185776,"subject_id":"86834","group":"Group2","full_date":"2025-12-09T21:47:59.426Z","date":"2025-12-09","time":"21:47:59"},{"task":"memory_phase","broad_category":"I","image_png":"I_Pegmatite_11.png","image_id":107,"category_name":"Pegmatite","category":7,"distinct_rating":7.11,"distinct_type":"Top","rt":null,"stimulus":"Stimuli_Rocks480/I_Pegmatite_11.png","response":null,"trial_type":"image-keyboard-response","trial_index":52,"plugin_version":"2.1.0","time_elapsed":188326,"subject_id":"86834","group":"Group2","full_date":"2025-12-09T21:47:59.426Z","date":"2025-12-09","time":"21:47:59"},{"rt":null,"stimulus":"<p style=\"font-size: 50px; margin: 0; text-align: center;\">+</p>","response":null,"trial_type":"html-keyboard-response","trial_index":53,"plugin_version":"2.1.0","time_elapsed":189345,"subject_id":"86834","group":"Group2","full_date":"2025-12-09T21:47:59.426Z","date":"2025-12-09","time":"21:47:59"},{"task":"memory_phase","broad_category":"M","image_png":"M_Slate_04.png","image_id":308,"category_name":"Slate","category":20,"distinct_rating":2.2,"distinct_type":"Bottom","rt":null,"stimulus":"Stimuli_Rocks480/M_Slate_04.png","response":null,"trial_type":"image-keyboard-response","trial_index":54,"plugin_version":"2.1.0","time_elapsed":191896,"subject_id":"86834","group":"Group2","full_date":"2025-12-09T21:47:59.426Z","date":"2025-12-09","time":"21:47:59"},{"rt":32866,"stimulus":"<p style=\"max-width: 760px; margin: auto; font-size: 35px; line-height: 1.5;\">Press SPACE to continue study phase</p>","response":" ","trial_type":"html-keyboard-response","trial_index":55,"plugin_version":"2.1.0","time_elapsed":224772,"subject_id":"86834","group":"Group2","full_date":"2025-12-09T21:47:59.426Z","date":"2025-12-09","time":"21:47:59"},{"rt":null,"stimulus":"<p style=\"font-size: 50px; margin: 0; text-align: center;\">+</p>","response":null,"trial_type":"html-keyboard-response","trial_index":56,"plugin_version":"2.1.0","time_elapsed":225777,"subject_id":"86834","group":"Group2","full_date":"2025-12-09T21:47:59.426Z","date":"2025-12-09","time":"21:47:59"},{"task":"memory_phase","broad_category":"I","image_png":"I_Basalt_10.png","image_id":26,"category_name":"Basalt","category":2,"distinct_rating":2.76,"distinct_type":"Bottom","rt":null,"stimulus":"Stimuli_Rocks480/I_Basalt_10.png","response":null,"trial_type":"image-keyboard-response","trial_index":57,"plugin_version":"2.1.0","time_elapsed":228308,"subject_id":"86834","group":"Group2","full_date":"2025-12-09T21:47:59.426Z","date":"2025-12-09","time":"21:47:59"},{"rt":null,"stimulus":"<p style=\"font-size: 50px; margin: 0; text-align: center;\">+</p>","response":null,"trial_type":"html-keyboard-response","trial_index":58,"plugin_version":"2.1.0","time_elapsed":229312,"subject_id":"86834","group":"Group2","full_date":"2025-12-09T21:47:59.426Z","date":"2025-12-09","time":"21:47:59"},{"task":"memory_phase","broad_category":"S","image_png":"S_Dolomite_16.png","image_id":400,"category_name":"Dolomite","category":25,"distinct_rating":1.71,"distinct_type":"Bottom","rt":null,"stimulus":"Stimuli_Rocks480/S_Dolomite_16.png","response":null,"trial_type":"image-keyboard-response","trial_index":59,"plugin_version":"2.1.0","time_elapsed":231847,"subject_id":"86834","group":"Group2","full_date":"2025-12-09T21:47:59.426Z","date":"2025-12-09","time":"21:47:59"},{"rt":null,"stimulus":"<p style=\"font-size: 50px; margin: 0; text-align: center;\">+</p>","response":null,"trial_type":"html-keyboard-response","trial_index":60,"plugin_version":"2.1.0","time_elapsed":232851,"subject_id":"86834","group":"Group2","full_date":"2025-12-09T21:47:59.426Z","date":"2025-12-09","time":"21:47:59"},{"task":"memory_phase","broad_category":"S","image_png":"S_Rock Salt_15.png","image_id":447,"category_name":"Rock Salt","category":28,"distinct_rating":7.79,"distinct_type":"Top","rt":null,"stimulus":"Stimuli_Rocks480/S_Rock Salt_15.png","response":null,"trial_type":"image-keyboard-response","trial_index":61,"plugin_version":"2.1.0","time_elapsed":235374,"subject_id":"86834","group":"Group2","full_date":"2025-12-09T21:47:59.426Z","date":"2025-12-09","time":"21:47:59"},{"rt":null,"stimulus":"<p style=\"font-size: 50px; margin: 0; text-align: center;\">+</p>","response":null,"trial_type":"html-keyboard-response","trial_index":62,"plugin_version":"2.1.0","time_elapsed":236378,"subject_id":"86834","group":"Group2","full_date":"2025-12-09T21:47:59.426Z","date":"2025-12-09","time":"21:47:59"},{"task":"memory_phase","broad_category":"S","image_png":"S_Sandstone_08.png","image_id":456,"category_name":"Sandstone","category":29,"distinct_rating":1.5,"distinct_type":"Bottom","rt":null,"stimulus":"Stimuli_Rocks480/S_Sandstone_08.png","response":null,"trial_type":"image-keyboard-response","trial_index":63,"plugin_version":"2.1.0","time_elapsed":238907,"subject_id":"86834","group":"Group2","full_date":"2025-12-09T21:47:59.426Z","date":"2025-12-09","time":"21:47:59"},{"rt":null,"stimulus":"<p style=\"font-size: 50px; margin: 0; text-align: center;\">+</p>","response":null,"trial_type":"html-keyboard-response","trial_index":64,"plugin_version":"2.1.0","time_elapsed":239911,"subject_id":"86834","group":"Group2","full_date":"2025-12-09T21:47:59.426Z","date":"2025-12-09","time":"21:47:59"},{"task":"memory_phase","broad_category":"I","image_png":"I_Basalt_08.png","image_id":24,"category_name":"Basalt","category":2,"distinct_rating":2.31,"distinct_type":"Bottom","rt":null,"stimulus":"Stimuli_Rocks480/I_Basalt_08.png","response":null,"trial_type":"image-keyboard-response","trial_index":65,"plugin_version":"2.1.0","time_elapsed":242458,"subject_id":"86834","group":"Group2","full_date":"2025-12-09T21:47:59.426Z","date":"2025-12-09","time":"21:47:59"},{"rt":null,"stimulus":"<p style=\"font-size: 50px; margin: 0; text-align: center;\">+</p>","response":null,"trial_type":"html-keyboard-response","trial_index":66,"plugin_version":"2.1.0","time_elapsed":243466,"subject_id":"86834","group":"Group2","full_date":"2025-12-09T21:47:59.426Z","date":"2025-12-09","time":"21:47:59"},{"task":"memory_phase","broad_category":"M","image_png":"M_Quartzite_12.png","image_id":284,"category_name":"Quartzite","category":18,"distinct_rating":1.92,"distinct_type":"Bottom","rt":null,"stimulus":"Stimuli_Rocks480/M_Quartzite_12.png","response":null,"trial_type":"image-keyboard-response","trial_index":67,"plugin_version":"2.1.0","time_elapsed":246017,"subject_id":"86834","group":"Group2","full_date":"2025-12-09T21:47:59.426Z","date":"2025-12-09","time":"21:47:59"},{"rt":null,"stimulus":"<p style=\"font-size: 50px; margin: 0; text-align: center;\">+</p>","response":null,"trial_type":"html-keyboard-response","trial_index":68,"plugin_version":"2.1.0","time_elapsed":247037,"subject_id":"86834","group":"Group2","full_date":"2025-12-09T21:47:59.426Z","date":"2025-12-09","time":"21:47:59"},{"task":"memory_phase","broad_category":"S","image_png":"S_Dolomite_01.png","image_id":385,"category_name":"Dolomite","category":25,"distinct_rating":1.43,"distinct_type":"Bottom","rt":null,"stimulus":"Stimuli_Rocks480/S_Dolomite_01.png","response":null,"trial_type":"image-keyboard-response","trial_index":69,"plugin_version":"2.1.0","time_elapsed":249587,"subject_id":"86834","group":"Group2","full_date":"2025-12-09T21:47:59.426Z","date":"2025-12-09","time":"21:47:59"},{"rt":null,"stimulus":"<p style=\"font-size: 50px; margin: 0; text-align: center;\">+</p>","response":null,"trial_type":"html-keyboard-response","trial_index":70,"plugin_version":"2.1.0","time_elapsed":250610,"subject_id":"86834","group":"Group2","full_date":"2025-12-09T21:47:59.426Z","date":"2025-12-09","time":"21:47:59"},{"task":"memory_phase","broad_category":"I","image_png":"I_Rhyolite_08.png","image_id":152,"category_name":"Rhyolite","category":10,"distinct_rating":1.38,"distinct_type":"Bottom","rt":null,"stimulus":"Stimuli_Rocks480/I_Rhyolite_08.png","response":null,"trial_type":"image-keyboard-response","trial_index":71,"plugin_version":"2.1.0","time_elapsed":253156,"subject_id":"86834","group":"Group2","full_date":"2025-12-09T21:47:59.426Z","date":"2025-12-09","time":"21:47:59"},{"rt":null,"stimulus":"<p style=\"font-size: 50px; margin: 0; text-align: center;\">+</p>","response":null,"trial_type":"html-keyboard-response","trial_index":72,"plugin_version":"2.1.0","time_elapsed":254176,"subject_id":"86834","group":"Group2","full_date":"2025-12-09T21:47:59.426Z","date":"2025-12-09","time":"21:47:59"},{"task":"memory_phase","broad_category":"S","image_png":"S_Shale_02.png","image_id":466,"category_name":"Shale","category":30,"distinct_rating":2.9,"distinct_type":"Bottom","rt":null,"stimulus":"Stimuli_Rocks480/S_Shale_02.png","response":null,"trial_type":"image-keyboard-response","trial_index":73,"plugin_version":"2.1.0","time_elapsed":256730,"subject_id":"86834","group":"Group2","full_date":"2025-12-09T21:47:59.426Z","date":"2025-12-09","time":"21:47:59"},{"rt":null,"stimulus":"<p style=\"font-size: 50px; margin: 0; text-align: center;\">+</p>","response":null,"trial_type":"html-keyboard-response","trial_index":74,"plugin_version":"2.1.0","time_elapsed":257747,"subject_id":"86834","group":"Group2","full_date":"2025-12-09T21:47:59.426Z","date":"2025-12-09","time":"21:47:59"},{"task":"memory_phase","broad_category":"I","image_png":"I_Gabbro_14.png","image_id":62,"category_name":"Gabbro","category":4,"distinct_rating":2.95,"distinct_type":"Bottom","rt":null,"stimulus":"Stimuli_Rocks480/I_Gabbro_14.png","response":null,"trial_type":"image-keyboard-response","trial_index":75,"plugin_version":"2.1.0","time_elapsed":260297,"subject_id":"86834","group":"Group2","full_date":"2025-12-09T21:47:59.426Z","date":"2025-12-09","time":"21:47:59"},{"rt":null,"stimulus":"<p style=\"font-size: 50px; margin: 0; text-align: center;\">+</p>","response":null,"trial_type":"html-keyboard-response","trial_index":76,"plugin_version":"2.1.0","time_elapsed":261316,"subject_id":"86834","group":"Group2","full_date":"2025-12-09T21:47:59.426Z","date":"2025-12-09","time":"21:47:59"},{"task":"memory_phase","broad_category":"I","image_png":"I_Gabbro_12.png","image_id":60,"category_name":"Gabbro","category":4,"distinct_rating":2.6,"distinct_type":"Bottom","rt":null,"stimulus":"Stimuli_Rocks480/I_Gabbro_12.png","response":null,"trial_type":"image-keyboard-response","trial_index":77,"plugin_version":"2.1.0","time_elapsed":263867,"subject_id":"86834","group":"Group2","full_date":"2025-12-09T21:47:59.426Z","date":"2025-12-09","time":"21:47:59"},{"rt":null,"stimulus":"<p style=\"font-size: 50px; margin: 0; text-align: center;\">+</p>","response":null,"trial_type":"html-keyboard-response","trial_index":78,"plugin_version":"2.1.0","time_elapsed":264886,"subject_id":"86834","group":"Group2","full_date":"2025-12-09T21:47:59.426Z","date":"2025-12-09","time":"21:47:59"},{"task":"memory_phase","broad_category":"M","image_png":"M_Quartzite_07.png","image_id":279,"category_name":"Quartzite","category":18,"distinct_rating":1.97,"distinct_type":"Bottom","rt":null,"stimulus":"Stimuli_Rocks480/M_Quartzite_07.png","response":null,"trial_type":"image-keyboard-response","trial_index":79,"plugin_version":"2.1.0","time_elapsed":267436,"subject_id":"86834","group":"Group2","full_date":"2025-12-09T21:47:59.426Z","date":"2025-12-09","time":"21:47:59"},{"rt":null,"stimulus":"<p style=\"font-size: 50px; margin: 0; text-align: center;\">+</p>","response":null,"trial_type":"html-keyboard-response","trial_index":80,"plugin_version":"2.1.0","time_elapsed":268457,"subject_id":"86834","group":"Group2","full_date":"2025-12-09T21:47:59.426Z","date":"2025-12-09","time":"21:47:59"},{"task":"memory_phase","broad_category":"S","image_png":"S_Shale_07.png","image_id":471,"category_name":"Shale","category":30,"distinct_rating":2.73,"distinct_type":"Bottom","rt":null,"stimulus":"Stimuli_Rocks480/S_Shale_07.png","response":null,"trial_type":"image-keyboard-response","trial_index":81,"plugin_version":"2.1.0","time_elapsed":271009,"subject_id":"86834","group":"Group2","full_date":"2025-12-09T21:47:59.426Z","date":"2025-12-09","time":"21:47:59"},{"rt":null,"stimulus":"<p style=\"font-size: 50px; margin: 0; text-align: center;\">+</p>","response":null,"trial_type":"html-keyboard-response","trial_index":82,"plugin_version":"2.1.0","time_elapsed":272026,"subject_id":"86834","group":"Group2","full_date":"2025-12-09T21:47:59.426Z","date":"2025-12-09","time":"21:47:59"},{"task":"memory_phase","broad_category":"I","image_png":"I_Andesite_09.png","image_id":9,"category_name":"Andesite","category":1,"distinct_rating":2.49,"distinct_type":"Bottom","rt":null,"stimulus":"Stimuli_Rocks480/I_Andesite_09.png","response":null,"trial_type":"image-keyboard-response","trial_index":83,"plugin_version":"2.1.0","time_elapsed":274576,"subject_id":"86834","group":"Group2","full_date":"2025-12-09T21:47:59.426Z","date":"2025-12-09","time":"21:47:59"},{"rt":null,"stimulus":"<p style=\"font-size: 50px; margin: 0; text-align: center;\">+</p>","response":null,"trial_type":"html-keyboard-response","trial_index":84,"plugin_version":"2.1.0","time_elapsed":275595,"subject_id":"86834","group":"Group2","full_date":"2025-12-09T21:47:59.426Z","date":"2025-12-09","time":"21:47:59"},{"task":"memory_phase","broad_category":"I","image_png":"I_Diorite_15.png","image_id":47,"category_name":"Diorite","category":3,"distinct_rating":3.05,"distinct_type":"Bottom","rt":null,"stimulus":"Stimuli_Rocks480/I_Diorite_15.png","response":null,"trial_type":"image-keyboard-response","trial_index":85,"plugin_version":"2.1.0","time_elapsed":278117,"subject_id":"86834","group":"Group2","full_date":"2025-12-09T21:47:59.426Z","date":"2025-12-09","time":"21:47:59"},{"rt":null,"stimulus":"<p style=\"font-size: 50px; margin: 0; text-align: center;\">+</p>","response":null,"trial_type":"html-keyboard-response","trial_index":86,"plugin_version":"2.1.0","time_elapsed":279136,"subject_id":"86834","group":"Group2","full_date":"2025-12-09T21:47:59.426Z","date":"2025-12-09","time":"21:47:59"},{"task":"memory_phase","broad_category":"I","image_png":"I_Andesite_04.png","image_id":4,"category_name":"Andesite","category":1,"distinct_rating":3.18,"distinct_type":"Bottom","rt":null,"stimulus":"Stimuli_Rocks480/I_Andesite_04.png","response":null,"trial_type":"image-keyboard-response","trial_index":87,"plugin_version":"2.1.0","time_elapsed":281686,"subject_id":"86834","group":"Group2","full_date":"2025-12-09T21:47:59.426Z","date":"2025-12-09","time":"21:47:59"},{"rt":null,"stimulus":"<p style=\"font-size: 50px; margin: 0; text-align: center;\">+</p>","response":null,"trial_type":"html-keyboard-response","trial_index":88,"plugin_version":"2.1.0","time_elapsed":282706,"subject_id":"86834","group":"Group2","full_date":"2025-12-09T21:47:59.426Z","date":"2025-12-09","time":"21:47:59"},{"task":"memory_phase","broad_category":"M","image_png":"M_Gneiss_15.png","image_id":207,"category_name":"Gneiss","category":13,"distinct_rating":3.11,"distinct_type":"Bottom","rt":null,"stimulus":"Stimuli_Rocks480/M_Gneiss_15.png","response":null,"trial_type":"image-keyboard-response","trial_index":89,"plugin_version":"2.1.0","time_elapsed":285257,"subject_id":"86834","group":"Group2","full_date":"2025-12-09T21:47:59.426Z","date":"2025-12-09","time":"21:47:59"},{"rt":null,"stimulus":"<p style=\"font-size: 50px; margin: 0; text-align: center;\">+</p>","response":null,"trial_type":"html-keyboard-response","trial_index":90,"plugin_version":"2.1.0","time_elapsed":286276,"subject_id":"86834","group":"Group2","full_date":"2025-12-09T21:47:59.426Z","date":"2025-12-09","time":"21:47:59"},{"task":"memory_phase","broad_category":"S","image_png":"S_Shale_03.png","image_id":467,"category_name":"Shale","category":30,"distinct_rating":1.95,"distinct_type":"Bottom","rt":null,"stimulus":"Stimuli_Rocks480/S_Shale_03.png","response":null,"trial_type":"image-keyboard-response","trial_index":91,"plugin_version":"2.1.0","time_elapsed":288827,"subject_id":"86834","group":"Group2","full_date":"2025-12-09T21:47:59.426Z","date":"2025-12-09","time":"21:47:59"},{"rt":null,"stimulus":"<p style=\"font-size: 50px; margin: 0; text-align: center;\">+</p>","response":null,"trial_type":"html-keyboard-response","trial_index":92,"plugin_version":"2.1.0","time_elapsed":289848,"subject_id":"86834","group":"Group2","full_date":"2025-12-09T21:47:59.426Z","date":"2025-12-09","time":"21:47:59"},{"task":"memory_phase","broad_category":"M","image_png":"M_Phyllite_05.png","image_id":261,"category_name":"Phyllite","category":17,"distinct_rating":2.14,"distinct_type":"Bottom","rt":null,"stimulus":"Stimuli_Rocks480/M_Phyllite_05.png","response":null,"trial_type":"image-keyboard-response","trial_index":93,"plugin_version":"2.1.0","time_elapsed":292397,"subject_id":"86834","group":"Group2","full_date":"2025-12-09T21:47:59.426Z","date":"2025-12-09","time":"21:47:59"},{"rt":null,"stimulus":"<p style=\"font-size: 50px; margin: 0; text-align: center;\">+</p>","response":null,"trial_type":"html-keyboard-response","trial_index":94,"plugin_version":"2.1.0","time_elapsed":293416,"subject_id":"86834","group":"Group2","full_date":"2025-12-09T21:47:59.426Z","date":"2025-12-09","time":"21:47:59"},{"task":"memory_phase","broad_category":"M","image_png":"M_Marble_03.png","image_id":227,"category_name":"Marble","category":15,"distinct_rating":2.67,"distinct_type":"Bottom","rt":null,"stimulus":"Stimuli_Rocks480/M_Marble_03.png","response":null,"trial_type":"image-keyboard-response","trial_index":95,"plugin_version":"2.1.0","time_elapsed":295966,"subject_id":"86834","group":"Group2","full_date":"2025-12-09T21:47:59.426Z","date":"2025-12-09","time":"21:47:59"},{"rt":null,"stimulus":"<p style=\"font-size: 50px; margin: 0; text-align: center;\">+</p>","response":null,"trial_type":"html-keyboard-response","trial_index":96,"plugin_version":"2.1.0","time_elapsed":296986,"subject_id":"86834","group":"Group2","full_date":"2025-12-09T21:47:59.426Z","date":"2025-12-09","time":"21:47:59"},{"task":"memory_phase","broad_category":"M","image_png":"M_Phyllite_13.png","image_id":269,"category_name":"Phyllite","category":17,"distinct_rating":2.8,"distinct_type":"Bottom","rt":null,"stimulus":"Stimuli_Rocks480/M_Phyllite_13.png","response":null,"trial_type":"image-keyboard-response","trial_index":97,"plugin_version":"2.1.0","time_elapsed":299537,"subject_id":"86834","group":"Group2","full_date":"2025-12-09T21:47:59.426Z","date":"2025-12-09","time":"21:47:59"},{"rt":null,"stimulus":"<p style=\"font-size: 50px; margin: 0; text-align: center;\">+</p>","response":null,"trial_type":"html-keyboard-response","trial_index":98,"plugin_version":"2.1.0","time_elapsed":300557,"subject_id":"86834","group":"Group2","full_date":"2025-12-09T21:47:59.426Z","date":"2025-12-09","time":"21:47:59"},{"task":"memory_phase","broad_category":"S","image_png":"S_Conglomerate_14.png","image_id":382,"category_name":"Conglomerate","category":24,"distinct_rating":6.86,"distinct_type":"Top","rt":null,"stimulus":"Stimuli_Rocks480/S_Conglomerate_14.png","response":null,"trial_type":"image-keyboard-response","trial_index":99,"plugin_version":"2.1.0","time_elapsed":303107,"subject_id":"86834","group":"Group2","full_date":"2025-12-09T21:47:59.426Z","date":"2025-12-09","time":"21:47:59"},{"rt":null,"stimulus":"<p style=\"font-size: 50px; margin: 0; text-align: center;\">+</p>","response":null,"trial_type":"html-keyboard-response","trial_index":100,"plugin_version":"2.1.0","time_elapsed":304126,"subject_id":"86834","group":"Group2","full_date":"2025-12-09T21:47:59.426Z","date":"2025-12-09","time":"21:47:59"},{"task":"memory_phase","broad_category":"I","image_png":"I_Pumice_14.png","image_id":142,"category_name":"Pumice","category":9,"distinct_rating":3.22,"distinct_type":"Bottom","rt":null,"stimulus":"Stimuli_Rocks480/I_Pumice_14.png","response":null,"trial_type":"image-keyboard-response","trial_index":101,"plugin_version":"2.1.0","time_elapsed":306677,"subject_id":"86834","group":"Group2","full_date":"2025-12-09T21:47:59.426Z","date":"2025-12-09","time":"21:47:59"},{"rt":null,"stimulus":"<p style=\"font-size: 50px; margin: 0; text-align: center;\">+</p>","response":null,"trial_type":"html-keyboard-response","trial_index":102,"plugin_version":"2.1.0","time_elapsed":307697,"subject_id":"86834","group":"Group2","full_date":"2025-12-09T21:47:59.426Z","date":"2025-12-09","time":"21:47:59"},{"task":"memory_phase","broad_category":"I","image_png":"I_Pegmatite_03.png","image_id":99,"category_name":"Pegmatite","category":7,"distinct_rating":7.24,"distinct_type":"Top","rt":null,"stimulus":"Stimuli_Rocks480/I_Pegmatite_03.png","response":null,"trial_type":"image-keyboard-response","trial_index":103,"plugin_version":"2.1.0","time_elapsed":310248,"subject_id":"86834","group":"Group2","full_date":"2025-12-09T21:47:59.426Z","date":"2025-12-09","time":"21:47:59"},{"rt":null,"stimulus":"<p style=\"font-size: 50px; margin: 0; text-align: center;\">+</p>","response":null,"trial_type":"html-keyboard-response","trial_index":104,"plugin_version":"2.1.0","time_elapsed":311266,"subject_id":"86834","group":"Group2","full_date":"2025-12-09T21:47:59.426Z","date":"2025-12-09","time":"21:47:59"},{"task":"memory_phase","broad_category":"S","image_png":"S_Chert_13.png","image_id":365,"category_name":"Chert","category":23,"distinct_rating":6.57,"distinct_type":"Top","rt":null,"stimulus":"Stimuli_Rocks480/S_Chert_13.png","response":null,"trial_type":"image-keyboard-response","trial_index":105,"plugin_version":"2.1.0","time_elapsed":313817,"subject_id":"86834","group":"Group2","full_date":"2025-12-09T21:47:59.426Z","date":"2025-12-09","time":"21:47:59"},{"rt":55025,"stimulus":"<p style=\"max-width: 760px; margin: auto; font-size: 35px; line-height: 1.5;\">You have completed 1 study phase. Now, we'll show you all the images again 2 more times.<br><br>Press SPACE to continue</p>","response":" ","trial_type":"html-keyboard-response","trial_index":106,"plugin_version":"2.1.0","time_elapsed":368845,"subject_id":"86834","group":"Group2","full_date":"2025-12-09T21:47:59.426Z","date":"2025-12-09","time":"21:47:59"},{"rt":null,"stimulus":"<p style=\"font-size: 50px; margin: 0; text-align: center;\">+</p>","response":null,"trial_type":"html-keyboard-response","trial_index":107,"plugin_version":"2.1.0","time_elapsed":369849,"subject_id":"86834","group":"Group2","full_date":"2025-12-09T21:47:59.426Z","date":"2025-12-09","time":"21:47:59"},{"task":"memory_phase","broad_category":"M","image_png":"M_Marble_02.png","image_id":226,"category_name":"Marble","category":15,"distinct_rating":3.2,"distinct_type":"Bottom","rt":null,"stimulus":"Stimuli_Rocks480/M_Marble_02.png","response":null,"trial_type":"image-keyboard-response","trial_index":108,"plugin_version":"2.1.0","time_elapsed":372377,"subject_id":"86834","group":"Group2","full_date":"2025-12-09T21:47:59.426Z","date":"2025-12-09","time":"21:47:59"},{"rt":null,"stimulus":"<p style=\"font-size: 50px; margin: 0; text-align: center;\">+</p>","response":null,"trial_type":"html-keyboard-response","trial_index":109,"plugin_version":"2.1.0","time_elapsed":373382,"subject_id":"86834","group":"Group2","full_date":"2025-12-09T21:47:59.426Z","date":"2025-12-09","time":"21:47:59"},{"task":"memory_phase","broad_category":"S","image_png":"S_Conglomerate_14.png","image_id":382,"category_name":"Conglomerate","category":24,"distinct_rating":6.86,"distinct_type":"Top","rt":null,"stimulus":"Stimuli_Rocks480/S_Conglomerate_14.png","response":null,"trial_type":"image-keyboard-response","trial_index":110,"plugin_version":"2.1.0","time_elapsed":375917,"subject_id":"86834","group":"Group2","full_date":"2025-12-09T21:47:59.426Z","date":"2025-12-09","time":"21:47:59"},{"rt":null,"stimulus":"<p style=\"font-size: 50px; margin: 0; text-align: center;\">+</p>","response":null,"trial_type":"html-keyboard-response","trial_index":111,"plugin_version":"2.1.0","time_elapsed":376920,"subject_id":"86834","group":"Group2","full_date":"2025-12-09T21:47:59.426Z","date":"2025-12-09","time":"21:47:59"},{"task":"memory_phase","broad_category":"I","image_png":"I_Rhyolite_08.png","image_id":152,"category_name":"Rhyolite","category":10,"distinct_rating":1.38,"distinct_type":"Bottom","rt":null,"stimulus":"Stimuli_Rocks480/I_Rhyolite_08.png","response":null,"trial_type":"image-keyboard-response","trial_index":112,"plugin_version":"2.1.0","time_elapsed":379440,"subject_id":"86834","group":"Group2","full_date":"2025-12-09T21:47:59.426Z","date":"2025-12-09","time":"21:47:59"},{"rt":null,"stimulus":"<p style=\"font-size: 50px; margin: 0; text-align: center;\">+</p>","response":null,"trial_type":"html-keyboard-response","trial_index":113,"plugin_version":"2.1.0","time_elapsed":380443,"subject_id":"86834","group":"Group2","full_date":"2025-12-09T21:47:59.426Z","date":"2025-12-09","time":"21:47:59"},{"task":"memory_phase","broad_category":"I","image_png":"I_Andesite_03.png","image_id":3,"category_name":"Andesite","category":1,"distinct_rating":3.17,"distinct_type":"Bottom","rt":null,"stimulus":"Stimuli_Rocks480/I_Andesite_03.png","response":null,"trial_type":"image-keyboard-response","trial_index":114,"plugin_version":"2.1.0","time_elapsed":382972,"subject_id":"86834","group":"Group2","full_date":"2025-12-09T21:47:59.426Z","date":"2025-12-09","time":"21:47:59"},{"rt":null,"stimulus":"<p style=\"font-size: 50px; margin: 0; text-align: center;\">+</p>","response":null,"trial_type":"html-keyboard-response","trial_index":115,"plugin_version":"2.1.0","time_elapsed":383974,"subject_id":"86834","group":"Group2","full_date":"2025-12-09T21:47:59.426Z","date":"2025-12-09","time":"21:47:59"},{"task":"memory_phase","broad_category":"M","image_png":"M_Gneiss_15.png","image_id":207,"category_name":"Gneiss","category":13,"distinct_rating":3.11,"distinct_type":"Bottom","rt":null,"stimulus":"Stimuli_Rocks480/M_Gneiss_15.png","response":null,"trial_type":"image-keyboard-response","trial_index":116,"plugin_version":"2.1.0","time_elapsed":386493,"subject_id":"86834","group":"Group2","full_date":"2025-12-09T21:47:59.426Z","date":"2025-12-09","time":"21:47:59"},{"rt":null,"stimulus":"<p style=\"font-size: 50px; margin: 0; text-align: center;\">+</p>","response":null,"trial_type":"html-keyboard-response","trial_index":117,"plugin_version":"2.1.0","time_elapsed":387526,"subject_id":"86834","group":"Group2","full_date":"2025-12-09T21:47:59.426Z","date":"2025-12-09","time":"21:47:59"},{"task":"memory_phase","broad_category":"S","image_png":"S_Rock Salt_13.png","image_id":445,"category_name":"Rock Salt","category":28,"distinct_rating":7.58,"distinct_type":"Top","rt":null,"stimulus":"Stimuli_Rocks480/S_Rock Salt_13.png","response":null,"trial_type":"image-keyboard-response","trial_index":118,"plugin_version":"2.1.0","time_elapsed":390079,"subject_id":"86834","group":"Group2","full_date":"2025-12-09T21:47:59.426Z","date":"2025-12-09","time":"21:47:59"},{"rt":null,"stimulus":"<p style=\"font-size: 50px; margin: 0; text-align: center;\">+</p>","response":null,"trial_type":"html-keyboard-response","trial_index":119,"plugin_version":"2.1.0","time_elapsed":391095,"subject_id":"86834","group":"Group2","full_date":"2025-12-09T21:47:59.426Z","date":"2025-12-09","time":"21:47:59"},{"task":"memory_phase","broad_category":"I","image_png":"I_Rhyolite_05.png","image_id":149,"category_name":"Rhyolite","category":10,"distinct_rating":3.02,"distinct_type":"Bottom","rt":null,"stimulus":"Stimuli_Rocks480/I_Rhyolite_05.png","response":null,"trial_type":"image-keyboard-response","trial_index":120,"plugin_version":"2.1.0","time_elapsed":393649,"subject_id":"86834","group":"Group2","full_date":"2025-12-09T21:47:59.426Z","date":"2025-12-09","time":"21:47:59"},{"rt":null,"stimulus":"<p style=\"font-size: 50px; margin: 0; text-align: center;\">+</p>","response":null,"trial_type":"html-keyboard-response","trial_index":121,"plugin_version":"2.1.0","time_elapsed":394666,"subject_id":"86834","group":"Group2","full_date":"2025-12-09T21:47:59.426Z","date":"2025-12-09","time":"21:47:59"},{"task":"memory_phase","broad_category":"S","image_png":"S_Dolomite_16.png","image_id":400,"category_name":"Dolomite","category":25,"distinct_rating":1.71,"distinct_type":"Bottom","rt":null,"stimulus":"Stimuli_Rocks480/S_Dolomite_16.png","response":null,"trial_type":"image-keyboard-response","trial_index":122,"plugin_version":"2.1.0","time_elapsed":397216,"subject_id":"86834","group":"Group2","full_date":"2025-12-09T21:47:59.426Z","date":"2025-12-09","time":"21:47:59"},{"rt":null,"stimulus":"<p style=\"font-size: 50px; margin: 0; text-align: center;\">+</p>","response":null,"trial_type":"html-keyboard-response","trial_index":123,"plugin_version":"2.1.0","time_elapsed":398235,"subject_id":"86834","group":"Group2","full_date":"2025-12-09T21:47:59.426Z","date":"2025-12-09","time":"21:47:59"},{"task":"memory_phase","broad_category":"I","image_png":"I_Pumice_14.png","image_id":142,"category_name":"Pumice","category":9,"distinct_rating":3.22,"distinct_type":"Bottom","rt":null,"stimulus":"Stimuli_Rocks480/I_Pumice_14.png","response":null,"trial_type":"image-keyboard-response","trial_index":124,"plugin_version":"2.1.0","time_elapsed":400788,"subject_id":"86834","group":"Group2","full_date":"2025-12-09T21:47:59.426Z","date":"2025-12-09","time":"21:47:59"},{"rt":null,"stimulus":"<p style=\"font-size: 50px; margin: 0; text-align: center;\">+</p>","response":null,"trial_type":"html-keyboard-response","trial_index":125,"plugin_version":"2.1.0","time_elapsed":401807,"subject_id":"86834","group":"Group2","full_date":"2025-12-09T21:47:59.426Z","date":"2025-12-09","time":"21:47:59"},{"task":"memory_phase","broad_category":"M","image_png":"M_Phyllite_02.png","image_id":258,"category_name":"Phyllite","category":17,"distinct_rating":2.89,"distinct_type":"Bottom","rt":null,"stimulus":"Stimuli_Rocks480/M_Phyllite_02.png","response":null,"trial_type":"image-keyboard-response","trial_index":126,"plugin_version":"2.1.0","time_elapsed":404357,"subject_id":"86834","group":"Group2","full_date":"2025-12-09T21:47:59.426Z","date":"2025-12-09","time":"21:47:59"},{"rt":null,"stimulus":"<p style=\"font-size: 50px; margin: 0; text-align: center;\">+</p>","response":null,"trial_type":"html-keyboard-response","trial_index":127,"plugin_version":"2.1.0","time_elapsed":405375,"subject_id":"86834","group":"Group2","full_date":"2025-12-09T21:47:59.426Z","date":"2025-12-09","time":"21:47:59"},{"task":"memory_phase","broad_category":"I","image_png":"I_Diorite_10.png","image_id":42,"category_name":"Diorite","category":3,"distinct_rating":2.84,"distinct_type":"Bottom","rt":null,"stimulus":"Stimuli_Rocks480/I_Diorite_10.png","response":null,"trial_type":"image-keyboard-response","trial_index":128,"plugin_version":"2.1.0","time_elapsed":407926,"subject_id":"86834","group":"Group2","full_date":"2025-12-09T21:47:59.426Z","date":"2025-12-09","time":"21:47:59"},{"rt":null,"stimulus":"<p style=\"font-size: 50px; margin: 0; text-align: center;\">+</p>","response":null,"trial_type":"html-keyboard-response","trial_index":129,"plugin_version":"2.1.0","time_elapsed":408947,"subject_id":"86834","group":"Group2","full_date":"2025-12-09T21:47:59.426Z","date":"2025-12-09","time":"21:47:59"},{"task":"memory_phase","broad_category":"M","image_png":"M_Quartzite_15.png","image_id":287,"category_name":"Quartzite","category":18,"distinct_rating":2.19,"distinct_type":"Bottom","rt":null,"stimulus":"Stimuli_Rocks480/M_Quartzite_15.png","response":null,"trial_type":"image-keyboard-response","trial_index":130,"plugin_version":"2.1.0","time_elapsed":411496,"subject_id":"86834","group":"Group2","full_date":"2025-12-09T21:47:59.426Z","date":"2025-12-09","time":"21:47:59"},{"rt":null,"stimulus":"<p style=\"font-size: 50px; margin: 0; text-align: center;\">+</p>","response":null,"trial_type":"html-keyboard-response","trial_index":131,"plugin_version":"2.1.0","time_elapsed":412516,"subject_id":"86834","group":"Group2","full_date":"2025-12-09T21:47:59.426Z","date":"2025-12-09","time":"21:47:59"},{"task":"memory_phase","broad_category":"S","image_png":"S_Sandstone_11.png","image_id":459,"category_name":"Sandstone","category":29,"distinct_rating":1.82,"distinct_type":"Bottom","rt":null,"stimulus":"Stimuli_Rocks480/S_Sandstone_11.png","response":null,"trial_type":"image-keyboard-response","trial_index":132,"plugin_version":"2.1.0","time_elapsed":415066,"subject_id":"86834","group":"Group2","full_date":"2025-12-09T21:47:59.426Z","date":"2025-12-09","time":"21:47:59"},{"rt":null,"stimulus":"<p style=\"font-size: 50px; margin: 0; text-align: center;\">+</p>","response":null,"trial_type":"html-keyboard-response","trial_index":133,"plugin_version":"2.1.0","time_elapsed":416086,"subject_id":"86834","group":"Group2","full_date":"2025-12-09T21:47:59.426Z","date":"2025-12-09","time":"21:47:59"},{"task":"memory_phase","broad_category":"S","image_png":"S_Dolomite_01.png","image_id":385,"category_name":"Dolomite","category":25,"distinct_rating":1.43,"distinct_type":"Bottom","rt":null,"stimulus":"Stimuli_Rocks480/S_Dolomite_01.png","response":null,"trial_type":"image-keyboard-response","trial_index":134,"plugin_version":"2.1.0","time_elapsed":418637,"subject_id":"86834","group":"Group2","full_date":"2025-12-09T21:47:59.426Z","date":"2025-12-09","time":"21:47:59"},{"rt":null,"stimulus":"<p style=\"font-size: 50px; margin: 0; text-align: center;\">+</p>","response":null,"trial_type":"html-keyboard-response","trial_index":135,"plugin_version":"2.1.0","time_elapsed":419657,"subject_id":"86834","group":"Group2","full_date":"2025-12-09T21:47:59.426Z","date":"2025-12-09","time":"21:47:59"},{"task":"memory_phase","broad_category":"M","image_png":"M_Quartzite_07.png","image_id":279,"category_name":"Quartzite","category":18,"distinct_rating":1.97,"distinct_type":"Bottom","rt":null,"stimulus":"Stimuli_Rocks480/M_Quartzite_07.png","response":null,"trial_type":"image-keyboard-response","trial_index":136,"plugin_version":"2.1.0","time_elapsed":422206,"subject_id":"86834","group":"Group2","full_date":"2025-12-09T21:47:59.426Z","date":"2025-12-09","time":"21:47:59"},{"rt":null,"stimulus":"<p style=\"font-size: 50px; margin: 0; text-align: center;\">+</p>","response":null,"trial_type":"html-keyboard-response","trial_index":137,"plugin_version":"2.1.0","time_elapsed":423227,"subject_id":"86834","group":"Group2","full_date":"2025-12-09T21:47:59.426Z","date":"2025-12-09","time":"21:47:59"},{"task":"memory_phase","broad_category":"I","image_png":"I_Rhyolite_10.png","image_id":154,"category_name":"Rhyolite","category":10,"distinct_rating":2.88,"distinct_type":"Bottom","rt":null,"stimulus":"Stimuli_Rocks480/I_Rhyolite_10.png","response":null,"trial_type":"image-keyboard-response","trial_index":138,"plugin_version":"2.1.0","time_elapsed":425776,"subject_id":"86834","group":"Group2","full_date":"2025-12-09T21:47:59.426Z","date":"2025-12-09","time":"21:47:59"},{"rt":null,"stimulus":"<p style=\"font-size: 50px; margin: 0; text-align: center;\">+</p>","response":null,"trial_type":"html-keyboard-response","trial_index":139,"plugin_version":"2.1.0","time_elapsed":426795,"subject_id":"86834","group":"Group2","full_date":"2025-12-09T21:47:59.426Z","date":"2025-12-09","time":"21:47:59"},{"task":"memory_phase","broad_category":"M","image_png":"M_Slate_14.png","image_id":318,"category_name":"Slate","category":20,"distinct_rating":2.58,"distinct_type":"Bottom","rt":null,"stimulus":"Stimuli_Rocks480/M_Slate_14.png","response":null,"trial_type":"image-keyboard-response","trial_index":140,"plugin_version":"2.1.0","time_elapsed":429316,"subject_id":"86834","group":"Group2","full_date":"2025-12-09T21:47:59.426Z","date":"2025-12-09","time":"21:47:59"},{"rt":null,"stimulus":"<p style=\"font-size: 50px; margin: 0; text-align: center;\">+</p>","response":null,"trial_type":"html-keyboard-response","trial_index":141,"plugin_version":"2.1.0","time_elapsed":430337,"subject_id":"86834","group":"Group2","full_date":"2025-12-09T21:47:59.426Z","date":"2025-12-09","time":"21:47:59"},{"task":"memory_phase","broad_category":"M","image_png":"M_Phyllite_05.png","image_id":261,"category_name":"Phyllite","category":17,"distinct_rating":2.14,"distinct_type":"Bottom","rt":null,"stimulus":"Stimuli_Rocks480/M_Phyllite_05.png","response":null,"trial_type":"image-keyboard-response","trial_index":142,"plugin_version":"2.1.0","time_elapsed":432887,"subject_id":"86834","group":"Group2","full_date":"2025-12-09T21:47:59.426Z","date":"2025-12-09","time":"21:47:59"},{"rt":null,"stimulus":"<p style=\"font-size: 50px; margin: 0; text-align: center;\">+</p>","response":null,"trial_type":"html-keyboard-response","trial_index":143,"plugin_version":"2.1.0","time_elapsed":433907,"subject_id":"86834","group":"Group2","full_date":"2025-12-09T21:47:59.426Z","date":"2025-12-09","time":"21:47:59"},{"task":"memory_phase","broad_category":"I","image_png":"I_Pegmatite_03.png","image_id":99,"category_name":"Pegmatite","category":7,"distinct_rating":7.24,"distinct_type":"Top","rt":null,"stimulus":"Stimuli_Rocks480/I_Pegmatite_03.png","response":null,"trial_type":"image-keyboard-response","trial_index":144,"plugin_version":"2.1.0","time_elapsed":436456,"subject_id":"86834","group":"Group2","full_date":"2025-12-09T21:47:59.426Z","date":"2025-12-09","time":"21:47:59"},{"rt":null,"stimulus":"<p style=\"font-size: 50px; margin: 0; text-align: center;\">+</p>","response":null,"trial_type":"html-keyboard-response","trial_index":145,"plugin_version":"2.1.0","time_elapsed":437475,"subject_id":"86834","group":"Group2","full_date":"2025-12-09T21:47:59.426Z","date":"2025-12-09","time":"21:47:59"},{"task":"memory_phase","broad_category":"I","image_png":"I_Gabbro_02.png","image_id":50,"category_name":"Gabbro","category":4,"distinct_rating":2.73,"distinct_type":"Bottom","rt":null,"stimulus":"Stimuli_Rocks480/I_Gabbro_02.png","response":null,"trial_type":"image-keyboard-response","trial_index":146,"plugin_version":"2.1.0","time_elapsed":440026,"subject_id":"86834","group":"Group2","full_date":"2025-12-09T21:47:59.426Z","date":"2025-12-09","time":"21:47:59"},{"rt":null,"stimulus":"<p style=\"font-size: 50px; margin: 0; text-align: center;\">+</p>","response":null,"trial_type":"html-keyboard-response","trial_index":147,"plugin_version":"2.1.0","time_elapsed":441046,"subject_id":"86834","group":"Group2","full_date":"2025-12-09T21:47:59.426Z","date":"2025-12-09","time":"21:47:59"},{"task":"memory_phase","broad_category":"S","image_png":"S_Shale_02.png","image_id":466,"category_name":"Shale","category":30,"distinct_rating":2.9,"distinct_type":"Bottom","rt":null,"stimulus":"Stimuli_Rocks480/S_Shale_02.png","response":null,"trial_type":"image-keyboard-response","trial_index":148,"plugin_version":"2.1.0","time_elapsed":443596,"subject_id":"86834","group":"Group2","full_date":"2025-12-09T21:47:59.426Z","date":"2025-12-09","time":"21:47:59"},{"rt":null,"stimulus":"<p style=\"font-size: 50px; margin: 0; text-align: center;\">+</p>","response":null,"trial_type":"html-keyboard-response","trial_index":149,"plugin_version":"2.1.0","time_elapsed":444615,"subject_id":"86834","group":"Group2","full_date":"2025-12-09T21:47:59.426Z","date":"2025-12-09","time":"21:47:59"},{"task":"memory_phase","broad_category":"I","image_png":"I_Basalt_10.png","image_id":26,"category_name":"Basalt","category":2,"distinct_rating":2.76,"distinct_type":"Bottom","rt":null,"stimulus":"Stimuli_Rocks480/I_Basalt_10.png","response":null,"trial_type":"image-keyboard-response","trial_index":150,"plugin_version":"2.1.0","time_elapsed":447171,"subject_id":"86834","group":"Group2","full_date":"2025-12-09T21:47:59.426Z","date":"2025-12-09","time":"21:47:59"},{"rt":null,"stimulus":"<p style=\"font-size: 50px; margin: 0; text-align: center;\">+</p>","response":null,"trial_type":"html-keyboard-response","trial_index":151,"plugin_version":"2.1.0","time_elapsed":448190,"subject_id":"86834","group":"Group2","full_date":"2025-12-09T21:47:59.426Z","date":"2025-12-09","time":"21:47:59"},{"task":"memory_phase","broad_category":"I","image_png":"I_Pumice_01.png","image_id":129,"category_name":"Pumice","category":9,"distinct_rating":3.25,"distinct_type":"Bottom","rt":null,"stimulus":"Stimuli_Rocks480/I_Pumice_01.png","response":null,"trial_type":"image-keyboard-response","trial_index":152,"plugin_version":"2.1.0","time_elapsed":450737,"subject_id":"86834","group":"Group2","full_date":"2025-12-09T21:47:59.426Z","date":"2025-12-09","time":"21:47:59"},{"rt":null,"stimulus":"<p style=\"font-size: 50px; margin: 0; text-align: center;\">+</p>","response":null,"trial_type":"html-keyboard-response","trial_index":153,"plugin_version":"2.1.0","time_elapsed":451756,"subject_id":"86834","group":"Group2","full_date":"2025-12-09T21:47:59.426Z","date":"2025-12-09","time":"21:47:59"},{"task":"memory_phase","broad_category":"I","image_png":"I_Andesite_09.png","image_id":9,"category_name":"Andesite","category":1,"distinct_rating":2.49,"distinct_type":"Bottom","rt":null,"stimulus":"Stimuli_Rocks480/I_Andesite_09.png","response":null,"trial_type":"image-keyboard-response","trial_index":154,"plugin_version":"2.1.0","time_elapsed":454306,"subject_id":"86834","group":"Group2","full_date":"2025-12-09T21:47:59.426Z","date":"2025-12-09","time":"21:47:59"},{"rt":null,"stimulus":"<p style=\"font-size: 50px; margin: 0; text-align: center;\">+</p>","response":null,"trial_type":"html-keyboard-response","trial_index":155,"plugin_version":"2.1.0","time_elapsed":455325,"subject_id":"86834","group":"Group2","full_date":"2025-12-09T21:47:59.426Z","date":"2025-12-09","time":"21:47:59"},{"task":"memory_phase","broad_category":"M","image_png":"M_Slate_10.png","image_id":314,"category_name":"Slate","category":20,"distinct_rating":1.94,"distinct_type":"Bottom","rt":null,"stimulus":"Stimuli_Rocks480/M_Slate_10.png","response":null,"trial_type":"image-keyboard-response","trial_index":156,"plugin_version":"2.1.0","time_elapsed":457877,"subject_id":"86834","group":"Group2","full_date":"2025-12-09T21:47:59.426Z","date":"2025-12-09","time":"21:47:59"},{"rt":201112,"stimulus":"<p style=\"max-width: 760px; margin: auto; font-size: 35px; line-height: 1.5;\">Press SPACE to continue study phase</p>","response":" ","trial_type":"html-keyboard-response","trial_index":157,"plugin_version":"2.1.0","time_elapsed":658996,"subject_id":"86834","group":"Group2","full_date":"2025-12-09T21:47:59.426Z","date":"2025-12-09","time":"21:47:59"},{"rt":null,"stimulus":"<p style=\"font-size: 50px; margin: 0; text-align: center;\">+</p>","response":null,"trial_type":"html-keyboard-response","trial_index":158,"plugin_version":"2.1.0","time_elapsed":660002,"subject_id":"86834","group":"Group2","full_date":"2025-12-09T21:47:59.426Z","date":"2025-12-09","time":"21:47:59"},{"task":"memory_phase","broad_category":"I","image_png":"I_Pumice_13.png","image_id":141,"category_name":"Pumice","category":9,"distinct_rating":3.12,"distinct_type":"Bottom","rt":null,"stimulus":"Stimuli_Rocks480/I_Pumice_13.png","response":null,"trial_type":"image-keyboard-response","trial_index":159,"plugin_version":"2.1.0","time_elapsed":662545,"subject_id":"86834","group":"Group2","full_date":"2025-12-09T21:47:59.426Z","date":"2025-12-09","time":"21:47:59"},{"rt":null,"stimulus":"<p style=\"font-size: 50px; margin: 0; text-align: center;\">+</p>","response":null,"trial_type":"html-keyboard-response","trial_index":160,"plugin_version":"2.1.0","time_elapsed":663548,"subject_id":"86834","group":"Group2","full_date":"2025-12-09T21:47:59.426Z","date":"2025-12-09","time":"21:47:59"},{"task":"memory_phase","broad_category":"I","image_png":"I_Peridotite_13.png","image_id":125,"category_name":"Peridotite","category":8,"distinct_rating":7.28,"distinct_type":"Top","rt":null,"stimulus":"Stimuli_Rocks480/I_Peridotite_13.png","response":null,"trial_type":"image-keyboard-response","trial_index":161,"plugin_version":"2.1.0","time_elapsed":666080,"subject_id":"86834","group":"Group2","full_date":"2025-12-09T21:47:59.426Z","date":"2025-12-09","time":"21:47:59"},{"rt":null,"stimulus":"<p style=\"font-size: 50px; margin: 0; text-align: center;\">+</p>","response":null,"trial_type":"html-keyboard-response","trial_index":162,"plugin_version":"2.1.0","time_elapsed":667084,"subject_id":"86834","group":"Group2","full_date":"2025-12-09T21:47:59.426Z","date":"2025-12-09","time":"21:47:59"},{"task":"memory_phase","broad_category":"M","image_png":"M_Marble_03.png","image_id":227,"category_name":"Marble","category":15,"distinct_rating":2.67,"distinct_type":"Bottom","rt":null,"stimulus":"Stimuli_Rocks480/M_Marble_03.png","response":null,"trial_type":"image-keyboard-response","trial_index":163,"plugin_version":"2.1.0","time_elapsed":669621,"subject_id":"86834","group":"Group2","full_date":"2025-12-09T21:47:59.426Z","date":"2025-12-09","time":"21:47:59"},{"rt":null,"stimulus":"<p style=\"font-size: 50px; margin: 0; text-align: center;\">+</p>","response":null,"trial_type":"html-keyboard-response","trial_index":164,"plugin_version":"2.1.0","time_elapsed":670625,"subject_id":"86834","group":"Group2","full_date":"2025-12-09T21:47:59.426Z","date":"2025-12-09","time":"21:47:59"},{"task":"memory_phase","broad_category":"S","image_png":"S_Chert_13.png","image_id":365,"category_name":"Chert","category":23,"distinct_rating":6.57,"distinct_type":"Top","rt":null,"stimulus":"Stimuli_Rocks480/S_Chert_13.png","response":null,"trial_type":"image-keyboard-response","trial_index":165,"plugin_version":"2.1.0","time_elapsed":673150,"subject_id":"86834","group":"Group2","full_date":"2025-12-09T21:47:59.426Z","date":"2025-12-09","time":"21:47:59"},{"rt":null,"stimulus":"<p style=\"font-size: 50px; margin: 0; text-align: center;\">+</p>","response":null,"trial_type":"html-keyboard-response","trial_index":166,"plugin_version":"2.1.0","time_elapsed":674155,"subject_id":"86834","group":"Group2","full_date":"2025-12-09T21:47:59.426Z","date":"2025-12-09","time":"21:47:59"},{"task":"memory_phase","broad_category":"I","image_png":"I_Gabbro_12.png","image_id":60,"category_name":"Gabbro","category":4,"distinct_rating":2.6,"distinct_type":"Bottom","rt":null,"stimulus":"Stimuli_Rocks480/I_Gabbro_12.png","response":null,"trial_type":"image-keyboard-response","trial_index":167,"plugin_version":"2.1.0","time_elapsed":676694,"subject_id":"86834","group":"Group2","full_date":"2025-12-09T21:47:59.426Z","date":"2025-12-09","time":"21:47:59"},{"rt":null,"stimulus":"<p style=\"font-size: 50px; margin: 0; text-align: center;\">+</p>","response":null,"trial_type":"html-keyboard-response","trial_index":168,"plugin_version":"2.1.0","time_elapsed":677715,"subject_id":"86834","group":"Group2","full_date":"2025-12-09T21:47:59.426Z","date":"2025-12-09","time":"21:47:59"},{"task":"memory_phase","broad_category":"I","image_png":"I_Diorite_15.png","image_id":47,"category_name":"Diorite","category":3,"distinct_rating":3.05,"distinct_type":"Bottom","rt":null,"stimulus":"Stimuli_Rocks480/I_Diorite_15.png","response":null,"trial_type":"image-keyboard-response","trial_index":169,"plugin_version":"2.1.0","time_elapsed":680266,"subject_id":"86834","group":"Group2","full_date":"2025-12-09T21:47:59.426Z","date":"2025-12-09","time":"21:47:59"},{"rt":null,"stimulus":"<p style=\"font-size: 50px; margin: 0; text-align: center;\">+</p>","response":null,"trial_type":"html-keyboard-response","trial_index":170,"plugin_version":"2.1.0","time_elapsed":681286,"subject_id":"86834","group":"Group2","full_date":"2025-12-09T21:47:59.426Z","date":"2025-12-09","time":"21:47:59"},{"task":"memory_phase","broad_category":"S","image_png":"S_Dolomite_07.png","image_id":391,"category_name":"Dolomite","category":25,"distinct_rating":1.73,"distinct_type":"Bottom","rt":null,"stimulus":"Stimuli_Rocks480/S_Dolomite_07.png","response":null,"trial_type":"image-keyboard-response","trial_index":171,"plugin_version":"2.1.0","time_elapsed":683836,"subject_id":"86834","group":"Group2","full_date":"2025-12-09T21:47:59.426Z","date":"2025-12-09","time":"21:47:59"},{"rt":null,"stimulus":"<p style=\"font-size: 50px; margin: 0; text-align: center;\">+</p>","response":null,"trial_type":"html-keyboard-response","trial_index":172,"plugin_version":"2.1.0","time_elapsed":684856,"subject_id":"86834","group":"Group2","full_date":"2025-12-09T21:47:59.426Z","date":"2025-12-09","time":"21:47:59"},{"task":"memory_phase","broad_category":"M","image_png":"M_Gneiss_14.png","image_id":206,"category_name":"Gneiss","category":13,"distinct_rating":3.41,"distinct_type":"Bottom","rt":null,"stimulus":"Stimuli_Rocks480/M_Gneiss_14.png","response":null,"trial_type":"image-keyboard-response","trial_index":173,"plugin_version":"2.1.0","time_elapsed":687406,"subject_id":"86834","group":"Group2","full_date":"2025-12-09T21:47:59.426Z","date":"2025-12-09","time":"21:47:59"},{"rt":null,"stimulus":"<p style=\"font-size: 50px; margin: 0; text-align: center;\">+</p>","response":null,"trial_type":"html-keyboard-response","trial_index":174,"plugin_version":"2.1.0","time_elapsed":688426,"subject_id":"86834","group":"Group2","full_date":"2025-12-09T21:47:59.426Z","date":"2025-12-09","time":"21:47:59"},{"task":"memory_phase","broad_category":"M","image_png":"M_Marble_14.png","image_id":238,"category_name":"Marble","category":15,"distinct_rating":3.31,"distinct_type":"Bottom","rt":null,"stimulus":"Stimuli_Rocks480/M_Marble_14.png","response":null,"trial_type":"image-keyboard-response","trial_index":175,"plugin_version":"2.1.0","time_elapsed":690977,"subject_id":"86834","group":"Group2","full_date":"2025-12-09T21:47:59.426Z","date":"2025-12-09","time":"21:47:59"},{"rt":null,"stimulus":"<p style=\"font-size: 50px; margin: 0; text-align: center;\">+</p>","response":null,"trial_type":"html-keyboard-response","trial_index":176,"plugin_version":"2.1.0","time_elapsed":691996,"subject_id":"86834","group":"Group2","full_date":"2025-12-09T21:47:59.426Z","date":"2025-12-09","time":"21:47:59"},{"task":"memory_phase","broad_category":"I","image_png":"I_Andesite_04.png","image_id":4,"category_name":"Andesite","category":1,"distinct_rating":3.18,"distinct_type":"Bottom","rt":null,"stimulus":"Stimuli_Rocks480/I_Andesite_04.png","response":null,"trial_type":"image-keyboard-response","trial_index":177,"plugin_version":"2.1.0","time_elapsed":694546,"subject_id":"86834","group":"Group2","full_date":"2025-12-09T21:47:59.426Z","date":"2025-12-09","time":"21:47:59"},{"rt":null,"stimulus":"<p style=\"font-size: 50px; margin: 0; text-align: center;\">+</p>","response":null,"trial_type":"html-keyboard-response","trial_index":178,"plugin_version":"2.1.0","time_elapsed":695565,"subject_id":"86834","group":"Group2","full_date":"2025-12-09T21:47:59.426Z","date":"2025-12-09","time":"21:47:59"},{"task":"memory_phase","broad_category":"I","image_png":"I_Diorite_01.png","image_id":33,"category_name":"Diorite","category":3,"distinct_rating":2.97,"distinct_type":"Bottom","rt":null,"stimulus":"Stimuli_Rocks480/I_Diorite_01.png","response":null,"trial_type":"image-keyboard-response","trial_index":179,"plugin_version":"2.1.0","time_elapsed":698116,"subject_id":"86834","group":"Group2","full_date":"2025-12-09T21:47:59.426Z","date":"2025-12-09","time":"21:47:59"},{"rt":null,"stimulus":"<p style=\"font-size: 50px; margin: 0; text-align: center;\">+</p>","response":null,"trial_type":"html-keyboard-response","trial_index":180,"plugin_version":"2.1.0","time_elapsed":699136,"subject_id":"86834","group":"Group2","full_date":"2025-12-09T21:47:59.426Z","date":"2025-12-09","time":"21:47:59"},{"task":"memory_phase","broad_category":"M","image_png":"M_Slate_04.png","image_id":308,"category_name":"Slate","category":20,"distinct_rating":2.2,"distinct_type":"Bottom","rt":null,"stimulus":"Stimuli_Rocks480/M_Slate_04.png","response":null,"trial_type":"image-keyboard-response","trial_index":181,"plugin_version":"2.1.0","time_elapsed":701686,"subject_id":"86834","group":"Group2","full_date":"2025-12-09T21:47:59.426Z","date":"2025-12-09","time":"21:47:59"},{"rt":null,"stimulus":"<p style=\"font-size: 50px; margin: 0; text-align: center;\">+</p>","response":null,"trial_type":"html-keyboard-response","trial_index":182,"plugin_version":"2.1.0","time_elapsed":702709,"subject_id":"86834","group":"Group2","full_date":"2025-12-09T21:47:59.426Z","date":"2025-12-09","time":"21:47:59"},{"task":"memory_phase","broad_category":"I","image_png":"I_Gabbro_14.png","image_id":62,"category_name":"Gabbro","category":4,"distinct_rating":2.95,"distinct_type":"Bottom","rt":null,"stimulus":"Stimuli_Rocks480/I_Gabbro_14.png","response":null,"trial_type":"image-keyboard-response","trial_index":183,"plugin_version":"2.1.0","time_elapsed":705257,"subject_id":"86834","group":"Group2","full_date":"2025-12-09T21:47:59.426Z","date":"2025-12-09","time":"21:47:59"},{"rt":null,"stimulus":"<p style=\"font-size: 50px; margin: 0; text-align: center;\">+</p>","response":null,"trial_type":"html-keyboard-response","trial_index":184,"plugin_version":"2.1.0","time_elapsed":706276,"subject_id":"86834","group":"Group2","full_date":"2025-12-09T21:47:59.426Z","date":"2025-12-09","time":"21:47:59"},{"task":"memory_phase","broad_category":"M","image_png":"M_Gneiss_10.png","image_id":202,"category_name":"Gneiss","category":13,"distinct_rating":3.09,"distinct_type":"Bottom","rt":null,"stimulus":"Stimuli_Rocks480/M_Gneiss_10.png","response":null,"trial_type":"image-keyboard-response","trial_index":185,"plugin_version":"2.1.0","time_elapsed":708828,"subject_id":"86834","group":"Group2","full_date":"2025-12-09T21:47:59.426Z","date":"2025-12-09","time":"21:47:59"},{"rt":null,"stimulus":"<p style=\"font-size: 50px; margin: 0; text-align: center;\">+</p>","response":null,"trial_type":"html-keyboard-response","trial_index":186,"plugin_version":"2.1.0","time_elapsed":709847,"subject_id":"86834","group":"Group2","full_date":"2025-12-09T21:47:59.426Z","date":"2025-12-09","time":"21:47:59"},{"task":"memory_phase","broad_category":"S","image_png":"S_Sandstone_08.png","image_id":456,"category_name":"Sandstone","category":29,"distinct_rating":1.5,"distinct_type":"Bottom","rt":null,"stimulus":"Stimuli_Rocks480/S_Sandstone_08.png","response":null,"trial_type":"image-keyboard-response","trial_index":187,"plugin_version":"2.1.0","time_elapsed":712396,"subject_id":"86834","group":"Group2","full_date":"2025-12-09T21:47:59.426Z","date":"2025-12-09","time":"21:47:59"},{"rt":null,"stimulus":"<p style=\"font-size: 50px; margin: 0; text-align: center;\">+</p>","response":null,"trial_type":"html-keyboard-response","trial_index":188,"plugin_version":"2.1.0","time_elapsed":713416,"subject_id":"86834","group":"Group2","full_date":"2025-12-09T21:47:59.426Z","date":"2025-12-09","time":"21:47:59"},{"task":"memory_phase","broad_category":"I","image_png":"I_Basalt_08.png","image_id":24,"category_name":"Basalt","category":2,"distinct_rating":2.31,"distinct_type":"Bottom","rt":null,"stimulus":"Stimuli_Rocks480/I_Basalt_08.png","response":null,"trial_type":"image-keyboard-response","trial_index":189,"plugin_version":"2.1.0","time_elapsed":715966,"subject_id":"86834","group":"Group2","full_date":"2025-12-09T21:47:59.426Z","date":"2025-12-09","time":"21:47:59"},{"rt":null,"stimulus":"<p style=\"font-size: 50px; margin: 0; text-align: center;\">+</p>","response":null,"trial_type":"html-keyboard-response","trial_index":190,"plugin_version":"2.1.0","time_elapsed":716986,"subject_id":"86834","group":"Group2","full_date":"2025-12-09T21:47:59.426Z","date":"2025-12-09","time":"21:47:59"},{"task":"memory_phase","broad_category":"S","image_png":"S_Shale_03.png","image_id":467,"category_name":"Shale","category":30,"distinct_rating":1.95,"distinct_type":"Bottom","rt":null,"stimulus":"Stimuli_Rocks480/S_Shale_03.png","response":null,"trial_type":"image-keyboard-response","trial_index":191,"plugin_version":"2.1.0","time_elapsed":719536,"subject_id":"86834","group":"Group2","full_date":"2025-12-09T21:47:59.426Z","date":"2025-12-09","time":"21:47:59"},{"rt":null,"stimulus":"<p style=\"font-size: 50px; margin: 0; text-align: center;\">+</p>","response":null,"trial_type":"html-keyboard-response","trial_index":192,"plugin_version":"2.1.0","time_elapsed":720555,"subject_id":"86834","group":"Group2","full_date":"2025-12-09T21:47:59.426Z","date":"2025-12-09","time":"21:47:59"},{"task":"memory_phase","broad_category":"I","image_png":"I_Pegmatite_11.png","image_id":107,"category_name":"Pegmatite","category":7,"distinct_rating":7.11,"distinct_type":"Top","rt":null,"stimulus":"Stimuli_Rocks480/I_Pegmatite_11.png","response":null,"trial_type":"image-keyboard-response","trial_index":193,"plugin_version":"2.1.0","time_elapsed":723105,"subject_id":"86834","group":"Group2","full_date":"2025-12-09T21:47:59.426Z","date":"2025-12-09","time":"21:47:59"},{"rt":null,"stimulus":"<p style=\"font-size: 50px; margin: 0; text-align: center;\">+</p>","response":null,"trial_type":"html-keyboard-response","trial_index":194,"plugin_version":"2.1.0","time_elapsed":724126,"subject_id":"86834","group":"Group2","full_date":"2025-12-09T21:47:59.426Z","date":"2025-12-09","time":"21:47:59"},{"task":"memory_phase","broad_category":"S","image_png":"S_Rock Salt_15.png","image_id":447,"category_name":"Rock Salt","category":28,"distinct_rating":7.79,"distinct_type":"Top","rt":null,"stimulus":"Stimuli_Rocks480/S_Rock Salt_15.png","response":null,"trial_type":"image-keyboard-response","trial_index":195,"plugin_version":"2.1.0","time_elapsed":726676,"subject_id":"86834","group":"Group2","full_date":"2025-12-09T21:47:59.426Z","date":"2025-12-09","time":"21:47:59"},{"rt":null,"stimulus":"<p style=\"font-size: 50px; margin: 0; text-align: center;\">+</p>","response":null,"trial_type":"html-keyboard-response","trial_index":196,"plugin_version":"2.1.0","time_elapsed":727695,"subject_id":"86834","group":"Group2","full_date":"2025-12-09T21:47:59.426Z","date":"2025-12-09","time":"21:47:59"},{"task":"memory_phase","broad_category":"S","image_png":"S_Sandstone_04.png","image_id":452,"category_name":"Sandstone","category":29,"distinct_rating":1.8,"distinct_type":"Bottom","rt":null,"stimulus":"Stimuli_Rocks480/S_Sandstone_04.png","response":null,"trial_type":"image-keyboard-response","trial_index":197,"plugin_version":"2.1.0","time_elapsed":730246,"subject_id":"86834","group":"Group2","full_date":"2025-12-09T21:47:59.426Z","date":"2025-12-09","time":"21:47:59"},{"rt":null,"stimulus":"<p style=\"font-size: 50px; margin: 0; text-align: center;\">+</p>","response":null,"trial_type":"html-keyboard-response","trial_index":198,"plugin_version":"2.1.0","time_elapsed":731266,"subject_id":"86834","group":"Group2","full_date":"2025-12-09T21:47:59.426Z","date":"2025-12-09","time":"21:47:59"},{"task":"memory_phase","broad_category":"M","image_png":"M_Quartzite_12.png","image_id":284,"category_name":"Quartzite","category":18,"distinct_rating":1.92,"distinct_type":"Bottom","rt":null,"stimulus":"Stimuli_Rocks480/M_Quartzite_12.png","response":null,"trial_type":"image-keyboard-response","trial_index":199,"plugin_version":"2.1.0","time_elapsed":733816,"subject_id":"86834","group":"Group2","full_date":"2025-12-09T21:47:59.426Z","date":"2025-12-09","time":"21:47:59"},{"rt":null,"stimulus":"<p style=\"font-size: 50px; margin: 0; text-align: center;\">+</p>","response":null,"trial_type":"html-keyboard-response","trial_index":200,"plugin_version":"2.1.0","time_elapsed":734836,"subject_id":"86834","group":"Group2","full_date":"2025-12-09T21:47:59.426Z","date":"2025-12-09","time":"21:47:59"},{"task":"memory_phase","broad_category":"S","image_png":"S_Shale_07.png","image_id":471,"category_name":"Shale","category":30,"distinct_rating":2.73,"distinct_type":"Bottom","rt":null,"stimulus":"Stimuli_Rocks480/S_Shale_07.png","response":null,"trial_type":"image-keyboard-response","trial_index":201,"plugin_version":"2.1.0","time_elapsed":737386,"subject_id":"86834","group":"Group2","full_date":"2025-12-09T21:47:59.426Z","date":"2025-12-09","time":"21:47:59"},{"rt":null,"stimulus":"<p style=\"font-size: 50px; margin: 0; text-align: center;\">+</p>","response":null,"trial_type":"html-keyboard-response","trial_index":202,"plugin_version":"2.1.0","time_elapsed":738406,"subject_id":"86834","group":"Group2","full_date":"2025-12-09T21:47:59.426Z","date":"2025-12-09","time":"21:47:59"},{"task":"memory_phase","broad_category":"I","image_png":"I_Obsidian_06.png","image_id":86,"category_name":"Obsidian","category":6,"distinct_rating":8.01,"distinct_type":"Top","rt":null,"stimulus":"Stimuli_Rocks480/I_Obsidian_06.png","response":null,"trial_type":"image-keyboard-response","trial_index":203,"plugin_version":"2.1.0","time_elapsed":740956,"subject_id":"86834","group":"Group2","full_date":"2025-12-09T21:47:59.426Z","date":"2025-12-09","time":"21:47:59"},{"rt":null,"stimulus":"<p style=\"font-size: 50px; margin: 0; text-align: center;\">+</p>","response":null,"trial_type":"html-keyboard-response","trial_index":204,"plugin_version":"2.1.0","time_elapsed":741976,"subject_id":"86834","group":"Group2","full_date":"2025-12-09T21:47:59.426Z","date":"2025-12-09","time":"21:47:59"},{"task":"memory_phase","broad_category":"I","image_png":"I_Basalt_13.png","image_id":29,"category_name":"Basalt","category":2,"distinct_rating":2.68,"distinct_type":"Bottom","rt":null,"stimulus":"Stimuli_Rocks480/I_Basalt_13.png","response":null,"trial_type":"image-keyboard-response","trial_index":205,"plugin_version":"2.1.0","time_elapsed":744525,"subject_id":"86834","group":"Group2","full_date":"2025-12-09T21:47:59.426Z","date":"2025-12-09","time":"21:47:59"},{"rt":null,"stimulus":"<p style=\"font-size: 50px; margin: 0; text-align: center;\">+</p>","response":null,"trial_type":"html-keyboard-response","trial_index":206,"plugin_version":"2.1.0","time_elapsed":745546,"subject_id":"86834","group":"Group2","full_date":"2025-12-09T21:47:59.426Z","date":"2025-12-09","time":"21:47:59"},{"task":"memory_phase","broad_category":"M","image_png":"M_Phyllite_13.png","image_id":269,"category_name":"Phyllite","category":17,"distinct_rating":2.8,"distinct_type":"Bottom","rt":null,"stimulus":"Stimuli_Rocks480/M_Phyllite_13.png","response":null,"trial_type":"image-keyboard-response","trial_index":207,"plugin_version":"2.1.0","time_elapsed":748096,"subject_id":"86834","group":"Group2","full_date":"2025-12-09T21:47:59.426Z","date":"2025-12-09","time":"21:47:59"},{"rt":3961,"stimulus":"<p style=\"max-width: 760px; margin: auto; font-size: 35px; line-height: 1.5;\">You have completed 2 study phases. Now, we'll show you all the images again 1 more time.<br><br>Press SPACE to continue</p>","response":" ","trial_type":"html-keyboard-response","trial_index":208,"plugin_version":"2.1.0","time_elapsed":752060,"subject_id":"86834","group":"Group2","full_date":"2025-12-09T21:47:59.426Z","date":"2025-12-09","time":"21:47:59"},{"rt":null,"stimulus":"<p style=\"font-size: 50px; margin: 0; text-align: center;\">+</p>","response":null,"trial_type":"html-keyboard-response","trial_index":209,"plugin_version":"2.1.0","time_elapsed":753064,"subject_id":"86834","group":"Group2","full_date":"2025-12-09T21:47:59.426Z","date":"2025-12-09","time":"21:47:59"},{"task":"memory_phase","broad_category":"I","image_png":"I_Andesite_04.png","image_id":4,"category_name":"Andesite","category":1,"distinct_rating":3.18,"distinct_type":"Bottom","rt":null,"stimulus":"Stimuli_Rocks480/I_Andesite_04.png","response":null,"trial_type":"image-keyboard-response","trial_index":210,"plugin_version":"2.1.0","time_elapsed":755573,"subject_id":"86834","group":"Group2","full_date":"2025-12-09T21:47:59.426Z","date":"2025-12-09","time":"21:47:59"},{"rt":null,"stimulus":"<p style=\"font-size: 50px; margin: 0; text-align: center;\">+</p>","response":null,"trial_type":"html-keyboard-response","trial_index":211,"plugin_version":"2.1.0","time_elapsed":756577,"subject_id":"86834","group":"Group2","full_date":"2025-12-09T21:47:59.426Z","date":"2025-12-09","time":"21:47:59"},{"task":"memory_phase","broad_category":"M","image_png":"M_Gneiss_10.png","image_id":202,"category_name":"Gneiss","category":13,"distinct_rating":3.09,"distinct_type":"Bottom","rt":null,"stimulus":"Stimuli_Rocks480/M_Gneiss_10.png","response":null,"trial_type":"image-keyboard-response","trial_index":212,"plugin_version":"2.1.0","time_elapsed":759088,"subject_id":"86834","group":"Group2","full_date":"2025-12-09T21:47:59.426Z","date":"2025-12-09","time":"21:47:59"},{"rt":null,"stimulus":"<p style=\"font-size: 50px; margin: 0; text-align: center;\">+</p>","response":null,"trial_type":"html-keyboard-response","trial_index":213,"plugin_version":"2.1.0","time_elapsed":760092,"subject_id":"86834","group":"Group2","full_date":"2025-12-09T21:47:59.426Z","date":"2025-12-09","time":"21:47:59"},{"task":"memory_phase","broad_category":"I","image_png":"I_Pumice_14.png","image_id":142,"category_name":"Pumice","category":9,"distinct_rating":3.22,"distinct_type":"Bottom","rt":null,"stimulus":"Stimuli_Rocks480/I_Pumice_14.png","response":null,"trial_type":"image-keyboard-response","trial_index":214,"plugin_version":"2.1.0","time_elapsed":762624,"subject_id":"86834","group":"Group2","full_date":"2025-12-09T21:47:59.426Z","date":"2025-12-09","time":"21:47:59"},{"rt":null,"stimulus":"<p style=\"font-size: 50px; margin: 0; text-align: center;\">+</p>","response":null,"trial_type":"html-keyboard-response","trial_index":215,"plugin_version":"2.1.0","time_elapsed":763630,"subject_id":"86834","group":"Group2","full_date":"2025-12-09T21:47:59.426Z","date":"2025-12-09","time":"21:47:59"},{"task":"memory_phase","broad_category":"I","image_png":"I_Diorite_10.png","image_id":42,"category_name":"Diorite","category":3,"distinct_rating":2.84,"distinct_type":"Bottom","rt":null,"stimulus":"Stimuli_Rocks480/I_Diorite_10.png","response":null,"trial_type":"image-keyboard-response","trial_index":216,"plugin_version":"2.1.0","time_elapsed":766167,"subject_id":"86834","group":"Group2","full_date":"2025-12-09T21:47:59.426Z","date":"2025-12-09","time":"21:47:59"},{"rt":null,"stimulus":"<p style=\"font-size: 50px; margin: 0; text-align: center;\">+</p>","response":null,"trial_type":"html-keyboard-response","trial_index":217,"plugin_version":"2.1.0","time_elapsed":767171,"subject_id":"86834","group":"Group2","full_date":"2025-12-09T21:47:59.426Z","date":"2025-12-09","time":"21:47:59"},{"task":"memory_phase","broad_category":"I","image_png":"I_Diorite_15.png","image_id":47,"category_name":"Diorite","category":3,"distinct_rating":3.05,"distinct_type":"Bottom","rt":null,"stimulus":"Stimuli_Rocks480/I_Diorite_15.png","response":null,"trial_type":"image-keyboard-response","trial_index":218,"plugin_version":"2.1.0","time_elapsed":769701,"subject_id":"86834","group":"Group2","full_date":"2025-12-09T21:47:59.426Z","date":"2025-12-09","time":"21:47:59"},{"rt":null,"stimulus":"<p style=\"font-size: 50px; margin: 0; text-align: center;\">+</p>","response":null,"trial_type":"html-keyboard-response","trial_index":219,"plugin_version":"2.1.0","time_elapsed":770716,"subject_id":"86834","group":"Group2","full_date":"2025-12-09T21:47:59.426Z","date":"2025-12-09","time":"21:47:59"},{"task":"memory_phase","broad_category":"M","image_png":"M_Gneiss_15.png","image_id":207,"category_name":"Gneiss","category":13,"distinct_rating":3.11,"distinct_type":"Bottom","rt":null,"stimulus":"Stimuli_Rocks480/M_Gneiss_15.png","response":null,"trial_type":"image-keyboard-response","trial_index":220,"plugin_version":"2.1.0","time_elapsed":773265,"subject_id":"86834","group":"Group2","full_date":"2025-12-09T21:47:59.426Z","date":"2025-12-09","time":"21:47:59"},{"rt":null,"stimulus":"<p style=\"font-size: 50px; margin: 0; text-align: center;\">+</p>","response":null,"trial_type":"html-keyboard-response","trial_index":221,"plugin_version":"2.1.0","time_elapsed":774286,"subject_id":"86834","group":"Group2","full_date":"2025-12-09T21:47:59.426Z","date":"2025-12-09","time":"21:47:59"},{"task":"memory_phase","broad_category":"I","image_png":"I_Rhyolite_10.png","image_id":154,"category_name":"Rhyolite","category":10,"distinct_rating":2.88,"distinct_type":"Bottom","rt":null,"stimulus":"Stimuli_Rocks480/I_Rhyolite_10.png","response":null,"trial_type":"image-keyboard-response","trial_index":222,"plugin_version":"2.1.0","time_elapsed":776836,"subject_id":"86834","group":"Group2","full_date":"2025-12-09T21:47:59.426Z","date":"2025-12-09","time":"21:47:59"},{"rt":null,"stimulus":"<p style=\"font-size: 50px; margin: 0; text-align: center;\">+</p>","response":null,"trial_type":"html-keyboard-response","trial_index":223,"plugin_version":"2.1.0","time_elapsed":777855,"subject_id":"86834","group":"Group2","full_date":"2025-12-09T21:47:59.426Z","date":"2025-12-09","time":"21:47:59"},{"task":"memory_phase","broad_category":"M","image_png":"M_Marble_14.png","image_id":238,"category_name":"Marble","category":15,"distinct_rating":3.31,"distinct_type":"Bottom","rt":null,"stimulus":"Stimuli_Rocks480/M_Marble_14.png","response":null,"trial_type":"image-keyboard-response","trial_index":224,"plugin_version":"2.1.0","time_elapsed":780376,"subject_id":"86834","group":"Group2","full_date":"2025-12-09T21:47:59.426Z","date":"2025-12-09","time":"21:47:59"},{"rt":null,"stimulus":"<p style=\"font-size: 50px; margin: 0; text-align: center;\">+</p>","response":null,"trial_type":"html-keyboard-response","trial_index":225,"plugin_version":"2.1.0","time_elapsed":781396,"subject_id":"86834","group":"Group2","full_date":"2025-12-09T21:47:59.426Z","date":"2025-12-09","time":"21:47:59"},{"task":"memory_phase","broad_category":"S","image_png":"S_Shale_03.png","image_id":467,"category_name":"Shale","category":30,"distinct_rating":1.95,"distinct_type":"Bottom","rt":null,"stimulus":"Stimuli_Rocks480/S_Shale_03.png","response":null,"trial_type":"image-keyboard-response","trial_index":226,"plugin_version":"2.1.0","time_elapsed":783916,"subject_id":"86834","group":"Group2","full_date":"2025-12-09T21:47:59.426Z","date":"2025-12-09","time":"21:47:59"},{"rt":null,"stimulus":"<p style=\"font-size: 50px; margin: 0; text-align: center;\">+</p>","response":null,"trial_type":"html-keyboard-response","trial_index":227,"plugin_version":"2.1.0","time_elapsed":784936,"subject_id":"86834","group":"Group2","full_date":"2025-12-09T21:47:59.426Z","date":"2025-12-09","time":"21:47:59"},{"task":"memory_phase","broad_category":"I","image_png":"I_Andesite_03.png","image_id":3,"category_name":"Andesite","category":1,"distinct_rating":3.17,"distinct_type":"Bottom","rt":null,"stimulus":"Stimuli_Rocks480/I_Andesite_03.png","response":null,"trial_type":"image-keyboard-response","trial_index":228,"plugin_version":"2.1.0","time_elapsed":787486,"subject_id":"86834","group":"Group2","full_date":"2025-12-09T21:47:59.426Z","date":"2025-12-09","time":"21:47:59"},{"rt":null,"stimulus":"<p style=\"font-size: 50px; margin: 0; text-align: center;\">+</p>","response":null,"trial_type":"html-keyboard-response","trial_index":229,"plugin_version":"2.1.0","time_elapsed":788506,"subject_id":"86834","group":"Group2","full_date":"2025-12-09T21:47:59.426Z","date":"2025-12-09","time":"21:47:59"},{"task":"memory_phase","broad_category":"M","image_png":"M_Slate_10.png","image_id":314,"category_name":"Slate","category":20,"distinct_rating":1.94,"distinct_type":"Bottom","rt":null,"stimulus":"Stimuli_Rocks480/M_Slate_10.png","response":null,"trial_type":"image-keyboard-response","trial_index":230,"plugin_version":"2.1.0","time_elapsed":791056,"subject_id":"86834","group":"Group2","full_date":"2025-12-09T21:47:59.426Z","date":"2025-12-09","time":"21:47:59"},{"rt":null,"stimulus":"<p style=\"font-size: 50px; margin: 0; text-align: center;\">+</p>","response":null,"trial_type":"html-keyboard-response","trial_index":231,"plugin_version":"2.1.0","time_elapsed":792075,"subject_id":"86834","group":"Group2","full_date":"2025-12-09T21:47:59.426Z","date":"2025-12-09","time":"21:47:59"},{"task":"memory_phase","broad_category":"M","image_png":"M_Phyllite_05.png","image_id":261,"category_name":"Phyllite","category":17,"distinct_rating":2.14,"distinct_type":"Bottom","rt":null,"stimulus":"Stimuli_Rocks480/M_Phyllite_05.png","response":null,"trial_type":"image-keyboard-response","trial_index":232,"plugin_version":"2.1.0","time_elapsed":794626,"subject_id":"86834","group":"Group2","full_date":"2025-12-09T21:47:59.426Z","date":"2025-12-09","time":"21:47:59"},{"rt":null,"stimulus":"<p style=\"font-size: 50px; margin: 0; text-align: center;\">+</p>","response":null,"trial_type":"html-keyboard-response","trial_index":233,"plugin_version":"2.1.0","time_elapsed":795645,"subject_id":"86834","group":"Group2","full_date":"2025-12-09T21:47:59.426Z","date":"2025-12-09","time":"21:47:59"},{"task":"memory_phase","broad_category":"I","image_png":"I_Gabbro_02.png","image_id":50,"category_name":"Gabbro","category":4,"distinct_rating":2.73,"distinct_type":"Bottom","rt":null,"stimulus":"Stimuli_Rocks480/I_Gabbro_02.png","response":null,"trial_type":"image-keyboard-response","trial_index":234,"plugin_version":"2.1.0","time_elapsed":798195,"subject_id":"86834","group":"Group2","full_date":"2025-12-09T21:47:59.426Z","date":"2025-12-09","time":"21:47:59"},{"rt":null,"stimulus":"<p style=\"font-size: 50px; margin: 0; text-align: center;\">+</p>","response":null,"trial_type":"html-keyboard-response","trial_index":235,"plugin_version":"2.1.0","time_elapsed":799216,"subject_id":"86834","group":"Group2","full_date":"2025-12-09T21:47:59.426Z","date":"2025-12-09","time":"21:47:59"},{"task":"memory_phase","broad_category":"I","image_png":"I_Gabbro_14.png","image_id":62,"category_name":"Gabbro","category":4,"distinct_rating":2.95,"distinct_type":"Bottom","rt":null,"stimulus":"Stimuli_Rocks480/I_Gabbro_14.png","response":null,"trial_type":"image-keyboard-response","trial_index":236,"plugin_version":"2.1.0","time_elapsed":801766,"subject_id":"86834","group":"Group2","full_date":"2025-12-09T21:47:59.426Z","date":"2025-12-09","time":"21:47:59"},{"rt":null,"stimulus":"<p style=\"font-size: 50px; margin: 0; text-align: center;\">+</p>","response":null,"trial_type":"html-keyboard-response","trial_index":237,"plugin_version":"2.1.0","time_elapsed":802786,"subject_id":"86834","group":"Group2","full_date":"2025-12-09T21:47:59.426Z","date":"2025-12-09","time":"21:47:59"},{"task":"memory_phase","broad_category":"S","image_png":"S_Sandstone_08.png","image_id":456,"category_name":"Sandstone","category":29,"distinct_rating":1.5,"distinct_type":"Bottom","rt":null,"stimulus":"Stimuli_Rocks480/S_Sandstone_08.png","response":null,"trial_type":"image-keyboard-response","trial_index":238,"plugin_version":"2.1.0","time_elapsed":805336,"subject_id":"86834","group":"Group2","full_date":"2025-12-09T21:47:59.426Z","date":"2025-12-09","time":"21:47:59"},{"rt":null,"stimulus":"<p style=\"font-size: 50px; margin: 0; text-align: center;\">+</p>","response":null,"trial_type":"html-keyboard-response","trial_index":239,"plugin_version":"2.1.0","time_elapsed":806355,"subject_id":"86834","group":"Group2","full_date":"2025-12-09T21:47:59.426Z","date":"2025-12-09","time":"21:47:59"},{"task":"memory_phase","broad_category":"I","image_png":"I_Basalt_13.png","image_id":29,"category_name":"Basalt","category":2,"distinct_rating":2.68,"distinct_type":"Bottom","rt":null,"stimulus":"Stimuli_Rocks480/I_Basalt_13.png","response":null,"trial_type":"image-keyboard-response","trial_index":240,"plugin_version":"2.1.0","time_elapsed":808907,"subject_id":"86834","group":"Group2","full_date":"2025-12-09T21:47:59.426Z","date":"2025-12-09","time":"21:47:59"},{"rt":null,"stimulus":"<p style=\"font-size: 50px; margin: 0; text-align: center;\">+</p>","response":null,"trial_type":"html-keyboard-response","trial_index":241,"plugin_version":"2.1.0","time_elapsed":809927,"subject_id":"86834","group":"Group2","full_date":"2025-12-09T21:47:59.426Z","date":"2025-12-09","time":"21:47:59"},{"task":"memory_phase","broad_category":"S","image_png":"S_Dolomite_01.png","image_id":385,"category_name":"Dolomite","category":25,"distinct_rating":1.43,"distinct_type":"Bottom","rt":null,"stimulus":"Stimuli_Rocks480/S_Dolomite_01.png","response":null,"trial_type":"image-keyboard-response","trial_index":242,"plugin_version":"2.1.0","time_elapsed":812477,"subject_id":"86834","group":"Group2","full_date":"2025-12-09T21:47:59.426Z","date":"2025-12-09","time":"21:47:59"},{"rt":null,"stimulus":"<p style=\"font-size: 50px; margin: 0; text-align: center;\">+</p>","response":null,"trial_type":"html-keyboard-response","trial_index":243,"plugin_version":"2.1.0","time_elapsed":813496,"subject_id":"86834","group":"Group2","full_date":"2025-12-09T21:47:59.426Z","date":"2025-12-09","time":"21:47:59"},{"task":"memory_phase","broad_category":"S","image_png":"S_Conglomerate_14.png","image_id":382,"category_name":"Conglomerate","category":24,"distinct_rating":6.86,"distinct_type":"Top","rt":null,"stimulus":"Stimuli_Rocks480/S_Conglomerate_14.png","response":null,"trial_type":"image-keyboard-response","trial_index":244,"plugin_version":"2.1.0","time_elapsed":816047,"subject_id":"86834","group":"Group2","full_date":"2025-12-09T21:47:59.426Z","date":"2025-12-09","time":"21:47:59"},{"rt":null,"stimulus":"<p style=\"font-size: 50px; margin: 0; text-align: center;\">+</p>","response":null,"trial_type":"html-keyboard-response","trial_index":245,"plugin_version":"2.1.0","time_elapsed":817066,"subject_id":"86834","group":"Group2","full_date":"2025-12-09T21:47:59.426Z","date":"2025-12-09","time":"21:47:59"},{"task":"memory_phase","broad_category":"S","image_png":"S_Chert_13.png","image_id":365,"category_name":"Chert","category":23,"distinct_rating":6.57,"distinct_type":"Top","rt":null,"stimulus":"Stimuli_Rocks480/S_Chert_13.png","response":null,"trial_type":"image-keyboard-response","trial_index":246,"plugin_version":"2.1.0","time_elapsed":819615,"subject_id":"86834","group":"Group2","full_date":"2025-12-09T21:47:59.426Z","date":"2025-12-09","time":"21:47:59"},{"rt":null,"stimulus":"<p style=\"font-size: 50px; margin: 0; text-align: center;\">+</p>","response":null,"trial_type":"html-keyboard-response","trial_index":247,"plugin_version":"2.1.0","time_elapsed":820636,"subject_id":"86834","group":"Group2","full_date":"2025-12-09T21:47:59.426Z","date":"2025-12-09","time":"21:47:59"},{"task":"memory_phase","broad_category":"S","image_png":"S_Shale_07.png","image_id":471,"category_name":"Shale","category":30,"distinct_rating":2.73,"distinct_type":"Bottom","rt":null,"stimulus":"Stimuli_Rocks480/S_Shale_07.png","response":null,"trial_type":"image-keyboard-response","trial_index":248,"plugin_version":"2.1.0","time_elapsed":823186,"subject_