[{"width":1792,"height":930,"webaudio":true,"browser":"chrome","browser_version":"142.0.0","mobile":false,"os":"Mac OS","fullscreen":true,"vsync_rate":60.7,"webcam":true,"microphone":true,"trial_type":"browser-check","trial_index":0,"plugin_version":"2.1.0","time_elapsed":1004,"subject_id":"90583","group":"Group2","full_date":"2025-12-10T02:28:04.260Z","date":"2025-12-10","time":"02:28:04"},{"success":true,"timeout":false,"failed_images":[],"failed_audio":[],"failed_video":[],"trial_type":"preload","trial_index":1,"plugin_version":"2.1.0","time_elapsed":2363,"subject_id":"90583","group":"Group2","full_date":"2025-12-10T02:28:04.260Z","date":"2025-12-10","time":"02:28:04"},{"rt":16214,"url":"SONA_consent_memorability.html","trial_type":"external-html","trial_index":2,"plugin_version":"2.1.0","time_elapsed":18594,"subject_id":"90583","group":"Group2","full_date":"2025-12-10T02:28:04.260Z","date":"2025-12-10","time":"02:28:04"},{"success":true,"rt":5087,"trial_type":"fullscreen","trial_index":3,"plugin_version":"2.1.0","time_elapsed":24684,"subject_id":"90583","group":"Group2","full_date":"2025-12-10T02:28:04.260Z","date":"2025-12-10","time":"02:28:04"},{"rt":1016618,"stimulus":"<div style=\"max-width: 760px; margin: auto; font-size: 20px; line-height: 1.5;\">\n      <h1 style=\"text-align:center; font-size: 30px;\">Instructions</h1>\n      <p>\n        Welcome to the study on <b>visual memory</b>. This experiment consists of <b>two phases</b>: \n        a <b>study phase</b> and a <b>test phase</b>.\n      </p>\n      <p>\n        In the study phase, you will see a series of rock images along with their category labels.\n        The images will appear one at a time.\n        <b>Your task</b> is to learn the categories to which the rock images belong \n        and to remember each image as accurately as possible.\n      </p> \n      <p>\n        Note that we will repeat the study phase <b>3 times</b>, \n        so you will have multiple opportunities to see and remember each image.\n      </p>\n      <p>\n        After the study phase, <b>your memory will be tested</b>. \n        Additional instructions for the test phase will be provided at that time.\n      </p>\n      <p>\n        If your computer has multiple <b>language settings</b> (e.g., English and another language),\n        please make sure it is set to English before starting.\n      </p>\n      <p>\n        You can track your progress using the <b>completion bar</b> at the top of the screen. \n        Please note that the bar will refresh when the test phase begins \n        to give you an accurate sense of your progress in both phases.\n      </p> \n      <p>\n        Press the button below when you are ready to begin.\n      </p>\n    </div>","response":0,"trial_type":"html-button-response","trial_index":4,"plugin_version":"2.1.0","time_elapsed":1041294,"subject_id":"90583","group":"Group2","full_date":"2025-12-10T02:28:04.260Z","date":"2025-12-10","time":"02:28:04"},{"rt":null,"stimulus":"<p style=\"font-size: 50px; margin: 0; text-align: center;\">+</p>","response":null,"trial_type":"html-keyboard-response","trial_index":5,"plugin_version":"2.1.0","time_elapsed":1042298,"subject_id":"90583","group":"Group2","full_date":"2025-12-10T02:28:04.260Z","date":"2025-12-10","time":"02:28:04"},{"task":"memory_phase","broad_category":"I","image_png":"I_Pumice_13.png","image_id":141,"category_name":"Pumice","category":9,"distinct_rating":3.12,"distinct_type":"Bottom","rt":null,"stimulus":"Stimuli_Rocks480/I_Pumice_13.png","response":null,"trial_type":"image-keyboard-response","trial_index":6,"plugin_version":"2.1.0","time_elapsed":1044803,"subject_id":"90583","group":"Group2","full_date":"2025-12-10T02:28:04.260Z","date":"2025-12-10","time":"02:28:04"},{"rt":null,"stimulus":"<p style=\"font-size: 50px; margin: 0; text-align: center;\">+</p>","response":null,"trial_type":"html-keyboard-response","trial_index":7,"plugin_version":"2.1.0","time_elapsed":1045804,"subject_id":"90583","group":"Group2","full_date":"2025-12-10T02:28:04.260Z","date":"2025-12-10","time":"02:28:04"},{"task":"memory_phase","broad_category":"I","image_png":"I_Diorite_01.png","image_id":33,"category_name":"Diorite","category":3,"distinct_rating":2.97,"distinct_type":"Bottom","rt":null,"stimulus":"Stimuli_Rocks480/I_Diorite_01.png","response":null,"trial_type":"image-keyboard-response","trial_index":8,"plugin_version":"2.1.0","time_elapsed":1048307,"subject_id":"90583","group":"Group2","full_date":"2025-12-10T02:28:04.260Z","date":"2025-12-10","time":"02:28:04"},{"rt":null,"stimulus":"<p style=\"font-size: 50px; margin: 0; text-align: center;\">+</p>","response":null,"trial_type":"html-keyboard-response","trial_index":9,"plugin_version":"2.1.0","time_elapsed":1049309,"subject_id":"90583","group":"Group2","full_date":"2025-12-10T02:28:04.260Z","date":"2025-12-10","time":"02:28:04"},{"task":"memory_phase","broad_category":"S","image_png":"S_Rock Salt_15.png","image_id":447,"category_name":"Rock Salt","category":28,"distinct_rating":7.79,"distinct_type":"Top","rt":null,"stimulus":"Stimuli_Rocks480/S_Rock Salt_15.png","response":null,"trial_type":"image-keyboard-response","trial_index":10,"plugin_version":"2.1.0","time_elapsed":1051812,"subject_id":"90583","group":"Group2","full_date":"2025-12-10T02:28:04.260Z","date":"2025-12-10","time":"02:28:04"},{"rt":null,"stimulus":"<p style=\"font-size: 50px; margin: 0; text-align: center;\">+</p>","response":null,"trial_type":"html-keyboard-response","trial_index":11,"plugin_version":"2.1.0","time_elapsed":1052814,"subject_id":"90583","group":"Group2","full_date":"2025-12-10T02:28:04.260Z","date":"2025-12-10","time":"02:28:04"},{"task":"memory_phase","broad_category":"I","image_png":"I_Andesite_04.png","image_id":4,"category_name":"Andesite","category":1,"distinct_rating":3.18,"distinct_type":"Bottom","rt":null,"stimulus":"Stimuli_Rocks480/I_Andesite_04.png","response":null,"trial_type":"image-keyboard-response","trial_index":12,"plugin_version":"2.1.0","time_elapsed":1055318,"subject_id":"90583","group":"Group2","full_date":"2025-12-10T02:28:04.260Z","date":"2025-12-10","time":"02:28:04"},{"rt":null,"stimulus":"<p style=\"font-size: 50px; margin: 0; text-align: center;\">+</p>","response":null,"trial_type":"html-keyboard-response","trial_index":13,"plugin_version":"2.1.0","time_elapsed":1056320,"subject_id":"90583","group":"Group2","full_date":"2025-12-10T02:28:04.260Z","date":"2025-12-10","time":"02:28:04"},{"task":"memory_phase","broad_category":"I","image_png":"I_Diorite_15.png","image_id":47,"category_name":"Diorite","category":3,"distinct_rating":3.05,"distinct_type":"Bottom","rt":null,"stimulus":"Stimuli_Rocks480/I_Diorite_15.png","response":null,"trial_type":"image-keyboard-response","trial_index":14,"plugin_version":"2.1.0","time_elapsed":1058823,"subject_id":"90583","group":"Group2","full_date":"2025-12-10T02:28:04.260Z","date":"2025-12-10","time":"02:28:04"},{"rt":null,"stimulus":"<p style=\"font-size: 50px; margin: 0; text-align: center;\">+</p>","response":null,"trial_type":"html-keyboard-response","trial_index":15,"plugin_version":"2.1.0","time_elapsed":1059825,"subject_id":"90583","group":"Group2","full_date":"2025-12-10T02:28:04.260Z","date":"2025-12-10","time":"02:28:04"},{"task":"memory_phase","broad_category":"M","image_png":"M_Quartzite_15.png","image_id":287,"category_name":"Quartzite","category":18,"distinct_rating":2.19,"distinct_type":"Bottom","rt":null,"stimulus":"Stimuli_Rocks480/M_Quartzite_15.png","response":null,"trial_type":"image-keyboard-response","trial_index":16,"plugin_version":"2.1.0","time_elapsed":1062327,"subject_id":"90583","group":"Group2","full_date":"2025-12-10T02:28:04.260Z","date":"2025-12-10","time":"02:28:04"},{"rt":null,"stimulus":"<p style=\"font-size: 50px; margin: 0; text-align: center;\">+</p>","response":null,"trial_type":"html-keyboard-response","trial_index":17,"plugin_version":"2.1.0","time_elapsed":1063329,"subject_id":"90583","group":"Group2","full_date":"2025-12-10T02:28:04.260Z","date":"2025-12-10","time":"02:28:04"},{"task":"memory_phase","broad_category":"I","image_png":"I_Pegmatite_11.png","image_id":107,"category_name":"Pegmatite","category":7,"distinct_rating":7.11,"distinct_type":"Top","rt":null,"stimulus":"Stimuli_Rocks480/I_Pegmatite_11.png","response":null,"trial_type":"image-keyboard-response","trial_index":18,"plugin_version":"2.1.0","time_elapsed":1065832,"subject_id":"90583","group":"Group2","full_date":"2025-12-10T02:28:04.260Z","date":"2025-12-10","time":"02:28:04"},{"rt":null,"stimulus":"<p style=\"font-size: 50px; margin: 0; text-align: center;\">+</p>","response":null,"trial_type":"html-keyboard-response","trial_index":19,"plugin_version":"2.1.0","time_elapsed":1066833,"subject_id":"90583","group":"Group2","full_date":"2025-12-10T02:28:04.260Z","date":"2025-12-10","time":"02:28:04"},{"task":"memory_phase","broad_category":"I","image_png":"I_Gabbro_12.png","image_id":60,"category_name":"Gabbro","category":4,"distinct_rating":2.6,"distinct_type":"Bottom","rt":null,"stimulus":"Stimuli_Rocks480/I_Gabbro_12.png","response":null,"trial_type":"image-keyboard-response","trial_index":20,"plugin_version":"2.1.0","time_elapsed":1069335,"subject_id":"90583","group":"Group2","full_date":"2025-12-10T02:28:04.260Z","date":"2025-12-10","time":"02:28:04"},{"rt":null,"stimulus":"<p style=\"font-size: 50px; margin: 0; text-align: center;\">+</p>","response":null,"trial_type":"html-keyboard-response","trial_index":21,"plugin_version":"2.1.0","time_elapsed":1070337,"subject_id":"90583","group":"Group2","full_date":"2025-12-10T02:28:04.260Z","date":"2025-12-10","time":"02:28:04"},{"task":"memory_phase","broad_category":"M","image_png":"M_Gneiss_15.png","image_id":207,"category_name":"Gneiss","category":13,"distinct_rating":3.11,"distinct_type":"Bottom","rt":null,"stimulus":"Stimuli_Rocks480/M_Gneiss_15.png","response":null,"trial_type":"image-keyboard-response","trial_index":22,"plugin_version":"2.1.0","time_elapsed":1072840,"subject_id":"90583","group":"Group2","full_date":"2025-12-10T02:28:04.260Z","date":"2025-12-10","time":"02:28:04"},{"rt":null,"stimulus":"<p style=\"font-size: 50px; margin: 0; text-align: center;\">+</p>","response":null,"trial_type":"html-keyboard-response","trial_index":23,"plugin_version":"2.1.0","time_elapsed":1073842,"subject_id":"90583","group":"Group2","full_date":"2025-12-10T02:28:04.260Z","date":"2025-12-10","time":"02:28:04"},{"task":"memory_phase","broad_category":"I","image_png":"I_Basalt_08.png","image_id":24,"category_name":"Basalt","category":2,"distinct_rating":2.31,"distinct_type":"Bottom","rt":null,"stimulus":"Stimuli_Rocks480/I_Basalt_08.png","response":null,"trial_type":"image-keyboard-response","trial_index":24,"plugin_version":"2.1.0","time_elapsed":1076345,"subject_id":"90583","group":"Group2","full_date":"2025-12-10T02:28:04.260Z","date":"2025-12-10","time":"02:28:04"},{"rt":null,"stimulus":"<p style=\"font-size: 50px; margin: 0; text-align: center;\">+</p>","response":null,"trial_type":"html-keyboard-response","trial_index":25,"plugin_version":"2.1.0","time_elapsed":1077347,"subject_id":"90583","group":"Group2","full_date":"2025-12-10T02:28:04.260Z","date":"2025-12-10","time":"02:28:04"},{"task":"memory_phase","broad_category":"I","image_png":"I_Pegmatite_03.png","image_id":99,"category_name":"Pegmatite","category":7,"distinct_rating":7.24,"distinct_type":"Top","rt":null,"stimulus":"Stimuli_Rocks480/I_Pegmatite_03.png","response":null,"trial_type":"image-keyboard-response","trial_index":26,"plugin_version":"2.1.0","time_elapsed":1079850,"subject_id":"90583","group":"Group2","full_date":"2025-12-10T02:28:04.260Z","date":"2025-12-10","time":"02:28:04"},{"rt":null,"stimulus":"<p style=\"font-size: 50px; margin: 0; text-align: center;\">+</p>","response":null,"trial_type":"html-keyboard-response","trial_index":27,"plugin_version":"2.1.0","time_elapsed":1080853,"subject_id":"90583","group":"Group2","full_date":"2025-12-10T02:28:04.260Z","date":"2025-12-10","time":"02:28:04"},{"task":"memory_phase","broad_category":"S","image_png":"S_Sandstone_04.png","image_id":452,"category_name":"Sandstone","category":29,"distinct_rating":1.8,"distinct_type":"Bottom","rt":null,"stimulus":"Stimuli_Rocks480/S_Sandstone_04.png","response":null,"trial_type":"image-keyboard-response","trial_index":28,"plugin_version":"2.1.0","time_elapsed":1083355,"subject_id":"90583","group":"Group2","full_date":"2025-12-10T02:28:04.260Z","date":"2025-12-10","time":"02:28:04"},{"rt":null,"stimulus":"<p style=\"font-size: 50px; margin: 0; text-align: center;\">+</p>","response":null,"trial_type":"html-keyboard-response","trial_index":29,"plugin_version":"2.1.0","time_elapsed":1084358,"subject_id":"90583","group":"Group2","full_date":"2025-12-10T02:28:04.260Z","date":"2025-12-10","time":"02:28:04"},{"task":"memory_phase","broad_category":"M","image_png":"M_Gneiss_14.png","image_id":206,"category_name":"Gneiss","category":13,"distinct_rating":3.41,"distinct_type":"Bottom","rt":null,"stimulus":"Stimuli_Rocks480/M_Gneiss_14.png","response":null,"trial_type":"image-keyboard-response","trial_index":30,"plugin_version":"2.1.0","time_elapsed":1086861,"subject_id":"90583","group":"Group2","full_date":"2025-12-10T02:28:04.260Z","date":"2025-12-10","time":"02:28:04"},{"rt":null,"stimulus":"<p style=\"font-size: 50px; margin: 0; text-align: center;\">+</p>","response":null,"trial_type":"html-keyboard-response","trial_index":31,"plugin_version":"2.1.0","time_elapsed":1087862,"subject_id":"90583","group":"Group2","full_date":"2025-12-10T02:28:04.260Z","date":"2025-12-10","time":"02:28:04"},{"task":"memory_phase","broad_category":"S","image_png":"S_Shale_07.png","image_id":471,"category_name":"Shale","category":30,"distinct_rating":2.73,"distinct_type":"Bottom","rt":null,"stimulus":"Stimuli_Rocks480/S_Shale_07.png","response":null,"trial_type":"image-keyboard-response","trial_index":32,"plugin_version":"2.1.0","time_elapsed":1090365,"subject_id":"90583","group":"Group2","full_date":"2025-12-10T02:28:04.260Z","date":"2025-12-10","time":"02:28:04"},{"rt":null,"stimulus":"<p style=\"font-size: 50px; margin: 0; text-align: center;\">+</p>","response":null,"trial_type":"html-keyboard-response","trial_index":33,"plugin_version":"2.1.0","time_elapsed":1091367,"subject_id":"90583","group":"Group2","full_date":"2025-12-10T02:28:04.260Z","date":"2025-12-10","time":"02:28:04"},{"task":"memory_phase","broad_category":"I","image_png":"I_Pumice_14.png","image_id":142,"category_name":"Pumice","category":9,"distinct_rating":3.22,"distinct_type":"Bottom","rt":null,"stimulus":"Stimuli_Rocks480/I_Pumice_14.png","response":null,"trial_type":"image-keyboard-response","trial_index":34,"plugin_version":"2.1.0","time_elapsed":1093870,"subject_id":"90583","group":"Group2","full_date":"2025-12-10T02:28:04.260Z","date":"2025-12-10","time":"02:28:04"},{"rt":null,"stimulus":"<p style=\"font-size: 50px; margin: 0; text-align: center;\">+</p>","response":null,"trial_type":"html-keyboard-response","trial_index":35,"plugin_version":"2.1.0","time_elapsed":1094872,"subject_id":"90583","group":"Group2","full_date":"2025-12-10T02:28:04.260Z","date":"2025-12-10","time":"02:28:04"},{"task":"memory_phase","broad_category":"I","image_png":"I_Rhyolite_05.png","image_id":149,"category_name":"Rhyolite","category":10,"distinct_rating":3.02,"distinct_type":"Bottom","rt":null,"stimulus":"Stimuli_Rocks480/I_Rhyolite_05.png","response":null,"trial_type":"image-keyboard-response","trial_index":36,"plugin_version":"2.1.0","time_elapsed":1097375,"subject_id":"90583","group":"Group2","full_date":"2025-12-10T02:28:04.260Z","date":"2025-12-10","time":"02:28:04"},{"rt":null,"stimulus":"<p style=\"font-size: 50px; margin: 0; text-align: center;\">+</p>","response":null,"trial_type":"html-keyboard-response","trial_index":37,"plugin_version":"2.1.0","time_elapsed":1098376,"subject_id":"90583","group":"Group2","full_date":"2025-12-10T02:28:04.260Z","date":"2025-12-10","time":"02:28:04"},{"task":"memory_phase","broad_category":"M","image_png":"M_Quartzite_07.png","image_id":279,"category_name":"Quartzite","category":18,"distinct_rating":1.97,"distinct_type":"Bottom","rt":null,"stimulus":"Stimuli_Rocks480/M_Quartzite_07.png","response":null,"trial_type":"image-keyboard-response","trial_index":38,"plugin_version":"2.1.0","time_elapsed":1100879,"subject_id":"90583","group":"Group2","full_date":"2025-12-10T02:28:04.260Z","date":"2025-12-10","time":"02:28:04"},{"rt":null,"stimulus":"<p style=\"font-size: 50px; margin: 0; text-align: center;\">+</p>","response":null,"trial_type":"html-keyboard-response","trial_index":39,"plugin_version":"2.1.0","time_elapsed":1101882,"subject_id":"90583","group":"Group2","full_date":"2025-12-10T02:28:04.260Z","date":"2025-12-10","time":"02:28:04"},{"task":"memory_phase","broad_category":"M","image_png":"M_Quartzite_12.png","image_id":284,"category_name":"Quartzite","category":18,"distinct_rating":1.92,"distinct_type":"Bottom","rt":null,"stimulus":"Stimuli_Rocks480/M_Quartzite_12.png","response":null,"trial_type":"image-keyboard-response","trial_index":40,"plugin_version":"2.1.0","time_elapsed":1104385,"subject_id":"90583","group":"Group2","full_date":"2025-12-10T02:28:04.260Z","date":"2025-12-10","time":"02:28:04"},{"rt":null,"stimulus":"<p style=\"font-size: 50px; margin: 0; text-align: center;\">+</p>","response":null,"trial_type":"html-keyboard-response","trial_index":41,"plugin_version":"2.1.0","time_elapsed":1105387,"subject_id":"90583","group":"Group2","full_date":"2025-12-10T02:28:04.260Z","date":"2025-12-10","time":"02:28:04"},{"task":"memory_phase","broad_category":"M","image_png":"M_Phyllite_02.png","image_id":258,"category_name":"Phyllite","category":17,"distinct_rating":2.89,"distinct_type":"Bottom","rt":null,"stimulus":"Stimuli_Rocks480/M_Phyllite_02.png","response":null,"trial_type":"image-keyboard-response","trial_index":42,"plugin_version":"2.1.0","time_elapsed":1107889,"subject_id":"90583","group":"Group2","full_date":"2025-12-10T02:28:04.260Z","date":"2025-12-10","time":"02:28:04"},{"rt":null,"stimulus":"<p style=\"font-size: 50px; margin: 0; text-align: center;\">+</p>","response":null,"trial_type":"html-keyboard-response","trial_index":43,"plugin_version":"2.1.0","time_elapsed":1108891,"subject_id":"90583","group":"Group2","full_date":"2025-12-10T02:28:04.260Z","date":"2025-12-10","time":"02:28:04"},{"task":"memory_phase","broad_category":"S","image_png":"S_Sandstone_08.png","image_id":456,"category_name":"Sandstone","category":29,"distinct_rating":1.5,"distinct_type":"Bottom","rt":null,"stimulus":"Stimuli_Rocks480/S_Sandstone_08.png","response":null,"trial_type":"image-keyboard-response","trial_index":44,"plugin_version":"2.1.0","time_elapsed":1111393,"subject_id":"90583","group":"Group2","full_date":"2025-12-10T02:28:04.260Z","date":"2025-12-10","time":"02:28:04"},{"rt":null,"stimulus":"<p style=\"font-size: 50px; margin: 0; text-align: center;\">+</p>","response":null,"trial_type":"html-keyboard-response","trial_index":45,"plugin_version":"2.1.0","time_elapsed":1112395,"subject_id":"90583","group":"Group2","full_date":"2025-12-10T02:28:04.260Z","date":"2025-12-10","time":"02:28:04"},{"task":"memory_phase","broad_category":"S","image_png":"S_Dolomite_16.png","image_id":400,"category_name":"Dolomite","category":25,"distinct_rating":1.71,"distinct_type":"Bottom","rt":null,"stimulus":"Stimuli_Rocks480/S_Dolomite_16.png","response":null,"trial_type":"image-keyboard-response","trial_index":46,"plugin_version":"2.1.0","time_elapsed":1114898,"subject_id":"90583","group":"Group2","full_date":"2025-12-10T02:28:04.260Z","date":"2025-12-10","time":"02:28:04"},{"rt":null,"stimulus":"<p style=\"font-size: 50px; margin: 0; text-align: center;\">+</p>","response":null,"trial_type":"html-keyboard-response","trial_index":47,"plugin_version":"2.1.0","time_elapsed":1115900,"subject_id":"90583","group":"Group2","full_date":"2025-12-10T02:28:04.260Z","date":"2025-12-10","time":"02:28:04"},{"task":"memory_phase","broad_category":"M","image_png":"M_Marble_02.png","image_id":226,"category_name":"Marble","category":15,"distinct_rating":3.2,"distinct_type":"Bottom","rt":null,"stimulus":"Stimuli_Rocks480/M_Marble_02.png","response":null,"trial_type":"image-keyboard-response","trial_index":48,"plugin_version":"2.1.0","time_elapsed":1118403,"subject_id":"90583","group":"Group2","full_date":"2025-12-10T02:28:04.260Z","date":"2025-12-10","time":"02:28:04"},{"rt":null,"stimulus":"<p style=\"font-size: 50px; margin: 0; text-align: center;\">+</p>","response":null,"trial_type":"html-keyboard-response","trial_index":49,"plugin_version":"2.1.0","time_elapsed":1119405,"subject_id":"90583","group":"Group2","full_date":"2025-12-10T02:28:04.260Z","date":"2025-12-10","time":"02:28:04"},{"task":"memory_phase","broad_category":"M","image_png":"M_Phyllite_13.png","image_id":269,"category_name":"Phyllite","category":17,"distinct_rating":2.8,"distinct_type":"Bottom","rt":null,"stimulus":"Stimuli_Rocks480/M_Phyllite_13.png","response":null,"trial_type":"image-keyboard-response","trial_index":50,"plugin_version":"2.1.0","time_elapsed":1121907,"subject_id":"90583","group":"Group2","full_date":"2025-12-10T02:28:04.260Z","date":"2025-12-10","time":"02:28:04"},{"rt":null,"stimulus":"<p style=\"font-size: 50px; margin: 0; text-align: center;\">+</p>","response":null,"trial_type":"html-keyboard-response","trial_index":51,"plugin_version":"2.1.0","time_elapsed":1122909,"subject_id":"90583","group":"Group2","full_date":"2025-12-10T02:28:04.260Z","date":"2025-12-10","time":"02:28:04"},{"task":"memory_phase","broad_category":"M","image_png":"M_Slate_04.png","image_id":308,"category_name":"Slate","category":20,"distinct_rating":2.2,"distinct_type":"Bottom","rt":null,"stimulus":"Stimuli_Rocks480/M_Slate_04.png","response":null,"trial_type":"image-keyboard-response","trial_index":52,"plugin_version":"2.1.0","time_elapsed":1125411,"subject_id":"90583","group":"Group2","full_date":"2025-12-10T02:28:04.260Z","date":"2025-12-10","time":"02:28:04"},{"rt":null,"stimulus":"<p style=\"font-size: 50px; margin: 0; text-align: center;\">+</p>","response":null,"trial_type":"html-keyboard-response","trial_index":53,"plugin_version":"2.1.0","time_elapsed":1126414,"subject_id":"90583","group":"Group2","full_date":"2025-12-10T02:28:04.260Z","date":"2025-12-10","time":"02:28:04"},{"task":"memory_phase","broad_category":"M","image_png":"M_Marble_03.png","image_id":227,"category_name":"Marble","category":15,"distinct_rating":2.67,"distinct_type":"Bottom","rt":null,"stimulus":"Stimuli_Rocks480/M_Marble_03.png","response":null,"trial_type":"image-keyboard-response","trial_index":54,"plugin_version":"2.1.0","time_elapsed":1128917,"subject_id":"90583","group":"Group2","full_date":"2025-12-10T02:28:04.260Z","date":"2025-12-10","time":"02:28:04"},{"rt":2719,"stimulus":"<p style=\"max-width: 760px; margin: auto; font-size: 35px; line-height: 1.5;\">Press SPACE to continue study phase</p>","response":" ","trial_type":"html-keyboard-response","trial_index":55,"plugin_version":"2.1.0","time_elapsed":1131637,"subject_id":"90583","group":"Group2","full_date":"2025-12-10T02:28:04.260Z","date":"2025-12-10","time":"02:28:04"},{"rt":null,"stimulus":"<p style=\"font-size: 50px; margin: 0; text-align: center;\">+</p>","response":null,"trial_type":"html-keyboard-response","trial_index":56,"plugin_version":"2.1.0","time_elapsed":1132639,"subject_id":"90583","group":"Group2","full_date":"2025-12-10T02:28:04.260Z","date":"2025-12-10","time":"02:28:04"},{"task":"memory_phase","broad_category":"I","image_png":"I_Diorite_10.png","image_id":42,"category_name":"Diorite","category":3,"distinct_rating":2.84,"distinct_type":"Bottom","rt":null,"stimulus":"Stimuli_Rocks480/I_Diorite_10.png","response":null,"trial_type":"image-keyboard-response","trial_index":57,"plugin_version":"2.1.0","time_elapsed":1135142,"subject_id":"90583","group":"Group2","full_date":"2025-12-10T02:28:04.260Z","date":"2025-12-10","time":"02:28:04"},{"rt":null,"stimulus":"<p style=\"font-size: 50px; margin: 0; text-align: center;\">+</p>","response":null,"trial_type":"html-keyboard-response","trial_index":58,"plugin_version":"2.1.0","time_elapsed":1136144,"subject_id":"90583","group":"Group2","full_date":"2025-12-10T02:28:04.260Z","date":"2025-12-10","time":"02:28:04"},{"task":"memory_phase","broad_category":"S","image_png":"S_Shale_02.png","image_id":466,"category_name":"Shale","category":30,"distinct_rating":2.9,"distinct_type":"Bottom","rt":null,"stimulus":"Stimuli_Rocks480/S_Shale_02.png","response":null,"trial_type":"image-keyboard-response","trial_index":59,"plugin_version":"2.1.0","time_elapsed":1138646,"subject_id":"90583","group":"Group2","full_date":"2025-12-10T02:28:04.260Z","date":"2025-12-10","time":"02:28:04"},{"rt":null,"stimulus":"<p style=\"font-size: 50px; margin: 0; text-align: center;\">+</p>","response":null,"trial_type":"html-keyboard-response","trial_index":60,"plugin_version":"2.1.0","time_elapsed":1139648,"subject_id":"90583","group":"Group2","full_date":"2025-12-10T02:28:04.260Z","date":"2025-12-10","time":"02:28:04"},{"task":"memory_phase","broad_category":"I","image_png":"I_Basalt_13.png","image_id":29,"category_name":"Basalt","category":2,"distinct_rating":2.68,"distinct_type":"Bottom","rt":null,"stimulus":"Stimuli_Rocks480/I_Basalt_13.png","response":null,"trial_type":"image-keyboard-response","trial_index":61,"plugin_version":"2.1.0","time_elapsed":1142150,"subject_id":"90583","group":"Group2","full_date":"2025-12-10T02:28:04.260Z","date":"2025-12-10","time":"02:28:04"},{"rt":null,"stimulus":"<p style=\"font-size: 50px; margin: 0; text-align: center;\">+</p>","response":null,"trial_type":"html-keyboard-response","trial_index":62,"plugin_version":"2.1.0","time_elapsed":1143152,"subject_id":"90583","group":"Group2","full_date":"2025-12-10T02:28:04.260Z","date":"2025-12-10","time":"02:28:04"},{"task":"memory_phase","broad_category":"I","image_png":"I_Basalt_10.png","image_id":26,"category_name":"Basalt","category":2,"distinct_rating":2.76,"distinct_type":"Bottom","rt":null,"stimulus":"Stimuli_Rocks480/I_Basalt_10.png","response":null,"trial_type":"image-keyboard-response","trial_index":63,"plugin_version":"2.1.0","time_elapsed":1145654,"subject_id":"90583","group":"Group2","full_date":"2025-12-10T02:28:04.260Z","date":"2025-12-10","time":"02:28:04"},{"rt":null,"stimulus":"<p style=\"font-size: 50px; margin: 0; text-align: center;\">+</p>","response":null,"trial_type":"html-keyboard-response","trial_index":64,"plugin_version":"2.1.0","time_elapsed":1146656,"subject_id":"90583","group":"Group2","full_date":"2025-12-10T02:28:04.260Z","date":"2025-12-10","time":"02:28:04"},{"task":"memory_phase","broad_category":"I","image_png":"I_Andesite_09.png","image_id":9,"category_name":"Andesite","category":1,"distinct_rating":2.49,"distinct_type":"Bottom","rt":null,"stimulus":"Stimuli_Rocks480/I_Andesite_09.png","response":null,"trial_type":"image-keyboard-response","trial_index":65,"plugin_version":"2.1.0","time_elapsed":1149158,"subject_id":"90583","group":"Group2","full_date":"2025-12-10T02:28:04.260Z","date":"2025-12-10","time":"02:28:04"},{"rt":null,"stimulus":"<p style=\"font-size: 50px; margin: 0; text-align: center;\">+</p>","response":null,"trial_type":"html-keyboard-response","trial_index":66,"plugin_version":"2.1.0","time_elapsed":1150160,"subject_id":"90583","group":"Group2","full_date":"2025-12-10T02:28:04.260Z","date":"2025-12-10","time":"02:28:04"},{"task":"memory_phase","broad_category":"I","image_png":"I_Pumice_01.png","image_id":129,"category_name":"Pumice","category":9,"distinct_rating":3.25,"distinct_type":"Bottom","rt":null,"stimulus":"Stimuli_Rocks480/I_Pumice_01.png","response":null,"trial_type":"image-keyboard-response","trial_index":67,"plugin_version":"2.1.0","time_elapsed":1152663,"subject_id":"90583","group":"Group2","full_date":"2025-12-10T02:28:04.260Z","date":"2025-12-10","time":"02:28:04"},{"rt":null,"stimulus":"<p style=\"font-size: 50px; margin: 0; text-align: center;\">+</p>","response":null,"trial_type":"html-keyboard-response","trial_index":68,"plugin_version":"2.1.0","time_elapsed":1153664,"subject_id":"90583","group":"Group2","full_date":"2025-12-10T02:28:04.260Z","date":"2025-12-10","time":"02:28:04"},{"task":"memory_phase","broad_category":"I","image_png":"I_Gabbro_02.png","image_id":50,"category_name":"Gabbro","category":4,"distinct_rating":2.73,"distinct_type":"Bottom","rt":null,"stimulus":"Stimuli_Rocks480/I_Gabbro_02.png","response":null,"trial_type":"image-keyboard-response","trial_index":69,"plugin_version":"2.1.0","time_elapsed":1156168,"subject_id":"90583","group":"Group2","full_date":"2025-12-10T02:28:04.260Z","date":"2025-12-10","time":"02:28:04"},{"rt":null,"stimulus":"<p style=\"font-size: 50px; margin: 0; text-align: center;\">+</p>","response":null,"trial_type":"html-keyboard-response","trial_index":70,"plugin_version":"2.1.0","time_elapsed":1157169,"subject_id":"90583","group":"Group2","full_date":"2025-12-10T02:28:04.260Z","date":"2025-12-10","time":"02:28:04"},{"task":"memory_phase","broad_category":"M","image_png":"M_Gneiss_10.png","image_id":202,"category_name":"Gneiss","category":13,"distinct_rating":3.09,"distinct_type":"Bottom","rt":null,"stimulus":"Stimuli_Rocks480/M_Gneiss_10.png","response":null,"trial_type":"image-keyboard-response","trial_index":71,"plugin_version":"2.1.0","time_elapsed":1159672,"subject_id":"90583","group":"Group2","full_date":"2025-12-10T02:28:04.260Z","date":"2025-12-10","time":"02:28:04"},{"rt":null,"stimulus":"<p style=\"font-size: 50px; margin: 0; text-align: center;\">+</p>","response":null,"trial_type":"html-keyboard-response","trial_index":72,"plugin_version":"2.1.0","time_elapsed":1160673,"subject_id":"90583","group":"Group2","full_date":"2025-12-10T02:28:04.260Z","date":"2025-12-10","time":"02:28:04"},{"task":"memory_phase","broad_category":"S","image_png":"S_Shale_03.png","image_id":467,"category_name":"Shale","category":30,"distinct_rating":1.95,"distinct_type":"Bottom","rt":null,"stimulus":"Stimuli_Rocks480/S_Shale_03.png","response":null,"trial_type":"image-keyboard-response","trial_index":73,"plugin_version":"2.1.0","time_elapsed":1163176,"subject_id":"90583","group":"Group2","full_date":"2025-12-10T02:28:04.260Z","date":"2025-12-10","time":"02:28:04"},{"rt":null,"stimulus":"<p style=\"font-size: 50px; margin: 0; text-align: center;\">+</p>","response":null,"trial_type":"html-keyboard-response","trial_index":74,"plugin_version":"2.1.0","time_elapsed":1164179,"subject_id":"90583","group":"Group2","full_date":"2025-12-10T02:28:04.260Z","date":"2025-12-10","time":"02:28:04"},{"task":"memory_phase","broad_category":"M","image_png":"M_Slate_10.png","image_id":314,"category_name":"Slate","category":20,"distinct_rating":1.94,"distinct_type":"Bottom","rt":null,"stimulus":"Stimuli_Rocks480/M_Slate_10.png","response":null,"trial_type":"image-keyboard-response","trial_index":75,"plugin_version":"2.1.0","time_elapsed":1166681,"subject_id":"90583","group":"Group2","full_date":"2025-12-10T02:28:04.260Z","date":"2025-12-10","time":"02:28:04"},{"rt":null,"stimulus":"<p style=\"font-size: 50px; margin: 0; text-align: center;\">+</p>","response":null,"trial_type":"html-keyboard-response","trial_index":76,"plugin_version":"2.1.0","time_elapsed":1167682,"subject_id":"90583","group":"Group2","full_date":"2025-12-10T02:28:04.260Z","date":"2025-12-10","time":"02:28:04"},{"task":"memory_phase","broad_category":"I","image_png":"I_Andesite_03.png","image_id":3,"category_name":"Andesite","category":1,"distinct_rating":3.17,"distinct_type":"Bottom","rt":null,"stimulus":"Stimuli_Rocks480/I_Andesite_03.png","response":null,"trial_type":"image-keyboard-response","trial_index":77,"plugin_version":"2.1.0","time_elapsed":1170185,"subject_id":"90583","group":"Group2","full_date":"2025-12-10T02:28:04.260Z","date":"2025-12-10","time":"02:28:04"},{"rt":null,"stimulus":"<p style=\"font-size: 50px; margin: 0; text-align: center;\">+</p>","response":null,"trial_type":"html-keyboard-response","trial_index":78,"plugin_version":"2.1.0","time_elapsed":1171187,"subject_id":"90583","group":"Group2","full_date":"2025-12-10T02:28:04.260Z","date":"2025-12-10","time":"02:28:04"},{"task":"memory_phase","broad_category":"I","image_png":"I_Rhyolite_08.png","image_id":152,"category_name":"Rhyolite","category":10,"distinct_rating":1.38,"distinct_type":"Bottom","rt":null,"stimulus":"Stimuli_Rocks480/I_Rhyolite_08.png","response":null,"trial_type":"image-keyboard-response","trial_index":79,"plugin_version":"2.1.0","time_elapsed":1173689,"subject_id":"90583","group":"Group2","full_date":"2025-12-10T02:28:04.260Z","date":"2025-12-10","time":"02:28:04"},{"rt":null,"stimulus":"<p style=\"font-size: 50px; margin: 0; text-align: center;\">+</p>","response":null,"trial_type":"html-keyboard-response","trial_index":80,"plugin_version":"2.1.0","time_elapsed":1174691,"subject_id":"90583","group":"Group2","full_date":"2025-12-10T02:28:04.260Z","date":"2025-12-10","time":"02:28:04"},{"task":"memory_phase","broad_category":"S","image_png":"S_Chert_13.png","image_id":365,"category_name":"Chert","category":23,"distinct_rating":6.57,"distinct_type":"Top","rt":null,"stimulus":"Stimuli_Rocks480/S_Chert_13.png","response":null,"trial_type":"image-keyboard-response","trial_index":81,"plugin_version":"2.1.0","time_elapsed":1177194,"subject_id":"90583","group":"Group2","full_date":"2025-12-10T02:28:04.260Z","date":"2025-12-10","time":"02:28:04"},{"rt":null,"stimulus":"<p style=\"font-size: 50px; margin: 0; text-align: center;\">+</p>","response":null,"trial_type":"html-keyboard-response","trial_index":82,"plugin_version":"2.1.0","time_elapsed":1178196,"subject_id":"90583","group":"Group2","full_date":"2025-12-10T02:28:04.260Z","date":"2025-12-10","time":"02:28:04"},{"task":"memory_phase","broad_category":"S","image_png":"S_Dolomite_01.png","image_id":385,"category_name":"Dolomite","category":25,"distinct_rating":1.43,"distinct_type":"Bottom","rt":null,"stimulus":"Stimuli_Rocks480/S_Dolomite_01.png","response":null,"trial_type":"image-keyboard-response","trial_index":83,"plugin_version":"2.1.0","time_elapsed":1180698,"subject_id":"90583","group":"Group2","full_date":"2025-12-10T02:28:04.260Z","date":"2025-12-10","time":"02:28:04"},{"rt":null,"stimulus":"<p style=\"font-size: 50px; margin: 0; text-align: center;\">+</p>","response":null,"trial_type":"html-keyboard-response","trial_index":84,"plugin_version":"2.1.0","time_elapsed":1181700,"subject_id":"90583","group":"Group2","full_date":"2025-12-10T02:28:04.260Z","date":"2025-12-10","time":"02:28:04"},{"task":"memory_phase","broad_category":"S","image_png":"S_Rock Salt_13.png","image_id":445,"category_name":"Rock Salt","category":28,"distinct_rating":7.58,"distinct_type":"Top","rt":null,"stimulus":"Stimuli_Rocks480/S_Rock Salt_13.png","response":null,"trial_type":"image-keyboard-response","trial_index":85,"plugin_version":"2.1.0","time_elapsed":1184203,"subject_id":"90583","group":"Group2","full_date":"2025-12-10T02:28:04.260Z","date":"2025-12-10","time":"02:28:04"},{"rt":null,"stimulus":"<p style=\"font-size: 50px; margin: 0; text-align: center;\">+</p>","response":null,"trial_type":"html-keyboard-response","trial_index":86,"plugin_version":"2.1.0","time_elapsed":1185206,"subject_id":"90583","group":"Group2","full_date":"2025-12-10T02:28:04.260Z","date":"2025-12-10","time":"02:28:04"},{"task":"memory_phase","broad_category":"M","image_png":"M_Slate_14.png","image_id":318,"category_name":"Slate","category":20,"distinct_rating":2.58,"distinct_type":"Bottom","rt":null,"stimulus":"Stimuli_Rocks480/M_Slate_14.png","response":null,"trial_type":"image-keyboard-response","trial_index":87,"plugin_version":"2.1.0","time_elapsed":1187708,"subject_id":"90583","group":"Group2","full_date":"2025-12-10T02:28:04.260Z","date":"2025-12-10","time":"02:28:04"},{"rt":null,"stimulus":"<p style=\"font-size: 50px; margin: 0; text-align: center;\">+</p>","response":null,"trial_type":"html-keyboard-response","trial_index":88,"plugin_version":"2.1.0","time_elapsed":1188709,"subject_id":"90583","group":"Group2","full_date":"2025-12-10T02:28:04.260Z","date":"2025-12-10","time":"02:28:04"},{"task":"memory_phase","broad_category":"I","image_png":"I_Peridotite_13.png","image_id":125,"category_name":"Peridotite","category":8,"distinct_rating":7.28,"distinct_type":"Top","rt":null,"stimulus":"Stimuli_Rocks480/I_Peridotite_13.png","response":null,"trial_type":"image-keyboard-response","trial_index":89,"plugin_version":"2.1.0","time_elapsed":1191212,"subject_id":"90583","group":"Group2","full_date":"2025-12-10T02:28:04.260Z","date":"2025-12-10","time":"02:28:04"},{"rt":null,"stimulus":"<p style=\"font-size: 50px; margin: 0; text-align: center;\">+</p>","response":null,"trial_type":"html-keyboard-response","trial_index":90,"plugin_version":"2.1.0","time_elapsed":1192214,"subject_id":"90583","group":"Group2","full_date":"2025-12-10T02:28:04.260Z","date":"2025-12-10","time":"02:28:04"},{"task":"memory_phase","broad_category":"I","image_png":"I_Rhyolite_10.png","image_id":154,"category_name":"Rhyolite","category":10,"distinct_rating":2.88,"distinct_type":"Bottom","rt":null,"stimulus":"Stimuli_Rocks480/I_Rhyolite_10.png","response":null,"trial_type":"image-keyboard-response","trial_index":91,"plugin_version":"2.1.0","time_elapsed":1194717,"subject_id":"90583","group":"Group2","full_date":"2025-12-10T02:28:04.260Z","date":"2025-12-10","time":"02:28:04"},{"rt":null,"stimulus":"<p style=\"font-size: 50px; margin: 0; text-align: center;\">+</p>","response":null,"trial_type":"html-keyboard-response","trial_index":92,"plugin_version":"2.1.0","time_elapsed":1195719,"subject_id":"90583","group":"Group2","full_date":"2025-12-10T02:28:04.260Z","date":"2025-12-10","time":"02:28:04"},{"task":"memory_phase","broad_category":"S","image_png":"S_Dolomite_07.png","image_id":391,"category_name":"Dolomite","category":25,"distinct_rating":1.73,"distinct_type":"Bottom","rt":null,"stimulus":"Stimuli_Rocks480/S_Dolomite_07.png","response":null,"trial_type":"image-keyboard-response","trial_index":93,"plugin_version":"2.1.0","time_elapsed":1198221,"subject_id":"90583","group":"Group2","full_date":"2025-12-10T02:28:04.260Z","date":"2025-12-10","time":"02:28:04"},{"rt":null,"stimulus":"<p style=\"font-size: 50px; margin: 0; text-align: center;\">+</p>","response":null,"trial_type":"html-keyboard-response","trial_index":94,"plugin_version":"2.1.0","time_elapsed":1199223,"subject_id":"90583","group":"Group2","full_date":"2025-12-10T02:28:04.260Z","date":"2025-12-10","time":"02:28:04"},{"task":"memory_phase","broad_category":"S","image_png":"S_Sandstone_11.png","image_id":459,"category_name":"Sandstone","category":29,"distinct_rating":1.82,"distinct_type":"Bottom","rt":null,"stimulus":"Stimuli_Rocks480/S_Sandstone_11.png","response":null,"trial_type":"image-keyboard-response","trial_index":95,"plugin_version":"2.1.0","time_elapsed":1201726,"subject_id":"90583","group":"Group2","full_date":"2025-12-10T02:28:04.260Z","date":"2025-12-10","time":"02:28:04"},{"rt":null,"stimulus":"<p style=\"font-size: 50px; margin: 0; text-align: center;\">+</p>","response":null,"trial_type":"html-keyboard-response","trial_index":96,"plugin_version":"2.1.0","time_elapsed":1202728,"subject_id":"90583","group":"Group2","full_date":"2025-12-10T02:28:04.260Z","date":"2025-12-10","time":"02:28:04"},{"task":"memory_phase","broad_category":"M","image_png":"M_Phyllite_05.png","image_id":261,"category_name":"Phyllite","category":17,"distinct_rating":2.14,"distinct_type":"Bottom","rt":null,"stimulus":"Stimuli_Rocks480/M_Phyllite_05.png","response":null,"trial_type":"image-keyboard-response","trial_index":97,"plugin_version":"2.1.0","time_elapsed":1205231,"subject_id":"90583","group":"Group2","full_date":"2025-12-10T02:28:04.260Z","date":"2025-12-10","time":"02:28:04"},{"rt":null,"stimulus":"<p style=\"font-size: 50px; margin: 0; text-align: center;\">+</p>","response":null,"trial_type":"html-keyboard-response","trial_index":98,"plugin_version":"2.1.0","time_elapsed":1206233,"subject_id":"90583","group":"Group2","full_date":"2025-12-10T02:28:04.260Z","date":"2025-12-10","time":"02:28:04"},{"task":"memory_phase","broad_category":"M","image_png":"M_Marble_14.png","image_id":238,"category_name":"Marble","category":15,"distinct_rating":3.31,"distinct_type":"Bottom","rt":null,"stimulus":"Stimuli_Rocks480/M_Marble_14.png","response":null,"trial_type":"image-keyboard-response","trial_index":99,"plugin_version":"2.1.0","time_elapsed":1208735,"subject_id":"90583","group":"Group2","full_date":"2025-12-10T02:28:04.260Z","date":"2025-12-10","time":"02:28:04"},{"rt":null,"stimulus":"<p style=\"font-size: 50px; margin: 0; text-align: center;\">+</p>","response":null,"trial_type":"html-keyboard-response","trial_index":100,"plugin_version":"2.1.0","time_elapsed":1209738,"subject_id":"90583","group":"Group2","full_date":"2025-12-10T02:28:04.260Z","date":"2025-12-10","time":"02:28:04"},{"task":"memory_phase","broad_category":"I","image_png":"I_Gabbro_14.png","image_id":62,"category_name":"Gabbro","category":4,"distinct_rating":2.95,"distinct_type":"Bottom","rt":null,"stimulus":"Stimuli_Rocks480/I_Gabbro_14.png","response":null,"trial_type":"image-keyboard-response","trial_index":101,"plugin_version":"2.1.0","time_elapsed":1212241,"subject_id":"90583","group":"Group2","full_date":"2025-12-10T02:28:04.260Z","date":"2025-12-10","time":"02:28:04"},{"rt":null,"stimulus":"<p style=\"font-size: 50px; margin: 0; text-align: center;\">+</p>","response":null,"trial_type":"html-keyboard-response","trial_index":102,"plugin_version":"2.1.0","time_elapsed":1213243,"subject_id":"90583","group":"Group2","full_date":"2025-12-10T02:28:04.260Z","date":"2025-12-10","time":"02:28:04"},{"task":"memory_phase","broad_category":"I","image_png":"I_Obsidian_06.png","image_id":86,"category_name":"Obsidian","category":6,"distinct_rating":8.01,"distinct_type":"Top","rt":null,"stimulus":"Stimuli_Rocks480/I_Obsidian_06.png","response":null,"trial_type":"image-keyboard-response","trial_index":103,"plugin_version":"2.1.0","time_elapsed":1215746,"subject_id":"90583","group":"Group2","full_date":"2025-12-10T02:28:04.260Z","date":"2025-12-10","time":"02:28:04"},{"rt":null,"stimulus":"<p style=\"font-size: 50px; margin: 0; text-align: center;\">+</p>","response":null,"trial_type":"html-keyboard-response","trial_index":104,"plugin_version":"2.1.0","time_elapsed":1216748,"subject_id":"90583","group":"Group2","full_date":"2025-12-10T02:28:04.260Z","date":"2025-12-10","time":"02:28:04"},{"task":"memory_phase","broad_category":"S","image_png":"S_Conglomerate_14.png","image_id":382,"category_name":"Conglomerate","category":24,"distinct_rating":6.86,"distinct_type":"Top","rt":null,"stimulus":"Stimuli_Rocks480/S_Conglomerate_14.png","response":null,"trial_type":"image-keyboard-response","trial_index":105,"plugin_version":"2.1.0","time_elapsed":1219251,"subject_id":"90583","group":"Group2","full_date":"2025-12-10T02:28:04.260Z","date":"2025-12-10","time":"02:28:04"},{"rt":49780,"stimulus":"<p style=\"max-width: 760px; margin: auto; font-size: 35px; line-height: 1.5;\">You have completed 1 study phase. Now, we'll show you all the images again 2 more times.<br><br>Press SPACE to continue</p>","response":" ","trial_type":"html-keyboard-response","trial_index":106,"plugin_version":"2.1.0","time_elapsed":1269031,"subject_id":"90583","group":"Group2","full_date":"2025-12-10T02:28:04.260Z","date":"2025-12-10","time":"02:28:04"},{"rt":null,"stimulus":"<p style=\"font-size: 50px; margin: 0; text-align: center;\">+</p>","response":null,"trial_type":"html-keyboard-response","trial_index":107,"plugin_version":"2.1.0","time_elapsed":1270033,"subject_id":"90583","group":"Group2","full_date":"2025-12-10T02:28:04.260Z","date":"2025-12-10","time":"02:28:04"},{"task":"memory_phase","broad_category":"I","image_png":"I_Diorite_15.png","image_id":47,"category_name":"Diorite","category":3,"distinct_rating":3.05,"distinct_type":"Bottom","rt":null,"stimulus":"Stimuli_Rocks480/I_Diorite_15.png","response":null,"trial_type":"image-keyboard-response","trial_index":108,"plugin_version":"2.1.0","time_elapsed":1272536,"subject_id":"90583","group":"Group2","full_date":"2025-12-10T02:28:04.260Z","date":"2025-12-10","time":"02:28:04"},{"rt":null,"stimulus":"<p style=\"font-size: 50px; margin: 0; text-align: center;\">+</p>","response":null,"trial_type":"html-keyboard-response","trial_index":109,"plugin_version":"2.1.0","time_elapsed":1273538,"subject_id":"90583","group":"Group2","full_date":"2025-12-10T02:28:04.260Z","date":"2025-12-10","time":"02:28:04"},{"task":"memory_phase","broad_category":"I","image_png":"I_Obsidian_06.png","image_id":86,"category_name":"Obsidian","category":6,"distinct_rating":8.01,"distinct_type":"Top","rt":null,"stimulus":"Stimuli_Rocks480/I_Obsidian_06.png","response":null,"trial_type":"image-keyboard-response","trial_index":110,"plugin_version":"2.1.0","time_elapsed":1276040,"subject_id":"90583","group":"Group2","full_date":"2025-12-10T02:28:04.260Z","date":"2025-12-10","time":"02:28:04"},{"rt":null,"stimulus":"<p style=\"font-size: 50px; margin: 0; text-align: center;\">+</p>","response":null,"trial_type":"html-keyboard-response","trial_index":111,"plugin_version":"2.1.0","time_elapsed":1277043,"subject_id":"90583","group":"Group2","full_date":"2025-12-10T02:28:04.260Z","date":"2025-12-10","time":"02:28:04"},{"task":"memory_phase","broad_category":"M","image_png":"M_Marble_02.png","image_id":226,"category_name":"Marble","category":15,"distinct_rating":3.2,"distinct_type":"Bottom","rt":null,"stimulus":"Stimuli_Rocks480/M_Marble_02.png","response":null,"trial_type":"image-keyboard-response","trial_index":112,"plugin_version":"2.1.0","time_elapsed":1279546,"subject_id":"90583","group":"Group2","full_date":"2025-12-10T02:28:04.260Z","date":"2025-12-10","time":"02:28:04"},{"rt":null,"stimulus":"<p style=\"font-size: 50px; margin: 0; text-align: center;\">+</p>","response":null,"trial_type":"html-keyboard-response","trial_index":113,"plugin_version":"2.1.0","time_elapsed":1280548,"subject_id":"90583","group":"Group2","full_date":"2025-12-10T02:28:04.260Z","date":"2025-12-10","time":"02:28:04"},{"task":"memory_phase","broad_category":"M","image_png":"M_Gneiss_10.png","image_id":202,"category_name":"Gneiss","category":13,"distinct_rating":3.09,"distinct_type":"Bottom","rt":null,"stimulus":"Stimuli_Rocks480/M_Gneiss_10.png","response":null,"trial_type":"image-keyboard-response","trial_index":114,"plugin_version":"2.1.0","time_elapsed":1283050,"subject_id":"90583","group":"Group2","full_date":"2025-12-10T02:28:04.260Z","date":"2025-12-10","time":"02:28:04"},{"rt":null,"stimulus":"<p style=\"font-size: 50px; margin: 0; text-align: center;\">+</p>","response":null,"trial_type":"html-keyboard-response","trial_index":115,"plugin_version":"2.1.0","time_elapsed":1284052,"subject_id":"90583","group":"Group2","full_date":"2025-12-10T02:28:04.260Z","date":"2025-12-10","time":"02:28:04"},{"task":"memory_phase","broad_category":"M","image_png":"M_Marble_03.png","image_id":227,"category_name":"Marble","category":15,"distinct_rating":2.67,"distinct_type":"Bottom","rt":null,"stimulus":"Stimuli_Rocks480/M_Marble_03.png","response":null,"trial_type":"image-keyboard-response","trial_index":116,"plugin_version":"2.1.0","time_elapsed":1286554,"subject_id":"90583","group":"Group2","full_date":"2025-12-10T02:28:04.260Z","date":"2025-12-10","time":"02:28:04"},{"rt":null,"stimulus":"<p style=\"font-size: 50px; margin: 0; text-align: center;\">+</p>","response":null,"trial_type":"html-keyboard-response","trial_index":117,"plugin_version":"2.1.0","time_elapsed":1287556,"subject_id":"90583","group":"Group2","full_date":"2025-12-10T02:28:04.260Z","date":"2025-12-10","time":"02:28:04"},{"task":"memory_phase","broad_category":"M","image_png":"M_Quartzite_15.png","image_id":287,"category_name":"Quartzite","category":18,"distinct_rating":2.19,"distinct_type":"Bottom","rt":null,"stimulus":"Stimuli_Rocks480/M_Quartzite_15.png","response":null,"trial_type":"image-keyboard-response","trial_index":118,"plugin_version":"2.1.0","time_elapsed":1290058,"subject_id":"90583","group":"Group2","full_date":"2025-12-10T02:28:04.260Z","date":"2025-12-10","time":"02:28:04"},{"rt":null,"stimulus":"<p style=\"font-size: 50px; margin: 0; text-align: center;\">+</p>","response":null,"trial_type":"html-keyboard-response","trial_index":119,"plugin_version":"2.1.0","time_elapsed":1291061,"subject_id":"90583","group":"Group2","full_date":"2025-12-10T02:28:04.260Z","date":"2025-12-10","time":"02:28:04"},{"task":"memory_phase","broad_category":"I","image_png":"I_Pumice_14.png","image_id":142,"category_name":"Pumice","category":9,"distinct_rating":3.22,"distinct_type":"Bottom","rt":null,"stimulus":"Stimuli_Rocks480/I_Pumice_14.png","response":null,"trial_type":"image-keyboard-response","trial_index":120,"plugin_version":"2.1.0","time_elapsed":1293564,"subject_id":"90583","group":"Group2","full_date":"2025-12-10T02:28:04.260Z","date":"2025-12-10","time":"02:28:04"},{"rt":null,"stimulus":"<p style=\"font-size: 50px; margin: 0; text-align: center;\">+</p>","response":null,"trial_type":"html-keyboard-response","trial_index":121,"plugin_version":"2.1.0","time_elapsed":1294566,"subject_id":"90583","group":"Group2","full_date":"2025-12-10T02:28:04.260Z","date":"2025-12-10","time":"02:28:04"},{"task":"memory_phase","broad_category":"M","image_png":"M_Gneiss_14.png","image_id":206,"category_name":"Gneiss","category":13,"distinct_rating":3.41,"distinct_type":"Bottom","rt":null,"stimulus":"Stimuli_Rocks480/M_Gneiss_14.png","response":null,"trial_type":"image-keyboard-response","trial_index":122,"plugin_version":"2.1.0","time_elapsed":1297068,"subject_id":"90583","group":"Group2","full_date":"2025-12-10T02:28:04.260Z","date":"2025-12-10","time":"02:28:04"},{"rt":null,"stimulus":"<p style=\"font-size: 50px; margin: 0; text-align: center;\">+</p>","response":null,"trial_type":"html-keyboard-response","trial_index":123,"plugin_version":"2.1.0","time_elapsed":1298070,"subject_id":"90583","group":"Group2","full_date":"2025-12-10T02:28:04.260Z","date":"2025-12-10","time":"02:28:04"},{"task":"memory_phase","broad_category":"S","image_png":"S_Shale_02.png","image_id":466,"category_name":"Shale","category":30,"distinct_rating":2.9,"distinct_type":"Bottom","rt":null,"stimulus":"Stimuli_Rocks480/S_Shale_02.png","response":null,"trial_type":"image-keyboard-response","trial_index":124,"plugin_version":"2.1.0","time_elapsed":1300573,"subject_id":"90583","group":"Group2","full_date":"2025-12-10T02:28:04.260Z","date":"2025-12-10","time":"02:28:04"},{"rt":null,"stimulus":"<p style=\"font-size: 50px; margin: 0; text-align: center;\">+</p>","response":null,"trial_type":"html-keyboard-response","trial_index":125,"plugin_version":"2.1.0","time_elapsed":1301576,"subject_id":"90583","group":"Group2","full_date":"2025-12-10T02:28:04.260Z","date":"2025-12-10","time":"02:28:04"},{"task":"memory_phase","broad_category":"S","image_png":"S_Sandstone_11.png","image_id":459,"category_name":"Sandstone","category":29,"distinct_rating":1.82,"distinct_type":"Bottom","rt":null,"stimulus":"Stimuli_Rocks480/S_Sandstone_11.png","response":null,"trial_type":"image-keyboard-response","trial_index":126,"plugin_version":"2.1.0","time_elapsed":1304080,"subject_id":"90583","group":"Group2","full_date":"2025-12-10T02:28:04.260Z","date":"2025-12-10","time":"02:28:04"},{"rt":null,"stimulus":"<p style=\"font-size: 50px; margin: 0; text-align: center;\">+</p>","response":null,"trial_type":"html-keyboard-response","trial_index":127,"plugin_version":"2.1.0","time_elapsed":1305082,"subject_id":"90583","group":"Group2","full_date":"2025-12-10T02:28:04.260Z","date":"2025-12-10","time":"02:28:04"},{"task":"memory_phase","broad_category":"I","image_png":"I_Pegmatite_11.png","image_id":107,"category_name":"Pegmatite","category":7,"distinct_rating":7.11,"distinct_type":"Top","rt":null,"stimulus":"Stimuli_Rocks480/I_Pegmatite_11.png","response":null,"trial_type":"image-keyboard-response","trial_index":128,"plugin_version":"2.1.0","time_elapsed":1307585,"subject_id":"90583","group":"Group2","full_date":"2025-12-10T02:28:04.260Z","date":"2025-12-10","time":"02:28:04"},{"rt":null,"stimulus":"<p style=\"font-size: 50px; margin: 0; text-align: center;\">+</p>","response":null,"trial_type":"html-keyboard-response","trial_index":129,"plugin_version":"2.1.0","time_elapsed":1308586,"subject_id":"90583","group":"Group2","full_date":"2025-12-10T02:28:04.260Z","date":"2025-12-10","time":"02:28:04"},{"task":"memory_phase","broad_category":"I","image_png":"I_Peridotite_13.png","image_id":125,"category_name":"Peridotite","category":8,"distinct_rating":7.28,"distinct_type":"Top","rt":null,"stimulus":"Stimuli_Rocks480/I_Peridotite_13.png","response":null,"trial_type":"image-keyboard-response","trial_index":130,"plugin_version":"2.1.0","time_elapsed":1311089,"subject_id":"90583","group":"Group2","full_date":"2025-12-10T02:28:04.260Z","date":"2025-12-10","time":"02:28:04"},{"rt":null,"stimulus":"<p style=\"font-size: 50px; margin: 0; text-align: center;\">+</p>","response":null,"trial_type":"html-keyboard-response","trial_index":131,"plugin_version":"2.1.0","time_elapsed":1312090,"subject_id":"90583","group":"Group2","full_date":"2025-12-10T02:28:04.260Z","date":"2025-12-10","time":"02:28:04"},{"task":"memory_phase","broad_category":"I","image_png":"I_Gabbro_02.png","image_id":50,"category_name":"Gabbro","category":4,"distinct_rating":2.73,"distinct_type":"Bottom","rt":null,"stimulus":"Stimuli_Rocks480/I_Gabbro_02.png","response":null,"trial_type":"image-keyboard-response","trial_index":132,"plugin_version":"2.1.0","time_elapsed":1314593,"subject_id":"90583","group":"Group2","full_date":"2025-12-10T02:28:04.260Z","date":"2025-12-10","time":"02:28:04"},{"rt":null,"stimulus":"<p style=\"font-size: 50px; margin: 0; text-align: center;\">+</p>","response":null,"trial_type":"html-keyboard-response","trial_index":133,"plugin_version":"2.1.0","time_elapsed":1315594,"subject_id":"90583","group":"Group2","full_date":"2025-12-10T02:28:04.260Z","date":"2025-12-10","time":"02:28:04"},{"task":"memory_phase","broad_category":"I","image_png":"I_Rhyolite_05.png","image_id":149,"category_name":"Rhyolite","category":10,"distinct_rating":3.02,"distinct_type":"Bottom","rt":null,"stimulus":"Stimuli_Rocks480/I_Rhyolite_05.png","response":null,"trial_type":"image-keyboard-response","trial_index":134,"plugin_version":"2.1.0","time_elapsed":1318097,"subject_id":"90583","group":"Group2","full_date":"2025-12-10T02:28:04.260Z","date":"2025-12-10","time":"02:28:04"},{"rt":null,"stimulus":"<p style=\"font-size: 50px; margin: 0; text-align: center;\">+</p>","response":null,"trial_type":"html-keyboard-response","trial_index":135,"plugin_version":"2.1.0","time_elapsed":1319100,"subject_id":"90583","group":"Group2","full_date":"2025-12-10T02:28:04.260Z","date":"2025-12-10","time":"02:28:04"},{"task":"memory_phase","broad_category":"M","image_png":"M_Slate_04.png","image_id":308,"category_name":"Slate","category":20,"distinct_rating":2.2,"distinct_type":"Bottom","rt":null,"stimulus":"Stimuli_Rocks480/M_Slate_04.png","response":null,"trial_type":"image-keyboard-response","trial_index":136,"plugin_version":"2.1.0","time_elapsed":1321602,"subject_id":"90583","group":"Group2","full_date":"2025-12-10T02:28:04.260Z","date":"2025-12-10","time":"02:28:04"},{"rt":null,"stimulus":"<p style=\"font-size: 50px; margin: 0; text-align: center;\">+</p>","response":null,"trial_type":"html-keyboard-response","trial_index":137,"plugin_version":"2.1.0","time_elapsed":1322604,"subject_id":"90583","group":"Group2","full_date":"2025-12-10T02:28:04.260Z","date":"2025-12-10","time":"02:28:04"},{"task":"memory_phase","broad_category":"I","image_png":"I_Rhyolite_08.png","image_id":152,"category_name":"Rhyolite","category":10,"distinct_rating":1.38,"distinct_type":"Bottom","rt":null,"stimulus":"Stimuli_Rocks480/I_Rhyolite_08.png","response":null,"trial_type":"image-keyboard-response","trial_index":138,"plugin_version":"2.1.0","time_elapsed":1325107,"subject_id":"90583","group":"Group2","full_date":"2025-12-10T02:28:04.260Z","date":"2025-12-10","time":"02:28:04"},{"rt":null,"stimulus":"<p style=\"font-size: 50px; margin: 0; text-align: center;\">+</p>","response":null,"trial_type":"html-keyboard-response","trial_index":139,"plugin_version":"2.1.0","time_elapsed":1326110,"subject_id":"90583","group":"Group2","full_date":"2025-12-10T02:28:04.260Z","date":"2025-12-10","time":"02:28:04"},{"task":"memory_phase","broad_category":"S","image_png":"S_Shale_03.png","image_id":467,"category_name":"Shale","category":30,"distinct_rating":1.95,"distinct_type":"Bottom","rt":null,"stimulus":"Stimuli_Rocks480/S_Shale_03.png","response":null,"trial_type":"image-keyboard-response","trial_index":140,"plugin_version":"2.1.0","time_elapsed":1328612,"subject_id":"90583","group":"Group2","full_date":"2025-12-10T02:28:04.260Z","date":"2025-12-10","time":"02:28:04"},{"rt":null,"stimulus":"<p style=\"font-size: 50px; margin: 0; text-align: center;\">+</p>","response":null,"trial_type":"html-keyboard-response","trial_index":141,"plugin_version":"2.1.0","time_elapsed":1329614,"subject_id":"90583","group":"Group2","full_date":"2025-12-10T02:28:04.260Z","date":"2025-12-10","time":"02:28:04"},{"task":"memory_phase","broad_category":"M","image_png":"M_Quartzite_12.png","image_id":284,"category_name":"Quartzite","category":18,"distinct_rating":1.92,"distinct_type":"Bottom","rt":null,"stimulus":"Stimuli_Rocks480/M_Quartzite_12.png","response":null,"trial_type":"image-keyboard-response","trial_index":142,"plugin_version":"2.1.0","time_elapsed":1332117,"subject_id":"90583","group":"Group2","full_date":"2025-12-10T02:28:04.260Z","date":"2025-12-10","time":"02:28:04"},{"rt":null,"stimulus":"<p style=\"font-size: 50px; margin: 0; text-align: center;\">+</p>","response":null,"trial_type":"html-keyboard-response","trial_index":143,"plugin_version":"2.1.0","time_elapsed":1333119,"subject_id":"90583","group":"Group2","full_date":"2025-12-10T02:28:04.260Z","date":"2025-12-10","time":"02:28:04"},{"task":"memory_phase","broad_category":"M","image_png":"M_Phyllite_13.png","image_id":269,"category_name":"Phyllite","category":17,"distinct_rating":2.8,"distinct_type":"Bottom","rt":null,"stimulus":"Stimuli_Rocks480/M_Phyllite_13.png","response":null,"trial_type":"image-keyboard-response","trial_index":144,"plugin_version":"2.1.0","time_elapsed":1335622,"subject_id":"90583","group":"Group2","full_date":"2025-12-10T02:28:04.260Z","date":"2025-12-10","time":"02:28:04"},{"rt":null,"stimulus":"<p style=\"font-size: 50px; margin: 0; text-align: center;\">+</p>","response":null,"trial_type":"html-keyboard-response","trial_index":145,"plugin_version":"2.1.0","time_elapsed":1336624,"subject_id":"90583","group":"Group2","full_date":"2025-12-10T02:28:04.260Z","date":"2025-12-10","time":"02:28:04"},{"task":"memory_phase","broad_category":"M","image_png":"M_Quartzite_07.png","image_id":279,"category_name":"Quartzite","category":18,"distinct_rating":1.97,"distinct_type":"Bottom","rt":null,"stimulus":"Stimuli_Rocks480/M_Quartzite_07.png","response":null,"trial_type":"image-keyboard-response","trial_index":146,"plugin_version":"2.1.0","time_elapsed":1339127,"subject_id":"90583","group":"Group2","full_date":"2025-12-10T02:28:04.260Z","date":"2025-12-10","time":"02:28:04"},{"rt":null,"stimulus":"<p style=\"font-size: 50px; margin: 0; text-align: center;\">+</p>","response":null,"trial_type":"html-keyboard-response","trial_index":147,"plugin_version":"2.1.0","time_elapsed":1340129,"subject_id":"90583","group":"Group2","full_date":"2025-12-10T02:28:04.260Z","date":"2025-12-10","time":"02:28:04"},{"task":"memory_phase","broad_category":"S","image_png":"S_Dolomite_07.png","image_id":391,"category_name":"Dolomite","category":25,"distinct_rating":1.73,"distinct_type":"Bottom","rt":null,"stimulus":"Stimuli_Rocks480/S_Dolomite_07.png","response":null,"trial_type":"image-keyboard-response","trial_index":148,"plugin_version":"2.1.0","time_elapsed":1342631,"subject_id":"90583","group":"Group2","full_date":"2025-12-10T02:28:04.260Z","date":"2025-12-10","time":"02:28:04"},{"rt":null,"stimulus":"<p style=\"font-size: 50px; margin: 0; text-align: center;\">+</p>","response":null,"trial_type":"html-keyboard-response","trial_index":149,"plugin_version":"2.1.0","time_elapsed":1343634,"subject_id":"90583","group":"Group2","full_date":"2025-12-10T02:28:04.260Z","date":"2025-12-10","time":"02:28:04"},{"task":"memory_phase","broad_category":"I","image_png":"I_Andesite_03.png","image_id":3,"category_name":"Andesite","category":1,"distinct_rating":3.17,"distinct_type":"Bottom","rt":null,"stimulus":"Stimuli_Rocks480/I_Andesite_03.png","response":null,"trial_type":"image-keyboard-response","trial_index":150,"plugin_version":"2.1.0","time_elapsed":1346136,"subject_id":"90583","group":"Group2","full_date":"2025-12-10T02:28:04.260Z","date":"2025-12-10","time":"02:28:04"},{"rt":null,"stimulus":"<p style=\"font-size: 50px; margin: 0; text-align: center;\">+</p>","response":null,"trial_type":"html-keyboard-response","trial_index":151,"plugin_version":"2.1.0","time_elapsed":1347137,"subject_id":"90583","group":"Group2","full_date":"2025-12-10T02:28:04.260Z","date":"2025-12-10","time":"02:28:04"},{"task":"memory_phase","broad_category":"M","image_png":"M_Phyllite_02.png","image_id":258,"category_name":"Phyllite","category":17,"distinct_rating":2.89,"distinct_type":"Bottom","rt":null,"stimulus":"Stimuli_Rocks480/M_Phyllite_02.png","response":null,"trial_type":"image-keyboard-response","trial_index":152,"plugin_version":"2.1.0","time_elapsed":1396314,"subject_id":"90583","group":"Group2","full_date":"2025-12-10T02:28:04.260Z","date":"2025-12-10","time":"02:28:04"},{"rt":null,"stimulus":"<p style=\"font-size: 50px; margin: 0; text-align: center;\">+</p>","response":null,"trial_type":"html-keyboard-response","trial_index":153,"plugin_version":"2.1.0","time_elapsed":1397316,"subject_id":"90583","group":"Group2","full_date":"2025-12-10T02:28:04.260Z","date":"2025-12-10","time":"02:28:04"},{"task":"memory_phase","broad_category":"S","image_png":"S_Conglomerate_14.png","image_id":382,"category_name":"Conglomerate","category":24,"distinct_rating":6.86,"distinct_type":"Top","rt":null,"stimulus":"Stimuli_Rocks480/S_Conglomerate_14.png","response":null,"trial_type":"image-keyboard-response","trial_index":154,"plugin_version":"2.1.0","time_elapsed":1399818,"subject_id":"90583","group":"Group2","full_date":"2025-12-10T02:28:04.260Z","date":"2025-12-10","time":"02:28:04"},{"rt":null,"stimulus":"<p style=\"font-size: 50px; margin: 0; text-align: center;\">+</p>","response":null,"trial_type":"html-keyboard-response","trial_index":155,"plugin_version":"2.1.0","time_elapsed":1400820,"subject_id":"90583","group":"Group2","full_date":"2025-12-10T02:28:04.260Z","date":"2025-12-10","time":"02:28:04"},{"task":"memory_phase","broad_category":"I","image_png":"I_Diorite_01.png","image_id":33,"category_name":"Diorite","category":3,"distinct_rating":2.97,"distinct_type":"Bottom","rt":null,"stimulus":"Stimuli_Rocks480/I_Diorite_01.png","response":null,"trial_type":"image-keyboard-response","trial_index":156,"plugin_version":"2.1.0","time_elapsed":1403322,"subject_id":"90583","group":"Group2","full_date":"2025-12-10T02:28:04.260Z","date":"2025-12-10","time":"02:28:04"},{"rt":1733,"stimulus":"<p style=\"max-width: 760px; margin: auto; font-size: 35px; line-height: 1.5;\">Press SPACE to continue study phase</p>","response":" ","trial_type":"html-keyboard-response","trial_index":157,"plugin_version":"2.1.0","time_elapsed":1405056,"subject_id":"90583","group":"Group2","full_date":"2025-12-10T02:28:04.260Z","date":"2025-12-10","time":"02:28:04"},{"rt":null,"stimulus":"<p style=\"font-size: 50px; margin: 0; text-align: center;\">+</p>","response":null,"trial_type":"html-keyboard-response","trial_index":158,"plugin_version":"2.1.0","time_elapsed":1406058,"subject_id":"90583","group":"Group2","full_date":"2025-12-10T02:28:04.260Z","date":"2025-12-10","time":"02:28:04"},{"task":"memory_phase","broad_category":"I","image_png":"I_Pumice_01.png","image_id":129,"category_name":"Pumice","category":9,"distinct_rating":3.25,"distinct_type":"Bottom","rt":null,"stimulus":"Stimuli_Rocks480/I_Pumice_01.png","response":null,"trial_type":"image-keyboard-response","trial_index":159,"plugin_version":"2.1.0","time_elapsed":1408561,"subject_id":"90583","group":"Group2","full_date":"2025-12-10T02:28:04.260Z","date":"2025-12-10","time":"02:28:04"},{"rt":null,"stimulus":"<p style=\"font-size: 50px; margin: 0; text-align: center;\">+</p>","response":null,"trial_type":"html-keyboard-response","trial_index":160,"plugin_version":"2.1.0","time_elapsed":1409563,"subject_id":"90583","group":"Group2","full_date":"2025-12-10T02:28:04.260Z","date":"2025-12-10","time":"02:28:04"},{"task":"memory_phase","broad_category":"S","image_png":"S_Sandstone_04.png","image_id":452,"category_name":"Sandstone","category":29,"distinct_rating":1.8,"distinct_type":"Bottom","rt":null,"stimulus":"Stimuli_Rocks480/S_Sandstone_04.png","response":null,"trial_type":"image-keyboard-response","trial_index":161,"plugin_version":"2.1.0","time_elapsed":1412066,"subject_id":"90583","group":"Group2","full_date":"2025-12-10T02:28:04.260Z","date":"2025-12-10","time":"02:28:04"},{"rt":null,"stimulus":"<p style=\"font-size: 50px; margin: 0; text-align: center;\">+</p>","response":null,"trial_type":"html-keyboard-response","trial_index":162,"plugin_version":"2.1.0","time_elapsed":1413067,"subject_id":"90583","group":"Group2","full_date":"2025-12-10T02:28:04.260Z","date":"2025-12-10","time":"02:28:04"},{"task":"memory_phase","broad_category":"M","image_png":"M_Slate_14.png","image_id":318,"category_name":"Slate","category":20,"distinct_rating":2.58,"distinct_type":"Bottom","rt":null,"stimulus":"Stimuli_Rocks480/M_Slate_14.png","response":null,"trial_type":"image-keyboard-response","trial_index":163,"plugin_version":"2.1.0","time_elapsed":1415568,"subject_id":"90583","group":"Group2","full_date":"2025-12-10T02:28:04.260Z","date":"2025-12-10","time":"02:28:04"},{"rt":null,"stimulus":"<p style=\"font-size: 50px; margin: 0; text-align: center;\">+</p>","response":null,"trial_type":"html-keyboard-response","trial_index":164,"plugin_version":"2.1.0","time_elapsed":1416570,"subject_id":"90583","group":"Group2","full_date":"2025-12-10T02:28:04.260Z","date":"2025-12-10","time":"02:28:04"},{"task":"memory_phase","broad_category":"I","image_png":"I_Basalt_10.png","image_id":26,"category_name":"Basalt","category":2,"distinct_rating":2.76,"distinct_type":"Bottom","rt":null,"stimulus":"Stimuli_Rocks480/I_Basalt_10.png","response":null,"trial_type":"image-keyboard-response","trial_index":165,"plugin_version":"2.1.0","time_elapsed":1419073,"subject_id":"90583","group":"Group2","full_date":"2025-12-10T02:28:04.260Z","date":"2025-12-10","time":"02:28:04"},{"rt":null,"stimulus":"<p style=\"font-size: 50px; margin: 0; text-align: center;\">+</p>","response":null,"trial_type":"html-keyboard-response","trial_index":166,"plugin_version":"2.1.0","time_elapsed":1420075,"subject_id":"90583","group":"Group2","full_date":"2025-12-10T02:28:04.260Z","date":"2025-12-10","time":"02:28:04"},{"task":"memory_phase","broad_category":"I","image_png":"I_Diorite_10.png","image_id":42,"category_name":"Diorite","category":3,"distinct_rating":2.84,"distinct_type":"Bottom","rt":null,"stimulus":"Stimuli_Rocks480/I_Diorite_10.png","response":null,"trial_type":"image-keyboard-response","trial_index":167,"plugin_version":"2.1.0","time_elapsed":1422577,"subject_id":"90583","group":"Group2","full_date":"2025-12-10T02:28:04.260Z","date":"2025-12-10","time":"02:28:04"},{"rt":null,"stimulus":"<p style=\"font-size: 50px; margin: 0; text-align: center;\">+</p>","response":null,"trial_type":"html-keyboard-response","trial_index":168,"plugin_version":"2.1.0","time_elapsed":1423579,"subject_id":"90583","group":"Group2","full_date":"2025-12-10T02:28:04.260Z","date":"2025-12-10","time":"02:28:04"},{"task":"memory_phase","broad_category":"I","image_png":"I_Gabbro_12.png","image_id":60,"category_name":"Gabbro","category":4,"distinct_rating":2.6,"distinct_type":"Bottom","rt":null,"stimulus":"Stimuli_Rocks480/I_Gabbro_12.png","response":null,"trial_type":"image-keyboard-response","trial_index":169,"plugin_version":"2.1.0","time_elapsed":1426082,"subject_id":"90583","group":"Group2","full_date":"2025-12-10T02:28:04.260Z","date":"2025-12-10","time":"02:28:04"},{"rt":null,"stimulus":"<p style=\"font-size: 50px; margin: 0; text-align: center;\">+</p>","response":null,"trial_type":"html-keyboard-response","trial_index":170,"plugin_version":"2.1.0","time_elapsed":1427083,"subject_id":"90583","group":"Group2","full_date":"2025-12-10T02:28:04.260Z","date":"2025-12-10","time":"02:28:04"},{"task":"memory_phase","broad_category":"M","image_png":"M_Slate_10.png","image_id":314,"category_name":"Slate","category":20,"distinct_rating":1.94,"distinct_type":"Bottom","rt":null,"stimulus":"Stimuli_Rocks480/M_Slate_10.png","response":null,"trial_type":"image-keyboard-response","trial_index":171,"plugin_version":"2.1.0","time_elapsed":1429587,"subject_id":"90583","group":"Group2","full_date":"2025-12-10T02:28:04.260Z","date":"2025-12-10","time":"02:28:04"},{"rt":null,"stimulus":"<p style=\"font-size: 50px; margin: 0; text-align: center;\">+</p>","response":null,"trial_type":"html-keyboard-response","trial_index":172,"plugin_version":"2.1.0","time_elapsed":1430589,"subject_id":"90583","group":"Group2","full_date":"2025-12-10T02:28:04.260Z","date":"2025-12-10","time":"02:28:04"},{"task":"memory_phase","broad_category":"I","image_png":"I_Andesite_04.png","image_id":4,"category_name":"Andesite","category":1,"distinct_rating":3.18,"distinct_type":"Bottom","rt":null,"stimulus":"Stimuli_Rocks480/I_Andesite_04.png","response":null,"trial_type":"image-keyboard-response","trial_index":173,"plugin_version":"2.1.0","time_elapsed":1433092,"subject_id":"90583","group":"Group2","full_date":"2025-12-10T02:28:04.260Z","date":"2025-12-10","time":"02:28:04"},{"rt":null,"stimulus":"<p style=\"font-size: 50px; margin: 0; text-align: center;\">+</p>","response":null,"trial_type":"html-keyboard-response","trial_index":174,"plugin_version":"2.1.0","time_elapsed":1434094,"subject_id":"90583","group":"Group2","full_date":"2025-12-10T02:28:04.260Z","date":"2025-12-10","time":"02:28:04"},{"task":"memory_phase","broad_category":"I","image_png":"I_Basalt_13.png","image_id":29,"category_name":"Basalt","category":2,"distinct_rating":2.68,"distinct_type":"Bottom","rt":null,"stimulus":"Stimuli_Rocks480/I_Basalt_13.png","response":null,"trial_type":"image-keyboard-response","trial_index":175,"plugin_version":"2.1.0","time_elapsed":1436596,"subject_id":"90583","group":"Group2","full_date":"2025-12-10T02:28:04.260Z","date":"2025-12-10","time":"02:28:04"},{"rt":null,"stimulus":"<p style=\"font-size: 50px; margin: 0; text-align: center;\">+</p>","response":null,"trial_type":"html-keyboard-response","trial_index":176,"plugin_version":"2.1.0","time_elapsed":1437599,"subject_id":"90583","group":"Group2","full_date":"2025-12-10T02:28:04.260Z","date":"2025-12-10","time":"02:28:04"},{"task":"memory_phase","broad_category":"S","image_png":"S_Dolomite_16.png","image_id":400,"category_name":"Dolomite","category":25,"distinct_rating":1.71,"distinct_type":"Bottom","rt":null,"stimulus":"Stimuli_Rocks480/S_Dolomite_16.png","response":null,"trial_type":"image-keyboard-response","trial_index":177,"plugin_version":"2.1.0","time_elapsed":1440102,"subject_id":"90583","group":"Group2","full_date":"2025-12-10T02:28:04.260Z","date":"2025-12-10","time":"02:28:04"},{"rt":null,"stimulus":"<p style=\"font-size: 50px; margin: 0; text-align: center;\">+</p>","response":null,"trial_type":"html-keyboard-response","trial_index":178,"plugin_version":"2.1.0","time_elapsed":1441104,"subject_id":"90583","group":"Group2","full_date":"2025-12-10T02:28:04.260Z","date":"2025-12-10","time":"02:28:04"},{"task":"memory_phase","broad_category":"S","image_png":"S_Sandstone_08.png","image_id":456,"category_name":"Sandstone","category":29,"distinct_rating":1.5,"distinct_type":"Bottom","rt":null,"stimulus":"Stimuli_Rocks480/S_Sandstone_08.png","response":null,"trial_type":"image-keyboard-response","trial_index":179,"plugin_version":"2.1.0","time_elapsed":1443606,"subject_id":"90583","group":"Group2","full_date":"2025-12-10T02:28:04.260Z","date":"2025-12-10","time":"02:28:04"},{"rt":null,"stimulus":"<p style=\"font-size: 50px; margin: 0; text-align: center;\">+</p>","response":null,"trial_type":"html-keyboard-response","trial_index":180,"plugin_version":"2.1.0","time_elapsed":1444608,"subject_id":"90583","group":"Group2","full_date":"2025-12-10T02:28:04.260Z","date":"2025-12-10","time":"02:28:04"},{"task":"memory_phase","broad_category":"I","image_png":"I_Basalt_08.png","image_id":24,"category_name":"Basalt","category":2,"distinct_rating":2.31,"distinct_type":"Bottom","rt":null,"stimulus":"Stimuli_Rocks480/I_Basalt_08.png","response":null,"trial_type":"image-keyboard-response","trial_index":181,"plugin_version":"2.1.0","time_elapsed":1447110,"subject_id":"90583","group":"Group2","full_date":"2025-12-10T02:28:04.260Z","date":"2025-12-10","time":"02:28:04"},{"rt":null,"stimulus":"<p style=\"font-size: 50px; margin: 0; text-align: center;\">+</p>","response":null,"trial_type":"html-keyboard-response","trial_index":182,"plugin_version":"2.1.0","time_elapsed":1448113,"subject_id":"90583","group":"Group2","full_date":"2025-12-10T02:28:04.260Z","date":"2025-12-10","time":"02:28:04"},{"task":"memory_phase","broad_category":"S","image_png":"S_Rock Salt_13.png","image_id":445,"category_name":"Rock Salt","category":28,"distinct_rating":7.58,"distinct_type":"Top","rt":null,"stimulus":"Stimuli_Rocks480/S_Rock Salt_13.png","response":null,"trial_type":"image-keyboard-response","trial_index":183,"plugin_version":"2.1.0","time_elapsed":1450616,"subject_id":"90583","group":"Group2","full_date":"2025-12-10T02:28:04.260Z","date":"2025-12-10","time":"02:28:04"},{"rt":null,"stimulus":"<p style=\"font-size: 50px; margin: 0; text-align: center;\">+</p>","response":null,"trial_type":"html-keyboard-response","trial_index":184,"plugin_version":"2.1.0","time_elapsed":1451618,"subject_id":"90583","group":"Group2","full_date":"2025-12-10T02:28:04.260Z","date":"2025-12-10","time":"02:28:04"},{"task":"memory_phase","broad_category":"I","image_png":"I_Pumice_13.png","image_id":141,"category_name":"Pumice","category":9,"distinct_rating":3.12,"distinct_type":"Bottom","rt":null,"stimulus":"Stimuli_Rocks480/I_Pumice_13.png","response":null,"trial_type":"image-keyboard-response","trial_index":185,"plugin_version":"2.1.0","time_elapsed":1454120,"subject_id":"90583","group":"Group2","full_date":"2025-12-10T02:28:04.260Z","date":"2025-12-10","time":"02:28:04"},{"rt":null,"stimulus":"<p style=\"font-size: 50px; margin: 0; text-align: center;\">+</p>","response":null,"trial_type":"html-keyboard-response","trial_index":186,"plugin_version":"2.1.0","time_elapsed":1455123,"subject_id":"90583","group":"Group2","full_date":"2025-12-10T02:28:04.260Z","date":"2025-12-10","time":"02:28:04"},{"task":"memory_phase","broad_category":"S","image_png":"S_Rock Salt_15.png","image_id":447,"category_name":"Rock Salt","category":28,"distinct_rating":7.79,"distinct_type":"Top","rt":null,"stimulus":"Stimuli_Rocks480/S_Rock Salt_15.png","response":null,"trial_type":"image-keyboard-response","trial_index":187,"plugin_version":"2.1.0","time_elapsed":1457625,"subject_id":"90583","group":"Group2","full_date":"2025-12-10T02:28:04.260Z","date":"2025-12-10","time":"02:28:04"},{"rt":null,"stimulus":"<p style=\"font-size: 50px; margin: 0; text-align: center;\">+</p>","response":null,"trial_type":"html-keyboard-response","trial_index":188,"plugin_version":"2.1.0","time_elapsed":1458628,"subject_id":"90583","group":"Group2","full_date":"2025-12-10T02:28:04.260Z","date":"2025-12-10","time":"02:28:04"},{"task":"memory_phase","broad_category":"S","image_png":"S_Chert_13.png","image_id":365,"category_name":"Chert","category":23,"distinct_rating":6.57,"distinct_type":"Top","rt":null,"stimulus":"Stimuli_Rocks480/S_Chert_13.png","response":null,"trial_type":"image-keyboard-response","trial_index":189,"plugin_version":"2.1.0","time_elapsed":1461131,"subject_id":"90583","group":"Group2","full_date":"2025-12-10T02:28:04.260Z","date":"2025-12-10","time":"02:28:04"},{"rt":null,"stimulus":"<p style=\"font-size: 50px; margin: 0; text-align: center;\">+</p>","response":null,"trial_type":"html-keyboard-response","trial_index":190,"plugin_version":"2.1.0","time_elapsed":1462133,"subject_id":"90583","group":"Group2","full_date":"2025-12-10T02:28:04.260Z","date":"2025-12-10","time":"02:28:04"},{"task":"memory_phase","broad_category":"M","image_png":"M_Marble_14.png","image_id":238,"category_name":"Marble","category":15,"distinct_rating":3.31,"distinct_type":"Bottom","rt":null,"stimulus":"Stimuli_Rocks480/M_Marble_14.png","response":null,"trial_type":"image-keyboard-response","trial_index":191,"plugin_version":"2.1.0","time_elapsed":1464635,"subject_id":"90583","group":"Group2","full_date":"2025-12-10T02:28:04.260Z","date":"2025-12-10","time":"02:28:04"},{"rt":null,"stimulus":"<p style=\"font-size: 50px; margin: 0; text-align: center;\">+</p>","response":null,"trial_type":"html-keyboard-response","trial_index":192,"plugin_version":"2.1.0","time_elapsed":1465638,"subject_id":"90583","group":"Group2","full_date":"2025-12-10T02:28:04.260Z","date":"2025-12-10","time":"02:28:04"},{"task":"memory_phase","broad_category":"S","image_png":"S_Dolomite_01.png","image_id":385,"category_name":"Dolomite","category":25,"distinct_rating":1.43,"distinct_type":"Bottom","rt":null,"stimulus":"Stimuli_Rocks480/S_Dolomite_01.png","response":null,"trial_type":"image-keyboard-response","trial_index":193,"plugin_version":"2.1.0","time_elapsed":1468141,"subject_id":"90583","group":"Group2","full_date":"2025-12-10T02:28:04.260Z","date":"2025-12-10","time":"02:28:04"},{"rt":null,"stimulus":"<p style=\"font-size: 50px; margin: 0; text-align: center;\">+</p>","response":null,"trial_type":"html-keyboard-response","trial_index":194,"plugin_version":"2.1.0","time_elapsed":1469143,"subject_id":"90583","group":"Group2","full_date":"2025-12-10T02:28:04.260Z","date":"2025-12-10","time":"02:28:04"},{"task":"memory_phase","broad_category":"I","image_png":"I_Rhyolite_10.png","image_id":154,"category_name":"Rhyolite","category":10,"distinct_rating":2.88,"distinct_type":"Bottom","rt":null,"stimulus":"Stimuli_Rocks480/I_Rhyolite_10.png","response":null,"trial_type":"image-keyboard-response","trial_index":195,"plugin_version":"2.1.0","time_elapsed":1471645,"subject_id":"90583","group":"Group2","full_date":"2025-12-10T02:28:04.260Z","date":"2025-12-10","time":"02:28:04"},{"rt":null,"stimulus":"<p style=\"font-size: 50px; margin: 0; text-align: center;\">+</p>","response":null,"trial_type":"html-keyboard-response","trial_index":196,"plugin_version":"2.1.0","time_elapsed":1472648,"subject_id":"90583","group":"Group2","full_date":"2025-12-10T02:28:04.260Z","date":"2025-12-10","time":"02:28:04"},{"task":"memory_phase","broad_category":"I","image_png":"I_Gabbro_14.png","image_id":62,"category_name":"Gabbro","category":4,"distinct_rating":2.95,"distinct_type":"Bottom","rt":null,"stimulus":"Stimuli_Rocks480/I_Gabbro_14.png","response":null,"trial_type":"image-keyboard-response","trial_index":197,"plugin_version":"2.1.0","time_elapsed":1475151,"subject_id":"90583","group":"Group2","full_date":"2025-12-10T02:28:04.260Z","date":"2025-12-10","time":"02:28:04"},{"rt":null,"stimulus":"<p style=\"font-size: 50px; margin: 0; text-align: center;\">+</p>","response":null,"trial_type":"html-keyboard-response","trial_index":198,"plugin_version":"2.1.0","time_elapsed":1476153,"subject_id":"90583","group":"Group2","full_date":"2025-12-10T02:28:04.260Z","date":"2025-12-10","time":"02:28:04"},{"task":"memory_phase","broad_category":"I","image_png":"I_Andesite_09.png","image_id":9,"category_name":"Andesite","category":1,"distinct_rating":2.49,"distinct_type":"Bottom","rt":null,"stimulus":"Stimuli_Rocks480/I_Andesite_09.png","response":null,"trial_type":"image-keyboard-response","trial_index":199,"plugin_version":"2.1.0","time_elapsed":1478655,"subject_id":"90583","group":"Group2","full_date":"2025-12-10T02:28:04.260Z","date":"2025-12-10","time":"02:28:04"},{"rt":null,"stimulus":"<p style=\"font-size: 50px; margin: 0; text-align: center;\">+</p>","response":null,"trial_type":"html-keyboard-response","trial_index":200,"plugin_version":"2.1.0","time_elapsed":1479658,"subject_id":"90583","group":"Group2","full_date":"2025-12-10T02:28:04.260Z","date":"2025-12-10","time":"02:28:04"},{"task":"memory_phase","broad_category":"I","image_png":"I_Pegmatite_03.png","image_id":99,"category_name":"Pegmatite","category":7,"distinct_rating":7.24,"distinct_type":"Top","rt":null,"stimulus":"Stimuli_Rocks480/I_Pegmatite_03.png","response":null,"trial_type":"image-keyboard-response","trial_index":201,"plugin_version":"2.1.0","time_elapsed":1482160,"subject_id":"90583","group":"Group2","full_date":"2025-12-10T02:28:04.260Z","date":"2025-12-10","time":"02:28:04"},{"rt":null,"stimulus":"<p style=\"font-size: 50px; margin: 0; text-align: center;\">+</p>","response":null,"trial_type":"html-keyboard-response","trial_index":202,"plugin_version":"2.1.0","time_elapsed":1483162,"subject_id":"90583","group":"Group2","full_date":"2025-12-10T02:28:04.260Z","date":"2025-12-10","time":"02:28:04"},{"task":"memory_phase","broad_category":"S","image_png":"S_Shale_07.png","image_id":471,"category_name":"Shale","category":30,"distinct_rating":2.73,"distinct_type":"Bottom","rt":null,"stimulus":"Stimuli_Rocks480/S_Shale_07.png","response":null,"trial_type":"image-keyboard-response","trial_index":203,"plugin_version":"2.1.0","time_elapsed":1485665,"subject_id":"90583","group":"Group2","full_date":"2025-12-10T02:28:04.260Z","date":"2025-12-10","time":"02:28:04"},{"rt":null,"stimulus":"<p style=\"font-size: 50px; margin: 0; text-align: center;\">+</p>","response":null,"trial_type":"html-keyboard-response","trial_index":204,"plugin_version":"2.1.0","time_elapsed":1486666,"subject_id":"90583","group":"Group2","full_date":"2025-12-10T02:28:04.260Z","date":"2025-12-10","time":"02:28:04"},{"task":"memory_phase","broad_category":"M","image_png":"M_Gneiss_15.png","image_id":207,"category_name":"Gneiss","category":13,"distinct_rating":3.11,"distinct_type":"Bottom","rt":null,"stimulus":"Stimuli_Rocks480/M_Gneiss_15.png","response":null,"trial_type":"image-keyboard-response","trial_index":205,"plugin_version":"2.1.0","time_elapsed":1489167,"subject_id":"90583","group":"Group2","full_date":"2025-12-10T02:28:04.260Z","date":"2025-12-10","time":"02:28:04"},{"rt":null,"stimulus":"<p style=\"font-size: 50px; margin: 0; text-align: center;\">+</p>","response":null,"trial_type":"html-keyboard-response","trial_index":206,"plugin_version":"2.1.0","time_elapsed":1490170,"subject_id":"90583","group":"Group2","full_date":"2025-12-10T02:28:04.260Z","date":"2025-12-10","time":"02:28:04"},{"task":"memory_phase","broad_category":"M","image_png":"M_Phyllite_05.png","image_id":261,"category_name":"Phyllite","category":17,"distinct_rating":2.14,"distinct_type":"Bottom","rt":null,"stimulus":"Stimuli_Rocks480/M_Phyllite_05.png","response":null,"trial_type":"image-keyboard-response","trial_index":207,"plugin_version":"2.1.0","time_elapsed":1492673,"subject_id":"90583","group":"Group2","full_date":"2025-12-10T02:28:04.260Z","date":"2025-12-10","time":"02:28:04"},{"rt":36720,"stimulus":"<p style=\"max-width: 760px; margin: auto; font-size: 35px; line-height: 1.5;\">You have completed 2 study phases. Now, we'll show you all the images again 1 more time.<br><br>Press SPACE to continue</p>","response":" ","trial_type":"html-keyboard-response","trial_index":208,"plugin_version":"2.1.0","time_elapsed":1529393,"subject_id":"90583","group":"Group2","full_date":"2025-12-10T02:28:04.260Z","date":"2025-12-10","time":"02:28:04"},{"rt":null,"stimulus":"<p style=\"font-size: 50px; margin: 0; text-align: center;\">+</p>","response":null,"trial_type":"html-keyboard-response","trial_index":209,"plugin_version":"2.1.0","time_elapsed":1530395,"subject_id":"90583","group":"Group2","full_date":"2025-12-10T02:28:04.260Z","date":"2025-12-10","time":"02:28:04"},{"task":"memory_phase","broad_category":"S","image_png":"S_Sandstone_04.png","image_id":452,"category_name":"Sandstone","category":29,"distinct_rating":1.8,"distinct_type":"Bottom","rt":null,"stimulus":"Stimuli_Rocks480/S_Sandstone_04.png","response":null,"trial_type":"image-keyboard-response","trial_index":210,"plugin_version":"2.1.0","time_elapsed":1532896,"subject_id":"90583","group":"Group2","full_date":"2025-12-10T02:28:04.260Z","date":"2025-12-10","time":"02:28:04"},{"rt":null,"stimulus":"<p style=\"font-size: 50px; margin: 0; text-align: center;\">+</p>","response":null,"trial_type":"html-keyboard-response","trial_index":211,"plugin_version":"2.1.0","time_elapsed":1533898,"subject_id":"90583","group":"Group2","full_date":"2025-12-10T02:28:04.260Z","date":"2025-12-10","time":"02:28:04"},{"task":"memory_phase","broad_category":"I","image_png":"I_Basalt_08.png","image_id":24,"category_name":"Basalt","category":2,"distinct_rating":2.31,"distinct_type":"Bottom","rt":null,"stimulus":"Stimuli_Rocks480/I_Basalt_08.png","response":null,"trial_type":"image-keyboard-response","trial_index":212,"plugin_version":"2.1.0","time_elapsed":1536402,"subject_id":"90583","group":"Group2","full_date":"2025-12-10T02:28:04.260Z","date":"2025-12-10","time":"02:28:04"},{"rt":null,"stimulus":"<p style=\"font-size: 50px; margin: 0; text-align: center;\">+</p>","response":null,"trial_type":"html-keyboard-response","trial_index":213,"plugin_version":"2.1.0","time_elapsed":1537404,"subject_id":"90583","group":"Group2","full_date":"2025-12-10T02:28:04.260Z","date":"2025-12-10","time":"02:28:04"},{"task":"memory_phase","broad_category":"S","image_png":"S_Dolomite_16.png","image_id":400,"category_name":"Dolomite","category":25,"distinct_rating":1.71,"distinct_type":"Bottom","rt":null,"stimulus":"Stimuli_Rocks480/S_Dolomite_16.png","response":null,"trial_type":"image-keyboard-response","trial_index":214,"plugin_version":"2.1.0","time_elapsed":1539906,"subject_id":"90583","group":"Group2","full_date":"2025-12-10T02:28:04.260Z","date":"2025-12-10","time":"02:28:04"},{"rt":null,"stimulus":"<p style=\"font-size: 50px; margin: 0; text-align: center;\">+</p>","response":null,"trial_type":"html-keyboard-response","trial_index":215,"plugin_version":"2.1.0","time_elapsed":1540908,"subject_id":"90583","group":"Group2","full_date":"2025-12-10T02:28:04.260Z","date":"2025-12-10","time":"02:28:04"},{"task":"memory_phase","broad_category":"I","image_png":"I_Obsidian_06.png","image_id":86,"category_name":"Obsidian","category":6,"distinct_rating":8.01,"distinct_type":"Top","rt":null,"stimulus":"Stimuli_Rocks480/I_Obsidian_06.png","response":null,"trial_type":"image-keyboard-response","trial_index":216,"plugin_version":"2.1.0","time_elapsed":1543411,"subject_id":"90583","group":"Group2","full_date":"2025-12-10T02:28:04.260Z","date":"2025-12-10","time":"02:28:04"},{"rt":null,"stimulus":"<p style=\"font-size: 50px; margin: 0; text-align: center;\">+</p>","response":null,"trial_type":"html-keyboard-response","trial_index":217,"plugin_version":"2.1.0","time_elapsed":1544413,"subject_id":"90583","group":"Group2","full_date":"2025-12-10T02:28:04.260Z","date":"2025-12-10","time":"02:28:04"},{"task":"memory_phase","broad_category":"S","image_png":"S_Shale_07.png","image_id":471,"category_name":"Shale","category":30,"distinct_rating":2.73,"distinct_type":"Bottom","rt":null,"stimulus":"Stimuli_Rocks480/S_Shale_07.png","response":null,"trial_type":"image-keyboard-response","trial_index":218,"plugin_version":"2.1.0","time_elapsed":1546917,"subject_id":"90583","group":"Group2","full_date":"2025-12-10T02:28:04.260Z","date":"2025-12-10","time":"02:28:04"},{"rt":null,"stimulus":"<p style=\"font-size: 50px; margin: 0; text-align: center;\">+</p>","response":null,"trial_type":"html-keyboard-response","trial_index":219,"plugin_version":"2.1.0","time_elapsed":1547919,"subject_id":"90583","group":"Group2","full_date":"2025-12-10T02:28:04.260Z","date":"2025-12-10","time":"02:28:04"},{"task":"memory_phase","broad_category":"I","image_png":"I_Diorite_01.png","image_id":33,"category_name":"Diorite","category":3,"distinct_rating":2.97,"distinct_type":"Bottom","rt":null,"stimulus":"Stimuli_Rocks480/I_Diorite_01.png","response":null,"trial_type":"image-keyboard-response","trial_index":220,"plugin_version":"2.1.0","time_elapsed":1550421,"subject_id":"90583","group":"Group2","full_date":"2025-12-10T02:28:04.260Z","date":"2025-12-10","time":"02:28:04"},{"rt":null,"stimulus":"<p style=\"font-size: 50px; margin: 0; text-align: center;\">+</p>","response":null,"trial_type":"html-keyboard-response","trial_index":221,"plugin_version":"2.1.0","time_elapsed":1551424,"subject_id":"90583","group":"Group2","full_date":"2025-12-10T02:28:04.260Z","date":"2025-12-10","time":"02:28:04"},{"task":"memory_phase","broad_category":"M","image_png":"M_Marble_03.png","image_id":227,"category_name":"Marble","category":15,"distinct_rating":2.67,"distinct_type":"Bottom","rt":null,"stimulus":"Stimuli_Rocks480/M_Marble_03.png","response":null,"trial_type":"image-keyboard-response","trial_index":222,"plugin_version":"2.1.0","time_elapsed":1553927,"subject_id":"90583","group":"Group2","full_date":"2025-12-10T02:28:04.260Z","date":"2025-12-10","time":"02:28:04"},{"rt":null,"stimulus":"<p style=\"font-size: 50px; margin: 0; text-align: center;\">+</p>","response":null,"trial_type":"html-keyboard-response","trial_index":223,"plugin_version":"2.1.0","time_elapsed":1554928,"subject_id":"90583","group":"Group2","full_date":"2025-12-10T02:28:04.260Z","date":"2025-12-10","time":"02:28:04"},{"task":"memory_phase","broad_category":"I","image_png":"I_Andesite_04.png","image_id":4,"category_name":"Andesite","category":1,"distinct_rating":3.18,"distinct_type":"Bottom","rt":null,"stimulus":"Stimuli_Rocks480/I_Andesite_04.png","response":null,"trial_type":"image-keyboard-response","trial_index":224,"plugin_version":"2.1.0","time_elapsed":1557434,"subject_id":"90583","group":"Group2","full_date":"2025-12-10T02:28:04.260Z","date":"2025-12-10","time":"02:28:04"},{"rt":null,"stimulus":"<p style=\"font-size: 50px; margin: 0; text-align: center;\">+</p>","response":null,"trial_type":"html-keyboard-response","trial_index":225,"plugin_version":"2.1.0","time_elapsed":1558436,"subject_id":"90583","group":"Group2","full_date":"2025-12-10T02:28:04.260Z","date":"2025-12-10","time":"02:28:04"},{"task":"memory_phase","broad_category":"I","image_png":"I_Gabbro_12.png","image_id":60,"category_name":"Gabbro","category":4,"distinct_rating":2.6,"distinct_type":"Bottom","rt":null,"stimulus":"Stimuli_Rocks480/I_Gabbro_12.png","response":null,"trial_type":"image-keyboard-response","trial_index":226,"plugin_version":"2.1.0","time_elapsed":1560937,"subject_id":"90583","group":"Group2","full_date":"2025-12-10T02:28:04.260Z","date":"2025-12-10","time":"02:28:04"},{"rt":null,"stimulus":"<p style=\"font-size: 50px; margin: 0; text-align: center;\">+</p>","response":null,"trial_type":"html-keyboard-response","trial_index":227,"plugin_version":"2.1.0","time_elapsed":1561939,"subject_id":"90583","group":"Group2","full_date":"2025-12-10T02:28:04.260Z","date":"2025-12-10","time":"02:28:04"},{"task":"memory_phase","broad_category":"M","image_png":"M_Phyllite_02.png","image_id":258,"category_name":"Phyllite","category":17,"distinct_rating":2.89,"distinct_type":"Bottom","rt":null,"stimulus":"Stimuli_Rocks480/M_Phyllite_02.png","response":null,"trial_type":"image-keyboard-response","trial_index":228,"plugin_version":"2.1.0","time_elapsed":1564440,"subject_id":"90583","group":"Group2","full_date":"2025-12-10T02:28:04.260Z","date":"2025-12-10","time":"02:28:04"},{"rt":null,"stimulus":"<p style=\"font-size: 50px; margin: 0; text-align: center;\">+</p>","response":null,"trial_type":"html-keyboard-response","trial_index":229,"plugin_version":"2.1.0","time_elapsed":1565442,"subject_id":"90583","group":"Group2","full_date":"2025-12-10T02:28:04.260Z","date":"2025-12-10","time":"02:28:04"},{"task":"memory_phase","broad_category":"M","image_png":"M_Quartzite_07.png","image_id":279,"category_name":"Quartzite","category":18,"distinct_rating":1.97,"distinct_type":"Bottom","rt":null,"stimulus":"Stimuli_Rocks480/M_Quartzite_07.png","response":null,"trial_type":"image-keyboard-response","trial_index":230,"plugin_version":"2.1.0","time_elapsed":1567945,"subject_id":"90583","group":"Group2","full_date":"2025-12-10T02:28:04.260Z","date":"2025-12-10","time":"02:28:04"},{"rt":null,"stimulus":"<p style=\"font-size: 50px; margin: 0; text-align: center;\">+</p>","response":null,"trial_type":"html-keyboard-response","trial_index":231,"plugin_version":"2.1.0","time_elapsed":1568947,"subject_id":"90583","group":"Group2","full_date":"2025-12-10T02:28:04.260Z","date":"2025-12-10","time":"02:28:04"},{"task":"memory_phase","broad_category":"M","image_png":"M_Phyllite_13.png","image_id":269,"category_name":"Phyllite","category":17,"distinct_rating":2.8,"distinct_type":"Bottom","rt":null,"stimulus":"Stimuli_Rocks480/M_Phyllite_13.png","response":null,"trial_type":"image-keyboard-response","trial_index":232,"plugin_version":"2.1.0","time_elapsed":1571449,"subject_id":"90583","group":"Group2","full_date":"2025-12-10T02:28:04.260Z","date":"2025-12-10","time":"02:28:04"},{"rt":null,"stimulus":"<p style=\"font-size: 50px; margin: 0; text-align: center;\">+</p>","response":null,"trial_type":"html-keyboard-response","trial_index":233,"plugin_version":"2.1.0","time_elapsed":1572451,"subject_id":"90583","group":"Group2","full_date":"2025-12-10T02:28:04.260Z","date":"2025-12-10","time":"02:28:04"},{"task":"memory_phase","broad_category":"S","image_png":"S_Dolomite_07.png","image_id":391,"category_name":"Dolomite","category":25,"distinct_rating":1.73,"distinct_type":"Bottom","rt":null,"stimulus":"Stimuli_Rocks480/S_Dolomite_07.png","response":null,"trial_type":"image-keyboard-response","trial_index":234,"plugin_version":"2.1.0","time_elapsed":1574954,"subject_id":"90583","group":"Group2","full_date":"2025-12-10T02:28:04.260Z","date":"2025-12-10","time":"02:28:04"},{"rt":null,"stimulus":"<p style=\"font-size: 50px; margin: 0; text-align: center;\">+</p>","response":null,"trial_type":"html-keyboard-response","trial_index":235,"plugin_version":"2.1.0","time_elapsed":1575955,"subject_id":"90583","group":"Group2","full_date":"2025-12-10T02:28:04.260Z","date":"2025-12-10","time":"02:28:04"},{"task":"memory_phase","broad_category":"I","image_png":"I_Rhyolite_08.png","image_id":152,"category_name":"Rhyolite","category":10,"distinct_rating":1.38,"distinct_type":"Bottom","rt":null,"stimulus":"Stimuli_Rocks480/I_Rhyolite_08.png","response":null,"trial_type":"image-keyboard-response","trial_index":236,"plugin_version":"2.1.0","time_elapsed":1578458,"subject_id":"90583","group":"Group2","full_date":"2025-12-10T02:28:04.260Z","date":"2025-12-10","time":"02:28:04"},{"rt":null,"stimulus":"<p style=\"font-size: 50px; margin: 0; text-align: center;\">+</p>","response":null,"trial_type":"html-keyboard-response","trial_index":237,"plugin_version":"2.1.0","time_elapsed":1579460,"subject_id":"90583","group":"Group2","full_date":"2025-12-10T02:28:04.260Z","date":"2025-12-10","time":"02:28:04"},{"task":"memory_phase","broad_category":"S","image_png":"S_Rock Salt_15.png","image_id":447,"category_name":"Rock Salt","category":28,"distinct_rating":7.79,"distinct_type":"Top","rt":null,"stimulus":"Stimuli_Rocks480/S_Rock Salt_15.png","response":null,"trial_type":"image-keyboard-response","trial_index":238,"plugin_version":"2.1.0","time_elapsed":1581963,"subject_id":"90583","group":"Group2","full_date":"2025-12-10T02:28:04.260Z","date":"2025-12-10","time":"02:28:04"},{"rt":null,"stimulus":"<p style=\"font-size: 50px; margin: 0; text-align: center;\">+</p>","response":null,"trial_type":"html-keyboard-response","trial_index":239,"plugin_version":"2.1.0","time_elapsed":1582965,"subject_id":"90583","group":"Group2","full_date":"2025-12-10T02:28:04.260Z","date":"2025-12-10","time":"02:28:04"},{"task":"memory_phase","broad_category":"I","image_png":"I_Basalt_10.png","image_id":26,"category_name":"Basalt","category":2,"distinct_rating":2.76,"distinct_type":"Bottom","rt":null,"stimulus":"Stimuli_Rocks480/I_Basalt_10.png","response":null,"trial_type":"image-keyboard-response","trial_index":240,"plugin_version":"2.1.0","time_elapsed":1585468,"subject_id":"90583","group":"Group2","full_date":"2025-12-10T02:28:04.260Z","date":"2025-12-10","time":"02:28:04"},{"rt":null,"stimulus":"<p style=\"font-size: 50px; margin: 0; text-align: center;\">+</p>","response":null,"trial_type":"html-keyboard-response","trial_index":241,"plugin_version":"2.1.0","time_elapsed":1586470,"subject_id":"90583","group":"Group2","full_date":"2025-12-10T02:28:04.260Z","date":"2025-12-10","time":"02:28:04"},{"task":"memory_phase","broad_category":"I","image_png":"I_Pegmatite_03.png","image_id":99,"category_name":"Pegmatite","category":7,"distinct_rating":7.24,"distinct_type":"Top","rt":null,"stimulus":"Stimuli_Rocks480/I_Pegmatite_03.png","response":null,"trial_type":"image-keyboard-response","trial_index":242,"plugin_version":"2.1.0","time_elapsed":1588971,"subject_id":"90583","group":"Group2","full_date":"2025-12-10T02:28:04.260Z","date":"2025-12-10","time":"02:28:04"},{"rt":null,"stimulus":"<p style=\"font-size: 50px; margin: 0; text-align: center;\">+</p>","response":null,"trial_type":"html-keyboard-response","trial_index":243,"plugin_version":"2.1.0","time_elapsed":1589973,"subject_id":"90583","group":"Group2","full_date":"2025-12-10T02:28:04.260Z","date":"2025-12-10","time":"02:28:04"},{"task":"memory_phase","broad_category":"M","image_png":"M_Slate_04.png","image_id":308,"category_name":"Slate","category":20,"distinct_rating":2.2,"distinct_type":"Bottom","rt":null,"stimulus":"Stimuli_Rocks480/M_Slate_04.png","response":null,"trial_type":"image-keyboard-response","trial_index":244,"plugin_version":"2.1.0","time_elapsed":1592476,"subject_id":"90583","group":"Group2","full_date":"2025-12-10T02:28:04.260Z","date":"2025-12-10","time":"02:28:04"},{"rt":null,"stimulus":"<p style=\"font-size: 50px; margin: 0; text-align: center;\">+</p>","response":null,"trial_type":"html-keyboard-response","trial_index":245,"plugin_version":"2.1.0","time_elapsed":1593477,"subject_id":"90583","group":"Group2","full_date":"2025-12-10T02:28:04.260Z","date":"2025-12-10","time":"02:28:04"},{"task":"memory_phase","broad_category":"M","image_png":"M_Gneiss_10.png","image_id":202,"category_name":"Gneiss","category":13,"distinct_rating":3.09,"distinct_type":"Bottom","rt":null,"stimulus":"Stimuli_Rocks480/M_Gneiss_10.png","response":null,"trial_type":"image-keyboard-response","trial_index":246,"plugin_version":"2.1.0","time_elapsed":1595980,"subject_id":"90583","group":"Group2","full_date":"2025-12-10T02:28:04.260Z","date":"2025-12-10","time":"02:28:04"},{"rt":null,"stimulus":"<p style=\"font-size: 50px; margin: 0; text-align: center;\">+</p>","response":null,"trial_type":"html-keyboard-response","trial_index":247,"plugin_version":"2.1.0","time_elapsed":1596982,"subject_id":"90583","group":"Group2","full_date":"2025-12-10T02:28:04.260Z","date":"2025-12-10","time":"02:28:04"},{"task":"memory_phase","broad_category":"M","image_png":"M_Slate_14.png","image_id":318,"category