[{"width":1470,"height":743,"webaudio":true,"browser":"chrome","browser_version":"141.0.0","mobile":false,"os":"Mac OS","fullscreen":true,"vsync_rate":60.35,"webcam":true,"microphone":true,"trial_type":"browser-check","trial_index":0,"plugin_version":"2.1.0","time_elapsed":1009,"subject_id":"88738","group":"Group2","full_date":"2025-12-04T20:21:43.816Z","date":"2025-12-04","time":"20:21:43"},{"success":true,"timeout":false,"failed_images":[],"failed_audio":[],"failed_video":[],"trial_type":"preload","trial_index":1,"plugin_version":"2.1.0","time_elapsed":17317,"subject_id":"88738","group":"Group2","full_date":"2025-12-04T20:21:43.816Z","date":"2025-12-04","time":"20:21:43"},{"rt":7055,"url":"SONA_consent_memorability.html","trial_type":"external-html","trial_index":2,"plugin_version":"2.1.0","time_elapsed":24423,"subject_id":"88738","group":"Group2","full_date":"2025-12-04T20:21:43.816Z","date":"2025-12-04","time":"20:21:43"},{"success":true,"rt":1130,"trial_type":"fullscreen","trial_index":3,"plugin_version":"2.1.0","time_elapsed":26557,"subject_id":"88738","group":"Group2","full_date":"2025-12-04T20:21:43.816Z","date":"2025-12-04","time":"20:21:43"},{"rt":1429,"stimulus":"<div style=\"max-width: 760px; margin: auto; font-size: 20px; line-height: 1.5;\">\n      <h1 style=\"text-align:center; font-size: 30px;\">Instructions</h1>\n      <p>\n        Welcome to the study on <b>visual memory</b>. This experiment consists of <b>two phases</b>: \n        a <b>study phase</b> and a <b>test phase</b>.\n      </p>\n      <p>\n        In the study phase, you will see a series of rock images along with their category labels.\n        The images will appear one at a time.\n        <b>Your task</b> is to learn the categories to which the rock images belong \n        and to remember each image as accurately as possible.\n      </p> \n      <p>\n        Note that we will repeat the study phase <b>3 times</b>, \n        so you will have multiple opportunities to see and remember each image.\n      </p>\n      <p>\n        After the study phase, <b>your memory will be tested</b>. \n        Additional instructions for the test phase will be provided at that time.\n      </p>\n      <p>\n        If your computer has multiple <b>language settings</b> (e.g., English and another language),\n        please make sure it is set to English before starting.\n      </p>\n      <p>\n        You can track your progress using the <b>completion bar</b> at the top of the screen. \n        Please note that the bar will refresh when the test phase begins \n        to give you an accurate sense of your progress in both phases.\n      </p> \n      <p>\n        Press the button below when you are ready to begin.\n      </p>\n    </div>","response":0,"trial_type":"html-button-response","trial_index":4,"plugin_version":"2.1.0","time_elapsed":27989,"subject_id":"88738","group":"Group2","full_date":"2025-12-04T20:21:43.816Z","date":"2025-12-04","time":"20:21:43"},{"rt":null,"stimulus":"<p style=\"font-size: 50px; margin: 0; text-align: center;\">+</p>","response":null,"trial_type":"html-keyboard-response","trial_index":5,"plugin_version":"2.1.0","time_elapsed":28992,"subject_id":"88738","group":"Group2","full_date":"2025-12-04T20:21:43.816Z","date":"2025-12-04","time":"20:21:43"},{"task":"memory_phase","broad_category":"I","image_png":"I_Rhyolite_05.png","image_id":149,"category_name":"Rhyolite","category":10,"distinct_rating":3.02,"distinct_type":"Bottom","rt":null,"stimulus":"Stimuli_Rocks480/I_Rhyolite_05.png","response":null,"trial_type":"image-keyboard-response","trial_index":6,"plugin_version":"2.1.0","time_elapsed":31497,"subject_id":"88738","group":"Group2","full_date":"2025-12-04T20:21:43.816Z","date":"2025-12-04","time":"20:21:43"},{"rt":null,"stimulus":"<p style=\"font-size: 50px; margin: 0; text-align: center;\">+</p>","response":null,"trial_type":"html-keyboard-response","trial_index":7,"plugin_version":"2.1.0","time_elapsed":32500,"subject_id":"88738","group":"Group2","full_date":"2025-12-04T20:21:43.816Z","date":"2025-12-04","time":"20:21:43"},{"task":"memory_phase","broad_category":"I","image_png":"I_Diorite_15.png","image_id":47,"category_name":"Diorite","category":3,"distinct_rating":3.05,"distinct_type":"Bottom","rt":null,"stimulus":"Stimuli_Rocks480/I_Diorite_15.png","response":null,"trial_type":"image-keyboard-response","trial_index":8,"plugin_version":"2.1.0","time_elapsed":35004,"subject_id":"88738","group":"Group2","full_date":"2025-12-04T20:21:43.816Z","date":"2025-12-04","time":"20:21:43"},{"rt":null,"stimulus":"<p style=\"font-size: 50px; margin: 0; text-align: center;\">+</p>","response":null,"trial_type":"html-keyboard-response","trial_index":9,"plugin_version":"2.1.0","time_elapsed":36012,"subject_id":"88738","group":"Group2","full_date":"2025-12-04T20:21:43.816Z","date":"2025-12-04","time":"20:21:43"},{"task":"memory_phase","broad_category":"S","image_png":"S_Dolomite_01.png","image_id":385,"category_name":"Dolomite","category":25,"distinct_rating":1.43,"distinct_type":"Bottom","rt":null,"stimulus":"Stimuli_Rocks480/S_Dolomite_01.png","response":null,"trial_type":"image-keyboard-response","trial_index":10,"plugin_version":"2.1.0","time_elapsed":38515,"subject_id":"88738","group":"Group2","full_date":"2025-12-04T20:21:43.816Z","date":"2025-12-04","time":"20:21:43"},{"rt":null,"stimulus":"<p style=\"font-size: 50px; margin: 0; text-align: center;\">+</p>","response":null,"trial_type":"html-keyboard-response","trial_index":11,"plugin_version":"2.1.0","time_elapsed":39518,"subject_id":"88738","group":"Group2","full_date":"2025-12-04T20:21:43.816Z","date":"2025-12-04","time":"20:21:43"},{"task":"memory_phase","broad_category":"S","image_png":"S_Shale_03.png","image_id":467,"category_name":"Shale","category":30,"distinct_rating":1.95,"distinct_type":"Bottom","rt":null,"stimulus":"Stimuli_Rocks480/S_Shale_03.png","response":null,"trial_type":"image-keyboard-response","trial_index":12,"plugin_version":"2.1.0","time_elapsed":42022,"subject_id":"88738","group":"Group2","full_date":"2025-12-04T20:21:43.816Z","date":"2025-12-04","time":"20:21:43"},{"rt":null,"stimulus":"<p style=\"font-size: 50px; margin: 0; text-align: center;\">+</p>","response":null,"trial_type":"html-keyboard-response","trial_index":13,"plugin_version":"2.1.0","time_elapsed":43024,"subject_id":"88738","group":"Group2","full_date":"2025-12-04T20:21:43.816Z","date":"2025-12-04","time":"20:21:43"},{"task":"memory_phase","broad_category":"S","image_png":"S_Rock Salt_15.png","image_id":447,"category_name":"Rock Salt","category":28,"distinct_rating":7.79,"distinct_type":"Top","rt":null,"stimulus":"Stimuli_Rocks480/S_Rock Salt_15.png","response":null,"trial_type":"image-keyboard-response","trial_index":14,"plugin_version":"2.1.0","time_elapsed":45527,"subject_id":"88738","group":"Group2","full_date":"2025-12-04T20:21:43.816Z","date":"2025-12-04","time":"20:21:43"},{"rt":null,"stimulus":"<p style=\"font-size: 50px; margin: 0; text-align: center;\">+</p>","response":null,"trial_type":"html-keyboard-response","trial_index":15,"plugin_version":"2.1.0","time_elapsed":46529,"subject_id":"88738","group":"Group2","full_date":"2025-12-04T20:21:43.816Z","date":"2025-12-04","time":"20:21:43"},{"task":"memory_phase","broad_category":"I","image_png":"I_Pegmatite_03.png","image_id":99,"category_name":"Pegmatite","category":7,"distinct_rating":7.24,"distinct_type":"Top","rt":null,"stimulus":"Stimuli_Rocks480/I_Pegmatite_03.png","response":null,"trial_type":"image-keyboard-response","trial_index":16,"plugin_version":"2.1.0","time_elapsed":49033,"subject_id":"88738","group":"Group2","full_date":"2025-12-04T20:21:43.816Z","date":"2025-12-04","time":"20:21:43"},{"rt":null,"stimulus":"<p style=\"font-size: 50px; margin: 0; text-align: center;\">+</p>","response":null,"trial_type":"html-keyboard-response","trial_index":17,"plugin_version":"2.1.0","time_elapsed":50035,"subject_id":"88738","group":"Group2","full_date":"2025-12-04T20:21:43.816Z","date":"2025-12-04","time":"20:21:43"},{"task":"memory_phase","broad_category":"M","image_png":"M_Gneiss_10.png","image_id":202,"category_name":"Gneiss","category":13,"distinct_rating":3.09,"distinct_type":"Bottom","rt":null,"stimulus":"Stimuli_Rocks480/M_Gneiss_10.png","response":null,"trial_type":"image-keyboard-response","trial_index":18,"plugin_version":"2.1.0","time_elapsed":52539,"subject_id":"88738","group":"Group2","full_date":"2025-12-04T20:21:43.816Z","date":"2025-12-04","time":"20:21:43"},{"rt":null,"stimulus":"<p style=\"font-size: 50px; margin: 0; text-align: center;\">+</p>","response":null,"trial_type":"html-keyboard-response","trial_index":19,"plugin_version":"2.1.0","time_elapsed":53542,"subject_id":"88738","group":"Group2","full_date":"2025-12-04T20:21:43.816Z","date":"2025-12-04","time":"20:21:43"},{"task":"memory_phase","broad_category":"M","image_png":"M_Slate_10.png","image_id":314,"category_name":"Slate","category":20,"distinct_rating":1.94,"distinct_type":"Bottom","rt":null,"stimulus":"Stimuli_Rocks480/M_Slate_10.png","response":null,"trial_type":"image-keyboard-response","trial_index":20,"plugin_version":"2.1.0","time_elapsed":56045,"subject_id":"88738","group":"Group2","full_date":"2025-12-04T20:21:43.816Z","date":"2025-12-04","time":"20:21:43"},{"rt":null,"stimulus":"<p style=\"font-size: 50px; margin: 0; text-align: center;\">+</p>","response":null,"trial_type":"html-keyboard-response","trial_index":21,"plugin_version":"2.1.0","time_elapsed":57047,"subject_id":"88738","group":"Group2","full_date":"2025-12-04T20:21:43.816Z","date":"2025-12-04","time":"20:21:43"},{"task":"memory_phase","broad_category":"S","image_png":"S_Dolomite_07.png","image_id":391,"category_name":"Dolomite","category":25,"distinct_rating":1.73,"distinct_type":"Bottom","rt":null,"stimulus":"Stimuli_Rocks480/S_Dolomite_07.png","response":null,"trial_type":"image-keyboard-response","trial_index":22,"plugin_version":"2.1.0","time_elapsed":59551,"subject_id":"88738","group":"Group2","full_date":"2025-12-04T20:21:43.816Z","date":"2025-12-04","time":"20:21:43"},{"rt":null,"stimulus":"<p style=\"font-size: 50px; margin: 0; text-align: center;\">+</p>","response":null,"trial_type":"html-keyboard-response","trial_index":23,"plugin_version":"2.1.0","time_elapsed":60553,"subject_id":"88738","group":"Group2","full_date":"2025-12-04T20:21:43.816Z","date":"2025-12-04","time":"20:21:43"},{"task":"memory_phase","broad_category":"S","image_png":"S_Dolomite_16.png","image_id":400,"category_name":"Dolomite","category":25,"distinct_rating":1.71,"distinct_type":"Bottom","rt":null,"stimulus":"Stimuli_Rocks480/S_Dolomite_16.png","response":null,"trial_type":"image-keyboard-response","trial_index":24,"plugin_version":"2.1.0","time_elapsed":63057,"subject_id":"88738","group":"Group2","full_date":"2025-12-04T20:21:43.816Z","date":"2025-12-04","time":"20:21:43"},{"rt":null,"stimulus":"<p style=\"font-size: 50px; margin: 0; text-align: center;\">+</p>","response":null,"trial_type":"html-keyboard-response","trial_index":25,"plugin_version":"2.1.0","time_elapsed":64059,"subject_id":"88738","group":"Group2","full_date":"2025-12-04T20:21:43.816Z","date":"2025-12-04","time":"20:21:43"},{"task":"memory_phase","broad_category":"M","image_png":"M_Slate_04.png","image_id":308,"category_name":"Slate","category":20,"distinct_rating":2.2,"distinct_type":"Bottom","rt":null,"stimulus":"Stimuli_Rocks480/M_Slate_04.png","response":null,"trial_type":"image-keyboard-response","trial_index":26,"plugin_version":"2.1.0","time_elapsed":66563,"subject_id":"88738","group":"Group2","full_date":"2025-12-04T20:21:43.816Z","date":"2025-12-04","time":"20:21:43"},{"rt":null,"stimulus":"<p style=\"font-size: 50px; margin: 0; text-align: center;\">+</p>","response":null,"trial_type":"html-keyboard-response","trial_index":27,"plugin_version":"2.1.0","time_elapsed":67565,"subject_id":"88738","group":"Group2","full_date":"2025-12-04T20:21:43.816Z","date":"2025-12-04","time":"20:21:43"},{"task":"memory_phase","broad_category":"I","image_png":"I_Pumice_14.png","image_id":142,"category_name":"Pumice","category":9,"distinct_rating":3.22,"distinct_type":"Bottom","rt":null,"stimulus":"Stimuli_Rocks480/I_Pumice_14.png","response":null,"trial_type":"image-keyboard-response","trial_index":28,"plugin_version":"2.1.0","time_elapsed":70068,"subject_id":"88738","group":"Group2","full_date":"2025-12-04T20:21:43.816Z","date":"2025-12-04","time":"20:21:43"},{"rt":null,"stimulus":"<p style=\"font-size: 50px; margin: 0; text-align: center;\">+</p>","response":null,"trial_type":"html-keyboard-response","trial_index":29,"plugin_version":"2.1.0","time_elapsed":71071,"subject_id":"88738","group":"Group2","full_date":"2025-12-04T20:21:43.816Z","date":"2025-12-04","time":"20:21:43"},{"task":"memory_phase","broad_category":"I","image_png":"I_Andesite_03.png","image_id":3,"category_name":"Andesite","category":1,"distinct_rating":3.17,"distinct_type":"Bottom","rt":null,"stimulus":"Stimuli_Rocks480/I_Andesite_03.png","response":null,"trial_type":"image-keyboard-response","trial_index":30,"plugin_version":"2.1.0","time_elapsed":73574,"subject_id":"88738","group":"Group2","full_date":"2025-12-04T20:21:43.816Z","date":"2025-12-04","time":"20:21:43"},{"rt":null,"stimulus":"<p style=\"font-size: 50px; margin: 0; text-align: center;\">+</p>","response":null,"trial_type":"html-keyboard-response","trial_index":31,"plugin_version":"2.1.0","time_elapsed":74576,"subject_id":"88738","group":"Group2","full_date":"2025-12-04T20:21:43.816Z","date":"2025-12-04","time":"20:21:43"},{"task":"memory_phase","broad_category":"I","image_png":"I_Basalt_08.png","image_id":24,"category_name":"Basalt","category":2,"distinct_rating":2.31,"distinct_type":"Bottom","rt":null,"stimulus":"Stimuli_Rocks480/I_Basalt_08.png","response":null,"trial_type":"image-keyboard-response","trial_index":32,"plugin_version":"2.1.0","time_elapsed":77080,"subject_id":"88738","group":"Group2","full_date":"2025-12-04T20:21:43.816Z","date":"2025-12-04","time":"20:21:43"},{"rt":null,"stimulus":"<p style=\"font-size: 50px; margin: 0; text-align: center;\">+</p>","response":null,"trial_type":"html-keyboard-response","trial_index":33,"plugin_version":"2.1.0","time_elapsed":78083,"subject_id":"88738","group":"Group2","full_date":"2025-12-04T20:21:43.816Z","date":"2025-12-04","time":"20:21:43"},{"task":"memory_phase","broad_category":"M","image_png":"M_Gneiss_15.png","image_id":207,"category_name":"Gneiss","category":13,"distinct_rating":3.11,"distinct_type":"Bottom","rt":null,"stimulus":"Stimuli_Rocks480/M_Gneiss_15.png","response":null,"trial_type":"image-keyboard-response","trial_index":34,"plugin_version":"2.1.0","time_elapsed":80586,"subject_id":"88738","group":"Group2","full_date":"2025-12-04T20:21:43.816Z","date":"2025-12-04","time":"20:21:43"},{"rt":null,"stimulus":"<p style=\"font-size: 50px; margin: 0; text-align: center;\">+</p>","response":null,"trial_type":"html-keyboard-response","trial_index":35,"plugin_version":"2.1.0","time_elapsed":81589,"subject_id":"88738","group":"Group2","full_date":"2025-12-04T20:21:43.816Z","date":"2025-12-04","time":"20:21:43"},{"task":"memory_phase","broad_category":"I","image_png":"I_Basalt_13.png","image_id":29,"category_name":"Basalt","category":2,"distinct_rating":2.68,"distinct_type":"Bottom","rt":null,"stimulus":"Stimuli_Rocks480/I_Basalt_13.png","response":null,"trial_type":"image-keyboard-response","trial_index":36,"plugin_version":"2.1.0","time_elapsed":84092,"subject_id":"88738","group":"Group2","full_date":"2025-12-04T20:21:43.816Z","date":"2025-12-04","time":"20:21:43"},{"rt":null,"stimulus":"<p style=\"font-size: 50px; margin: 0; text-align: center;\">+</p>","response":null,"trial_type":"html-keyboard-response","trial_index":37,"plugin_version":"2.1.0","time_elapsed":85094,"subject_id":"88738","group":"Group2","full_date":"2025-12-04T20:21:43.816Z","date":"2025-12-04","time":"20:21:43"},{"task":"memory_phase","broad_category":"I","image_png":"I_Andesite_04.png","image_id":4,"category_name":"Andesite","category":1,"distinct_rating":3.18,"distinct_type":"Bottom","rt":null,"stimulus":"Stimuli_Rocks480/I_Andesite_04.png","response":null,"trial_type":"image-keyboard-response","trial_index":38,"plugin_version":"2.1.0","time_elapsed":87597,"subject_id":"88738","group":"Group2","full_date":"2025-12-04T20:21:43.816Z","date":"2025-12-04","time":"20:21:43"},{"rt":null,"stimulus":"<p style=\"font-size: 50px; margin: 0; text-align: center;\">+</p>","response":null,"trial_type":"html-keyboard-response","trial_index":39,"plugin_version":"2.1.0","time_elapsed":88599,"subject_id":"88738","group":"Group2","full_date":"2025-12-04T20:21:43.816Z","date":"2025-12-04","time":"20:21:43"},{"task":"memory_phase","broad_category":"I","image_png":"I_Andesite_09.png","image_id":9,"category_name":"Andesite","category":1,"distinct_rating":2.49,"distinct_type":"Bottom","rt":null,"stimulus":"Stimuli_Rocks480/I_Andesite_09.png","response":null,"trial_type":"image-keyboard-response","trial_index":40,"plugin_version":"2.1.0","time_elapsed":91102,"subject_id":"88738","group":"Group2","full_date":"2025-12-04T20:21:43.816Z","date":"2025-12-04","time":"20:21:43"},{"rt":null,"stimulus":"<p style=\"font-size: 50px; margin: 0; text-align: center;\">+</p>","response":null,"trial_type":"html-keyboard-response","trial_index":41,"plugin_version":"2.1.0","time_elapsed":92105,"subject_id":"88738","group":"Group2","full_date":"2025-12-04T20:21:43.816Z","date":"2025-12-04","time":"20:21:43"},{"task":"memory_phase","broad_category":"M","image_png":"M_Quartzite_07.png","image_id":279,"category_name":"Quartzite","category":18,"distinct_rating":1.97,"distinct_type":"Bottom","rt":null,"stimulus":"Stimuli_Rocks480/M_Quartzite_07.png","response":null,"trial_type":"image-keyboard-response","trial_index":42,"plugin_version":"2.1.0","time_elapsed":94608,"subject_id":"88738","group":"Group2","full_date":"2025-12-04T20:21:43.816Z","date":"2025-12-04","time":"20:21:43"},{"rt":null,"stimulus":"<p style=\"font-size: 50px; margin: 0; text-align: center;\">+</p>","response":null,"trial_type":"html-keyboard-response","trial_index":43,"plugin_version":"2.1.0","time_elapsed":95610,"subject_id":"88738","group":"Group2","full_date":"2025-12-04T20:21:43.816Z","date":"2025-12-04","time":"20:21:43"},{"task":"memory_phase","broad_category":"M","image_png":"M_Phyllite_05.png","image_id":261,"category_name":"Phyllite","category":17,"distinct_rating":2.14,"distinct_type":"Bottom","rt":null,"stimulus":"Stimuli_Rocks480/M_Phyllite_05.png","response":null,"trial_type":"image-keyboard-response","trial_index":44,"plugin_version":"2.1.0","time_elapsed":98113,"subject_id":"88738","group":"Group2","full_date":"2025-12-04T20:21:43.816Z","date":"2025-12-04","time":"20:21:43"},{"rt":null,"stimulus":"<p style=\"font-size: 50px; margin: 0; text-align: center;\">+</p>","response":null,"trial_type":"html-keyboard-response","trial_index":45,"plugin_version":"2.1.0","time_elapsed":99116,"subject_id":"88738","group":"Group2","full_date":"2025-12-04T20:21:43.816Z","date":"2025-12-04","time":"20:21:43"},{"task":"memory_phase","broad_category":"M","image_png":"M_Phyllite_13.png","image_id":269,"category_name":"Phyllite","category":17,"distinct_rating":2.8,"distinct_type":"Bottom","rt":null,"stimulus":"Stimuli_Rocks480/M_Phyllite_13.png","response":null,"trial_type":"image-keyboard-response","trial_index":46,"plugin_version":"2.1.0","time_elapsed":101619,"subject_id":"88738","group":"Group2","full_date":"2025-12-04T20:21:43.816Z","date":"2025-12-04","time":"20:21:43"},{"rt":null,"stimulus":"<p style=\"font-size: 50px; margin: 0; text-align: center;\">+</p>","response":null,"trial_type":"html-keyboard-response","trial_index":47,"plugin_version":"2.1.0","time_elapsed":102622,"subject_id":"88738","group":"Group2","full_date":"2025-12-04T20:21:43.816Z","date":"2025-12-04","time":"20:21:43"},{"task":"memory_phase","broad_category":"M","image_png":"M_Quartzite_15.png","image_id":287,"category_name":"Quartzite","category":18,"distinct_rating":2.19,"distinct_type":"Bottom","rt":null,"stimulus":"Stimuli_Rocks480/M_Quartzite_15.png","response":null,"trial_type":"image-keyboard-response","trial_index":48,"plugin_version":"2.1.0","time_elapsed":105125,"subject_id":"88738","group":"Group2","full_date":"2025-12-04T20:21:43.816Z","date":"2025-12-04","time":"20:21:43"},{"rt":null,"stimulus":"<p style=\"font-size: 50px; margin: 0; text-align: center;\">+</p>","response":null,"trial_type":"html-keyboard-response","trial_index":49,"plugin_version":"2.1.0","time_elapsed":106127,"subject_id":"88738","group":"Group2","full_date":"2025-12-04T20:21:43.816Z","date":"2025-12-04","time":"20:21:43"},{"task":"memory_phase","broad_category":"M","image_png":"M_Phyllite_02.png","image_id":258,"category_name":"Phyllite","category":17,"distinct_rating":2.89,"distinct_type":"Bottom","rt":null,"stimulus":"Stimuli_Rocks480/M_Phyllite_02.png","response":null,"trial_type":"image-keyboard-response","trial_index":50,"plugin_version":"2.1.0","time_elapsed":108630,"subject_id":"88738","group":"Group2","full_date":"2025-12-04T20:21:43.816Z","date":"2025-12-04","time":"20:21:43"},{"rt":null,"stimulus":"<p style=\"font-size: 50px; margin: 0; text-align: center;\">+</p>","response":null,"trial_type":"html-keyboard-response","trial_index":51,"plugin_version":"2.1.0","time_elapsed":109632,"subject_id":"88738","group":"Group2","full_date":"2025-12-04T20:21:43.816Z","date":"2025-12-04","time":"20:21:43"},{"task":"memory_phase","broad_category":"I","image_png":"I_Pumice_13.png","image_id":141,"category_name":"Pumice","category":9,"distinct_rating":3.12,"distinct_type":"Bottom","rt":null,"stimulus":"Stimuli_Rocks480/I_Pumice_13.png","response":null,"trial_type":"image-keyboard-response","trial_index":52,"plugin_version":"2.1.0","time_elapsed":112136,"subject_id":"88738","group":"Group2","full_date":"2025-12-04T20:21:43.816Z","date":"2025-12-04","time":"20:21:43"},{"rt":null,"stimulus":"<p style=\"font-size: 50px; margin: 0; text-align: center;\">+</p>","response":null,"trial_type":"html-keyboard-response","trial_index":53,"plugin_version":"2.1.0","time_elapsed":113138,"subject_id":"88738","group":"Group2","full_date":"2025-12-04T20:21:43.816Z","date":"2025-12-04","time":"20:21:43"},{"task":"memory_phase","broad_category":"I","image_png":"I_Diorite_10.png","image_id":42,"category_name":"Diorite","category":3,"distinct_rating":2.84,"distinct_type":"Bottom","rt":null,"stimulus":"Stimuli_Rocks480/I_Diorite_10.png","response":null,"trial_type":"image-keyboard-response","trial_index":54,"plugin_version":"2.1.0","time_elapsed":115642,"subject_id":"88738","group":"Group2","full_date":"2025-12-04T20:21:43.816Z","date":"2025-12-04","time":"20:21:43"},{"rt":3390,"stimulus":"<p style=\"max-width: 760px; margin: auto; font-size: 35px; line-height: 1.5;\">Press SPACE to continue study phase</p>","response":" ","trial_type":"html-keyboard-response","trial_index":55,"plugin_version":"2.1.0","time_elapsed":119034,"subject_id":"88738","group":"Group2","full_date":"2025-12-04T20:21:43.816Z","date":"2025-12-04","time":"20:21:43"},{"rt":null,"stimulus":"<p style=\"font-size: 50px; margin: 0; text-align: center;\">+</p>","response":null,"trial_type":"html-keyboard-response","trial_index":56,"plugin_version":"2.1.0","time_elapsed":120036,"subject_id":"88738","group":"Group2","full_date":"2025-12-04T20:21:43.816Z","date":"2025-12-04","time":"20:21:43"},{"task":"memory_phase","broad_category":"I","image_png":"I_Pegmatite_11.png","image_id":107,"category_name":"Pegmatite","category":7,"distinct_rating":7.11,"distinct_type":"Top","rt":null,"stimulus":"Stimuli_Rocks480/I_Pegmatite_11.png","response":null,"trial_type":"image-keyboard-response","trial_index":57,"plugin_version":"2.1.0","time_elapsed":122540,"subject_id":"88738","group":"Group2","full_date":"2025-12-04T20:21:43.816Z","date":"2025-12-04","time":"20:21:43"},{"rt":null,"stimulus":"<p style=\"font-size: 50px; margin: 0; text-align: center;\">+</p>","response":null,"trial_type":"html-keyboard-response","trial_index":58,"plugin_version":"2.1.0","time_elapsed":123542,"subject_id":"88738","group":"Group2","full_date":"2025-12-04T20:21:43.816Z","date":"2025-12-04","time":"20:21:43"},{"task":"memory_phase","broad_category":"S","image_png":"S_Shale_02.png","image_id":466,"category_name":"Shale","category":30,"distinct_rating":2.9,"distinct_type":"Bottom","rt":null,"stimulus":"Stimuli_Rocks480/S_Shale_02.png","response":null,"trial_type":"image-keyboard-response","trial_index":59,"plugin_version":"2.1.0","time_elapsed":126046,"subject_id":"88738","group":"Group2","full_date":"2025-12-04T20:21:43.816Z","date":"2025-12-04","time":"20:21:43"},{"rt":null,"stimulus":"<p style=\"font-size: 50px; margin: 0; text-align: center;\">+</p>","response":null,"trial_type":"html-keyboard-response","trial_index":60,"plugin_version":"2.1.0","time_elapsed":127048,"subject_id":"88738","group":"Group2","full_date":"2025-12-04T20:21:43.816Z","date":"2025-12-04","time":"20:21:43"},{"task":"memory_phase","broad_category":"I","image_png":"I_Rhyolite_10.png","image_id":154,"category_name":"Rhyolite","category":10,"distinct_rating":2.88,"distinct_type":"Bottom","rt":null,"stimulus":"Stimuli_Rocks480/I_Rhyolite_10.png","response":null,"trial_type":"image-keyboard-response","trial_index":61,"plugin_version":"2.1.0","time_elapsed":129551,"subject_id":"88738","group":"Group2","full_date":"2025-12-04T20:21:43.816Z","date":"2025-12-04","time":"20:21:43"},{"rt":null,"stimulus":"<p style=\"font-size: 50px; margin: 0; text-align: center;\">+</p>","response":null,"trial_type":"html-keyboard-response","trial_index":62,"plugin_version":"2.1.0","time_elapsed":130554,"subject_id":"88738","group":"Group2","full_date":"2025-12-04T20:21:43.816Z","date":"2025-12-04","time":"20:21:43"},{"task":"memory_phase","broad_category":"I","image_png":"I_Pumice_01.png","image_id":129,"category_name":"Pumice","category":9,"distinct_rating":3.25,"distinct_type":"Bottom","rt":null,"stimulus":"Stimuli_Rocks480/I_Pumice_01.png","response":null,"trial_type":"image-keyboard-response","trial_index":63,"plugin_version":"2.1.0","time_elapsed":133057,"subject_id":"88738","group":"Group2","full_date":"2025-12-04T20:21:43.816Z","date":"2025-12-04","time":"20:21:43"},{"rt":null,"stimulus":"<p style=\"font-size: 50px; margin: 0; text-align: center;\">+</p>","response":null,"trial_type":"html-keyboard-response","trial_index":64,"plugin_version":"2.1.0","time_elapsed":134060,"subject_id":"88738","group":"Group2","full_date":"2025-12-04T20:21:43.816Z","date":"2025-12-04","time":"20:21:43"},{"task":"memory_phase","broad_category":"I","image_png":"I_Rhyolite_08.png","image_id":152,"category_name":"Rhyolite","category":10,"distinct_rating":1.38,"distinct_type":"Bottom","rt":null,"stimulus":"Stimuli_Rocks480/I_Rhyolite_08.png","response":null,"trial_type":"image-keyboard-response","trial_index":65,"plugin_version":"2.1.0","time_elapsed":136563,"subject_id":"88738","group":"Group2","full_date":"2025-12-04T20:21:43.816Z","date":"2025-12-04","time":"20:21:43"},{"rt":null,"stimulus":"<p style=\"font-size: 50px; margin: 0; text-align: center;\">+</p>","response":null,"trial_type":"html-keyboard-response","trial_index":66,"plugin_version":"2.1.0","time_elapsed":137565,"subject_id":"88738","group":"Group2","full_date":"2025-12-04T20:21:43.816Z","date":"2025-12-04","time":"20:21:43"},{"task":"memory_phase","broad_category":"I","image_png":"I_Gabbro_12.png","image_id":60,"category_name":"Gabbro","category":4,"distinct_rating":2.6,"distinct_type":"Bottom","rt":null,"stimulus":"Stimuli_Rocks480/I_Gabbro_12.png","response":null,"trial_type":"image-keyboard-response","trial_index":67,"plugin_version":"2.1.0","time_elapsed":140069,"subject_id":"88738","group":"Group2","full_date":"2025-12-04T20:21:43.816Z","date":"2025-12-04","time":"20:21:43"},{"rt":null,"stimulus":"<p style=\"font-size: 50px; margin: 0; text-align: center;\">+</p>","response":null,"trial_type":"html-keyboard-response","trial_index":68,"plugin_version":"2.1.0","time_elapsed":141071,"subject_id":"88738","group":"Group2","full_date":"2025-12-04T20:21:43.816Z","date":"2025-12-04","time":"20:21:43"},{"task":"memory_phase","broad_category":"S","image_png":"S_Sandstone_04.png","image_id":452,"category_name":"Sandstone","category":29,"distinct_rating":1.8,"distinct_type":"Bottom","rt":null,"stimulus":"Stimuli_Rocks480/S_Sandstone_04.png","response":null,"trial_type":"image-keyboard-response","trial_index":69,"plugin_version":"2.1.0","time_elapsed":143575,"subject_id":"88738","group":"Group2","full_date":"2025-12-04T20:21:43.816Z","date":"2025-12-04","time":"20:21:43"},{"rt":null,"stimulus":"<p style=\"font-size: 50px; margin: 0; text-align: center;\">+</p>","response":null,"trial_type":"html-keyboard-response","trial_index":70,"plugin_version":"2.1.0","time_elapsed":144578,"subject_id":"88738","group":"Group2","full_date":"2025-12-04T20:21:43.816Z","date":"2025-12-04","time":"20:21:43"},{"task":"memory_phase","broad_category":"M","image_png":"M_Marble_14.png","image_id":238,"category_name":"Marble","category":15,"distinct_rating":3.31,"distinct_type":"Bottom","rt":null,"stimulus":"Stimuli_Rocks480/M_Marble_14.png","response":null,"trial_type":"image-keyboard-response","trial_index":71,"plugin_version":"2.1.0","time_elapsed":147081,"subject_id":"88738","group":"Group2","full_date":"2025-12-04T20:21:43.816Z","date":"2025-12-04","time":"20:21:43"},{"rt":null,"stimulus":"<p style=\"font-size: 50px; margin: 0; text-align: center;\">+</p>","response":null,"trial_type":"html-keyboard-response","trial_index":72,"plugin_version":"2.1.0","time_elapsed":148083,"subject_id":"88738","group":"Group2","full_date":"2025-12-04T20:21:43.816Z","date":"2025-12-04","time":"20:21:43"},{"task":"memory_phase","broad_category":"S","image_png":"S_Conglomerate_14.png","image_id":382,"category_name":"Conglomerate","category":24,"distinct_rating":6.86,"distinct_type":"Top","rt":null,"stimulus":"Stimuli_Rocks480/S_Conglomerate_14.png","response":null,"trial_type":"image-keyboard-response","trial_index":73,"plugin_version":"2.1.0","time_elapsed":150586,"subject_id":"88738","group":"Group2","full_date":"2025-12-04T20:21:43.816Z","date":"2025-12-04","time":"20:21:43"},{"rt":null,"stimulus":"<p style=\"font-size: 50px; margin: 0; text-align: center;\">+</p>","response":null,"trial_type":"html-keyboard-response","trial_index":74,"plugin_version":"2.1.0","time_elapsed":151589,"subject_id":"88738","group":"Group2","full_date":"2025-12-04T20:21:43.816Z","date":"2025-12-04","time":"20:21:43"},{"task":"memory_phase","broad_category":"I","image_png":"I_Obsidian_06.png","image_id":86,"category_name":"Obsidian","category":6,"distinct_rating":8.01,"distinct_type":"Top","rt":null,"stimulus":"Stimuli_Rocks480/I_Obsidian_06.png","response":null,"trial_type":"image-keyboard-response","trial_index":75,"plugin_version":"2.1.0","time_elapsed":154092,"subject_id":"88738","group":"Group2","full_date":"2025-12-04T20:21:43.816Z","date":"2025-12-04","time":"20:21:43"},{"rt":null,"stimulus":"<p style=\"font-size: 50px; margin: 0; text-align: center;\">+</p>","response":null,"trial_type":"html-keyboard-response","trial_index":76,"plugin_version":"2.1.0","time_elapsed":155094,"subject_id":"88738","group":"Group2","full_date":"2025-12-04T20:21:43.816Z","date":"2025-12-04","time":"20:21:43"},{"task":"memory_phase","broad_category":"S","image_png":"S_Sandstone_11.png","image_id":459,"category_name":"Sandstone","category":29,"distinct_rating":1.82,"distinct_type":"Bottom","rt":null,"stimulus":"Stimuli_Rocks480/S_Sandstone_11.png","response":null,"trial_type":"image-keyboard-response","trial_index":77,"plugin_version":"2.1.0","time_elapsed":157597,"subject_id":"88738","group":"Group2","full_date":"2025-12-04T20:21:43.816Z","date":"2025-12-04","time":"20:21:43"},{"rt":null,"stimulus":"<p style=\"font-size: 50px; margin: 0; text-align: center;\">+</p>","response":null,"trial_type":"html-keyboard-response","trial_index":78,"plugin_version":"2.1.0","time_elapsed":158600,"subject_id":"88738","group":"Group2","full_date":"2025-12-04T20:21:43.816Z","date":"2025-12-04","time":"20:21:43"},{"task":"memory_phase","broad_category":"M","image_png":"M_Quartzite_12.png","image_id":284,"category_name":"Quartzite","category":18,"distinct_rating":1.92,"distinct_type":"Bottom","rt":null,"stimulus":"Stimuli_Rocks480/M_Quartzite_12.png","response":null,"trial_type":"image-keyboard-response","trial_index":79,"plugin_version":"2.1.0","time_elapsed":161104,"subject_id":"88738","group":"Group2","full_date":"2025-12-04T20:21:43.816Z","date":"2025-12-04","time":"20:21:43"},{"rt":null,"stimulus":"<p style=\"font-size: 50px; margin: 0; text-align: center;\">+</p>","response":null,"trial_type":"html-keyboard-response","trial_index":80,"plugin_version":"2.1.0","time_elapsed":162106,"subject_id":"88738","group":"Group2","full_date":"2025-12-04T20:21:43.816Z","date":"2025-12-04","time":"20:21:43"},{"task":"memory_phase","broad_category":"S","image_png":"S_Sandstone_08.png","image_id":456,"category_name":"Sandstone","category":29,"distinct_rating":1.5,"distinct_type":"Bottom","rt":null,"stimulus":"Stimuli_Rocks480/S_Sandstone_08.png","response":null,"trial_type":"image-keyboard-response","trial_index":81,"plugin_version":"2.1.0","time_elapsed":164609,"subject_id":"88738","group":"Group2","full_date":"2025-12-04T20:21:43.816Z","date":"2025-12-04","time":"20:21:43"},{"rt":null,"stimulus":"<p style=\"font-size: 50px; margin: 0; text-align: center;\">+</p>","response":null,"trial_type":"html-keyboard-response","trial_index":82,"plugin_version":"2.1.0","time_elapsed":165612,"subject_id":"88738","group":"Group2","full_date":"2025-12-04T20:21:43.816Z","date":"2025-12-04","time":"20:21:43"},{"task":"memory_phase","broad_category":"S","image_png":"S_Chert_13.png","image_id":365,"category_name":"Chert","category":23,"distinct_rating":6.57,"distinct_type":"Top","rt":null,"stimulus":"Stimuli_Rocks480/S_Chert_13.png","response":null,"trial_type":"image-keyboard-response","trial_index":83,"plugin_version":"2.1.0","time_elapsed":168114,"subject_id":"88738","group":"Group2","full_date":"2025-12-04T20:21:43.816Z","date":"2025-12-04","time":"20:21:43"},{"rt":null,"stimulus":"<p style=\"font-size: 50px; margin: 0; text-align: center;\">+</p>","response":null,"trial_type":"html-keyboard-response","trial_index":84,"plugin_version":"2.1.0","time_elapsed":169117,"subject_id":"88738","group":"Group2","full_date":"2025-12-04T20:21:43.816Z","date":"2025-12-04","time":"20:21:43"},{"task":"memory_phase","broad_category":"M","image_png":"M_Marble_02.png","image_id":226,"category_name":"Marble","category":15,"distinct_rating":3.2,"distinct_type":"Bottom","rt":null,"stimulus":"Stimuli_Rocks480/M_Marble_02.png","response":null,"trial_type":"image-keyboard-response","trial_index":85,"plugin_version":"2.1.0","time_elapsed":171620,"subject_id":"88738","group":"Group2","full_date":"2025-12-04T20:21:43.816Z","date":"2025-12-04","time":"20:21:43"},{"rt":null,"stimulus":"<p style=\"font-size: 50px; margin: 0; text-align: center;\">+</p>","response":null,"trial_type":"html-keyboard-response","trial_index":86,"plugin_version":"2.1.0","time_elapsed":172623,"subject_id":"88738","group":"Group2","full_date":"2025-12-04T20:21:43.816Z","date":"2025-12-04","time":"20:21:43"},{"task":"memory_phase","broad_category":"M","image_png":"M_Marble_03.png","image_id":227,"category_name":"Marble","category":15,"distinct_rating":2.67,"distinct_type":"Bottom","rt":null,"stimulus":"Stimuli_Rocks480/M_Marble_03.png","response":null,"trial_type":"image-keyboard-response","trial_index":87,"plugin_version":"2.1.0","time_elapsed":175126,"subject_id":"88738","group":"Group2","full_date":"2025-12-04T20:21:43.816Z","date":"2025-12-04","time":"20:21:43"},{"rt":null,"stimulus":"<p style=\"font-size: 50px; margin: 0; text-align: center;\">+</p>","response":null,"trial_type":"html-keyboard-response","trial_index":88,"plugin_version":"2.1.0","time_elapsed":176129,"subject_id":"88738","group":"Group2","full_date":"2025-12-04T20:21:43.816Z","date":"2025-12-04","time":"20:21:43"},{"task":"memory_phase","broad_category":"M","image_png":"M_Slate_14.png","image_id":318,"category_name":"Slate","category":20,"distinct_rating":2.58,"distinct_type":"Bottom","rt":null,"stimulus":"Stimuli_Rocks480/M_Slate_14.png","response":null,"trial_type":"image-keyboard-response","trial_index":89,"plugin_version":"2.1.0","time_elapsed":178632,"subject_id":"88738","group":"Group2","full_date":"2025-12-04T20:21:43.816Z","date":"2025-12-04","time":"20:21:43"},{"rt":null,"stimulus":"<p style=\"font-size: 50px; margin: 0; text-align: center;\">+</p>","response":null,"trial_type":"html-keyboard-response","trial_index":90,"plugin_version":"2.1.0","time_elapsed":179635,"subject_id":"88738","group":"Group2","full_date":"2025-12-04T20:21:43.816Z","date":"2025-12-04","time":"20:21:43"},{"task":"memory_phase","broad_category":"I","image_png":"I_Basalt_10.png","image_id":26,"category_name":"Basalt","category":2,"distinct_rating":2.76,"distinct_type":"Bottom","rt":null,"stimulus":"Stimuli_Rocks480/I_Basalt_10.png","response":null,"trial_type":"image-keyboard-response","trial_index":91,"plugin_version":"2.1.0","time_elapsed":182138,"subject_id":"88738","group":"Group2","full_date":"2025-12-04T20:21:43.816Z","date":"2025-12-04","time":"20:21:43"},{"rt":null,"stimulus":"<p style=\"font-size: 50px; margin: 0; text-align: center;\">+</p>","response":null,"trial_type":"html-keyboard-response","trial_index":92,"plugin_version":"2.1.0","time_elapsed":183140,"subject_id":"88738","group":"Group2","full_date":"2025-12-04T20:21:43.816Z","date":"2025-12-04","time":"20:21:43"},{"task":"memory_phase","broad_category":"M","image_png":"M_Gneiss_14.png","image_id":206,"category_name":"Gneiss","category":13,"distinct_rating":3.41,"distinct_type":"Bottom","rt":null,"stimulus":"Stimuli_Rocks480/M_Gneiss_14.png","response":null,"trial_type":"image-keyboard-response","trial_index":93,"plugin_version":"2.1.0","time_elapsed":185644,"subject_id":"88738","group":"Group2","full_date":"2025-12-04T20:21:43.816Z","date":"2025-12-04","time":"20:21:43"},{"rt":null,"stimulus":"<p style=\"font-size: 50px; margin: 0; text-align: center;\">+</p>","response":null,"trial_type":"html-keyboard-response","trial_index":94,"plugin_version":"2.1.0","time_elapsed":186646,"subject_id":"88738","group":"Group2","full_date":"2025-12-04T20:21:43.816Z","date":"2025-12-04","time":"20:21:43"},{"task":"memory_phase","broad_category":"I","image_png":"I_Gabbro_02.png","image_id":50,"category_name":"Gabbro","category":4,"distinct_rating":2.73,"distinct_type":"Bottom","rt":null,"stimulus":"Stimuli_Rocks480/I_Gabbro_02.png","response":null,"trial_type":"image-keyboard-response","trial_index":95,"plugin_version":"2.1.0","time_elapsed":189149,"subject_id":"88738","group":"Group2","full_date":"2025-12-04T20:21:43.816Z","date":"2025-12-04","time":"20:21:43"},{"rt":null,"stimulus":"<p style=\"font-size: 50px; margin: 0; text-align: center;\">+</p>","response":null,"trial_type":"html-keyboard-response","trial_index":96,"plugin_version":"2.1.0","time_elapsed":190152,"subject_id":"88738","group":"Group2","full_date":"2025-12-04T20:21:43.816Z","date":"2025-12-04","time":"20:21:43"},{"task":"memory_phase","broad_category":"I","image_png":"I_Peridotite_13.png","image_id":125,"category_name":"Peridotite","category":8,"distinct_rating":7.28,"distinct_type":"Top","rt":null,"stimulus":"Stimuli_Rocks480/I_Peridotite_13.png","response":null,"trial_type":"image-keyboard-response","trial_index":97,"plugin_version":"2.1.0","time_elapsed":192655,"subject_id":"88738","group":"Group2","full_date":"2025-12-04T20:21:43.816Z","date":"2025-12-04","time":"20:21:43"},{"rt":null,"stimulus":"<p style=\"font-size: 50px; margin: 0; text-align: center;\">+</p>","response":null,"trial_type":"html-keyboard-response","trial_index":98,"plugin_version":"2.1.0","time_elapsed":193658,"subject_id":"88738","group":"Group2","full_date":"2025-12-04T20:21:43.816Z","date":"2025-12-04","time":"20:21:43"},{"task":"memory_phase","broad_category":"S","image_png":"S_Rock Salt_13.png","image_id":445,"category_name":"Rock Salt","category":28,"distinct_rating":7.58,"distinct_type":"Top","rt":null,"stimulus":"Stimuli_Rocks480/S_Rock Salt_13.png","response":null,"trial_type":"image-keyboard-response","trial_index":99,"plugin_version":"2.1.0","time_elapsed":196161,"subject_id":"88738","group":"Group2","full_date":"2025-12-04T20:21:43.816Z","date":"2025-12-04","time":"20:21:43"},{"rt":null,"stimulus":"<p style=\"font-size: 50px; margin: 0; text-align: center;\">+</p>","response":null,"trial_type":"html-keyboard-response","trial_index":100,"plugin_version":"2.1.0","time_elapsed":197163,"subject_id":"88738","group":"Group2","full_date":"2025-12-04T20:21:43.816Z","date":"2025-12-04","time":"20:21:43"},{"task":"memory_phase","broad_category":"I","image_png":"I_Diorite_01.png","image_id":33,"category_name":"Diorite","category":3,"distinct_rating":2.97,"distinct_type":"Bottom","rt":null,"stimulus":"Stimuli_Rocks480/I_Diorite_01.png","response":null,"trial_type":"image-keyboard-response","trial_index":101,"plugin_version":"2.1.0","time_elapsed":199666,"subject_id":"88738","group":"Group2","full_date":"2025-12-04T20:21:43.816Z","date":"2025-12-04","time":"20:21:43"},{"rt":null,"stimulus":"<p style=\"font-size: 50px; margin: 0; text-align: center;\">+</p>","response":null,"trial_type":"html-keyboard-response","trial_index":102,"plugin_version":"2.1.0","time_elapsed":200668,"subject_id":"88738","group":"Group2","full_date":"2025-12-04T20:21:43.816Z","date":"2025-12-04","time":"20:21:43"},{"task":"memory_phase","broad_category":"S","image_png":"S_Shale_07.png","image_id":471,"category_name":"Shale","category":30,"distinct_rating":2.73,"distinct_type":"Bottom","rt":null,"stimulus":"Stimuli_Rocks480/S_Shale_07.png","response":null,"trial_type":"image-keyboard-response","trial_index":103,"plugin_version":"2.1.0","time_elapsed":203175,"subject_id":"88738","group":"Group2","full_date":"2025-12-04T20:21:43.816Z","date":"2025-12-04","time":"20:21:43"},{"rt":null,"stimulus":"<p style=\"font-size: 50px; margin: 0; text-align: center;\">+</p>","response":null,"trial_type":"html-keyboard-response","trial_index":104,"plugin_version":"2.1.0","time_elapsed":204177,"subject_id":"88738","group":"Group2","full_date":"2025-12-04T20:21:43.816Z","date":"2025-12-04","time":"20:21:43"},{"task":"memory_phase","broad_category":"I","image_png":"I_Gabbro_14.png","image_id":62,"category_name":"Gabbro","category":4,"distinct_rating":2.95,"distinct_type":"Bottom","rt":null,"stimulus":"Stimuli_Rocks480/I_Gabbro_14.png","response":null,"trial_type":"image-keyboard-response","trial_index":105,"plugin_version":"2.1.0","time_elapsed":206680,"subject_id":"88738","group":"Group2","full_date":"2025-12-04T20:21:43.816Z","date":"2025-12-04","time":"20:21:43"},{"rt":28515,"stimulus":"<p style=\"max-width: 760px; margin: auto; font-size: 35px; line-height: 1.5;\">You have completed 1 study phase. Now, we'll show you all the images again 2 more times.<br><br>Press SPACE to continue</p>","response":" ","trial_type":"html-keyboard-response","trial_index":106,"plugin_version":"2.1.0","time_elapsed":235197,"subject_id":"88738","group":"Group2","full_date":"2025-12-04T20:21:43.816Z","date":"2025-12-04","time":"20:21:43"},{"rt":null,"stimulus":"<p style=\"font-size: 50px; margin: 0; text-align: center;\">+</p>","response":null,"trial_type":"html-keyboard-response","trial_index":107,"plugin_version":"2.1.0","time_elapsed":236200,"subject_id":"88738","group":"Group2","full_date":"2025-12-04T20:21:43.816Z","date":"2025-12-04","time":"20:21:43"},{"task":"memory_phase","broad_category":"S","image_png":"S_Sandstone_08.png","image_id":456,"category_name":"Sandstone","category":29,"distinct_rating":1.5,"distinct_type":"Bottom","rt":null,"stimulus":"Stimuli_Rocks480/S_Sandstone_08.png","response":null,"trial_type":"image-keyboard-response","trial_index":108,"plugin_version":"2.1.0","time_elapsed":238703,"subject_id":"88738","group":"Group2","full_date":"2025-12-04T20:21:43.816Z","date":"2025-12-04","time":"20:21:43"},{"rt":null,"stimulus":"<p style=\"font-size: 50px; margin: 0; text-align: center;\">+</p>","response":null,"trial_type":"html-keyboard-response","trial_index":109,"plugin_version":"2.1.0","time_elapsed":239706,"subject_id":"88738","group":"Group2","full_date":"2025-12-04T20:21:43.816Z","date":"2025-12-04","time":"20:21:43"},{"task":"memory_phase","broad_category":"I","image_png":"I_Rhyolite_10.png","image_id":154,"category_name":"Rhyolite","category":10,"distinct_rating":2.88,"distinct_type":"Bottom","rt":null,"stimulus":"Stimuli_Rocks480/I_Rhyolite_10.png","response":null,"trial_type":"image-keyboard-response","trial_index":110,"plugin_version":"2.1.0","time_elapsed":242209,"subject_id":"88738","group":"Group2","full_date":"2025-12-04T20:21:43.816Z","date":"2025-12-04","time":"20:21:43"},{"rt":null,"stimulus":"<p style=\"font-size: 50px; margin: 0; text-align: center;\">+</p>","response":null,"trial_type":"html-keyboard-response","trial_index":111,"plugin_version":"2.1.0","time_elapsed":243211,"subject_id":"88738","group":"Group2","full_date":"2025-12-04T20:21:43.816Z","date":"2025-12-04","time":"20:21:43"},{"task":"memory_phase","broad_category":"M","image_png":"M_Quartzite_07.png","image_id":279,"category_name":"Quartzite","category":18,"distinct_rating":1.97,"distinct_type":"Bottom","rt":null,"stimulus":"Stimuli_Rocks480/M_Quartzite_07.png","response":null,"trial_type":"image-keyboard-response","trial_index":112,"plugin_version":"2.1.0","time_elapsed":245715,"subject_id":"88738","group":"Group2","full_date":"2025-12-04T20:21:43.816Z","date":"2025-12-04","time":"20:21:43"},{"rt":null,"stimulus":"<p style=\"font-size: 50px; margin: 0; text-align: center;\">+</p>","response":null,"trial_type":"html-keyboard-response","trial_index":113,"plugin_version":"2.1.0","time_elapsed":246717,"subject_id":"88738","group":"Group2","full_date":"2025-12-04T20:21:43.816Z","date":"2025-12-04","time":"20:21:43"},{"task":"memory_phase","broad_category":"I","image_png":"I_Andesite_04.png","image_id":4,"category_name":"Andesite","category":1,"distinct_rating":3.18,"distinct_type":"Bottom","rt":null,"stimulus":"Stimuli_Rocks480/I_Andesite_04.png","response":null,"trial_type":"image-keyboard-response","trial_index":114,"plugin_version":"2.1.0","time_elapsed":249220,"subject_id":"88738","group":"Group2","full_date":"2025-12-04T20:21:43.816Z","date":"2025-12-04","time":"20:21:43"},{"rt":null,"stimulus":"<p style=\"font-size: 50px; margin: 0; text-align: center;\">+</p>","response":null,"trial_type":"html-keyboard-response","trial_index":115,"plugin_version":"2.1.0","time_elapsed":250223,"subject_id":"88738","group":"Group2","full_date":"2025-12-04T20:21:43.816Z","date":"2025-12-04","time":"20:21:43"},{"task":"memory_phase","broad_category":"S","image_png":"S_Dolomite_16.png","image_id":400,"category_name":"Dolomite","category":25,"distinct_rating":1.71,"distinct_type":"Bottom","rt":null,"stimulus":"Stimuli_Rocks480/S_Dolomite_16.png","response":null,"trial_type":"image-keyboard-response","trial_index":116,"plugin_version":"2.1.0","time_elapsed":252726,"subject_id":"88738","group":"Group2","full_date":"2025-12-04T20:21:43.816Z","date":"2025-12-04","time":"20:21:43"},{"rt":null,"stimulus":"<p style=\"font-size: 50px; margin: 0; text-align: center;\">+</p>","response":null,"trial_type":"html-keyboard-response","trial_index":117,"plugin_version":"2.1.0","time_elapsed":253729,"subject_id":"88738","group":"Group2","full_date":"2025-12-04T20:21:43.816Z","date":"2025-12-04","time":"20:21:43"},{"task":"memory_phase","broad_category":"I","image_png":"I_Diorite_10.png","image_id":42,"category_name":"Diorite","category":3,"distinct_rating":2.84,"distinct_type":"Bottom","rt":null,"stimulus":"Stimuli_Rocks480/I_Diorite_10.png","response":null,"trial_type":"image-keyboard-response","trial_index":118,"plugin_version":"2.1.0","time_elapsed":256232,"subject_id":"88738","group":"Group2","full_date":"2025-12-04T20:21:43.816Z","date":"2025-12-04","time":"20:21:43"},{"rt":null,"stimulus":"<p style=\"font-size: 50px; margin: 0; text-align: center;\">+</p>","response":null,"trial_type":"html-keyboard-response","trial_index":119,"plugin_version":"2.1.0","time_elapsed":257235,"subject_id":"88738","group":"Group2","full_date":"2025-12-04T20:21:43.816Z","date":"2025-12-04","time":"20:21:43"},{"task":"memory_phase","broad_category":"M","image_png":"M_Gneiss_14.png","image_id":206,"category_name":"Gneiss","category":13,"distinct_rating":3.41,"distinct_type":"Bottom","rt":null,"stimulus":"Stimuli_Rocks480/M_Gneiss_14.png","response":null,"trial_type":"image-keyboard-response","trial_index":120,"plugin_version":"2.1.0","time_elapsed":259738,"subject_id":"88738","group":"Group2","full_date":"2025-12-04T20:21:43.816Z","date":"2025-12-04","time":"20:21:43"},{"rt":null,"stimulus":"<p style=\"font-size: 50px; margin: 0; text-align: center;\">+</p>","response":null,"trial_type":"html-keyboard-response","trial_index":121,"plugin_version":"2.1.0","time_elapsed":260741,"subject_id":"88738","group":"Group2","full_date":"2025-12-04T20:21:43.816Z","date":"2025-12-04","time":"20:21:43"},{"task":"memory_phase","broad_category":"I","image_png":"I_Basalt_08.png","image_id":24,"category_name":"Basalt","category":2,"distinct_rating":2.31,"distinct_type":"Bottom","rt":null,"stimulus":"Stimuli_Rocks480/I_Basalt_08.png","response":null,"trial_type":"image-keyboard-response","trial_index":122,"plugin_version":"2.1.0","time_elapsed":263244,"subject_id":"88738","group":"Group2","full_date":"2025-12-04T20:21:43.816Z","date":"2025-12-04","time":"20:21:43"},{"rt":null,"stimulus":"<p style=\"font-size: 50px; margin: 0; text-align: center;\">+</p>","response":null,"trial_type":"html-keyboard-response","trial_index":123,"plugin_version":"2.1.0","time_elapsed":264247,"subject_id":"88738","group":"Group2","full_date":"2025-12-04T20:21:43.816Z","date":"2025-12-04","time":"20:21:43"},{"task":"memory_phase","broad_category":"I","image_png":"I_Basalt_10.png","image_id":26,"category_name":"Basalt","category":2,"distinct_rating":2.76,"distinct_type":"Bottom","rt":null,"stimulus":"Stimuli_Rocks480/I_Basalt_10.png","response":null,"trial_type":"image-keyboard-response","trial_index":124,"plugin_version":"2.1.0","time_elapsed":266750,"subject_id":"88738","group":"Group2","full_date":"2025-12-04T20:21:43.816Z","date":"2025-12-04","time":"20:21:43"},{"rt":null,"stimulus":"<p style=\"font-size: 50px; margin: 0; text-align: center;\">+</p>","response":null,"trial_type":"html-keyboard-response","trial_index":125,"plugin_version":"2.1.0","time_elapsed":267753,"subject_id":"88738","group":"Group2","full_date":"2025-12-04T20:21:43.816Z","date":"2025-12-04","time":"20:21:43"},{"task":"memory_phase","broad_category":"S","image_png":"S_Dolomite_07.png","image_id":391,"category_name":"Dolomite","category":25,"distinct_rating":1.73,"distinct_type":"Bottom","rt":null,"stimulus":"Stimuli_Rocks480/S_Dolomite_07.png","response":null,"trial_type":"image-keyboard-response","trial_index":126,"plugin_version":"2.1.0","time_elapsed":270256,"subject_id":"88738","group":"Group2","full_date":"2025-12-04T20:21:43.816Z","date":"2025-12-04","time":"20:21:43"},{"rt":null,"stimulus":"<p style=\"font-size: 50px; margin: 0; text-align: center;\">+</p>","response":null,"trial_type":"html-keyboard-response","trial_index":127,"plugin_version":"2.1.0","time_elapsed":271258,"subject_id":"88738","group":"Group2","full_date":"2025-12-04T20:21:43.816Z","date":"2025-12-04","time":"20:21:43"},{"task":"memory_phase","broad_category":"I","image_png":"I_Pumice_14.png","image_id":142,"category_name":"Pumice","category":9,"distinct_rating":3.22,"distinct_type":"Bottom","rt":null,"stimulus":"Stimuli_Rocks480/I_Pumice_14.png","response":null,"trial_type":"image-keyboard-response","trial_index":128,"plugin_version":"2.1.0","time_elapsed":273762,"subject_id":"88738","group":"Group2","full_date":"2025-12-04T20:21:43.816Z","date":"2025-12-04","time":"20:21:43"},{"rt":null,"stimulus":"<p style=\"font-size: 50px; margin: 0; text-align: center;\">+</p>","response":null,"trial_type":"html-keyboard-response","trial_index":129,"plugin_version":"2.1.0","time_elapsed":274765,"subject_id":"88738","group":"Group2","full_date":"2025-12-04T20:21:43.816Z","date":"2025-12-04","time":"20:21:43"},{"task":"memory_phase","broad_category":"M","image_png":"M_Phyllite_05.png","image_id":261,"category_name":"Phyllite","category":17,"distinct_rating":2.14,"distinct_type":"Bottom","rt":null,"stimulus":"Stimuli_Rocks480/M_Phyllite_05.png","response":null,"trial_type":"image-keyboard-response","trial_index":130,"plugin_version":"2.1.0","time_elapsed":277269,"subject_id":"88738","group":"Group2","full_date":"2025-12-04T20:21:43.816Z","date":"2025-12-04","time":"20:21:43"},{"rt":null,"stimulus":"<p style=\"font-size: 50px; margin: 0; text-align: center;\">+</p>","response":null,"trial_type":"html-keyboard-response","trial_index":131,"plugin_version":"2.1.0","time_elapsed":278272,"subject_id":"88738","group":"Group2","full_date":"2025-12-04T20:21:43.816Z","date":"2025-12-04","time":"20:21:43"},{"task":"memory_phase","broad_category":"I","image_png":"I_Andesite_03.png","image_id":3,"category_name":"Andesite","category":1,"distinct_rating":3.17,"distinct_type":"Bottom","rt":null,"stimulus":"Stimuli_Rocks480/I_Andesite_03.png","response":null,"trial_type":"image-keyboard-response","trial_index":132,"plugin_version":"2.1.0","time_elapsed":280775,"subject_id":"88738","group":"Group2","full_date":"2025-12-04T20:21:43.816Z","date":"2025-12-04","time":"20:21:43"},{"rt":null,"stimulus":"<p style=\"font-size: 50px; margin: 0; text-align: center;\">+</p>","response":null,"trial_type":"html-keyboard-response","trial_index":133,"plugin_version":"2.1.0","time_elapsed":281777,"subject_id":"88738","group":"Group2","full_date":"2025-12-04T20:21:43.816Z","date":"2025-12-04","time":"20:21:43"},{"task":"memory_phase","broad_category":"S","image_png":"S_Rock Salt_15.png","image_id":447,"category_name":"Rock Salt","category":28,"distinct_rating":7.79,"distinct_type":"Top","rt":null,"stimulus":"Stimuli_Rocks480/S_Rock Salt_15.png","response":null,"trial_type":"image-keyboard-response","trial_index":134,"plugin_version":"2.1.0","time_elapsed":284280,"subject_id":"88738","group":"Group2","full_date":"2025-12-04T20:21:43.816Z","date":"2025-12-04","time":"20:21:43"},{"rt":null,"stimulus":"<p style=\"font-size: 50px; margin: 0; text-align: center;\">+</p>","response":null,"trial_type":"html-keyboard-response","trial_index":135,"plugin_version":"2.1.0","time_elapsed":285282,"subject_id":"88738","group":"Group2","full_date":"2025-12-04T20:21:43.816Z","date":"2025-12-04","time":"20:21:43"},{"task":"memory_phase","broad_category":"I","image_png":"I_Peridotite_13.png","image_id":125,"category_name":"Peridotite","category":8,"distinct_rating":7.28,"distinct_type":"Top","rt":null,"stimulus":"Stimuli_Rocks480/I_Peridotite_13.png","response":null,"trial_type":"image-keyboard-response","trial_index":136,"plugin_version":"2.1.0","time_elapsed":287785,"subject_id":"88738","group":"Group2","full_date":"2025-12-04T20:21:43.816Z","date":"2025-12-04","time":"20:21:43"},{"rt":null,"stimulus":"<p style=\"font-size: 50px; margin: 0; text-align: center;\">+</p>","response":null,"trial_type":"html-keyboard-response","trial_index":137,"plugin_version":"2.1.0","time_elapsed":288787,"subject_id":"88738","group":"Group2","full_date":"2025-12-04T20:21:43.816Z","date":"2025-12-04","time":"20:21:43"},{"task":"memory_phase","broad_category":"M","image_png":"M_Quartzite_15.png","image_id":287,"category_name":"Quartzite","category":18,"distinct_rating":2.19,"distinct_type":"Bottom","rt":null,"stimulus":"Stimuli_Rocks480/M_Quartzite_15.png","response":null,"trial_type":"image-keyboard-response","trial_index":138,"plugin_version":"2.1.0","time_elapsed":291290,"subject_id":"88738","group":"Group2","full_date":"2025-12-04T20:21:43.816Z","date":"2025-12-04","time":"20:21:43"},{"rt":null,"stimulus":"<p style=\"font-size: 50px; margin: 0; text-align: center;\">+</p>","response":null,"trial_type":"html-keyboard-response","trial_index":139,"plugin_version":"2.1.0","time_elapsed":292293,"subject_id":"88738","group":"Group2","full_date":"2025-12-04T20:21:43.816Z","date":"2025-12-04","time":"20:21:43"},{"task":"memory_phase","broad_category":"I","image_png":"I_Pegmatite_11.png","image_id":107,"category_name":"Pegmatite","category":7,"distinct_rating":7.11,"distinct_type":"Top","rt":null,"stimulus":"Stimuli_Rocks480/I_Pegmatite_11.png","response":null,"trial_type":"image-keyboard-response","trial_index":140,"plugin_version":"2.1.0","time_elapsed":294796,"subject_id":"88738","group":"Group2","full_date":"2025-12-04T20:21:43.816Z","date":"2025-12-04","time":"20:21:43"},{"rt":null,"stimulus":"<p style=\"font-size: 50px; margin: 0; text-align: center;\">+</p>","response":null,"trial_type":"html-keyboard-response","trial_index":141,"plugin_version":"2.1.0","time_elapsed":295799,"subject_id":"88738","group":"Group2","full_date":"2025-12-04T20:21:43.816Z","date":"2025-12-04","time":"20:21:43"},{"task":"memory_phase","broad_category":"I","image_png":"I_Obsidian_06.png","image_id":86,"category_name":"Obsidian","category":6,"distinct_rating":8.01,"distinct_type":"Top","rt":null,"stimulus":"Stimuli_Rocks480/I_Obsidian_06.png","response":null,"trial_type":"image-keyboard-response","trial_index":142,"plugin_version":"2.1.0","time_elapsed":298303,"subject_id":"88738","group":"Group2","full_date":"2025-12-04T20:21:43.816Z","date":"2025-12-04","time":"20:21:43"},{"rt":null,"stimulus":"<p style=\"font-size: 50px; margin: 0; text-align: center;\">+</p>","response":null,"trial_type":"html-keyboard-response","trial_index":143,"plugin_version":"2.1.0","time_elapsed":299305,"subject_id":"88738","group":"Group2","full_date":"2025-12-04T20:21:43.816Z","date":"2025-12-04","time":"20:21:43"},{"task":"memory_phase","broad_category":"S","image_png":"S_Conglomerate_14.png","image_id":382,"category_name":"Conglomerate","category":24,"distinct_rating":6.86,"distinct_type":"Top","rt":null,"stimulus":"Stimuli_Rocks480/S_Conglomerate_14.png","response":null,"trial_type":"image-keyboard-response","trial_index":144,"plugin_version":"2.1.0","time_elapsed":301808,"subject_id":"88738","group":"Group2","full_date":"2025-12-04T20:21:43.816Z","date":"2025-12-04","time":"20:21:43"},{"rt":null,"stimulus":"<p style=\"font-size: 50px; margin: 0; text-align: center;\">+</p>","response":null,"trial_type":"html-keyboard-response","trial_index":145,"plugin_version":"2.1.0","time_elapsed":302811,"subject_id":"88738","group":"Group2","full_date":"2025-12-04T20:21:43.816Z","date":"2025-12-04","time":"20:21:43"},{"task":"memory_phase","broad_category":"S","image_png":"S_Sandstone_04.png","image_id":452,"category_name":"Sandstone","category":29,"distinct_rating":1.8,"distinct_type":"Bottom","rt":null,"stimulus":"Stimuli_Rocks480/S_Sandstone_04.png","response":null,"trial_type":"image-keyboard-response","trial_index":146,"plugin_version":"2.1.0","time_elapsed":305315,"subject_id":"88738","group":"Group2","full_date":"2025-12-04T20:21:43.816Z","date":"2025-12-04","time":"20:21:43"},{"rt":null,"stimulus":"<p style=\"font-size: 50px; margin: 0; text-align: center;\">+</p>","response":null,"trial_type":"html-keyboard-response","trial_index":147,"plugin_version":"2.1.0","time_elapsed":306317,"subject_id":"88738","group":"Group2","full_date":"2025-12-04T20:21:43.816Z","date":"2025-12-04","time":"20:21:43"},{"task":"memory_phase","broad_category":"I","image_png":"I_Gabbro_12.png","image_id":60,"category_name":"Gabbro","category":4,"distinct_rating":2.6,"distinct_type":"Bottom","rt":null,"stimulus":"Stimuli_Rocks480/I_Gabbro_12.png","response":null,"trial_type":"image-keyboard-response","trial_index":148,"plugin_version":"2.1.0","time_elapsed":308821,"subject_id":"88738","group":"Group2","full_date":"2025-12-04T20:21:43.816Z","date":"2025-12-04","time":"20:21:43"},{"rt":null,"stimulus":"<p style=\"font-size: 50px; margin: 0; text-align: center;\">+</p>","response":null,"trial_type":"html-keyboard-response","trial_index":149,"plugin_version":"2.1.0","time_elapsed":309823,"subject_id":"88738","group":"Group2","full_date":"2025-12-04T20:21:43.816Z","date":"2025-12-04","time":"20:21:43"},{"task":"memory_phase","broad_category":"M","image_png":"M_Phyllite_02.png","image_id":258,"category_name":"Phyllite","category":17,"distinct_rating":2.89,"distinct_type":"Bottom","rt":null,"stimulus":"Stimuli_Rocks480/M_Phyllite_02.png","response":null,"trial_type":"image-keyboard-response","trial_index":150,"plugin_version":"2.1.0","time_elapsed":312326,"subject_id":"88738","group":"Group2","full_date":"2025-12-04T20:21:43.816Z","date":"2025-12-04","time":"20:21:43"},{"rt":null,"stimulus":"<p style=\"font-size: 50px; margin: 0; text-align: center;\">+</p>","response":null,"trial_type":"html-keyboard-response","trial_index":151,"plugin_version":"2.1.0","time_elapsed":313328,"subject_id":"88738","group":"Group2","full_date":"2025-12-04T20:21:43.816Z","date":"2025-12-04","time":"20:21:43"},{"task":"memory_phase","broad_category":"I","image_png":"I_Andesite_09.png","image_id":9,"category_name":"Andesite","category":1,"distinct_rating":2.49,"distinct_type":"Bottom","rt":null,"stimulus":"Stimuli_Rocks480/I_Andesite_09.png","response":null,"trial_type":"image-keyboard-response","trial_index":152,"plugin_version":"2.1.0","time_elapsed":315831,"subject_id":"88738","group":"Group2","full_date":"2025-12-04T20:21:43.816Z","date":"2025-12-04","time":"20:21:43"},{"rt":null,"stimulus":"<p style=\"font-size: 50px; margin: 0; text-align: center;\">+</p>","response":null,"trial_type":"html-keyboard-response","trial_index":153,"plugin_version":"2.1.0","time_elapsed":316833,"subject_id":"88738","group":"Group2","full_date":"2025-12-04T20:21:43.816Z","date":"2025-12-04","time":"20:21:43"},{"task":"memory_phase","broad_category":"M","image_png":"M_Gneiss_10.png","image_id":202,"category_name":"Gneiss","category":13,"distinct_rating":3.09,"distinct_type":"Bottom","rt":null,"stimulus":"Stimuli_Rocks480/M_Gneiss_10.png","response":null,"trial_type":"image-keyboard-response","trial_index":154,"plugin_version":"2.1.0","time_elapsed":319336,"subject_id":"88738","group":"Group2","full_date":"2025-12-04T20:21:43.816Z","date":"2025-12-04","time":"20:21:43"},{"rt":null,"stimulus":"<p style=\"font-size: 50px; margin: 0; text-align: center;\">+</p>","response":null,"trial_type":"html-keyboard-response","trial_index":155,"plugin_version":"2.1.0","time_elapsed":320339,"subject_id":"88738","group":"Group2","full_date":"2025-12-04T20:21:43.816Z","date":"2025-12-04","time":"20:21:43"},{"task":"memory_phase","broad_category":"S","image_png":"S_Shale_03.png","image_id":467,"category_name":"Shale","category":30,"distinct_rating":1.95,"distinct_type":"Bottom","rt":null,"stimulus":"Stimuli_Rocks480/S_Shale_03.png","response":null,"trial_type":"image-keyboard-response","trial_index":156,"plugin_version":"2.1.0","time_elapsed":322842,"subject_id":"88738","group":"Group2","full_date":"2025-12-04T20:21:43.816Z","date":"2025-12-04","time":"20:21:43"},{"rt":6697,"stimulus":"<p style=\"max-width: 760px; margin: auto; font-size: 35px; line-height: 1.5;\">Press SPACE to continue study phase</p>","response":" ","trial_type":"html-keyboard-response","trial_index":157,"plugin_version":"2.1.0","time_elapsed":329540,"subject_id":"88738","group":"Group2","full_date":"2025-12-04T20:21:43.816Z","date":"2025-12-04","time":"20:21:43"},{"rt":null,"stimulus":"<p style=\"font-size: 50px; margin: 0; text-align: center;\">+</p>","response":null,"trial_type":"html-keyboard-response","trial_index":158,"plugin_version":"2.1.0","time_elapsed":330543,"subject_id":"88738","group":"Group2","full_date":"2025-12-04T20:21:43.816Z","date":"2025-12-04","time":"20:21:43"},{"task":"memory_phase","broad_category":"I","image_png":"I_Gabbro_14.png","image_id":62,"category_name":"Gabbro","category":4,"distinct_rating":2.95,"distinct_type":"Bottom","rt":null,"stimulus":"Stimuli_Rocks480/I_Gabbro_14.png","response":null,"trial_type":"image-keyboard-response","trial_index":159,"plugin_version":"2.1.0","time_elapsed":333046,"subject_id":"88738","group":"Group2","full_date":"2025-12-04T20:21:43.816Z","date":"2025-12-04","time":"20:21:43"},{"rt":null,"stimulus":"<p style=\"font-size: 50px; margin: 0; text-align: center;\">+</p>","response":null,"trial_type":"html-keyboard-response","trial_index":160,"plugin_version":"2.1.0","time_elapsed":334049,"subject_id":"88738","group":"Group2","full_date":"2025-12-04T20:21:43.816Z","date":"2025-12-04","time":"20:21:43"},{"task":"memory_phase","broad_category":"I","image_png":"I_Pumice_13.png","image_id":141,"category_name":"Pumice","category":9,"distinct_rating":3.12,"distinct_type":"Bottom","rt":null,"stimulus":"Stimuli_Rocks480/I_Pumice_13.png","response":null,"trial_type":"image-keyboard-response","trial_index":161,"plugin_version":"2.1.0","time_elapsed":336552,"subject_id":"88738","group":"Group2","full_date":"2025-12-04T20:21:43.816Z","date":"2025-12-04","time":"20:21:43"},{"rt":null,"stimulus":"<p style=\"font-size: 50px; margin: 0; text-align: center;\">+</p>","response":null,"trial_type":"html-keyboard-response","trial_index":162,"plugin_version":"2.1.0","time_elapsed":337555,"subject_id":"88738","group":"Group2","full_date":"2025-12-04T20:21:43.816Z","date":"2025-12-04","time":"20:21:43"},{"task":"memory_phase","broad_category":"M","image_png":"M_Slate_04.png","image_id":308,"category_name":"Slate","category":20,"distinct_rating":2.2,"distinct_type":"Bottom","rt":null,"stimulus":"Stimuli_Rocks480/M_Slate_04.png","response":null,"trial_type":"image-keyboard-response","trial_index":163,"plugin_version":"2.1.0","time_elapsed":340058,"subject_id":"88738","group":"Group2","full_date":"2025-12-04T20:21:43.816Z","date":"2025-12-04","time":"20:21:43"},{"rt":null,"stimulus":"<p style=\"font-size: 50px; margin: 0; text-align: center;\">+</p>","response":null,"trial_type":"html-keyboard-response","trial_index":164,"plugin_version":"2.1.0","time_elapsed":341061,"subject_id":"88738","group":"Group2","full_date":"2025-12-04T20:21:43.816Z","date":"2025-12-04","time":"20:21:43"},{"task":"memory_phase","broad_category":"I","image_png":"I_Basalt_13.png","image_id":29,"category_name":"Basalt","category":2,"distinct_rating":2.68,"distinct_type":"Bottom","rt":null,"stimulus":"Stimuli_Rocks480/I_Basalt_13.png","response":null,"trial_type":"image-keyboard-response","trial_index":165,"plugin_version":"2.1.0","time_elapsed":343564,"subject_id":"88738","group":"Group2","full_date":"2025-12-04T20:21:43.816Z","date":"2025-12-04","time":"20:21:43"},{"rt":null,"stimulus":"<p style=\"font-size: 50px; margin: 0; text-align: center;\">+</p>","response":null,"trial_type":"html-keyboard-response","trial_index":166,"plugin_version":"2.1.0","time_elapsed":344567,"subject_id":"88738","group":"Group2","full_date":"2025-12-04T20:21:43.816Z","date":"2025-12-04","time":"20:21:43"},{"task":"memory_phase","broad_category":"I","image_png":"I_Pumice_01.png","image_id":129,"category_name":"Pumice","category":9,"distinct_rating":3.25,"distinct_type":"Bottom","rt":null,"stimulus":"Stimuli_Rocks480/I_Pumice_01.png","response":null,"trial_type":"image-keyboard-response","trial_index":167,"plugin_version":"2.1.0","time_elapsed":347069,"subject_id":"88738","group":"Group2","full_date":"2025-12-04T20:21:43.816Z","date":"2025-12-04","time":"20:21:43"},{"rt":null,"stimulus":"<p style=\"font-size: 50px; margin: 0; text-align: center;\">+</p>","response":null,"trial_type":"html-keyboard-response","trial_index":168,"plugin_version":"2.1.0","time_elapsed":348072,"subject_id":"88738","group":"Group2","full_date":"2025-12-04T20:21:43.816Z","date":"2025-12-04","time":"20:21:43"},{"task":"memory_phase","broad_category":"M","image_png":"M_Quartzite_12.png","image_id":284,"category_name":"Quartzite","category":18,"distinct_rating":1.92,"distinct_type":"Bottom","rt":null,"stimulus":"Stimuli_Rocks480/M_Quartzite_12.png","response":null,"trial_type":"image-keyboard-response","trial_index":169,"plugin_version":"2.1.0","time_elapsed":350575,"subject_id":"88738","group":"Group2","full_date":"2025-12-04T20:21:43.816Z","date":"2025-12-04","time":"20:21:43"},{"rt":null,"stimulus":"<p style=\"font-size: 50px; margin: 0; text-align: center;\">+</p>","response":null,"trial_type":"html-keyboard-response","trial_index":170,"plugin_version":"2.1.0","time_elapsed":351578,"subject_id":"88738","group":"Group2","full_date":"2025-12-04T20:21:43.816Z","date":"2025-12-04","time":"20:21:43"},{"task":"memory_phase","broad_category":"S","image_png":"S_Shale_02.png","image_id":466,"category_name":"Shale","category":30,"distinct_rating":2.9,"distinct_type":"Bottom","rt":null,"stimulus":"Stimuli_Rocks480/S_Shale_02.png","response":null,"trial_type":"image-keyboard-response","trial_index":171,"plugin_version":"2.1.0","time_elapsed":354081,"subject_id":"88738","group":"Group2","full_date":"2025-12-04T20:21:43.816Z","date":"2025-12-04","time":"20:21:43"},{"rt":null,"stimulus":"<p style=\"font-size: 50px; margin: 0; text-align: center;\">+</p>","response":null,"trial_type":"html-keyboard-response","trial_index":172,"plugin_version":"2.1.0","time_elapsed":355084,"subject_id":"88738","group":"Group2","full_date":"2025-12-04T20:21:43.816Z","date":"2025-12-04","time":"20:21:43"},{"task":"memory_phase","broad_category":"M","image_png":"M_Slate_10.png","image_id":314,"category_name":"Slate","category":20,"distinct_rating":1.94,"distinct_type":"Bottom","rt":null,"stimulus":"Stimuli_Rocks480/M_Slate_10.png","response":null,"trial_type":"image-keyboard-response","trial_index":173,"plugin_version":"2.1.0","time_elapsed":357587,"subject_id":"88738","group":"Group2","full_date":"2025-12-04T20:21:43.816Z","date":"2025-12-04","time":"20:21:43"},{"rt":null,"stimulus":"<p style=\"font-size: 50px; margin: 0; text-align: center;\">+</p>","response":null,"trial_type":"html-keyboard-response","trial_index":174,"plugin_version":"2.1.0","time_elapsed":358589,"subject_id":"88738","group":"Group2","full_date":"2025-12-04T20:21:43.816Z","date":"2025-12-04","time":"20:21:43"},{"task":"memory_phase","broad_category":"M","image_png":"M_Phyllite_13.png","image_id":269,"category_name":"Phyllite","category":17,"distinct_rating":2.8,"distinct_type":"Bottom","rt":null,"stimulus":"Stimuli_Rocks480/M_Phyllite_13.png","response":null,"trial_type":"image-keyboard-response","trial_index":175,"plugin_version":"2.1.0","time_elapsed":361093,"subject_id":"88738","group":"Group2","full_date":"2025-12-04T20:21:43.816Z","date":"2025-12-04","time":"20:21:43"},{"rt":null,"stimulus":"<p style=\"font-size: 50px; margin: 0; text-align: center;\">+</p>","response":null,"trial_type":"html-keyboard-response","trial_index":176,"plugin_version":"2.1.0","time_elapsed":362095,"subject_id":"88738","group":"Group2","full_date":"2025-12-04T20:21:43.816Z","date":"2025-12-04","time":"20:21:43"},{"task":"memory_phase","broad_category":"S","image_png":"S_Chert_13.png","image_id":365,"category_name":"Chert","category":23,"distinct_rating":6.57,"distinct_type":"Top","rt":null,"stimulus":"Stimuli_Rocks480/S_Chert_13.png","response":null,"trial_type":"image-keyboard-response","trial_index":177,"plugin_version":"2.1.0","time_elapsed":364598,"subject_id":"88738","group":"Group2","full_date":"2025-12-04T20:21:43.816Z","date":"2025-12-04","time":"20:21:43"},{"rt":null,"stimulus":"<p style=\"font-size: 50px; margin: 0; text-align: center;\">+</p>","response":null,"trial_type":"html-keyboard-response","trial_index":178,"plugin_version":"2.1.0","time_elapsed":365600,"subject_id":"88738","group":"Group2","full_date":"2025-12-04T20:21:43.816Z","date":"2025-12-04","time":"20:21:43"},{"task":"memory_phase","broad_category":"I","image_png":"I_Diorite_15.png","image_id":47,"category_name":"Diorite","category":3,"distinct_rating":3.05,"distinct_type":"Bottom","rt":null,"stimulus":"Stimuli_Rocks480/I_Diorite_15.png","response":null,"trial_type":"image-keyboard-response","trial_index":179,"plugin_version":"2.1.0","time_elapsed":368103,"subject_id":"88738","group":"Group2","full_date":"2025-12-04T20:21:43.816Z","date":"2025-12-04","time":"20:21:43"},{"rt":null,"stimulus":"<p style=\"font-size: 50px; margin: 0; text-align: center;\">+</p>","response":null,"trial_type":"html-keyboard-response","trial_index":180,"plugin_version":"2.1.0","time_elapsed":369105,"subject_id":"88738","group":"Group2","full_date":"2025-12-04T20:21:43.816Z","date":"2025-12-04","time":"20:21:43"},{"task":"memory_phase","broad_category":"I","image_png":"I_Rhyolite_05.png","image_id":149,"category_name":"Rhyolite","category":10,"distinct_rating":3.02,"distinct_type":"Bottom","rt":null,"stimulus":"Stimuli_Rocks480/I_Rhyolite_05.png","response":null,"trial_type":"image-keyboard-response","trial_index":181,"plugin_version":"2.1.0","time_elapsed":371608,"subject_id":"88738","group":"Group2","full_date":"2025-12-04T20:21:43.816Z","date":"2025-12-04","time":"20:21:43"},{"rt":null,"stimulus":"<p style=\"font-size: 50px; margin: 0; text-align: center;\">+</p>","response":null,"trial_type":"html-keyboard-response","trial_index":182,"plugin_version":"2.1.0","time_elapsed":372611,"subject_id":"88738","group":"Group2","full_date":"2025-12-04T20:21:43.816Z","date":"2025-12-04","time":"20:21:43"},{"task":"memory_phase","broad_category":"M","image_png":"M_Marble_02.png","image_id":226,"category_name":"Marble","category":15,"distinct_rating":3.2,"distinct_type":"Bottom","rt":null,"stimulus":"Stimuli_Rocks480/M_Marble_02.png","response":null,"trial_type":"image-keyboard-response","trial_index":183,"plugin_version":"2.1.0","time_elapsed":375114,"subject_id":"88738","group":"Group2","full_date":"2025-12-04T20:21:43.816Z","date":"2025-12-04","time":"20:21:43"},{"rt":null,"stimulus":"<p style=\"font-size: 50px; margin: 0; text-align: center;\">+</p>","response":null,"trial_type":"html-keyboard-response","trial_index":184,"plugin_version":"2.1.0","time_elapsed":376116,"subject_id":"88738","group":"Group2","full_date":"2025-12-04T20:21:43.816Z","date":"2025-12-04","time":"20:21:43"},{"task":"memory_phase","broad_category":"S","image_png":"S_Sandstone_11.png","image_id":459,"category_name":"Sandstone","category":29,"distinct_rating":1.82,"distinct_type":"Bottom","rt":null,"stimulus":"Stimuli_Rocks480/S_Sandstone_11.png","response":null,"trial_type":"image-keyboard-response","trial_index":185,"plugin_version":"2.1.0","time_elapsed":378619,"subject_id":"88738","group":"Group2","full_date":"2025-12-04T20:21:43.816Z","date":"2025-12-04","time":"20:21:43"},{"rt":null,"stimulus":"<p style=\"font-size: 50px; margin: 0; text-align: center;\">+</p>","response":null,"trial_type":"html-keyboard-response","trial_index":186,"plugin_version":"2.1.0","time_elapsed":379622,"subject_id":"88738","group":"Group2","full_date":"2025-12-04T20:21:43.816Z","date":"2025-12-04","time":"20:21:43"},{"task":"memory_phase","broad_category":"S","image_png":"S_Dolomite_01.png","image_id":385,"category_name":"Dolomite","category":25,"distinct_rating":1.43,"distinct_type":"Bottom","rt":null,"stimulus":"Stimuli_Rocks480/S_Dolomite_01.png","response":null,"trial_type":"image-keyboard-response","trial_index":187,"plugin_version":"2.1.0","time_elapsed":382125,"subject_id":"88738","group":"Group2","full_date":"2025-12-04T20:21:43.816Z","date":"2025-12-04","time":"20:21:43"},{"rt":null,"stimulus":"<p style=\"font-size: 50px; margin: 0; text-align: center;\">+</p>","response":null,"trial_type":"html-keyboard-response","trial_index":188,"plugin_version":"2.1.0","time_elapsed":383128,"subject_id":"88738","group":"Group2","full_date":"2025-12-04T20:21:43.816Z","date":"2025-12-04","time":"20:21:43"},{"task":"memory_phase","broad_category":"I","image_png":"I_Gabbro_02.png","image_id":50,"category_name":"Gabbro","category":4,"distinct_rating":2.73,"distinct_type":"Bottom","rt":null,"stimulus":"Stimuli_Rocks480/I_Gabbro_02.png","response":null,"trial_type":"image-keyboard-response","trial_index":189,"plugin_version":"2.1.0","time_elapsed":385631,"subject_id":"88738","group":"Group2","full_date":"2025-12-04T20:21:43.816Z","date":"2025-12-04","time":"20:21:43"},{"rt":null,"stimulus":"<p style=\"font-size: 50px; margin: 0; text-align: center;\">+</p>","response":null,"trial_type":"html-keyboard-response","trial_index":190,"plugin_version":"2.1.0","time_elapsed":386633,"subject_id":"88738","group":"Group2","full_date":"2025-12-04T20:21:43.816Z","date":"2025-12-04","time":"20:21:43"},{"task":"memory_phase","broad_category":"M","image_png":"M_Gneiss_15.png","image_id":207,"category_name":"Gneiss","category":13,"distinct_rating":3.11,"distinct_type":"Bottom","rt":null,"stimulus":"Stimuli_Rocks480/M_Gneiss_15.png","response":null,"trial_type":"image-keyboard-response","trial_index":191,"plugin_version":"2.1.0","time_elapsed":389137,"subject_id":"88738","group":"Group2","full_date":"2025-12-04T20:21:43.816Z","date":"2025-12-04","time":"20:21:43"},{"rt":null,"stimulus":"<p style=\"font-size: 50px; margin: 0; text-align: center;\">+</p>","response":null,"trial_type":"html-keyboard-response","trial_index":192,"plugin_version":"2.1.0","time_elapsed":390139,"subject_id":"88738","group":"Group2","full_date":"2025-12-04T20:21:43.816Z","date":"2025-12-04","time":"20:21:43"},{"task":"memory_phase","broad_category":"S","image_png":"S_Shale_07.png","image_id":471,"category_name":"Shale","category":30,"distinct_rating":2.73,"distinct_type":"Bottom","rt":null,"stimulus":"Stimuli_Rocks480/S_Shale_07.png","response":null,"trial_type":"image-keyboard-response","trial_index":193,"plugin_version":"2.1.0","time_elapsed":392643,"subject_id":"88738","group":"Group2","full_date":"2025-12-04T20:21:43.816Z","date":"2025-12-04","time":"20:21:43"},{"rt":null,"stimulus":"<p style=\"font-size: 50px; margin: 0; text-align: center;\">+</p>","response":null,"trial_type":"html-keyboard-response","trial_index":194,"plugin_version":"2.1.0","time_elapsed":393645,"subject_id":"88738","group":"Group2","full_date":"2025-12-04T20:21:43.816Z","date":"2025-12-04","time":"20:21:43"},{"task":"memory_phase","broad_category":"I","image_png":"I_Rhyolite_08.png","image_id":152,"category_name":"Rhyolite","category":10,"distinct_rating":1.38,"distinct_type":"Bottom","rt":null,"stimulus":"Stimuli_Rocks480/I_Rhyolite_08.png","response":null,"trial_type":"image-keyboard-response","trial_index":195,"plugin_version":"2.1.0","time_elapsed":396148,"subject_id":"88738","group":"Group2","full_date":"2025-12-04T20:21:43.816Z","date":"2025-12-04","time":"20:21:43"},{"rt":null,"stimulus":"<p style=\"font-size: 50px; margin: 0; text-align: center;\">+</p>","response":null,"trial_type":"html-keyboard-response","trial_index":196,"plugin_version":"2.1.0","time_elapsed":397151,"subject_id":"88738","group":"Group2","full_date":"2025-12-04T20:21:43.816Z","date":"2025-12-04","time":"20:21:43"},{"task":"memory_phase","broad_category":"M","image_png":"M_Marble_03.png","image_id":227,"category_name":"Marble","category":15,"distinct_rating":2.67,"distinct_type":"Bottom","rt":null,"stimulus":"Stimuli_Rocks480/M_Marble_03.png","response":null,"trial_type":"image-keyboard-response","trial_index":197,"plugin_version":"2.1.0","time_elapsed":399654,"subject_id":"88738","group":"Group2","full_date":"2025-12-04T20:21:43.816Z","date":"2025-12-04","time":"20:21:43"},{"rt":null,"stimulus":"<p style=\"font-size: 50px; margin: 0; text-align: center;\">+</p>","response":null,"trial_type":"html-keyboard-response","trial_index":198,"plugin_version":"2.1.0","time_elapsed":400657,"subject_id":"88738","group":"Group2","full_date":"2025-12-04T20:21:43.816Z","date":"2025-12-04","time":"20:21:43"},{"task":"memory_phase","broad_category":"M","image_png":"M_Slate_14.png","image_id":318,"category_name":"Slate","category":20,"distinct_rating":2.58,"distinct_type":"Bottom","rt":null,"stimulus":"Stimuli_Rocks480/M_Slate_14.png","response":null,"trial_type":"image-keyboard-response","trial_index":199,"plugin_version":"2.1.0","time_elapsed":403160,"subject_id":"88738","group":"Group2","full_date":"2025-12-04T20:21:43.816Z","date":"2025-12-04","time":"20:21:43"},{"rt":null,"stimulus":"<p style=\"font-size: 50px; margin: 0; text-align: center;\">+</p>","response":null,"trial_type":"html-keyboard-response","trial_index":200,"plugin_version":"2.1.0","time_elapsed":404162,"subject_id":"88738","group":"Group2","full_date":"2025-12-04T20:21:43.816Z","date":"2025-12-04","time":"20:21:43"},{"task":"memory_phase","broad_category":"I","image_png":"I_Diorite_01.png","image_id":33,"category_name":"Diorite","category":3,"distinct_rating":2.97,"distinct_type":"Bottom","rt":null,"stimulus":"Stimuli_Rocks480/I_Diorite_01.png","response":null,"trial_type":"image-keyboard-response","trial_index":201,"plugin_version":"2.1.0","time_elapsed":406665,"subject_id":"88738","group":"Group2","full_date":"2025-12-04T20:21:43.816Z","date":"2025-12-04","time":"20:21:43"},{"rt":null,"stimulus":"<p style=\"font-size: 50px; margin: 0; text-align: center;\">+</p>","response":null,"trial_type":"html-keyboard-response","trial_index":202,"plugin_version":"2.1.0","time_elapsed":407668,"subject_id":"88738","group":"Group2","full_date":"2025-12-04T20:21:43.816Z","date":"2025-12-04","time":"20:21:43"},{"task":"memory_phase","broad_category":"M","image_png":"M_Marble_14.png","image_id":238,"category_name":"Marble","category":15,"distinct_rating":3.31,"distinct_type":"Bottom","rt":null,"stimulus":"Stimuli_Rocks480/M_Marble_14.png","response":null,"trial_type":"image-keyboard-response","trial_index":203,"plugin_version":"2.1.0","time_elapsed":410171,"subject_id":"88738","group":"Group2","full_date":"2025-12-04T20:21:43.816Z","date":"2025-12-04","time":"20:21:43"},{"rt":null,"stimulus":"<p style=\"font-size: 50px; margin: 0; text-align: center;\">+</p>","response":null,"trial_type":"html-keyboard-response","trial_index":204,"plugin_version":"2.1.0","time_elapsed":411173,"subject_id":"88738","group":"Group2","full_date":"2025-12-04T20:21:43.816Z","date":"2025-12-04","time":"20:21:43"},{"task":"memory_phase","broad_category":"S","image_png":"S_Rock Salt_13.png","image_id":445,"category_name":"Rock Salt","category":28,"distinct_rating":7.58,"distinct_type":"Top","rt":null,"stimulus":"Stimuli_Rocks480/S_Rock Salt_13.png","response":null,"trial_type":"image-keyboard-response","trial_index":205,"plugin_version":"2.1.0","time_elapsed":413677,"subject_id":"88738","group":"Group2","full_date":"2025-12-04T20:21:43.816Z","date":"2025-12-04","time":"20:21:43"},{"rt":null,"stimulus":"<p style=\"font-size: 50px; margin: 0; text-align: center;\">+</p>","response":null,"trial_type":"html-keyboard-response","trial_index":206,"plugin_version":"2.1.0","time_elapsed":414679,"subject_id":"88738","group":"Group2","full_date":"2025-12-04T20:21:43.816Z","date":"2025-12-04","time":"20:21:43"},{"task":"memory_phase","broad_category":"I","image_png":"I_Pegmatite_03.png","image_id":99,"category_name":"Pegmatite","category":7,"distinct_rating":7.24,"distinct_type":"Top","rt":null,"stimulus":"Stimuli_Rocks480/I_Pegmatite_03.png","response":null,"trial_type":"image-keyboard-response","trial_index":207,"plugin_version":"2.1.0","time_elapsed":417182,"subject_id":"88738","group":"Group2","full_date":"2025-12-04T20:21:43.816Z","date":"2025-12-04","time":"20:21:43"},{"rt":7868,"stimulus":"<p style=\"max-width: 760px; margin: auto; font-size: 35px; line-height: 1.5;\">You have completed 2 study phases. Now, we'll show you all the images again 1 more time.<br><br>Press SPACE to continue</p>","response":" ","trial_type":"html-keyboard-response","trial_index":208,"plugin_version":"2.1.0","time_elapsed":425052,"subject_id":"88738","group":"Group2","full_date":"2025-12-04T20:21:43.816Z","date":"2025-12-04","time":"20:21:43"},{"rt":null,"stimulus":"<p style=\"font-size: 50px; margin: 0; text-align: center;\">+</p>","response":null,"trial_type":"html-keyboard-response","trial_index":209,"plugin_version":"2.1.0","time_elapsed":426055,"subject_id":"88738","group":"Group2","full_date":"2025-12-04T20:21:43.816Z","date":"2025-12-04","time":"20:21:43"},{"task":"memory_phase","broad_category":"I","image_png":"I_Rhyolite_05.png","image_id":149,"category_name":"Rhyolite","category":10,"distinct_rating":3.02,"distinct_type":"Bottom","rt":null,"stimulus":"Stimuli_Rocks480/I_Rhyolite_05.png","response":null,"trial_type":"image-keyboard-response","trial_index":210,"plugin_version":"2.1.0","time_elapsed":428558,"subject_id":"88738","group":"Group2","full_date":"2025-12-04T20:21:43.816Z","date":"2025-12-04","time":"20:21:43"},{"rt":null,"stimulus":"<p style=\"font-size: 50px; margin: 0; text-align: center;\">+</p>","response":null,"trial_type":"html-keyboard-response","trial_index":211,"plugin_version":"2.1.0","time_elapsed":429560,"subject_id":"88738","group":"Group2","full_date":"2025-12-04T20:21:43.816Z","date":"2025-12-04","time":"20:21:43"},{"task":"memory_phase","broad_category":"I","image_png":"I_Pegmatite_11.png","image_id":107,"category_name":"Pegmatite","category":7,"distinct_rating":7.11,"distinct_type":"Top","rt":null,"stimulus":"Stimuli_Rocks480/I_Pegmatite_11.png","response":null,"trial_type":"image-keyboard-response","trial_index":212,"plugin_version":"2.1.0","time_elapsed":432064,"subject_id":"88738","group":"Group2","full_date":"2025-12-04T20:21:43.816Z","date":"2025-12-04","time":"20:21:43"},{"rt":null,"stimulus":"<p style=\"font-size: 50px; margin: 0; text-align: center;\">+</p>","response":null,"trial_type":"html-keyboard-response","trial_index":213,"plugin_version":"2.1.0","time_elapsed":433066,"subject_id":"88738","group":"Group2","full_date":"2025-12-04T20:21:43.816Z","date":"2025-12-04","time":"20:21:43"},{"task":"memory_phase","broad_category":"S","image_png":"S_Rock Salt_13.png","image_id":445,"category_name":"Rock Salt","category":28,"distinct_rating":7.58,"distinct_type":"Top","rt":null,"stimulus":"Stimuli_Rocks480/S_Rock Salt_13.png","response":null,"trial_type":"image-keyboard-response","trial_index":214,"plugin_version":"2.1.0","time_elapsed":435570,"subject_id":"88738","group":"Group2","full_date":"2025-12-04T20:21:43.816Z","date":"2025-12-04","time":"20:21:43"},{"rt":null,"stimulus":"<p style=\"font-size: 50px; margin: 0; text-align: center;\">+</p>","response":null,"trial_type":"html-keyboard-response","trial_index":215,"plugin_version":"2.1.0","time_elapsed":436572,"subject_id":"88738","group":"Group2","full_date":"2025-12-04T20:21:43.816Z","date":"2025-12-04","time":"20:21:43"},{"task":"memory_phase","broad_category":"S","image_png":"S_Sandstone_04.png","image_id":452,"category_name":"Sandstone","category":29,"distinct_rating":1.8,"distinct_type":"Bottom","rt":null,"stimulus":"Stimuli_Rocks480/S_Sandstone_04.png","response":null,"trial_type":"image-keyboard-response","trial_index":216,"plugin_version":"2.1.0","time_elapsed":439075,"subject_id":"88738","group":"Group2","full_date":"2025-12-04T20:21:43.816Z","date":"2025-12-04","time":"20:21:43"},{"rt":null,"stimulus":"<p style=\"font-size: 50px; margin: 0; text-align: center;\">+</p>","response":null,"trial_type":"html-keyboard-response","trial_index":217,"plugin_version":"2.1.0","time_elapsed":440077,"subject_id":"88738","group":"Group2","full_date":"2025-12-04T20:21:43.816Z","date":"2025-12-04","time":"20:21:43"},{"task":"memory_phase","broad_category":"M","image_png":"M_Marble_02.png","image_id":226,"category_name":"Marble","category":15,"distinct_rating":3.2,"distinct_type":"Bottom","rt":null,"stimulus":"Stimuli_Rocks480/M_Marble_02.png","response":null,"trial_type":"image-keyboard-response","trial_index":218,"plugin_version":"2.1.0","time_elapsed":442580,"subject_id":"88738","group":"Group2","full_date":"2025-12-04T20:21:43.816Z","date":"2025-12-04","time":"20:21:43"},{"rt":null,"stimulus":"<p style=\"font-size: 50px; margin: 0; text-align: center;\">+</p>","response":null,"trial_type":"html-keyboard-response","trial_index":219,"plugin_version":"2.1.0","time_elapsed":443582,"subject_id":"88738","group":"Group2","full_date":"2025-12-04T20:21:43.816Z","date":"2025-12-04","time":"20:21:43"},{"task":"memory_phase","broad_category":"S","image_png":"S_Sandstone_08.png","image_id":456,"category_name":"Sandstone","category":29,"distinct_rating":1.5,"distinct_type":"Bottom","rt":null,"stimulus":"Stimuli_Rocks480/S_Sandstone_08.png","response":null,"trial_type":"image-keyboard-response","trial_index":220,"plugin_version":"2.1.0","time_elapsed":446086,"subject_id":"88738","group":"Group2","full_date":"2025-12-04T20:21:43.816Z","date":"2025-12-04","time":"20:21:43"},{"rt":null,"stimulus":"<p style=\"font-size: 50px; margin: 0; text-align: center;\">+</p>","response":null,"trial_type":"html-keyboard-response","trial_index":221,"plugin_version":"2.1.0","time_elapsed":447089,"subject_id":"88738","group":"Group2","full_date":"2025-12-04T20:21:43.816Z","date":"2025-12-04","time":"20:21:43"},{"task":"memory_phase","broad_category":"M","image_png":"M_Slate_10.png","image_id":314,"category_name":"Slate","category":20,"distinct_rating":1.94,"distinct_type":"Bottom","rt":null,"stimulus":"Stimuli_Rocks480/M_Slate_10.png","response":null,"trial_type":"image-keyboard-response","trial_index":222,"plugin_version":"2.1.0","time_elapsed":449592,"subject_id":"88738","group":"Group2","full_date":"2025-12-04T20:21:43.816Z","date":"2025-12-04","time":"20:21:43"},{"rt":null,"stimulus":"<p style=\"font-size: 50px; margin: 0; text-align: center;\">+</p>","response":null,"trial_type":"html-keyboard-response","trial_index":223,"plugin_version":"2.1.0","time_elapsed":450594,"subject_id":"88738","group":"Group2","full_date":"2025-12-04T20:21:43.816Z","date":"2025-12-04","time":"20:21:43"},{"task":"memory_phase","broad_category":"M","image_png":"M_Gneiss_10.png","image_id":202,"category_name":"Gneiss","category":13,"distinct_rating":3.09,"distinct_type":"Bottom","rt":null,"stimulus":"Stimuli_Rocks480/M_Gneiss_10.png","response":null,"trial_type":"image-keyboard-response","trial_index":224,"plugin_version":"2.1.0","time_elapsed":453098,"subject_id":"88738","group":"Group2","full_date":"2025-12-04T20:21:43.816Z","date":"2025-12-04","time":"20:21:43"},{"rt":null,"stimulus":"<p style=\"font-size: 50px; margin: 0; text-align: center;\">+</p>","response":null,"trial_type":"html-keyboard-response","trial_index":225,"plugin_version":"2.1.0","time_elapsed":454100,"subject_id":"88738","group":"Group2","full_date":"2025-12-04T20:21:43.816Z","date":"2025-12-04","time":"20:21:43"},{"task":"memory_phase","broad_category":"I","image_png":"I_Pumice_13.png","image_id":141,"category_name":"Pumice","category":9,"distinct_rating":3.12,"distinct_type":"Bottom","rt":null,"stimulus":"Stimuli_Rocks480/I_Pumice_13.png","response":null,"trial_type":"image-keyboard-response","trial_index":226,"plugin_version":"2.1.0","time_elapsed":456604,"subject_id":"88738","group":"Group2","full_date":"2025-12-04T20:21:43.816Z","date":"2025-12-04","time":"20:21:43"},{"rt":null,"stimulus":"<p style=\"font-size: 50px; margin: 0; text-align: center;\">+</p>","response":null,"trial_type":"html-keyboard-response","trial_index":227,"plugin_version":"2.1.0","time_elapsed":457606,"subject_id":"88738","group":"Group2","full_date":"2025-12-04T20:21:43.816Z","date":"2025-12-04","time":"20:21:43"},{"task":"memory_phase","broad_category":"M","image_png":"M_Phyllite_05.png","image_id":261,"category_name":"Phyllite","category":17,"distinct_rating":2.14,"distinct_type":"Bottom","rt":null,"stimulus":"Stimuli_Rocks480/M_Phyllite_05.png","response":null,"trial_type":"image-keyboard-response","trial_index":228,"plugin_version":"2.1.0","time_elapsed":460110,"subject_id":"88738","group":"Group2","full_date":"2025-12-04T20:21:43.816Z","date":"2025-12-04","time":"20:21:43"},{"rt":null,"stimulus":"<p style=\"font-size: 50px; margin: 0; text-align: center;\">+</p>","response":null,"trial_type":"html-keyboard-response","trial_index":229,"plugin_version":"2.1.0","time_elapsed":461112,"subject_id":"88738","group":"Group2","full_date":"2025-12-04T20:21:43.816Z","date":"2025-12-04","time":"20:21:43"},{"task":"memory_phase","broad_category":"I","image_png":"I_Andesite_03.png","image_id":3,"category_name":"Andesite","category":1,"distinct_rating":3.17,"distinct_type":"Bottom","rt":null,"stimulus":"Stimuli_Rocks480/I_Andesite_03.png","response":null,"trial_type":"image-keyboard-response","trial_index":230,"plugin_version":"2.1.0","time_elapsed":463615,"subject_id":"88738","group":"Group2","full_date":"2025-12-04T20:21:43.816Z","date":"2025-12-04","time":"20:21:43"},{"rt":null,"stimulus":"<p style=\"font-size: 50px; margin: 0; text-align: center;\">+</p>","response":null,"trial_type":"html-keyboard-response","trial_index":231,"plugin_version":"2.1.0","time_elapsed":464618,"subject_id":"88738","group":"Group2","full_date":"2025-12-04T20:21:43.816Z","date":"2025-12-04","time":"20:21:43"},{"task":"memory_phase","broad_category":"M","image_png":"M_Quartzite_12.png","image_id":284,"category_name":"Quartzite","category":18,"distinct_rating":1.92,"distinct_type":"Bottom","rt":null,"stimulus":"Stimuli_Rocks480/M_Quartzite_12.png","response":null,"trial_type":"image-keyboard-response","trial_index":232,"plugin_version":"2.1.0","time_elapsed":467121,"subject_id":"88738","group":"Group2","full_date":"2025-12-04T20:21:43.816Z","date":"2025-12-04","time":"20:21:43"},{"rt":null,"stimulus":"<p style=\"font-size: 50px; margin: 0; text-align: center;\">+</p>","response":null,"trial_type":"html-keyboard-response","trial_index":233,"plugin_version":"2.1.0","time_elapsed":468124,"subject_id":"88738","group":"Group2","full_date":"2025-12-04T20:21:43.816Z","date":"2025-12-04","time":"20:21:43"},{"task":"memory_phase","broad_category":"I","image_png":"I_Basalt_13.png","image_id":29,"category_name":"Basalt","category":2,"distinct_rating":2.68,"distinct_type":"Bottom","rt":null,"stimulus":"Stimuli_Rocks480/I_Basalt_13.png","response":null,"trial_type":"image-keyboard-response","trial_index":234,"plugin_version":"2.1.0","time_elapsed":470627,"subject_id":"88738","group":"Group2","full_date":"2025-12-04T20:21:43.816Z","date":"2025-12-04","time":"20:21:43"},{"rt":null,"stimulus":"<p style=\"font-size: 50px; margin: 0; text-align: center;\">+</p>","response":null,"trial_type":"html-keyboard-response","trial_index":235,"plugin_version":"2.1.0","time_elapsed":471629,"subject_id":"88738","group":"Group2","full_date":"2025-12-04T20:21:43.816Z","date":"2025-12-04","time":"20:21:43"},{"task":"memory_phase","broad_category":"I","image_png":"I_Peridotite_13.png","image_id":125,"category_name":"Peridotite","category":8,"distinct_rating":7.28,"distinct_type":"Top","rt":null,"stimulus":"Stimuli_Rocks480/I_Peridotite_13.png","response":null,"trial_type":"image-keyboard-response","trial_index":236,"plugin_version":"2.1.0","time_elapsed":474133,"subject_id":"88738","group":"Group2","full_date":"2025-12-04T20:21:43.816Z","date":"2025-12-04","time":"20:21:43"},{"rt":null,"stimulus":"<p style=\"font-size: 50px; margin: 0; text-align: center;\">+</p>","response":null,"trial_type":"html-keyboard-response","trial_index":237,"plugin_version":"2.1.0","time_elapsed":475135,"subject_id":"88738","group":"Group2","full_date":"2025-12-04T20:21:43.816Z","date":"2025-12-04","time":"20:21:43"},{"task":"memory_phase","broad_category":"S","image_png":"S_Sandstone_11.png","image_id":459,"category_name":"Sandstone","category":29,"distinct_rating":1.82,"distinct_type":"Bottom","rt":null,"stimulus":"Stimuli_Rocks480/S_Sandstone_11.png","response":null,"trial_type":"image-keyboard-response","trial_index":238,"plugin_version":"2.1.0","time_elapsed":477639,"subject_id":"88738","group":"Group2","full_date":"2025-12-04T20:21:43.816Z","date":"2025-12-04","time":"20:21:43"},{"rt":null,"stimulus":"<p style=\"font-size: 50px; margin: 0; text-align: center;\">+</p>","response":null,"trial_type":"html-keyboard-response","trial_index":239,"plugin_version":"2.1.0","time_elapsed":478642,"subject_id":"88738","group":"Group2","full_date":"2025-12-04T20:21:43.816Z","date":"2025-12-04","time":"20:21:43"},{"task":"memory_phase","broad_category":"S","image_png":"S_Shale_07.png","image_id":471,"category_name":"Shale","category":30,"distinct_rating":2.73,"distinct_type":"Bottom","rt":null,"stimulus":"Stimuli_Rocks480/S_Shale_07.png","response":null,"trial_type":"image-keyboard-response","trial_index":240,"plugin_version":"2.1.0","time_elapsed":481145,"subject_id":"88738","group":"Group2","full_date":"2025-12-04T20:21:43.816Z","date":"2025-12-04","time":"20:21:43"},{"rt":null,"stimulus":"<p style=\"font-size: 50px; margin: 0; text-align: center;\">+</p>","response":null,"trial_type":"html-keyboard-response","trial_index":241,"plugin_version":"2.1.0","time_elapsed":482148,"subject_id":"88738","group":"Group2","full_date":"2025-12-04T20:21:43.816Z","date":"2025-12-04","time":"20:21:43"},{"task":"memory_phase","broad_category":"I","image_png":"I_Gabbro_14.png","image_id":62,"category_name":"Gabbro","category":4,"distinct_rating":2.95,"distinct_type":"Bottom","rt":null,"stimulus":"Stimuli_Rocks480/I_Gabbro_14.png","response":null,"trial_type":"image-keyboard-response","trial_index":242,"plugin_version":"2.1.0","time_elapsed":484652,"subject_id":"88738","group":"Group2","full_date":"2025-12-04T20:21:43.816Z","date":"2025-12-04","time":"20:21:43"},{"rt":null,"stimulus":"<p style=\"font-size: 50px; margin: 0; text-align: center;\">+</p>","response":null,"trial_type":"html-keyboard-response","trial_index":243,"plugin_version":"2.1.0","time_elapsed":485654,"subject_id":"88738","group":"Group2","full_date":"2025-12-04T20:21:43.816Z","date":"2025-12-04","time":"20:21:43"},{"task":"memory_phase","broad_category":"I","image_png":"I_Obsidian_06.png","image_id":86,"category_name":"Obsidian","category":6,"distinct_rating":8.01,"distinct_type":"Top","rt":null,"stimulus":"Stimuli_Rocks480/I_Obsidian_06.png","response":null,"trial_type":"image-keyboard-response","trial_index":244,"plugin_version":"2.1.0","time_elapsed":488156,"subject_id":"88738","group":"Group2","full_date":"2025-12-04T20:21:43.816Z","date":"2025-12-04","time":"20:21:43"},{"rt":null,"stimulus":"<p style=\"font-size: 50px; margin: 0; text-align: center;\">+</p>","response":null,"trial_type":"html-keyboard-response","trial_index":245,"plugin_version":"2.1.0","time_elapsed":489159,"subject_id":"88738","group":"Group2","full_date":"2025-12-04T20:21:43.816Z","date":"2025-12-04","time":"20:21:43"},{"task":"memory_phase","broad_category":"I","image_png":"I_Diorite_10.png","image_id":42,"category_name":"Diorite","category":3,"distinct_rating":2.84,"distinct_type":"Bottom","rt":null,"stimulus":"Stimuli_Rocks480/I_Diorite_10.png","response":null,"trial_type":"image-keyboard-response","trial_index":246,"plugin_version":"2.1.0","time_elapsed":491663,"subject_id":"88738","group":"Group2","full_date":"2025-12-04T20:21:43.816Z","date":"2025-12-04","time":"20:21:43"},{"rt":null,"stimulus":"<p style=\"font-size: 50px; margin: 0; text-align: center;\">+</p>","response":null,"trial_type":"html-keyboard-response","trial_index":247,"plugin_version":"2.1.0","time_elapsed":492665,"subject_id":"88738","group":"Group2","full_date":"2025-12-04T20:21:43.816Z","date":"2025-12-04","time":"20:21:43"},{"task":"memory_phase","broad_category":"M","image_png":"M_Quartzite_07.png","image_id":279,"category_name":"Quartzite","category":18,"distinct_rating":1.97,"distinct_type":"Bottom","rt":null,"stimulus":"Stimuli_Rocks480/M_Quartzite_07.png","response":null,"trial_type":"image-keyboard-response","trial_index":248,"plugin_version":"2.1.0","time_elapsed":495168,"subject_id":"