[{"width":1440,"height":820,"webaudio":true,"browser":"safari","browser_version":"16.5.0","mobile":false,"os":"Mac OS","fullscreen":true,"vsync_rate":60.3,"webcam":true,"microphone":true,"trial_type":"browser-check","trial_index":0,"plugin_version":"2.1.0","time_elapsed":1003,"subject_id":"87392","group":"Group1","full_date":"2025-12-07T02:39:38.612Z","date":"2025-12-07","time":"02:39:38"},{"success":true,"timeout":false,"failed_images":[],"failed_audio":[],"failed_video":[],"trial_type":"preload","trial_index":1,"plugin_version":"2.1.0","time_elapsed":2960,"subject_id":"87392","group":"Group1","full_date":"2025-12-07T02:39:38.612Z","date":"2025-12-07","time":"02:39:38"},{"rt":141753,"url":"SONA_consent_memorability.html","trial_type":"external-html","trial_index":2,"plugin_version":"2.1.0","time_elapsed":144757,"subject_id":"87392","group":"Group1","full_date":"2025-12-07T02:39:38.612Z","date":"2025-12-07","time":"02:39:38"},{"success":true,"rt":1892,"trial_type":"fullscreen","trial_index":3,"plugin_version":"2.1.0","time_elapsed":147656,"subject_id":"87392","group":"Group1","full_date":"2025-12-07T02:39:38.612Z","date":"2025-12-07","time":"02:39:38"},{"rt":427244,"stimulus":"<div style=\"max-width: 760px; margin: auto; font-size: 20px; line-height: 1.5;\">\n      <h1 style=\"text-align:center; font-size: 30px;\">Instructions</h1>\n      <p>\n        Welcome to the study on <b>visual memory</b>. This experiment consists of <b>two phases</b>: \n        a <b>study phase</b> and a <b>test phase</b>.\n      </p>\n      <p>\n        In the study phase, you will see a series of rock images along with their category labels.\n        The images will appear one at a time.\n        <b>Your task</b> is to learn the categories to which the rock images belong \n        and to remember each image as accurately as possible.\n      </p> \n      <p>\n        Note that we will repeat the study phase <b>3 times</b>, \n        so you will have multiple opportunities to see and remember each image.\n      </p>\n      <p>\n        After the study phase, <b>your memory will be tested</b>. \n        Additional instructions for the test phase will be provided at that time.\n      </p>\n      <p>\n        If your computer has multiple <b>language settings</b> (e.g., English and another language),\n        please make sure it is set to English before starting.\n      </p>\n      <p>\n        You can track your progress using the <b>completion bar</b> at the top of the screen. \n        Please note that the bar will refresh when the test phase begins \n        to give you an accurate sense of your progress in both phases.\n      </p> \n      <p>\n        Press the button below when you are ready to begin.\n      </p>\n    </div>","response":0,"trial_type":"html-button-response","trial_index":4,"plugin_version":"2.1.0","time_elapsed":574891,"subject_id":"87392","group":"Group1","full_date":"2025-12-07T02:39:38.612Z","date":"2025-12-07","time":"02:39:38"},{"rt":null,"stimulus":"<p style=\"font-size: 50px; margin: 0; text-align: center;\">+</p>","response":null,"trial_type":"html-keyboard-response","trial_index":5,"plugin_version":"2.1.0","time_elapsed":575897,"subject_id":"87392","group":"Group1","full_date":"2025-12-07T02:39:38.612Z","date":"2025-12-07","time":"02:39:38"},{"task":"memory_phase","broad_category":"M","image_png":"M_Marble_06.png","image_id":230,"category_name":"Marble","category":15,"distinct_rating":3.4,"distinct_type":"Bottom","rt":null,"stimulus":"Stimuli_Rocks480/M_Marble_06.png","response":null,"trial_type":"image-keyboard-response","trial_index":6,"plugin_version":"2.1.0","time_elapsed":578430,"subject_id":"87392","group":"Group1","full_date":"2025-12-07T02:39:38.612Z","date":"2025-12-07","time":"02:39:38"},{"rt":null,"stimulus":"<p style=\"font-size: 50px; margin: 0; text-align: center;\">+</p>","response":null,"trial_type":"html-keyboard-response","trial_index":7,"plugin_version":"2.1.0","time_elapsed":579432,"subject_id":"87392","group":"Group1","full_date":"2025-12-07T02:39:38.612Z","date":"2025-12-07","time":"02:39:38"},{"task":"memory_phase","broad_category":"I","image_png":"I_Pumice_08.png","image_id":136,"category_name":"Pumice","category":9,"distinct_rating":3.1,"distinct_type":"Bottom","rt":null,"stimulus":"Stimuli_Rocks480/I_Pumice_08.png","response":null,"trial_type":"image-keyboard-response","trial_index":8,"plugin_version":"2.1.0","time_elapsed":581965,"subject_id":"87392","group":"Group1","full_date":"2025-12-07T02:39:38.612Z","date":"2025-12-07","time":"02:39:38"},{"rt":null,"stimulus":"<p style=\"font-size: 50px; margin: 0; text-align: center;\">+</p>","response":null,"trial_type":"html-keyboard-response","trial_index":9,"plugin_version":"2.1.0","time_elapsed":582968,"subject_id":"87392","group":"Group1","full_date":"2025-12-07T02:39:38.612Z","date":"2025-12-07","time":"02:39:38"},{"task":"memory_phase","broad_category":"S","image_png":"S_Chert_10.png","image_id":362,"category_name":"Chert","category":23,"distinct_rating":7.17,"distinct_type":"Top","rt":null,"stimulus":"Stimuli_Rocks480/S_Chert_10.png","response":null,"trial_type":"image-keyboard-response","trial_index":10,"plugin_version":"2.1.0","time_elapsed":585503,"subject_id":"87392","group":"Group1","full_date":"2025-12-07T02:39:38.612Z","date":"2025-12-07","time":"02:39:38"},{"rt":null,"stimulus":"<p style=\"font-size: 50px; margin: 0; text-align: center;\">+</p>","response":null,"trial_type":"html-keyboard-response","trial_index":11,"plugin_version":"2.1.0","time_elapsed":586506,"subject_id":"87392","group":"Group1","full_date":"2025-12-07T02:39:38.612Z","date":"2025-12-07","time":"02:39:38"},{"task":"memory_phase","broad_category":"S","image_png":"S_Shale_01.png","image_id":465,"category_name":"Shale","category":30,"distinct_rating":2.7,"distinct_type":"Bottom","rt":null,"stimulus":"Stimuli_Rocks480/S_Shale_01.png","response":null,"trial_type":"image-keyboard-response","trial_index":12,"plugin_version":"2.1.0","time_elapsed":589039,"subject_id":"87392","group":"Group1","full_date":"2025-12-07T02:39:38.612Z","date":"2025-12-07","time":"02:39:38"},{"rt":null,"stimulus":"<p style=\"font-size: 50px; margin: 0; text-align: center;\">+</p>","response":null,"trial_type":"html-keyboard-response","trial_index":13,"plugin_version":"2.1.0","time_elapsed":590043,"subject_id":"87392","group":"Group1","full_date":"2025-12-07T02:39:38.612Z","date":"2025-12-07","time":"02:39:38"},{"task":"memory_phase","broad_category":"I","image_png":"I_Gabbro_08.png","image_id":56,"category_name":"Gabbro","category":4,"distinct_rating":3.02,"distinct_type":"Bottom","rt":null,"stimulus":"Stimuli_Rocks480/I_Gabbro_08.png","response":null,"trial_type":"image-keyboard-response","trial_index":14,"plugin_version":"2.1.0","time_elapsed":592572,"subject_id":"87392","group":"Group1","full_date":"2025-12-07T02:39:38.612Z","date":"2025-12-07","time":"02:39:38"},{"rt":null,"stimulus":"<p style=\"font-size: 50px; margin: 0; text-align: center;\">+</p>","response":null,"trial_type":"html-keyboard-response","trial_index":15,"plugin_version":"2.1.0","time_elapsed":593575,"subject_id":"87392","group":"Group1","full_date":"2025-12-07T02:39:38.612Z","date":"2025-12-07","time":"02:39:38"},{"task":"memory_phase","broad_category":"S","image_png":"S_Dolomite_12.png","image_id":396,"category_name":"Dolomite","category":25,"distinct_rating":1.85,"distinct_type":"Bottom","rt":null,"stimulus":"Stimuli_Rocks480/S_Dolomite_12.png","response":null,"trial_type":"image-keyboard-response","trial_index":16,"plugin_version":"2.1.0","time_elapsed":596108,"subject_id":"87392","group":"Group1","full_date":"2025-12-07T02:39:38.612Z","date":"2025-12-07","time":"02:39:38"},{"rt":null,"stimulus":"<p style=\"font-size: 50px; margin: 0; text-align: center;\">+</p>","response":null,"trial_type":"html-keyboard-response","trial_index":17,"plugin_version":"2.1.0","time_elapsed":597112,"subject_id":"87392","group":"Group1","full_date":"2025-12-07T02:39:38.612Z","date":"2025-12-07","time":"02:39:38"},{"task":"memory_phase","broad_category":"I","image_png":"I_Diorite_03.png","image_id":35,"category_name":"Diorite","category":3,"distinct_rating":3.14,"distinct_type":"Bottom","rt":null,"stimulus":"Stimuli_Rocks480/I_Diorite_03.png","response":null,"trial_type":"image-keyboard-response","trial_index":18,"plugin_version":"2.1.0","time_elapsed":599654,"subject_id":"87392","group":"Group1","full_date":"2025-12-07T02:39:38.612Z","date":"2025-12-07","time":"02:39:38"},{"rt":null,"stimulus":"<p style=\"font-size: 50px; margin: 0; text-align: center;\">+</p>","response":null,"trial_type":"html-keyboard-response","trial_index":19,"plugin_version":"2.1.0","time_elapsed":600657,"subject_id":"87392","group":"Group1","full_date":"2025-12-07T02:39:38.612Z","date":"2025-12-07","time":"02:39:38"},{"task":"memory_phase","broad_category":"M","image_png":"M_Marble_04.png","image_id":228,"category_name":"Marble","category":15,"distinct_rating":3.15,"distinct_type":"Bottom","rt":null,"stimulus":"Stimuli_Rocks480/M_Marble_04.png","response":null,"trial_type":"image-keyboard-response","trial_index":20,"plugin_version":"2.1.0","time_elapsed":603190,"subject_id":"87392","group":"Group1","full_date":"2025-12-07T02:39:38.612Z","date":"2025-12-07","time":"02:39:38"},{"rt":null,"stimulus":"<p style=\"font-size: 50px; margin: 0; text-align: center;\">+</p>","response":null,"trial_type":"html-keyboard-response","trial_index":21,"plugin_version":"2.1.0","time_elapsed":604194,"subject_id":"87392","group":"Group1","full_date":"2025-12-07T02:39:38.612Z","date":"2025-12-07","time":"02:39:38"},{"task":"memory_phase","broad_category":"M","image_png":"M_Marble_16.png","image_id":240,"category_name":"Marble","category":15,"distinct_rating":2.57,"distinct_type":"Bottom","rt":null,"stimulus":"Stimuli_Rocks480/M_Marble_16.png","response":null,"trial_type":"image-keyboard-response","trial_index":22,"plugin_version":"2.1.0","time_elapsed":606728,"subject_id":"87392","group":"Group1","full_date":"2025-12-07T02:39:38.612Z","date":"2025-12-07","time":"02:39:38"},{"rt":null,"stimulus":"<p style=\"font-size: 50px; margin: 0; text-align: center;\">+</p>","response":null,"trial_type":"html-keyboard-response","trial_index":23,"plugin_version":"2.1.0","time_elapsed":607731,"subject_id":"87392","group":"Group1","full_date":"2025-12-07T02:39:38.612Z","date":"2025-12-07","time":"02:39:38"},{"task":"memory_phase","broad_category":"I","image_png":"I_Rhyolite_16.png","image_id":160,"category_name":"Rhyolite","category":10,"distinct_rating":2.19,"distinct_type":"Bottom","rt":null,"stimulus":"Stimuli_Rocks480/I_Rhyolite_16.png","response":null,"trial_type":"image-keyboard-response","trial_index":24,"plugin_version":"2.1.0","time_elapsed":610257,"subject_id":"87392","group":"Group1","full_date":"2025-12-07T02:39:38.612Z","date":"2025-12-07","time":"02:39:38"},{"rt":null,"stimulus":"<p style=\"font-size: 50px; margin: 0; text-align: center;\">+</p>","response":null,"trial_type":"html-keyboard-response","trial_index":25,"plugin_version":"2.1.0","time_elapsed":611260,"subject_id":"87392","group":"Group1","full_date":"2025-12-07T02:39:38.612Z","date":"2025-12-07","time":"02:39:38"},{"task":"memory_phase","broad_category":"S","image_png":"S_Rock Salt_01.png","image_id":433,"category_name":"Rock Salt","category":28,"distinct_rating":7.18,"distinct_type":"Top","rt":null,"stimulus":"Stimuli_Rocks480/S_Rock Salt_01.png","response":null,"trial_type":"image-keyboard-response","trial_index":26,"plugin_version":"2.1.0","time_elapsed":613799,"subject_id":"87392","group":"Group1","full_date":"2025-12-07T02:39:38.612Z","date":"2025-12-07","time":"02:39:38"},{"rt":null,"stimulus":"<p style=\"font-size: 50px; margin: 0; text-align: center;\">+</p>","response":null,"trial_type":"html-keyboard-response","trial_index":27,"plugin_version":"2.1.0","time_elapsed":614802,"subject_id":"87392","group":"Group1","full_date":"2025-12-07T02:39:38.612Z","date":"2025-12-07","time":"02:39:38"},{"task":"memory_phase","broad_category":"S","image_png":"S_Sandstone_16.png","image_id":464,"category_name":"Sandstone","category":29,"distinct_rating":1.93,"distinct_type":"Bottom","rt":null,"stimulus":"Stimuli_Rocks480/S_Sandstone_16.png","response":null,"trial_type":"image-keyboard-response","trial_index":28,"plugin_version":"2.1.0","time_elapsed":617327,"subject_id":"87392","group":"Group1","full_date":"2025-12-07T02:39:38.612Z","date":"2025-12-07","time":"02:39:38"},{"rt":null,"stimulus":"<p style=\"font-size: 50px; margin: 0; text-align: center;\">+</p>","response":null,"trial_type":"html-keyboard-response","trial_index":29,"plugin_version":"2.1.0","time_elapsed":618330,"subject_id":"87392","group":"Group1","full_date":"2025-12-07T02:39:38.612Z","date":"2025-12-07","time":"02:39:38"},{"task":"memory_phase","broad_category":"S","image_png":"S_Shale_12.png","image_id":476,"category_name":"Shale","category":30,"distinct_rating":2.48,"distinct_type":"Bottom","rt":null,"stimulus":"Stimuli_Rocks480/S_Shale_12.png","response":null,"trial_type":"image-keyboard-response","trial_index":30,"plugin_version":"2.1.0","time_elapsed":620867,"subject_id":"87392","group":"Group1","full_date":"2025-12-07T02:39:38.612Z","date":"2025-12-07","time":"02:39:38"},{"rt":null,"stimulus":"<p style=\"font-size: 50px; margin: 0; text-align: center;\">+</p>","response":null,"trial_type":"html-keyboard-response","trial_index":31,"plugin_version":"2.1.0","time_elapsed":621870,"subject_id":"87392","group":"Group1","full_date":"2025-12-07T02:39:38.612Z","date":"2025-12-07","time":"02:39:38"},{"task":"memory_phase","broad_category":"M","image_png":"M_Slate_11.png","image_id":315,"category_name":"Slate","category":20,"distinct_rating":2.75,"distinct_type":"Bottom","rt":null,"stimulus":"Stimuli_Rocks480/M_Slate_11.png","response":null,"trial_type":"image-keyboard-response","trial_index":32,"plugin_version":"2.1.0","time_elapsed":624398,"subject_id":"87392","group":"Group1","full_date":"2025-12-07T02:39:38.612Z","date":"2025-12-07","time":"02:39:38"},{"rt":null,"stimulus":"<p style=\"font-size: 50px; margin: 0; text-align: center;\">+</p>","response":null,"trial_type":"html-keyboard-response","trial_index":33,"plugin_version":"2.1.0","time_elapsed":625402,"subject_id":"87392","group":"Group1","full_date":"2025-12-07T02:39:38.612Z","date":"2025-12-07","time":"02:39:38"},{"task":"memory_phase","broad_category":"M","image_png":"M_Phyllite_03.png","image_id":259,"category_name":"Phyllite","category":17,"distinct_rating":2.5,"distinct_type":"Bottom","rt":null,"stimulus":"Stimuli_Rocks480/M_Phyllite_03.png","response":null,"trial_type":"image-keyboard-response","trial_index":34,"plugin_version":"2.1.0","time_elapsed":627939,"subject_id":"87392","group":"Group1","full_date":"2025-12-07T02:39:38.612Z","date":"2025-12-07","time":"02:39:38"},{"rt":null,"stimulus":"<p style=\"font-size: 50px; margin: 0; text-align: center;\">+</p>","response":null,"trial_type":"html-keyboard-response","trial_index":35,"plugin_version":"2.1.0","time_elapsed":628942,"subject_id":"87392","group":"Group1","full_date":"2025-12-07T02:39:38.612Z","date":"2025-12-07","time":"02:39:38"},{"task":"memory_phase","broad_category":"S","image_png":"S_Dolomite_14.png","image_id":398,"category_name":"Dolomite","category":25,"distinct_rating":1.43,"distinct_type":"Bottom","rt":null,"stimulus":"Stimuli_Rocks480/S_Dolomite_14.png","response":null,"trial_type":"image-keyboard-response","trial_index":36,"plugin_version":"2.1.0","time_elapsed":631475,"subject_id":"87392","group":"Group1","full_date":"2025-12-07T02:39:38.612Z","date":"2025-12-07","time":"02:39:38"},{"rt":null,"stimulus":"<p style=\"font-size: 50px; margin: 0; text-align: center;\">+</p>","response":null,"trial_type":"html-keyboard-response","trial_index":37,"plugin_version":"2.1.0","time_elapsed":632478,"subject_id":"87392","group":"Group1","full_date":"2025-12-07T02:39:38.612Z","date":"2025-12-07","time":"02:39:38"},{"task":"memory_phase","broad_category":"S","image_png":"S_Rock Gypsum_04.png","image_id":420,"category_name":"Rock Gypsum","category":27,"distinct_rating":7.61,"distinct_type":"Top","rt":null,"stimulus":"Stimuli_Rocks480/S_Rock Gypsum_04.png","response":null,"trial_type":"image-keyboard-response","trial_index":38,"plugin_version":"2.1.0","time_elapsed":635014,"subject_id":"87392","group":"Group1","full_date":"2025-12-07T02:39:38.612Z","date":"2025-12-07","time":"02:39:38"},{"rt":null,"stimulus":"<p style=\"font-size: 50px; margin: 0; text-align: center;\">+</p>","response":null,"trial_type":"html-keyboard-response","trial_index":39,"plugin_version":"2.1.0","time_elapsed":636017,"subject_id":"87392","group":"Group1","full_date":"2025-12-07T02:39:38.612Z","date":"2025-12-07","time":"02:39:38"},{"task":"memory_phase","broad_category":"I","image_png":"I_Andesite_10.png","image_id":10,"category_name":"Andesite","category":1,"distinct_rating":3.15,"distinct_type":"Bottom","rt":null,"stimulus":"Stimuli_Rocks480/I_Andesite_10.png","response":null,"trial_type":"image-keyboard-response","trial_index":40,"plugin_version":"2.1.0","time_elapsed":638542,"subject_id":"87392","group":"Group1","full_date":"2025-12-07T02:39:38.612Z","date":"2025-12-07","time":"02:39:38"},{"rt":null,"stimulus":"<p style=\"font-size: 50px; margin: 0; text-align: center;\">+</p>","response":null,"trial_type":"html-keyboard-response","trial_index":41,"plugin_version":"2.1.0","time_elapsed":639545,"subject_id":"87392","group":"Group1","full_date":"2025-12-07T02:39:38.612Z","date":"2025-12-07","time":"02:39:38"},{"task":"memory_phase","broad_category":"M","image_png":"M_Quartzite_05.png","image_id":277,"category_name":"Quartzite","category":18,"distinct_rating":2.23,"distinct_type":"Bottom","rt":null,"stimulus":"Stimuli_Rocks480/M_Quartzite_05.png","response":null,"trial_type":"image-keyboard-response","trial_index":42,"plugin_version":"2.1.0","time_elapsed":642082,"subject_id":"87392","group":"Group1","full_date":"2025-12-07T02:39:38.612Z","date":"2025-12-07","time":"02:39:38"},{"rt":null,"stimulus":"<p style=\"font-size: 50px; margin: 0; text-align: center;\">+</p>","response":null,"trial_type":"html-keyboard-response","trial_index":43,"plugin_version":"2.1.0","time_elapsed":643085,"subject_id":"87392","group":"Group1","full_date":"2025-12-07T02:39:38.612Z","date":"2025-12-07","time":"02:39:38"},{"task":"memory_phase","broad_category":"I","image_png":"I_Gabbro_11.png","image_id":59,"category_name":"Gabbro","category":4,"distinct_rating":1.99,"distinct_type":"Bottom","rt":null,"stimulus":"Stimuli_Rocks480/I_Gabbro_11.png","response":null,"trial_type":"image-keyboard-response","trial_index":44,"plugin_version":"2.1.0","time_elapsed":645616,"subject_id":"87392","group":"Group1","full_date":"2025-12-07T02:39:38.612Z","date":"2025-12-07","time":"02:39:38"},{"rt":null,"stimulus":"<p style=\"font-size: 50px; margin: 0; text-align: center;\">+</p>","response":null,"trial_type":"html-keyboard-response","trial_index":45,"plugin_version":"2.1.0","time_elapsed":646621,"subject_id":"87392","group":"Group1","full_date":"2025-12-07T02:39:38.612Z","date":"2025-12-07","time":"02:39:38"},{"task":"memory_phase","broad_category":"I","image_png":"I_Rhyolite_14.png","image_id":158,"category_name":"Rhyolite","category":10,"distinct_rating":2.59,"distinct_type":"Bottom","rt":null,"stimulus":"Stimuli_Rocks480/I_Rhyolite_14.png","response":null,"trial_type":"image-keyboard-response","trial_index":46,"plugin_version":"2.1.0","time_elapsed":649155,"subject_id":"87392","group":"Group1","full_date":"2025-12-07T02:39:38.612Z","date":"2025-12-07","time":"02:39:38"},{"rt":null,"stimulus":"<p style=\"font-size: 50px; margin: 0; text-align: center;\">+</p>","response":null,"trial_type":"html-keyboard-response","trial_index":47,"plugin_version":"2.1.0","time_elapsed":650158,"subject_id":"87392","group":"Group1","full_date":"2025-12-07T02:39:38.612Z","date":"2025-12-07","time":"02:39:38"},{"task":"memory_phase","broad_category":"I","image_png":"I_Basalt_09.png","image_id":25,"category_name":"Basalt","category":2,"distinct_rating":1.89,"distinct_type":"Bottom","rt":null,"stimulus":"Stimuli_Rocks480/I_Basalt_09.png","response":null,"trial_type":"image-keyboard-response","trial_index":48,"plugin_version":"2.1.0","time_elapsed":652687,"subject_id":"87392","group":"Group1","full_date":"2025-12-07T02:39:38.612Z","date":"2025-12-07","time":"02:39:38"},{"rt":null,"stimulus":"<p style=\"font-size: 50px; margin: 0; text-align: center;\">+</p>","response":null,"trial_type":"html-keyboard-response","trial_index":49,"plugin_version":"2.1.0","time_elapsed":653691,"subject_id":"87392","group":"Group1","full_date":"2025-12-07T02:39:38.612Z","date":"2025-12-07","time":"02:39:38"},{"task":"memory_phase","broad_category":"M","image_png":"M_Gneiss_05.png","image_id":197,"category_name":"Gneiss","category":13,"distinct_rating":2.97,"distinct_type":"Bottom","rt":null,"stimulus":"Stimuli_Rocks480/M_Gneiss_05.png","response":null,"trial_type":"image-keyboard-response","trial_index":50,"plugin_version":"2.1.0","time_elapsed":656238,"subject_id":"87392","group":"Group1","full_date":"2025-12-07T02:39:38.612Z","date":"2025-12-07","time":"02:39:38"},{"rt":null,"stimulus":"<p style=\"font-size: 50px; margin: 0; text-align: center;\">+</p>","response":null,"trial_type":"html-keyboard-response","trial_index":51,"plugin_version":"2.1.0","time_elapsed":657242,"subject_id":"87392","group":"Group1","full_date":"2025-12-07T02:39:38.612Z","date":"2025-12-07","time":"02:39:38"},{"task":"memory_phase","broad_category":"I","image_png":"I_Obsidian_05.png","image_id":85,"category_name":"Obsidian","category":6,"distinct_rating":7.32,"distinct_type":"Top","rt":null,"stimulus":"Stimuli_Rocks480/I_Obsidian_05.png","response":null,"trial_type":"image-keyboard-response","trial_index":52,"plugin_version":"2.1.0","time_elapsed":659778,"subject_id":"87392","group":"Group1","full_date":"2025-12-07T02:39:38.612Z","date":"2025-12-07","time":"02:39:38"},{"rt":null,"stimulus":"<p style=\"font-size: 50px; margin: 0; text-align: center;\">+</p>","response":null,"trial_type":"html-keyboard-response","trial_index":53,"plugin_version":"2.1.0","time_elapsed":660781,"subject_id":"87392","group":"Group1","full_date":"2025-12-07T02:39:38.612Z","date":"2025-12-07","time":"02:39:38"},{"task":"memory_phase","broad_category":"S","image_png":"S_Dolomite_13.png","image_id":397,"category_name":"Dolomite","category":25,"distinct_rating":1.77,"distinct_type":"Bottom","rt":null,"stimulus":"Stimuli_Rocks480/S_Dolomite_13.png","response":null,"trial_type":"image-keyboard-response","trial_index":54,"plugin_version":"2.1.0","time_elapsed":663317,"subject_id":"87392","group":"Group1","full_date":"2025-12-07T02:39:38.612Z","date":"2025-12-07","time":"02:39:38"},{"rt":1561,"stimulus":"<p style=\"max-width: 760px; margin: auto; font-size: 35px; line-height: 1.5;\">Press SPACE to continue study phase</p>","response":" ","trial_type":"html-keyboard-response","trial_index":55,"plugin_version":"2.1.0","time_elapsed":664882,"subject_id":"87392","group":"Group1","full_date":"2025-12-07T02:39:38.612Z","date":"2025-12-07","time":"02:39:38"},{"rt":null,"stimulus":"<p style=\"font-size: 50px; margin: 0; text-align: center;\">+</p>","response":null,"trial_type":"html-keyboard-response","trial_index":56,"plugin_version":"2.1.0","time_elapsed":665887,"subject_id":"87392","group":"Group1","full_date":"2025-12-07T02:39:38.612Z","date":"2025-12-07","time":"02:39:38"},{"task":"memory_phase","broad_category":"M","image_png":"M_Slate_15.png","image_id":319,"category_name":"Slate","category":20,"distinct_rating":2.13,"distinct_type":"Bottom","rt":null,"stimulus":"Stimuli_Rocks480/M_Slate_15.png","response":null,"trial_type":"image-keyboard-response","trial_index":57,"plugin_version":"2.1.0","time_elapsed":668416,"subject_id":"87392","group":"Group1","full_date":"2025-12-07T02:39:38.612Z","date":"2025-12-07","time":"02:39:38"},{"rt":null,"stimulus":"<p style=\"font-size: 50px; margin: 0; text-align: center;\">+</p>","response":null,"trial_type":"html-keyboard-response","trial_index":58,"plugin_version":"2.1.0","time_elapsed":669420,"subject_id":"87392","group":"Group1","full_date":"2025-12-07T02:39:38.612Z","date":"2025-12-07","time":"02:39:38"},{"task":"memory_phase","broad_category":"I","image_png":"I_Rhyolite_11.png","image_id":155,"category_name":"Rhyolite","category":10,"distinct_rating":1.73,"distinct_type":"Bottom","rt":null,"stimulus":"Stimuli_Rocks480/I_Rhyolite_11.png","response":null,"trial_type":"image-keyboard-response","trial_index":59,"plugin_version":"2.1.0","time_elapsed":671953,"subject_id":"87392","group":"Group1","full_date":"2025-12-07T02:39:38.612Z","date":"2025-12-07","time":"02:39:38"},{"rt":null,"stimulus":"<p style=\"font-size: 50px; margin: 0; text-align: center;\">+</p>","response":null,"trial_type":"html-keyboard-response","trial_index":60,"plugin_version":"2.1.0","time_elapsed":672959,"subject_id":"87392","group":"Group1","full_date":"2025-12-07T02:39:38.612Z","date":"2025-12-07","time":"02:39:38"},{"task":"memory_phase","broad_category":"M","image_png":"M_Gneiss_13.png","image_id":205,"category_name":"Gneiss","category":13,"distinct_rating":3.26,"distinct_type":"Bottom","rt":null,"stimulus":"Stimuli_Rocks480/M_Gneiss_13.png","response":null,"trial_type":"image-keyboard-response","trial_index":61,"plugin_version":"2.1.0","time_elapsed":675489,"subject_id":"87392","group":"Group1","full_date":"2025-12-07T02:39:38.612Z","date":"2025-12-07","time":"02:39:38"},{"rt":null,"stimulus":"<p style=\"font-size: 50px; margin: 0; text-align: center;\">+</p>","response":null,"trial_type":"html-keyboard-response","trial_index":62,"plugin_version":"2.1.0","time_elapsed":676492,"subject_id":"87392","group":"Group1","full_date":"2025-12-07T02:39:38.612Z","date":"2025-12-07","time":"02:39:38"},{"task":"memory_phase","broad_category":"S","image_png":"S_Sandstone_03.png","image_id":451,"category_name":"Sandstone","category":29,"distinct_rating":1.86,"distinct_type":"Bottom","rt":null,"stimulus":"Stimuli_Rocks480/S_Sandstone_03.png","response":null,"trial_type":"image-keyboard-response","trial_index":63,"plugin_version":"2.1.0","time_elapsed":679027,"subject_id":"87392","group":"Group1","full_date":"2025-12-07T02:39:38.612Z","date":"2025-12-07","time":"02:39:38"},{"rt":null,"stimulus":"<p style=\"font-size: 50px; margin: 0; text-align: center;\">+</p>","response":null,"trial_type":"html-keyboard-response","trial_index":64,"plugin_version":"2.1.0","time_elapsed":680031,"subject_id":"87392","group":"Group1","full_date":"2025-12-07T02:39:38.612Z","date":"2025-12-07","time":"02:39:38"},{"task":"memory_phase","broad_category":"I","image_png":"I_Gabbro_16.png","image_id":64,"category_name":"Gabbro","category":4,"distinct_rating":2.52,"distinct_type":"Bottom","rt":null,"stimulus":"Stimuli_Rocks480/I_Gabbro_16.png","response":null,"trial_type":"image-keyboard-response","trial_index":65,"plugin_version":"2.1.0","time_elapsed":682563,"subject_id":"87392","group":"Group1","full_date":"2025-12-07T02:39:38.612Z","date":"2025-12-07","time":"02:39:38"},{"rt":null,"stimulus":"<p style=\"font-size: 50px; margin: 0; text-align: center;\">+</p>","response":null,"trial_type":"html-keyboard-response","trial_index":66,"plugin_version":"2.1.0","time_elapsed":683567,"subject_id":"87392","group":"Group1","full_date":"2025-12-07T02:39:38.612Z","date":"2025-12-07","time":"02:39:38"},{"task":"memory_phase","broad_category":"S","image_png":"S_Conglomerate_05.png","image_id":373,"category_name":"Conglomerate","category":24,"distinct_rating":7.32,"distinct_type":"Top","rt":null,"stimulus":"Stimuli_Rocks480/S_Conglomerate_05.png","response":null,"trial_type":"image-keyboard-response","trial_index":67,"plugin_version":"2.1.0","time_elapsed":686106,"subject_id":"87392","group":"Group1","full_date":"2025-12-07T02:39:38.612Z","date":"2025-12-07","time":"02:39:38"},{"rt":null,"stimulus":"<p style=\"font-size: 50px; margin: 0; text-align: center;\">+</p>","response":null,"trial_type":"html-keyboard-response","trial_index":68,"plugin_version":"2.1.0","time_elapsed":687112,"subject_id":"87392","group":"Group1","full_date":"2025-12-07T02:39:38.612Z","date":"2025-12-07","time":"02:39:38"},{"task":"memory_phase","broad_category":"M","image_png":"M_Quartzite_13.png","image_id":285,"category_name":"Quartzite","category":18,"distinct_rating":2.27,"distinct_type":"Bottom","rt":null,"stimulus":"Stimuli_Rocks480/M_Quartzite_13.png","response":null,"trial_type":"image-keyboard-response","trial_index":69,"plugin_version":"2.1.0","time_elapsed":689647,"subject_id":"87392","group":"Group1","full_date":"2025-12-07T02:39:38.612Z","date":"2025-12-07","time":"02:39:38"},{"rt":null,"stimulus":"<p style=\"font-size: 50px; margin: 0; text-align: center;\">+</p>","response":null,"trial_type":"html-keyboard-response","trial_index":70,"plugin_version":"2.1.0","time_elapsed":690650,"subject_id":"87392","group":"Group1","full_date":"2025-12-07T02:39:38.612Z","date":"2025-12-07","time":"02:39:38"},{"task":"memory_phase","broad_category":"M","image_png":"M_Slate_03.png","image_id":307,"category_name":"Slate","category":20,"distinct_rating":1.87,"distinct_type":"Bottom","rt":null,"stimulus":"Stimuli_Rocks480/M_Slate_03.png","response":null,"trial_type":"image-keyboard-response","trial_index":71,"plugin_version":"2.1.0","time_elapsed":693185,"subject_id":"87392","group":"Group1","full_date":"2025-12-07T02:39:38.612Z","date":"2025-12-07","time":"02:39:38"},{"rt":null,"stimulus":"<p style=\"font-size: 50px; margin: 0; text-align: center;\">+</p>","response":null,"trial_type":"html-keyboard-response","trial_index":72,"plugin_version":"2.1.0","time_elapsed":694188,"subject_id":"87392","group":"Group1","full_date":"2025-12-07T02:39:38.612Z","date":"2025-12-07","time":"02:39:38"},{"task":"memory_phase","broad_category":"I","image_png":"I_Pegmatite_10.png","image_id":106,"category_name":"Pegmatite","category":7,"distinct_rating":7.66,"distinct_type":"Top","rt":null,"stimulus":"Stimuli_Rocks480/I_Pegmatite_10.png","response":null,"trial_type":"image-keyboard-response","trial_index":73,"plugin_version":"2.1.0","time_elapsed":696719,"subject_id":"87392","group":"Group1","full_date":"2025-12-07T02:39:38.612Z","date":"2025-12-07","time":"02:39:38"},{"rt":null,"stimulus":"<p style=\"font-size: 50px; margin: 0; text-align: center;\">+</p>","response":null,"trial_type":"html-keyboard-response","trial_index":74,"plugin_version":"2.1.0","time_elapsed":697723,"subject_id":"87392","group":"Group1","full_date":"2025-12-07T02:39:38.612Z","date":"2025-12-07","time":"02:39:38"},{"task":"memory_phase","broad_category":"I","image_png":"I_Basalt_02.png","image_id":18,"category_name":"Basalt","category":2,"distinct_rating":1.84,"distinct_type":"Bottom","rt":null,"stimulus":"Stimuli_Rocks480/I_Basalt_02.png","response":null,"trial_type":"image-keyboard-response","trial_index":75,"plugin_version":"2.1.0","time_elapsed":700258,"subject_id":"87392","group":"Group1","full_date":"2025-12-07T02:39:38.612Z","date":"2025-12-07","time":"02:39:38"},{"rt":null,"stimulus":"<p style=\"font-size: 50px; margin: 0; text-align: center;\">+</p>","response":null,"trial_type":"html-keyboard-response","trial_index":76,"plugin_version":"2.1.0","time_elapsed":701263,"subject_id":"87392","group":"Group1","full_date":"2025-12-07T02:39:38.612Z","date":"2025-12-07","time":"02:39:38"},{"task":"memory_phase","broad_category":"M","image_png":"M_Phyllite_07.png","image_id":263,"category_name":"Phyllite","category":17,"distinct_rating":2.59,"distinct_type":"Bottom","rt":null,"stimulus":"Stimuli_Rocks480/M_Phyllite_07.png","response":null,"trial_type":"image-keyboard-response","trial_index":77,"plugin_version":"2.1.0","time_elapsed":703790,"subject_id":"87392","group":"Group1","full_date":"2025-12-07T02:39:38.612Z","date":"2025-12-07","time":"02:39:38"},{"rt":null,"stimulus":"<p style=\"font-size: 50px; margin: 0; text-align: center;\">+</p>","response":null,"trial_type":"html-keyboard-response","trial_index":78,"plugin_version":"2.1.0","time_elapsed":704796,"subject_id":"87392","group":"Group1","full_date":"2025-12-07T02:39:38.612Z","date":"2025-12-07","time":"02:39:38"},{"task":"memory_phase","broad_category":"I","image_png":"I_Pumice_11.png","image_id":139,"category_name":"Pumice","category":9,"distinct_rating":1.74,"distinct_type":"Bottom","rt":null,"stimulus":"Stimuli_Rocks480/I_Pumice_11.png","response":null,"trial_type":"image-keyboard-response","trial_index":79,"plugin_version":"2.1.0","time_elapsed":707321,"subject_id":"87392","group":"Group1","full_date":"2025-12-07T02:39:38.612Z","date":"2025-12-07","time":"02:39:38"},{"rt":null,"stimulus":"<p style=\"font-size: 50px; margin: 0; text-align: center;\">+</p>","response":null,"trial_type":"html-keyboard-response","trial_index":80,"plugin_version":"2.1.0","time_elapsed":708327,"subject_id":"87392","group":"Group1","full_date":"2025-12-07T02:39:38.612Z","date":"2025-12-07","time":"02:39:38"},{"task":"memory_phase","broad_category":"S","image_png":"S_Breccia_11.png","image_id":347,"category_name":"Breccia","category":22,"distinct_rating":6.7,"distinct_type":"Top","rt":null,"stimulus":"Stimuli_Rocks480/S_Breccia_11.png","response":null,"trial_type":"image-keyboard-response","trial_index":81,"plugin_version":"2.1.0","time_elapsed":710882,"subject_id":"87392","group":"Group1","full_date":"2025-12-07T02:39:38.612Z","date":"2025-12-07","time":"02:39:38"},{"rt":null,"stimulus":"<p style=\"font-size: 50px; margin: 0; text-align: center;\">+</p>","response":null,"trial_type":"html-keyboard-response","trial_index":82,"plugin_version":"2.1.0","time_elapsed":711885,"subject_id":"87392","group":"Group1","full_date":"2025-12-07T02:39:38.612Z","date":"2025-12-07","time":"02:39:38"},{"task":"memory_phase","broad_category":"M","image_png":"M_Quartzite_08.png","image_id":280,"category_name":"Quartzite","category":18,"distinct_rating":2.15,"distinct_type":"Bottom","rt":null,"stimulus":"Stimuli_Rocks480/M_Quartzite_08.png","response":null,"trial_type":"image-keyboard-response","trial_index":83,"plugin_version":"2.1.0","time_elapsed":714401,"subject_id":"87392","group":"Group1","full_date":"2025-12-07T02:39:38.612Z","date":"2025-12-07","time":"02:39:38"},{"rt":null,"stimulus":"<p style=\"font-size: 50px; margin: 0; text-align: center;\">+</p>","response":null,"trial_type":"html-keyboard-response","trial_index":84,"plugin_version":"2.1.0","time_elapsed":715404,"subject_id":"87392","group":"Group1","full_date":"2025-12-07T02:39:38.612Z","date":"2025-12-07","time":"02:39:38"},{"task":"memory_phase","broad_category":"S","image_png":"S_Shale_08.png","image_id":472,"category_name":"Shale","category":30,"distinct_rating":2.55,"distinct_type":"Bottom","rt":null,"stimulus":"Stimuli_Rocks480/S_Shale_08.png","response":null,"trial_type":"image-keyboard-response","trial_index":85,"plugin_version":"2.1.0","time_elapsed":717942,"subject_id":"87392","group":"Group1","full_date":"2025-12-07T02:39:38.612Z","date":"2025-12-07","time":"02:39:38"},{"rt":null,"stimulus":"<p style=\"font-size: 50px; margin: 0; text-align: center;\">+</p>","response":null,"trial_type":"html-keyboard-response","trial_index":86,"plugin_version":"2.1.0","time_elapsed":718947,"subject_id":"87392","group":"Group1","full_date":"2025-12-07T02:39:38.612Z","date":"2025-12-07","time":"02:39:38"},{"task":"memory_phase","broad_category":"S","image_png":"S_Sandstone_15.png","image_id":463,"category_name":"Sandstone","category":29,"distinct_rating":2,"distinct_type":"Bottom","rt":null,"stimulus":"Stimuli_Rocks480/S_Sandstone_15.png","response":null,"trial_type":"image-keyboard-response","trial_index":87,"plugin_version":"2.1.0","time_elapsed":721487,"subject_id":"87392","group":"Group1","full_date":"2025-12-07T02:39:38.612Z","date":"2025-12-07","time":"02:39:38"},{"rt":null,"stimulus":"<p style=\"font-size: 50px; margin: 0; text-align: center;\">+</p>","response":null,"trial_type":"html-keyboard-response","trial_index":88,"plugin_version":"2.1.0","time_elapsed":722489,"subject_id":"87392","group":"Group1","full_date":"2025-12-07T02:39:38.612Z","date":"2025-12-07","time":"02:39:38"},{"task":"memory_phase","broad_category":"I","image_png":"I_Diorite_04.png","image_id":36,"category_name":"Diorite","category":3,"distinct_rating":2.98,"distinct_type":"Bottom","rt":null,"stimulus":"Stimuli_Rocks480/I_Diorite_04.png","response":null,"trial_type":"image-keyboard-response","trial_index":89,"plugin_version":"2.1.0","time_elapsed":725027,"subject_id":"87392","group":"Group1","full_date":"2025-12-07T02:39:38.612Z","date":"2025-12-07","time":"02:39:38"},{"rt":null,"stimulus":"<p style=\"font-size: 50px; margin: 0; text-align: center;\">+</p>","response":null,"trial_type":"html-keyboard-response","trial_index":90,"plugin_version":"2.1.0","time_elapsed":726031,"subject_id":"87392","group":"Group1","full_date":"2025-12-07T02:39:38.612Z","date":"2025-12-07","time":"02:39:38"},{"task":"memory_phase","broad_category":"M","image_png":"M_Phyllite_10.png","image_id":266,"category_name":"Phyllite","category":17,"distinct_rating":2.6,"distinct_type":"Bottom","rt":null,"stimulus":"Stimuli_Rocks480/M_Phyllite_10.png","response":null,"trial_type":"image-keyboard-response","trial_index":91,"plugin_version":"2.1.0","time_elapsed":728563,"subject_id":"87392","group":"Group1","full_date":"2025-12-07T02:39:38.612Z","date":"2025-12-07","time":"02:39:38"},{"rt":null,"stimulus":"<p style=\"font-size: 50px; margin: 0; text-align: center;\">+</p>","response":null,"trial_type":"html-keyboard-response","trial_index":92,"plugin_version":"2.1.0","time_elapsed":729567,"subject_id":"87392","group":"Group1","full_date":"2025-12-07T02:39:38.612Z","date":"2025-12-07","time":"02:39:38"},{"task":"memory_phase","broad_category":"I","image_png":"I_Pegmatite_16.png","image_id":112,"category_name":"Pegmatite","category":7,"distinct_rating":7.03,"distinct_type":"Top","rt":null,"stimulus":"Stimuli_Rocks480/I_Pegmatite_16.png","response":null,"trial_type":"image-keyboard-response","trial_index":93,"plugin_version":"2.1.0","time_elapsed":732086,"subject_id":"87392","group":"Group1","full_date":"2025-12-07T02:39:38.612Z","date":"2025-12-07","time":"02:39:38"},{"rt":null,"stimulus":"<p style=\"font-size: 50px; margin: 0; text-align: center;\">+</p>","response":null,"trial_type":"html-keyboard-response","trial_index":94,"plugin_version":"2.1.0","time_elapsed":733089,"subject_id":"87392","group":"Group1","full_date":"2025-12-07T02:39:38.612Z","date":"2025-12-07","time":"02:39:38"},{"task":"memory_phase","broad_category":"M","image_png":"M_Gneiss_06.png","image_id":198,"category_name":"Gneiss","category":13,"distinct_rating":2.65,"distinct_type":"Bottom","rt":null,"stimulus":"Stimuli_Rocks480/M_Gneiss_06.png","response":null,"trial_type":"image-keyboard-response","trial_index":95,"plugin_version":"2.1.0","time_elapsed":735632,"subject_id":"87392","group":"Group1","full_date":"2025-12-07T02:39:38.612Z","date":"2025-12-07","time":"02:39:38"},{"rt":null,"stimulus":"<p style=\"font-size: 50px; margin: 0; text-align: center;\">+</p>","response":null,"trial_type":"html-keyboard-response","trial_index":96,"plugin_version":"2.1.0","time_elapsed":736635,"subject_id":"87392","group":"Group1","full_date":"2025-12-07T02:39:38.612Z","date":"2025-12-07","time":"02:39:38"},{"task":"memory_phase","broad_category":"I","image_png":"I_Andesite_08.png","image_id":8,"category_name":"Andesite","category":1,"distinct_rating":1.95,"distinct_type":"Bottom","rt":null,"stimulus":"Stimuli_Rocks480/I_Andesite_08.png","response":null,"trial_type":"image-keyboard-response","trial_index":97,"plugin_version":"2.1.0","time_elapsed":739173,"subject_id":"87392","group":"Group1","full_date":"2025-12-07T02:39:38.612Z","date":"2025-12-07","time":"02:39:38"},{"rt":null,"stimulus":"<p style=\"font-size: 50px; margin: 0; text-align: center;\">+</p>","response":null,"trial_type":"html-keyboard-response","trial_index":98,"plugin_version":"2.1.0","time_elapsed":740179,"subject_id":"87392","group":"Group1","full_date":"2025-12-07T02:39:38.612Z","date":"2025-12-07","time":"02:39:38"},{"task":"memory_phase","broad_category":"I","image_png":"I_Pumice_12.png","image_id":140,"category_name":"Pumice","category":9,"distinct_rating":2.97,"distinct_type":"Bottom","rt":null,"stimulus":"Stimuli_Rocks480/I_Pumice_12.png","response":null,"trial_type":"image-keyboard-response","trial_index":99,"plugin_version":"2.1.0","time_elapsed":742702,"subject_id":"87392","group":"Group1","full_date":"2025-12-07T02:39:38.612Z","date":"2025-12-07","time":"02:39:38"},{"rt":null,"stimulus":"<p style=\"font-size: 50px; margin: 0; text-align: center;\">+</p>","response":null,"trial_type":"html-keyboard-response","trial_index":100,"plugin_version":"2.1.0","time_elapsed":743704,"subject_id":"87392","group":"Group1","full_date":"2025-12-07T02:39:38.612Z","date":"2025-12-07","time":"02:39:38"},{"task":"memory_phase","broad_category":"I","image_png":"I_Diorite_05.png","image_id":37,"category_name":"Diorite","category":3,"distinct_rating":3.08,"distinct_type":"Bottom","rt":null,"stimulus":"Stimuli_Rocks480/I_Diorite_05.png","response":null,"trial_type":"image-keyboard-response","trial_index":101,"plugin_version":"2.1.0","time_elapsed":746239,"subject_id":"87392","group":"Group1","full_date":"2025-12-07T02:39:38.612Z","date":"2025-12-07","time":"02:39:38"},{"rt":null,"stimulus":"<p style=\"font-size: 50px; margin: 0; text-align: center;\">+</p>","response":null,"trial_type":"html-keyboard-response","trial_index":102,"plugin_version":"2.1.0","time_elapsed":747242,"subject_id":"87392","group":"Group1","full_date":"2025-12-07T02:39:38.612Z","date":"2025-12-07","time":"02:39:38"},{"task":"memory_phase","broad_category":"I","image_png":"I_Basalt_01.png","image_id":17,"category_name":"Basalt","category":2,"distinct_rating":1.92,"distinct_type":"Bottom","rt":null,"stimulus":"Stimuli_Rocks480/I_Basalt_01.png","response":null,"trial_type":"image-keyboard-response","trial_index":103,"plugin_version":"2.1.0","time_elapsed":749784,"subject_id":"87392","group":"Group1","full_date":"2025-12-07T02:39:38.612Z","date":"2025-12-07","time":"02:39:38"},{"rt":null,"stimulus":"<p style=\"font-size: 50px; margin: 0; text-align: center;\">+</p>","response":null,"trial_type":"html-keyboard-response","trial_index":104,"plugin_version":"2.1.0","time_elapsed":750787,"subject_id":"87392","group":"Group1","full_date":"2025-12-07T02:39:38.612Z","date":"2025-12-07","time":"02:39:38"},{"task":"memory_phase","broad_category":"I","image_png":"I_Andesite_06.png","image_id":6,"category_name":"Andesite","category":1,"distinct_rating":3.17,"distinct_type":"Bottom","rt":null,"stimulus":"Stimuli_Rocks480/I_Andesite_06.png","response":null,"trial_type":"image-keyboard-response","trial_index":105,"plugin_version":"2.1.0","time_elapsed":753324,"subject_id":"87392","group":"Group1","full_date":"2025-12-07T02:39:38.612Z","date":"2025-12-07","time":"02:39:38"},{"rt":25694,"stimulus":"<p style=\"max-width: 760px; margin: auto; font-size: 35px; line-height: 1.5;\">You have completed 1 study phase. Now, we'll show you all the images again 2 more times.<br><br>Press SPACE to continue</p>","response":" ","trial_type":"html-keyboard-response","trial_index":106,"plugin_version":"2.1.0","time_elapsed":779020,"subject_id":"87392","group":"Group1","full_date":"2025-12-07T02:39:38.612Z","date":"2025-12-07","time":"02:39:38"},{"rt":null,"stimulus":"<p style=\"font-size: 50px; margin: 0; text-align: center;\">+</p>","response":null,"trial_type":"html-keyboard-response","trial_index":107,"plugin_version":"2.1.0","time_elapsed":780023,"subject_id":"87392","group":"Group1","full_date":"2025-12-07T02:39:38.612Z","date":"2025-12-07","time":"02:39:38"},{"task":"memory_phase","broad_category":"S","image_png":"S_Chert_10.png","image_id":362,"category_name":"Chert","category":23,"distinct_rating":7.17,"distinct_type":"Top","rt":null,"stimulus":"Stimuli_Rocks480/S_Chert_10.png","response":null,"trial_type":"image-keyboard-response","trial_index":108,"plugin_version":"2.1.0","time_elapsed":782556,"subject_id":"87392","group":"Group1","full_date":"2025-12-07T02:39:38.612Z","date":"2025-12-07","time":"02:39:38"},{"rt":null,"stimulus":"<p style=\"font-size: 50px; margin: 0; text-align: center;\">+</p>","response":null,"trial_type":"html-keyboard-response","trial_index":109,"plugin_version":"2.1.0","time_elapsed":783559,"subject_id":"87392","group":"Group1","full_date":"2025-12-07T02:39:38.612Z","date":"2025-12-07","time":"02:39:38"},{"task":"memory_phase","broad_category":"M","image_png":"M_Slate_03.png","image_id":307,"category_name":"Slate","category":20,"distinct_rating":1.87,"distinct_type":"Bottom","rt":null,"stimulus":"Stimuli_Rocks480/M_Slate_03.png","response":null,"trial_type":"image-keyboard-response","trial_index":110,"plugin_version":"2.1.0","time_elapsed":786065,"subject_id":"87392","group":"Group1","full_date":"2025-12-07T02:39:38.612Z","date":"2025-12-07","time":"02:39:38"},{"rt":null,"stimulus":"<p style=\"font-size: 50px; margin: 0; text-align: center;\">+</p>","response":null,"trial_type":"html-keyboard-response","trial_index":111,"plugin_version":"2.1.0","time_elapsed":787068,"subject_id":"87392","group":"Group1","full_date":"2025-12-07T02:39:38.612Z","date":"2025-12-07","time":"02:39:38"},{"task":"memory_phase","broad_category":"S","image_png":"S_Shale_08.png","image_id":472,"category_name":"Shale","category":30,"distinct_rating":2.55,"distinct_type":"Bottom","rt":null,"stimulus":"Stimuli_Rocks480/S_Shale_08.png","response":null,"trial_type":"image-keyboard-response","trial_index":112,"plugin_version":"2.1.0","time_elapsed":789576,"subject_id":"87392","group":"Group1","full_date":"2025-12-07T02:39:38.612Z","date":"2025-12-07","time":"02:39:38"},{"rt":null,"stimulus":"<p style=\"font-size: 50px; margin: 0; text-align: center;\">+</p>","response":null,"trial_type":"html-keyboard-response","trial_index":113,"plugin_version":"2.1.0","time_elapsed":790579,"subject_id":"87392","group":"Group1","full_date":"2025-12-07T02:39:38.612Z","date":"2025-12-07","time":"02:39:38"},{"task":"memory_phase","broad_category":"S","image_png":"S_Sandstone_16.png","image_id":464,"category_name":"Sandstone","category":29,"distinct_rating":1.93,"distinct_type":"Bottom","rt":null,"stimulus":"Stimuli_Rocks480/S_Sandstone_16.png","response":null,"trial_type":"image-keyboard-response","trial_index":114,"plugin_version":"2.1.0","time_elapsed":793106,"subject_id":"87392","group":"Group1","full_date":"2025-12-07T02:39:38.612Z","date":"2025-12-07","time":"02:39:38"},{"rt":null,"stimulus":"<p style=\"font-size: 50px; margin: 0; text-align: center;\">+</p>","response":null,"trial_type":"html-keyboard-response","trial_index":115,"plugin_version":"2.1.0","time_elapsed":794109,"subject_id":"87392","group":"Group1","full_date":"2025-12-07T02:39:38.612Z","date":"2025-12-07","time":"02:39:38"},{"task":"memory_phase","broad_category":"I","image_png":"I_Pumice_08.png","image_id":136,"category_name":"Pumice","category":9,"distinct_rating":3.1,"distinct_type":"Bottom","rt":null,"stimulus":"Stimuli_Rocks480/I_Pumice_08.png","response":null,"trial_type":"image-keyboard-response","trial_index":116,"plugin_version":"2.1.0","time_elapsed":796641,"subject_id":"87392","group":"Group1","full_date":"2025-12-07T02:39:38.612Z","date":"2025-12-07","time":"02:39:38"},{"rt":null,"stimulus":"<p style=\"font-size: 50px; margin: 0; text-align: center;\">+</p>","response":null,"trial_type":"html-keyboard-response","trial_index":117,"plugin_version":"2.1.0","time_elapsed":797644,"subject_id":"87392","group":"Group1","full_date":"2025-12-07T02:39:38.612Z","date":"2025-12-07","time":"02:39:38"},{"task":"memory_phase","broad_category":"I","image_png":"I_Andesite_08.png","image_id":8,"category_name":"Andesite","category":1,"distinct_rating":1.95,"distinct_type":"Bottom","rt":null,"stimulus":"Stimuli_Rocks480/I_Andesite_08.png","response":null,"trial_type":"image-keyboard-response","trial_index":118,"plugin_version":"2.1.0","time_elapsed":800151,"subject_id":"87392","group":"Group1","full_date":"2025-12-07T02:39:38.612Z","date":"2025-12-07","time":"02:39:38"},{"rt":null,"stimulus":"<p style=\"font-size: 50px; margin: 0; text-align: center;\">+</p>","response":null,"trial_type":"html-keyboard-response","trial_index":119,"plugin_version":"2.1.0","time_elapsed":801154,"subject_id":"87392","group":"Group1","full_date":"2025-12-07T02:39:38.612Z","date":"2025-12-07","time":"02:39:38"},{"task":"memory_phase","broad_category":"M","image_png":"M_Phyllite_03.png","image_id":259,"category_name":"Phyllite","category":17,"distinct_rating":2.5,"distinct_type":"Bottom","rt":null,"stimulus":"Stimuli_Rocks480/M_Phyllite_03.png","response":null,"trial_type":"image-keyboard-response","trial_index":120,"plugin_version":"2.1.0","time_elapsed":803687,"subject_id":"87392","group":"Group1","full_date":"2025-12-07T02:39:38.612Z","date":"2025-12-07","time":"02:39:38"},{"rt":null,"stimulus":"<p style=\"font-size: 50px; margin: 0; text-align: center;\">+</p>","response":null,"trial_type":"html-keyboard-response","trial_index":121,"plugin_version":"2.1.0","time_elapsed":804690,"subject_id":"87392","group":"Group1","full_date":"2025-12-07T02:39:38.612Z","date":"2025-12-07","time":"02:39:38"},{"task":"memory_phase","broad_category":"I","image_png":"I_Pumice_12.png","image_id":140,"category_name":"Pumice","category":9,"distinct_rating":2.97,"distinct_type":"Bottom","rt":null,"stimulus":"Stimuli_Rocks480/I_Pumice_12.png","response":null,"trial_type":"image-keyboard-response","trial_index":122,"plugin_version":"2.1.0","time_elapsed":807197,"subject_id":"87392","group":"Group1","full_date":"2025-12-07T02:39:38.612Z","date":"2025-12-07","time":"02:39:38"},{"rt":null,"stimulus":"<p style=\"font-size: 50px; margin: 0; text-align: center;\">+</p>","response":null,"trial_type":"html-keyboard-response","trial_index":123,"plugin_version":"2.1.0","time_elapsed":808200,"subject_id":"87392","group":"Group1","full_date":"2025-12-07T02:39:38.612Z","date":"2025-12-07","time":"02:39:38"},{"task":"memory_phase","broad_category":"M","image_png":"M_Quartzite_13.png","image_id":285,"category_name":"Quartzite","category":18,"distinct_rating":2.27,"distinct_type":"Bottom","rt":null,"stimulus":"Stimuli_Rocks480/M_Quartzite_13.png","response":null,"trial_type":"image-keyboard-response","trial_index":124,"plugin_version":"2.1.0","time_elapsed":810734,"subject_id":"87392","group":"Group1","full_date":"2025-12-07T02:39:38.612Z","date":"2025-12-07","time":"02:39:38"},{"rt":null,"stimulus":"<p style=\"font-size: 50px; margin: 0; text-align: center;\">+</p>","response":null,"trial_type":"html-keyboard-response","trial_index":125,"plugin_version":"2.1.0","time_elapsed":811737,"subject_id":"87392","group":"Group1","full_date":"2025-12-07T02:39:38.612Z","date":"2025-12-07","time":"02:39:38"},{"task":"memory_phase","broad_category":"I","image_png":"I_Rhyolite_11.png","image_id":155,"category_name":"Rhyolite","category":10,"distinct_rating":1.73,"distinct_type":"Bottom","rt":null,"stimulus":"Stimuli_Rocks480/I_Rhyolite_11.png","response":null,"trial_type":"image-keyboard-response","trial_index":126,"plugin_version":"2.1.0","time_elapsed":814267,"subject_id":"87392","group":"Group1","full_date":"2025-12-07T02:39:38.612Z","date":"2025-12-07","time":"02:39:38"},{"rt":null,"stimulus":"<p style=\"font-size: 50px; margin: 0; text-align: center;\">+</p>","response":null,"trial_type":"html-keyboard-response","trial_index":127,"plugin_version":"2.1.0","time_elapsed":815269,"subject_id":"87392","group":"Group1","full_date":"2025-12-07T02:39:38.612Z","date":"2025-12-07","time":"02:39:38"},{"task":"memory_phase","broad_category":"I","image_png":"I_Gabbro_16.png","image_id":64,"category_name":"Gabbro","category":4,"distinct_rating":2.52,"distinct_type":"Bottom","rt":null,"stimulus":"Stimuli_Rocks480/I_Gabbro_16.png","response":null,"trial_type":"image-keyboard-response","trial_index":128,"plugin_version":"2.1.0","time_elapsed":817802,"subject_id":"87392","group":"Group1","full_date":"2025-12-07T02:39:38.612Z","date":"2025-12-07","time":"02:39:38"},{"rt":null,"stimulus":"<p style=\"font-size: 50px; margin: 0; text-align: center;\">+</p>","response":null,"trial_type":"html-keyboard-response","trial_index":129,"plugin_version":"2.1.0","time_elapsed":818805,"subject_id":"87392","group":"Group1","full_date":"2025-12-07T02:39:38.612Z","date":"2025-12-07","time":"02:39:38"},{"task":"memory_phase","broad_category":"I","image_png":"I_Pumice_11.png","image_id":139,"category_name":"Pumice","category":9,"distinct_rating":1.74,"distinct_type":"Bottom","rt":null,"stimulus":"Stimuli_Rocks480/I_Pumice_11.png","response":null,"trial_type":"image-keyboard-response","trial_index":130,"plugin_version":"2.1.0","time_elapsed":821327,"subject_id":"87392","group":"Group1","full_date":"2025-12-07T02:39:38.612Z","date":"2025-12-07","time":"02:39:38"},{"rt":null,"stimulus":"<p style=\"font-size: 50px; margin: 0; text-align: center;\">+</p>","response":null,"trial_type":"html-keyboard-response","trial_index":131,"plugin_version":"2.1.0","time_elapsed":822329,"subject_id":"87392","group":"Group1","full_date":"2025-12-07T02:39:38.612Z","date":"2025-12-07","time":"02:39:38"},{"task":"memory_phase","broad_category":"M","image_png":"M_Slate_11.png","image_id":315,"category_name":"Slate","category":20,"distinct_rating":2.75,"distinct_type":"Bottom","rt":null,"stimulus":"Stimuli_Rocks480/M_Slate_11.png","response":null,"trial_type":"image-keyboard-response","trial_index":132,"plugin_version":"2.1.0","time_elapsed":824860,"subject_id":"87392","group":"Group1","full_date":"2025-12-07T02:39:38.612Z","date":"2025-12-07","time":"02:39:38"},{"rt":null,"stimulus":"<p style=\"font-size: 50px; margin: 0; text-align: center;\">+</p>","response":null,"trial_type":"html-keyboard-response","trial_index":133,"plugin_version":"2.1.0","time_elapsed":825863,"subject_id":"87392","group":"Group1","full_date":"2025-12-07T02:39:38.612Z","date":"2025-12-07","time":"02:39:38"},{"task":"memory_phase","broad_category":"M","image_png":"M_Quartzite_08.png","image_id":280,"category_name":"Quartzite","category":18,"distinct_rating":2.15,"distinct_type":"Bottom","rt":null,"stimulus":"Stimuli_Rocks480/M_Quartzite_08.png","response":null,"trial_type":"image-keyboard-response","trial_index":134,"plugin_version":"2.1.0","time_elapsed":828393,"subject_id":"87392","group":"Group1","full_date":"2025-12-07T02:39:38.612Z","date":"2025-12-07","time":"02:39:38"},{"rt":null,"stimulus":"<p style=\"font-size: 50px; margin: 0; text-align: center;\">+</p>","response":null,"trial_type":"html-keyboard-response","trial_index":135,"plugin_version":"2.1.0","time_elapsed":829396,"subject_id":"87392","group":"Group1","full_date":"2025-12-07T02:39:38.612Z","date":"2025-12-07","time":"02:39:38"},{"task":"memory_phase","broad_category":"I","image_png":"I_Pegmatite_16.png","image_id":112,"category_name":"Pegmatite","category":7,"distinct_rating":7.03,"distinct_type":"Top","rt":null,"stimulus":"Stimuli_Rocks480/I_Pegmatite_16.png","response":null,"trial_type":"image-keyboard-response","trial_index":136,"plugin_version":"2.1.0","time_elapsed":831934,"subject_id":"87392","group":"Group1","full_date":"2025-12-07T02:39:38.612Z","date":"2025-12-07","time":"02:39:38"},{"rt":null,"stimulus":"<p style=\"font-size: 50px; margin: 0; text-align: center;\">+</p>","response":null,"trial_type":"html-keyboard-response","trial_index":137,"plugin_version":"2.1.0","time_elapsed":832938,"subject_id":"87392","group":"Group1","full_date":"2025-12-07T02:39:38.612Z","date":"2025-12-07","time":"02:39:38"},{"task":"memory_phase","broad_category":"I","image_png":"I_Diorite_05.png","image_id":37,"category_name":"Diorite","category":3,"distinct_rating":3.08,"distinct_type":"Bottom","rt":null,"stimulus":"Stimuli_Rocks480/I_Diorite_05.png","response":null,"trial_type":"image-keyboard-response","trial_index":138,"plugin_version":"2.1.0","time_elapsed":835445,"subject_id":"87392","group":"Group1","full_date":"2025-12-07T02:39:38.612Z","date":"2025-12-07","time":"02:39:38"},{"rt":null,"stimulus":"<p style=\"font-size: 50px; margin: 0; text-align: center;\">+</p>","response":null,"trial_type":"html-keyboard-response","trial_index":139,"plugin_version":"2.1.0","time_elapsed":836449,"subject_id":"87392","group":"Group1","full_date":"2025-12-07T02:39:38.612Z","date":"2025-12-07","time":"02:39:38"},{"task":"memory_phase","broad_category":"M","image_png":"M_Gneiss_13.png","image_id":205,"category_name":"Gneiss","category":13,"distinct_rating":3.26,"distinct_type":"Bottom","rt":null,"stimulus":"Stimuli_Rocks480/M_Gneiss_13.png","response":null,"trial_type":"image-keyboard-response","trial_index":140,"plugin_version":"2.1.0","time_elapsed":838978,"subject_id":"87392","group":"Group1","full_date":"2025-12-07T02:39:38.612Z","date":"2025-12-07","time":"02:39:38"},{"rt":null,"stimulus":"<p style=\"font-size: 50px; margin: 0; text-align: center;\">+</p>","response":null,"trial_type":"html-keyboard-response","trial_index":141,"plugin_version":"2.1.0","time_elapsed":839984,"subject_id":"87392","group":"Group1","full_date":"2025-12-07T02:39:38.612Z","date":"2025-12-07","time":"02:39:38"},{"task":"memory_phase","broad_category":"I","image_png":"I_Diorite_04.png","image_id":36,"category_name":"Diorite","category":3,"distinct_rating":2.98,"distinct_type":"Bottom","rt":null,"stimulus":"Stimuli_Rocks480/I_Diorite_04.png","response":null,"trial_type":"image-keyboard-response","trial_index":142,"plugin_version":"2.1.0","time_elapsed":842521,"subject_id":"87392","group":"Group1","full_date":"2025-12-07T02:39:38.612Z","date":"2025-12-07","time":"02:39:38"},{"rt":null,"stimulus":"<p style=\"font-size: 50px; margin: 0; text-align: center;\">+</p>","response":null,"trial_type":"html-keyboard-response","trial_index":143,"plugin_version":"2.1.0","time_elapsed":843524,"subject_id":"87392","group":"Group1","full_date":"2025-12-07T02:39:38.612Z","date":"2025-12-07","time":"02:39:38"},{"task":"memory_phase","broad_category":"S","image_png":"S_Dolomite_13.png","image_id":397,"category_name":"Dolomite","category":25,"distinct_rating":1.77,"distinct_type":"Bottom","rt":null,"stimulus":"Stimuli_Rocks480/S_Dolomite_13.png","response":null,"trial_type":"image-keyboard-response","trial_index":144,"plugin_version":"2.1.0","time_elapsed":846057,"subject_id":"87392","group":"Group1","full_date":"2025-12-07T02:39:38.612Z","date":"2025-12-07","time":"02:39:38"},{"rt":null,"stimulus":"<p style=\"font-size: 50px; margin: 0; text-align: center;\">+</p>","response":null,"trial_type":"html-keyboard-response","trial_index":145,"plugin_version":"2.1.0","time_elapsed":847060,"subject_id":"87392","group":"Group1","full_date":"2025-12-07T02:39:38.612Z","date":"2025-12-07","time":"02:39:38"},{"task":"memory_phase","broad_category":"S","image_png":"S_Shale_12.png","image_id":476,"category_name":"Shale","category":30,"distinct_rating":2.48,"distinct_type":"Bottom","rt":null,"stimulus":"Stimuli_Rocks480/S_Shale_12.png","response":null,"trial_type":"image-keyboard-response","trial_index":146,"plugin_version":"2.1.0","time_elapsed":849599,"subject_id":"87392","group":"Group1","full_date":"2025-12-07T02:39:38.612Z","date":"2025-12-07","time":"02:39:38"},{"rt":null,"stimulus":"<p style=\"font-size: 50px; margin: 0; text-align: center;\">+</p>","response":null,"trial_type":"html-keyboard-response","trial_index":147,"plugin_version":"2.1.0","time_elapsed":850602,"subject_id":"87392","group":"Group1","full_date":"2025-12-07T02:39:38.612Z","date":"2025-12-07","time":"02:39:38"},{"task":"memory_phase","broad_category":"I","image_png":"I_Rhyolite_16.png","image_id":160,"category_name":"Rhyolite","category":10,"distinct_rating":2.19,"distinct_type":"Bottom","rt":null,"stimulus":"Stimuli_Rocks480/I_Rhyolite_16.png","response":null,"trial_type":"image-keyboard-response","trial_index":148,"plugin_version":"2.1.0","time_elapsed":853131,"subject_id":"87392","group":"Group1","full_date":"2025-12-07T02:39:38.612Z","date":"2025-12-07","time":"02:39:38"},{"rt":null,"stimulus":"<p style=\"font-size: 50px; margin: 0; text-align: center;\">+</p>","response":null,"trial_type":"html-keyboard-response","trial_index":149,"plugin_version":"2.1.0","time_elapsed":854137,"subject_id":"87392","group":"Group1","full_date":"2025-12-07T02:39:38.612Z","date":"2025-12-07","time":"02:39:38"},{"task":"memory_phase","broad_category":"S","image_png":"S_Dolomite_12.png","image_id":396,"category_name":"Dolomite","category":25,"distinct_rating":1.85,"distinct_type":"Bottom","rt":null,"stimulus":"Stimuli_Rocks480/S_Dolomite_12.png","response":null,"trial_type":"image-keyboard-response","trial_index":150,"plugin_version":"2.1.0","time_elapsed":856672,"subject_id":"87392","group":"Group1","full_date":"2025-12-07T02:39:38.612Z","date":"2025-12-07","time":"02:39:38"},{"rt":null,"stimulus":"<p style=\"font-size: 50px; margin: 0; text-align: center;\">+</p>","response":null,"trial_type":"html-keyboard-response","trial_index":151,"plugin_version":"2.1.0","time_elapsed":857676,"subject_id":"87392","group":"Group1","full_date":"2025-12-07T02:39:38.612Z","date":"2025-12-07","time":"02:39:38"},{"task":"memory_phase","broad_category":"M","image_png":"M_Quartzite_05.png","image_id":277,"category_name":"Quartzite","category":18,"distinct_rating":2.23,"distinct_type":"Bottom","rt":null,"stimulus":"Stimuli_Rocks480/M_Quartzite_05.png","response":null,"trial_type":"image-keyboard-response","trial_index":152,"plugin_version":"2.1.0","time_elapsed":860212,"subject_id":"87392","group":"Group1","full_date":"2025-12-07T02:39:38.612Z","date":"2025-12-07","time":"02:39:38"},{"rt":null,"stimulus":"<p style=\"font-size: 50px; margin: 0; text-align: center;\">+</p>","response":null,"trial_type":"html-keyboard-response","trial_index":153,"plugin_version":"2.1.0","time_elapsed":861216,"subject_id":"87392","group":"Group1","full_date":"2025-12-07T02:39:38.612Z","date":"2025-12-07","time":"02:39:38"},{"task":"memory_phase","broad_category":"S","image_png":"S_Rock Salt_01.png","image_id":433,"category_name":"Rock Salt","category":28,"distinct_rating":7.18,"distinct_type":"Top","rt":null,"stimulus":"Stimuli_Rocks480/S_Rock Salt_01.png","response":null,"trial_type":"image-keyboard-response","trial_index":154,"plugin_version":"2.1.0","time_elapsed":863756,"subject_id":"87392","group":"Group1","full_date":"2025-12-07T02:39:38.612Z","date":"2025-12-07","time":"02:39:38"},{"rt":null,"stimulus":"<p style=\"font-size: 50px; margin: 0; text-align: center;\">+</p>","response":null,"trial_type":"html-keyboard-response","trial_index":155,"plugin_version":"2.1.0","time_elapsed":864760,"subject_id":"87392","group":"Group1","full_date":"2025-12-07T02:39:38.612Z","date":"2025-12-07","time":"02:39:38"},{"task":"memory_phase","broad_category":"I","image_png":"I_Obsidian_05.png","image_id":85,"category_name":"Obsidian","category":6,"distinct_rating":7.32,"distinct_type":"Top","rt":null,"stimulus":"Stimuli_Rocks480/I_Obsidian_05.png","response":null,"trial_type":"image-keyboard-response","trial_index":156,"plugin_version":"2.1.0","time_elapsed":867296,"subject_id":"87392","group":"Group1","full_date":"2025-12-07T02:39:38.612Z","date":"2025-12-07","time":"02:39:38"},{"rt":368171,"stimulus":"<p style=\"max-width: 760px; margin: auto; font-size: 35px; line-height: 1.5;\">Press SPACE to continue study phase</p>","response":" ","trial_type":"html-keyboard-response","trial_index":157,"plugin_version":"2.1.0","time_elapsed":1235459,"subject_id":"87392","group":"Group1","full_date":"2025-12-07T02:39:38.612Z","date":"2025-12-07","time":"02:39:38"},{"rt":null,"stimulus":"<p style=\"font-size: 50px; margin: 0; text-align: center;\">+</p>","response":null,"trial_type":"html-keyboard-response","trial_index":158,"plugin_version":"2.1.0","time_elapsed":1236462,"subject_id":"87392","group":"Group1","full_date":"2025-12-07T02:39:38.612Z","date":"2025-12-07","time":"02:39:38"},{"task":"memory_phase","broad_category":"S","image_png":"S_Shale_01.png","image_id":465,"category_name":"Shale","category":30,"distinct_rating":2.7,"distinct_type":"Bottom","rt":null,"stimulus":"Stimuli_Rocks480/S_Shale_01.png","response":null,"trial_type":"image-keyboard-response","trial_index":159,"plugin_version":"2.1.0","time_elapsed":1238995,"subject_id":"87392","group":"Group1","full_date":"2025-12-07T02:39:38.612Z","date":"2025-12-07","time":"02:39:38"},{"rt":null,"stimulus":"<p style=\"font-size: 50px; margin: 0; text-align: center;\">+</p>","response":null,"trial_type":"html-keyboard-response","trial_index":160,"plugin_version":"2.1.0","time_elapsed":1239998,"subject_id":"87392","group":"Group1","full_date":"2025-12-07T02:39:38.612Z","date":"2025-12-07","time":"02:39:38"},{"task":"memory_phase","broad_category":"M","image_png":"M_Slate_15.png","image_id":319,"category_name":"Slate","category":20,"distinct_rating":2.13,"distinct_type":"Bottom","rt":null,"stimulus":"Stimuli_Rocks480/M_Slate_15.png","response":null,"trial_type":"image-keyboard-response","trial_index":161,"plugin_version":"2.1.0","time_elapsed":1242522,"subject_id":"87392","group":"Group1","full_date":"2025-12-07T02:39:38.612Z","date":"2025-12-07","time":"02:39:38"},{"rt":null,"stimulus":"<p style=\"font-size: 50px; margin: 0; text-align: center;\">+</p>","response":null,"trial_type":"html-keyboard-response","trial_index":162,"plugin_version":"2.1.0","time_elapsed":1243525,"subject_id":"87392","group":"Group1","full_date":"2025-12-07T02:39:38.612Z","date":"2025-12-07","time":"02:39:38"},{"task":"memory_phase","broad_category":"I","image_png":"I_Gabbro_11.png","image_id":59,"category_name":"Gabbro","category":4,"distinct_rating":1.99,"distinct_type":"Bottom","rt":null,"stimulus":"Stimuli_Rocks480/I_Gabbro_11.png","response":null,"trial_type":"image-keyboard-response","trial_index":163,"plugin_version":"2.1.0","time_elapsed":1246056,"subject_id":"87392","group":"Group1","full_date":"2025-12-07T02:39:38.612Z","date":"2025-12-07","time":"02:39:38"},{"rt":null,"stimulus":"<p style=\"font-size: 50px; margin: 0; text-align: center;\">+</p>","response":null,"trial_type":"html-keyboard-response","trial_index":164,"plugin_version":"2.1.0","time_elapsed":1247058,"subject_id":"87392","group":"Group1","full_date":"2025-12-07T02:39:38.612Z","date":"2025-12-07","time":"02:39:38"},{"task":"memory_phase","broad_category":"M","image_png":"M_Marble_16.png","image_id":240,"category_name":"Marble","category":15,"distinct_rating":2.57,"distinct_type":"Bottom","rt":null,"stimulus":"Stimuli_Rocks480/M_Marble_16.png","response":null,"trial_type":"image-keyboard-response","trial_index":165,"plugin_version":"2.1.0","time_elapsed":1249596,"subject_id":"87392","group":"Group1","full_date":"2025-12-07T02:39:38.612Z","date":"2025-12-07","time":"02:39:38"},{"rt":null,"stimulus":"<p style=\"font-size: 50px; margin: 0; text-align: center;\">+</p>","response":null,"trial_type":"html-keyboard-response","trial_index":166,"plugin_version":"2.1.0","time_elapsed":1250600,"subject_id":"87392","group":"Group1","full_date":"2025-12-07T02:39:38.612Z","date":"2025-12-07","time":"02:39:38"},{"task":"memory_phase","broad_category":"I","image_png":"I_Diorite_03.png","image_id":35,"category_name":"Diorite","category":3,"distinct_rating":3.14,"distinct_type":"Bottom","rt":null,"stimulus":"Stimuli_Rocks480/I_Diorite_03.png","response":null,"trial_type":"image-keyboard-response","trial_index":167,"plugin_version":"2.1.0","time_elapsed":1253140,"subject_id":"87392","group":"Group1","full_date":"2025-12-07T02:39:38.612Z","date":"2025-12-07","time":"02:39:38"},{"rt":null,"stimulus":"<p style=\"font-size: 50px; margin: 0; text-align: center;\">+</p>","response":null,"trial_type":"html-keyboard-response","trial_index":168,"plugin_version":"2.1.0","time_elapsed":1254143,"subject_id":"87392","group":"Group1","full_date":"2025-12-07T02:39:38.612Z","date":"2025-12-07","time":"02:39:38"},{"task":"memory_phase","broad_category":"I","image_png":"I_Gabbro_08.png","image_id":56,"category_name":"Gabbro","category":4,"distinct_rating":3.02,"distinct_type":"Bottom","rt":null,"stimulus":"Stimuli_Rocks480/I_Gabbro_08.png","response":null,"trial_type":"image-keyboard-response","trial_index":169,"plugin_version":"2.1.0","time_elapsed":1256671,"subject_id":"87392","group":"Group1","full_date":"2025-12-07T02:39:38.612Z","date":"2025-12-07","time":"02:39:38"},{"rt":null,"stimulus":"<p style=\"font-size: 50px; margin: 0; text-align: center;\">+</p>","response":null,"trial_type":"html-keyboard-response","trial_index":170,"plugin_version":"2.1.0","time_elapsed":1257675,"subject_id":"87392","group":"Group1","full_date":"2025-12-07T02:39:38.612Z","date":"2025-12-07","time":"02:39:38"},{"task":"memory_phase","broad_category":"M","image_png":"M_Gneiss_06.png","image_id":198,"category_name":"Gneiss","category":13,"distinct_rating":2.65,"distinct_type":"Bottom","rt":null,"stimulus":"Stimuli_Rocks480/M_Gneiss_06.png","response":null,"trial_type":"image-keyboard-response","trial_index":171,"plugin_version":"2.1.0","time_elapsed":1260217,"subject_id":"87392","group":"Group1","full_date":"2025-12-07T02:39:38.612Z","date":"2025-12-07","time":"02:39:38"},{"rt":null,"stimulus":"<p style=\"font-size: 50px; margin: 0; text-align: center;\">+</p>","response":null,"trial_type":"html-keyboard-response","trial_index":172,"plugin_version":"2.1.0","time_elapsed":1261220,"subject_id":"87392","group":"Group1","full_date":"2025-12-07T02:39:38.612Z","date":"2025-12-07","time":"02:39:38"},{"task":"memory_phase","broad_category":"S","image_png":"S_Sandstone_15.png","image_id":463,"category_name":"Sandstone","category":29,"distinct_rating":2,"distinct_type":"Bottom","rt":null,"stimulus":"Stimuli_Rocks480/S_Sandstone_15.png","response":null,"trial_type":"image-keyboard-response","trial_index":173,"plugin_version":"2.1.0","time_elapsed":1263762,"subject_id":"87392","group":"Group1","full_date":"2025-12-07T02:39:38.612Z","date":"2025-12-07","time":"02:39:38"},{"rt":null,"stimulus":"<p style=\"font-size: 50px; margin: 0; text-align: center;\">+</p>","response":null,"trial_type":"html-keyboard-response","trial_index":174,"plugin_version":"2.1.0","time_elapsed":1264765,"subject_id":"87392","group":"Group1","full_date":"2025-12-07T02:39:38.612Z","date":"2025-12-07","time":"02:39:38"},{"task":"memory_phase","broad_category":"S","image_png":"S_Rock Gypsum_04.png","image_id":420,"category_name":"Rock Gypsum","category":27,"distinct_rating":7.61,"distinct_type":"Top","rt":null,"stimulus":"Stimuli_Rocks480/S_Rock Gypsum_04.png","response":null,"trial_type":"image-keyboard-response","trial_index":175,"plugin_version":"2.1.0","time_elapsed":1267301,"subject_id":"87392","group":"Group1","full_date":"2025-12-07T02:39:38.612Z","date":"2025-12-07","time":"02:39:38"},{"rt":null,"stimulus":"<p style=\"font-size: 50px; margin: 0; text-align: center;\">+</p>","response":null,"trial_type":"html-keyboard-response","trial_index":176,"plugin_version":"2.1.0","time_elapsed":1268304,"subject_id":"87392","group":"Group1","full_date":"2025-12-07T02:39:38.612Z","date":"2025-12-07","time":"02:39:38"},{"task":"memory_phase","broad_category":"M","image_png":"M_Phyllite_10.png","image_id":266,"category_name":"Phyllite","category":17,"distinct_rating":2.6,"distinct_type":"Bottom","rt":null,"stimulus":"Stimuli_Rocks480/M_Phyllite_10.png","response":null,"trial_type":"image-keyboard-response","trial_index":177,"plugin_version":"2.1.0","time_elapsed":1270838,"subject_id":"87392","group":"Group1","full_date":"2025-12-07T02:39:38.612Z","date":"2025-12-07","time":"02:39:38"},{"rt":null,"stimulus":"<p style=\"font-size: 50px; margin: 0; text-align: center;\">+</p>","response":null,"trial_type":"html-keyboard-response","trial_index":178,"plugin_version":"2.1.0","time_elapsed":1271841,"subject_id":"87392","group":"Group1","full_date":"2025-12-07T02:39:38.612Z","date":"2025-12-07","time":"02:39:38"},{"task":"memory_phase","broad_category":"S","image_png":"S_Sandstone_03.png","image_id":451,"category_name":"Sandstone","category":29,"distinct_rating":1.86,"distinct_type":"Bottom","rt":null,"stimulus":"Stimuli_Rocks480/S_Sandstone_03.png","response":null,"trial_type":"image-keyboard-response","trial_index":179,"plugin_version":"2.1.0","time_elapsed":1274377,"subject_id":"87392","group":"Group1","full_date":"2025-12-07T02:39:38.612Z","date":"2025-12-07","time":"02:39:38"},{"rt":null,"stimulus":"<p style=\"font-size: 50px; margin: 0; text-align: center;\">+</p>","response":null,"trial_type":"html-keyboard-response","trial_index":180,"plugin_version":"2.1.0","time_elapsed":1275380,"subject_id":"87392","group":"Group1","full_date":"2025-12-07T02:39:38.612Z","date":"2025-12-07","time":"02:39:38"},{"task":"memory_phase","broad_category":"I","image_png":"I_Pegmatite_10.png","image_id":106,"category_name":"Pegmatite","category":7,"distinct_rating":7.66,"distinct_type":"Top","rt":null,"stimulus":"Stimuli_Rocks480/I_Pegmatite_10.png","response":null,"trial_type":"image-keyboard-response","trial_index":181,"plugin_version":"2.1.0","time_elapsed":1277910,"subject_id":"87392","group":"Group1","full_date":"2025-12-07T02:39:38.612Z","date":"2025-12-07","time":"02:39:38"},{"rt":null,"stimulus":"<p style=\"font-size: 50px; margin: 0; text-align: center;\">+</p>","response":null,"trial_type":"html-keyboard-response","trial_index":182,"plugin_version":"2.1.0","time_elapsed":1278912,"subject_id":"87392","group":"Group1","full_date":"2025-12-07T02:39:38.612Z","date":"2025-12-07","time":"02:39:38"},{"task":"memory_phase","broad_category":"S","image_png":"S_Conglomerate_05.png","image_id":373,"category_name":"Conglomerate","category":24,"distinct_rating":7.32,"distinct_type":"Top","rt":null,"stimulus":"Stimuli_Rocks480/S_Conglomerate_05.png","response":null,"trial_type":"image-keyboard-response","trial_index":183,"plugin_version":"2.1.0","time_elapsed":1281448,"subject_id":"87392","group":"Group1","full_date":"2025-12-07T02:39:38.612Z","date":"2025-12-07","time":"02:39:38"},{"rt":null,"stimulus":"<p style=\"font-size: 50px; margin: 0; text-align: center;\">+</p>","response":null,"trial_type":"html-keyboard-response","trial_index":184,"plugin_version":"2.1.0","time_elapsed":1282454,"subject_id":"87392","group":"Group1","full_date":"2025-12-07T02:39:38.612Z","date":"2025-12-07","time":"02:39:38"},{"task":"memory_phase","broad_category":"I","image_png":"I_Andesite_10.png","image_id":10,"category_name":"Andesite","category":1,"distinct_rating":3.15,"distinct_type":"Bottom","rt":null,"stimulus":"Stimuli_Rocks480/I_Andesite_10.png","response":null,"trial_type":"image-keyboard-response","trial_index":185,"plugin_version":"2.1.0","time_elapsed":1284983,"subject_id":"87392","group":"Group1","full_date":"2025-12-07T02:39:38.612Z","date":"2025-12-07","time":"02:39:38"},{"rt":null,"stimulus":"<p style=\"font-size: 50px; margin: 0; text-align: center;\">+</p>","response":null,"trial_type":"html-keyboard-response","trial_index":186,"plugin_version":"2.1.0","time_elapsed":1285987,"subject_id":"87392","group":"Group1","full_date":"2025-12-07T02:39:38.612Z","date":"2025-12-07","time":"02:39:38"},{"task":"memory_phase","broad_category":"I","image_png":"I_Andesite_06.png","image_id":6,"category_name":"Andesite","category":1,"distinct_rating":3.17,"distinct_type":"Bottom","rt":null,"stimulus":"Stimuli_Rocks480/I_Andesite_06.png","response":null,"trial_type":"image-keyboard-response","trial_index":187,"plugin_version":"2.1.0","time_elapsed":1288525,"subject_id":"87392","group":"Group1","full_date":"2025-12-07T02:39:38.612Z","date":"2025-12-07","time":"02:39:38"},{"rt":null,"stimulus":"<p style=\"font-size: 50px; margin: 0; text-align: center;\">+</p>","response":null,"trial_type":"html-keyboard-response","trial_index":188,"plugin_version":"2.1.0","time_elapsed":1289528,"subject_id":"87392","group":"Group1","full_date":"2025-12-07T02:39:38.612Z","date":"2025-12-07","time":"02:39:38"},{"task":"memory_phase","broad_category":"S","image_png":"S_Breccia_11.png","image_id":347,"category_name":"Breccia","category":22,"distinct_rating":6.7,"distinct_type":"Top","rt":null,"stimulus":"Stimuli_Rocks480/S_Breccia_11.png","response":null,"trial_type":"image-keyboard-response","trial_index":189,"plugin_version":"2.1.0","time_elapsed":1292077,"subject_id":"87392","group":"Group1","full_date":"2025-12-07T02:39:38.612Z","date":"2025-12-07","time":"02:39:38"},{"rt":null,"stimulus":"<p style=\"font-size: 50px; margin: 0; text-align: center;\">+</p>","response":null,"trial_type":"html-keyboard-response","trial_index":190,"plugin_version":"2.1.0","time_elapsed":1293080,"subject_id":"87392","group":"Group1","full_date":"2025-12-07T02:39:38.612Z","date":"2025-12-07","time":"02:39:38"},{"task":"memory_phase","broad_category":"M","image_png":"M_Gneiss_05.png","image_id":197,"category_name":"Gneiss","category":13,"distinct_rating":2.97,"distinct_type":"Bottom","rt":null,"stimulus":"Stimuli_Rocks480/M_Gneiss_05.png","response":null,"trial_type":"image-keyboard-response","trial_index":191,"plugin_version":"2.1.0","time_elapsed":1295627,"subject_id":"87392","group":"Group1","full_date":"2025-12-07T02:39:38.612Z","date":"2025-12-07","time":"02:39:38"},{"rt":null,"stimulus":"<p style=\"font-size: 50px; margin: 0; text-align: center;\">+</p>","response":null,"trial_type":"html-keyboard-response","trial_index":192,"plugin_version":"2.1.0","time_elapsed":1296630,"subject_id":"87392","group":"Group1","full_date":"2025-12-07T02:39:38.612Z","date":"2025-12-07","time":"02:39:38"},{"task":"memory_phase","broad_category":"M","image_png":"M_Marble_06.png","image_id":230,"category_name":"Marble","category":15,"distinct_rating":3.4,"distinct_type":"Bottom","rt":null,"stimulus":"Stimuli_Rocks480/M_Marble_06.png","response":null,"trial_type":"image-keyboard-response","trial_index":193,"plugin_version":"2.1.0","time_elapsed":1299163,"subject_id":"87392","group":"Group1","full_date":"2025-12-07T02:39:38.612Z","date":"2025-12-07","time":"02:39:38"},{"rt":null,"stimulus":"<p style=\"font-size: 50px; margin: 0; text-align: center;\">+</p>","response":null,"trial_type":"html-keyboard-response","trial_index":194,"plugin_version":"2.1.0","time_elapsed":1300169,"subject_id":"87392","group":"Group1","full_date":"2025-12-07T02:39:38.612Z","date":"2025-12-07","time":"02:39:38"},{"task":"memory_phase","broad_category":"M","image_png":"M_Marble_04.png","image_id":228,"category_name":"Marble","category":15,"distinct_rating":3.15,"distinct_type":"Bottom","rt":null,"stimulus":"Stimuli_Rocks480/M_Marble_04.png","response":null,"trial_type":"image-keyboard-response","trial_index":195,"plugin_version":"2.1.0","time_elapsed":1302703,"subject_id":"87392","group":"Group1","full_date":"2025-12-07T02:39:38.612Z","date":"2025-12-07","time":"02:39:38"},{"rt":null,"stimulus":"<p style=\"font-size: 50px; margin: 0; text-align: center;\">+</p>","response":null,"trial_type":"html-keyboard-response","trial_index":196,"plugin_version":"2.1.0","time_elapsed":1303707,"subject_id":"87392","group":"Group1","full_date":"2025-12-07T02:39:38.612Z","date":"2025-12-07","time":"02:39:38"},{"task":"memory_phase","broad_category":"S","image_png":"S_Dolomite_14.png","image_id":398,"category_name":"Dolomite","category":25,"distinct_rating":1.43,"distinct_type":"Bottom","rt":null,"stimulus":"Stimuli_Rocks480/S_Dolomite_14.png","response":null,"trial_type":"image-keyboard-response","trial_index":197,"plugin_version":"2.1.0","time_elapsed":1306241,"subject_id":"87392","group":"Group1","full_date":"2025-12-07T02:39:38.612Z","date":"2025-12-07","time":"02:39:38"},{"rt":null,"stimulus":"<p style=\"font-size: 50px; margin: 0; text-align: center;\">+</p>","response":null,"trial_type":"html-keyboard-response","trial_index":198,"plugin_version":"2.1.0","time_elapsed":1307243,"subject_id":"87392","group":"Group1","full_date":"2025-12-07T02:39:38.612Z","date":"2025-12-07","time":"02:39:38"},{"task":"memory_phase","broad_category":"M","image_png":"M_Phyllite_07.png","image_id":263,"category_name":"Phyllite","category":17,"distinct_rating":2.59,"distinct_type":"Bottom","rt":null,"stimulus":"Stimuli_Rocks480/M_Phyllite_07.png","response":null,"trial_type":"image-keyboard-response","trial_index":199,"plugin_version":"2.1.0","time_elapsed":1309768,"subject_id":"87392","group":"Group1","full_date":"2025-12-07T02:39:38.612Z","date":"2025-12-07","time":"02:39:38"},{"rt":null,"stimulus":"<p style=\"font-size: 50px; margin: 0; text-align: center;\">+</p>","response":null,"trial_type":"html-keyboard-response","trial_index":200,"plugin_version":"2.1.0","time_elapsed":1310771,"subject_id":"87392","group":"Group1","full_date":"2025-12-07T02:39:38.612Z","date":"2025-12-07","time":"02:39:38"},{"task":"memory_phase","broad_category":"I","image_png":"I_Rhyolite_14.png","image_id":158,"category_name":"Rhyolite","category":10,"distinct_rating":2.59,"distinct_type":"Bottom","rt":null,"stimulus":"Stimuli_Rocks480/I_Rhyolite_14.png","response":null,"trial_type":"image-keyboard-response","trial_index":201,"plugin_version":"2.1.0","time_elapsed":1313300,"subject_id":"87392","group":"Group1","full_date":"2025-12-07T02:39:38.612Z","date":"2025-12-07","time":"02:39:38"},{"rt":null,"stimulus":"<p style=\"font-size: 50px; margin: 0; text-align: center;\">+</p>","response":null,"trial_type":"html-keyboard-response","trial_index":202,"plugin_version":"2.1.0","time_elapsed":1314303,"subject_id":"87392","group":"Group1","full_date":"2025-12-07T02:39:38.612Z","date":"2025-12-07","time":"02:39:38"},{"task":"memory_phase","broad_category":"I","image_png":"I_Basalt_09.png","image_id":25,"category_name":"Basalt","category":2,"distinct_rating":1.89,"distinct_type":"Bottom","rt":null,"stimulus":"Stimuli_Rocks480/I_Basalt_09.png","response":null,"trial_type":"image-keyboard-response","trial_index":203,"plugin_version":"2.1.0","time_elapsed":1316836,"subject_id":"87392","group":"Group1","full_date":"2025-12-07T02:39:38.612Z","date":"2025-12-07","time":"02:39:38"},{"rt":null,"stimulus":"<p style=\"font-size: 50px; margin: 0; text-align: center;\">+</p>","response":null,"trial_type":"html-keyboard-response","trial_index":204,"plugin_version":"2.1.0","time_elapsed":1317840,"subject_id":"87392","group":"Group1","full_date":"2025-12-07T02:39:38.612Z","date":"2025-12-07","time":"02:39:38"},{"task":"memory_phase","broad_category":"I","image_png":"I_Basalt_01.png","image_id":17,"category_name":"Basalt","category":2,"distinct_rating":1.92,"distinct_type":"Bottom","rt":null,"stimulus":"Stimuli_Rocks480/I_Basalt_01.png","response":null,"trial_type":"image-keyboard-response","trial_index":205,"plugin_version":"2.1.0","time_elapsed":1320383,"subject_id":"87392","group":"Group1","full_date":"2025-12-07T02:39:38.612Z","date":"2025-12-07","time":"02:39:38"},{"rt":null,"stimulus":"<p style=\"font-size: 50px; margin: 0; text-align: center;\">+</p>","response":null,"trial_type":"html-keyboard-response","trial_index":206,"plugin_version":"2.1.0","time_elapsed":1321389,"subject_id":"87392","group":"Group1","full_date":"2025-12-07T02:39:38.612Z","date":"2025-12-07","time":"02:39:38"},{"task":"memory_phase","broad_category":"I","image_png":"I_Basalt_02.png","image_id":18,"category_name":"Basalt","category":2,"distinct_rating":1.84,"distinct_type":"Bottom","rt":null,"stimulus":"Stimuli_Rocks480/I_Basalt_02.png","response":null,"trial_type":"image-keyboard-response","trial_index":207,"plugin_version":"2.1.0","time_elapsed":1323924,"subject_id":"87392","group":"Group1","full_date":"2025-12-07T02:39:38.612Z","date":"2025-12-07","time":"02:39:38"},{"rt":51454,"stimulus":"<p style=\"max-width: 760px; margin: auto; font-size: 35px; line-height: 1.5;\">You have completed 2 study phases. Now, we'll show you all the images again 1 more time.<br><br>Press SPACE to continue</p>","response":" ","trial_type":"html-keyboard-response","trial_index":208,"plugin_version":"2.1.0","time_elapsed":1375379,"subject_id":"87392","group":"Group1","full_date":"2025-12-07T02:39:38.612Z","date":"2025-12-07","time":"02:39:38"},{"rt":null,"stimulus":"<p style=\"font-size: 50px; margin: 0; text-align: center;\">+</p>","response":null,"trial_type":"html-keyboard-response","trial_index":209,"plugin_version":"2.1.0","time_elapsed":1376383,"subject_id":"87392","group":"Group1","full_date":"2025-12-07T02:39:38.612Z","date":"2025-12-07","time":"02:39:38"},{"task":"memory_phase","broad_category":"M","image_png":"M_Quartzite_08.png","image_id":280,"category_name":"Quartzite","category":18,"distinct_rating":2.15,"distinct_type":"Bottom","rt":null,"stimulus":"Stimuli_Rocks480/M_Quartzite_08.png","response":null,"trial_type":"image-keyboard-response","trial_index":210,"plugin_version":"2.1.0","time_elapsed":1378917,"subject_id":"87392","group":"Group1","full_date":"2025-12-07T02:39:38.612Z","date":"2025-12-07","time":"02:39:38"},{"rt":null,"stimulus":"<p style=\"font-size: 50px; margin: 0; text-align: center;\">+</p>","response":null,"trial_type":"html-keyboard-response","trial_index":211,"plugin_version":"2.1.0","time_elapsed":1379919,"subject_id":"87392","group":"Group1","full_date":"2025-12-07T02:39:38.612Z","date":"2025-12-07","time":"02:39:38"},{"task":"memory_phase","broad_category":"M","image_png":"M_Phyllite_07.png","image_id":263,"category_name":"Phyllite","category":17,"distinct_rating":2.59,"distinct_type":"Bottom","rt":null,"stimulus":"Stimuli_Rocks480/M_Phyllite_07.png","response":null,"trial_type":"image-keyboard-response","trial_index":212,"plugin_version":"2.1.0","time_elapsed":1382428,"subject_id":"87392","group":"Group1","full_date":"2025-12-07T02:39:38.612Z","date":"2025-12-07","time":"02:39:38"},{"rt":null,"stimulus":"<p style=\"font-size: 50px; margin: 0; text-align: center;\">+</p>","response":null,"trial_type":"html-keyboard-response","trial_index":213,"plugin_version":"2.1.0","time_elapsed":1383432,"subject_id":"87392","group":"Group1","full_date":"2025-12-07T02:39:38.612Z","date":"2025-12-07","time":"02:39:38"},{"task":"memory_phase","broad_category":"I","image_png":"I_Gabbro_11.png","image_id":59,"category_name":"Gabbro","category":4,"distinct_rating":1.99,"distinct_type":"Bottom","rt":null,"stimulus":"Stimuli_Rocks480/I_Gabbro_11.png","response":null,"trial_type":"image-keyboard-response","trial_index":214,"plugin_version":"2.1.0","time_elapsed":1385962,"subject_id":"87392","group":"Group1","full_date":"2025-12-07T02:39:38.612Z","date":"2025-12-07","time":"02:39:38"},{"rt":null,"stimulus":"<p style=\"font-size: 50px; margin: 0; text-align: center;\">+</p>","response":null,"trial_type":"html-keyboard-response","trial_index":215,"plugin_version":"2.1.0","time_elapsed":1386965,"subject_id":"87392","group":"Group1","full_date":"2025-12-07T02:39:38.612Z","date":"2025-12-07","time":"02:39:38"},{"task":"memory_phase","broad_category":"M","image_png":"M_Gneiss_06.png","image_id":198,"category_name":"Gneiss","category":13,"distinct_rating":2.65,"distinct_type":"Bottom","rt":null,"stimulus":"Stimuli_Rocks480/M_Gneiss_06.png","response":null,"trial_type":"image-keyboard-response","trial_index":216,"plugin_version":"2.1.0","time_elapsed":1389506,"subject_id":"87392","group":"Group1","full_date":"2025-12-07T02:39:38.612Z","date":"2025-12-07","time":"02:39:38"},{"rt":null,"stimulus":"<p style=\"font-size: 50px; margin: 0; text-align: center;\">+</p>","response":null,"trial_type":"html-keyboard-response","trial_index":217,"plugin_version":"2.1.0","time_elapsed":1390510,"subject_id":"87392","group":"Group1","full_date":"2025-12-07T02:39:38.612Z","date":"2025-12-07","time":"02:39:38"},{"task":"memory_phase","broad_category":"S","image_png":"S_Shale_01.png","image_id":465,"category_name":"Shale","category":30,"distinct_rating":2.7,"distinct_type":"Bottom","rt":null,"stimulus":"Stimuli_Rocks480/S_Shale_01.png","response":null,"trial_type":"image-keyboard-response","trial_index":218,"plugin_version":"2.1.0","time_elapsed":1393042,"subject_id":"87392","group":"Group1","full_date":"2025-12-07T02:39:38.612Z","date":"2025-12-07","time":"02:39:38"},{"rt":null,"stimulus":"<p style=\"font-size: 50px; margin: 0; text-align: center;\">+</p>","response":null,"trial_type":"html-keyboard-response","trial_index":219,"plugin_version":"2.1.0","time_elapsed":1394045,"subject_id":"87392","group":"Group1","full_date":"2025-12-07T02:39:38.612Z","date":"2025-12-07","time":"02:39:38"},{"task":"memory_phase","broad_category":"S","image_png":"S_Shale_12.png","image_id":476,"category_name":"Shale","category":30,"distinct_rating":2.48,"distinct_type":"Bottom","rt":null,"stimulus":"Stimuli_Rocks480/S_Shale_12.png","response":null,"trial_type":"image-keyboard-response","trial_index":220,"plugin_version":"2.1.0","time_elapsed":1396582,"subject_id":"87392","group":"Group1","full_date":"2025-12-07T02:39:38.612Z","date":"2025-12-07","time":"02:39:38"},{"rt":null,"stimulus":"<p style=\"font-size: 50px; margin: 0; text-align: center;\">+</p>","response":null,"trial_type":"html-keyboard-response","trial_index":221,"plugin_version":"2.1.0","time_elapsed":1397586,"subject_id":"87392","group":"Group1","full_date":"2025-12-07T02:39:38.612Z","date":"2025-12-07","time":"02:39:38"},{"task":"memory_phase","broad_category":"I","image_png":"I_Pegmatite_16.png","image_id":112,"category_name":"Pegmatite","category":7,"distinct_rating":7.03,"distinct_type":"Top","rt":null,"stimulus":"Stimuli_Rocks480/I_Pegmatite_16.png","response":null,"trial_type":"image-keyboard-response","trial_index":222,"plugin_version":"2.1.0","time_elapsed":1400122,"subject_id":"87392","group":"Group1","full_date":"2025-12-07T02:39:38.612Z","date":"2025-12-07","time":"02:39:38"},{"rt":null,"stimulus":"<p style=\"font-size: 50px; margin: 0; text-align: center;\">+</p>","response":null,"trial_type":"html-keyboard-response","trial_index":223,"plugin_version":"2.1.0","time_elapsed":1401125,"subject_id":"87392","group":"Group1","full_date":"2025-12-07T02:39:38.612Z","date":"2025-12-07","time":"02:39:38"},{"task":"memory_phase","broad_category":"I","image_png":"I_Gabbro_16.png","image_id":64,"category_name":"Gabbro","category":4,"distinct_rating":2.52,"distinct_type":"Bottom","rt":null,"stimulus":"Stimuli_Rocks480/I_Gabbro_16.png","response":null,"trial_type":"image-keyboard-response","trial_index":224,"plugin_version":"2.1.0","time_elapsed":1403657,"subject_id":"87392","group":"Group1","full_date":"2025-12-07T02:39:38.612Z","date":"2025-12-07","time":"02:39:38"},{"rt":null,"stimulus":"<p style=\"font-size: 50px; margin: 0; text-align: center;\">+</p>","response":null,"trial_type":"html-keyboard-response","trial_index":225,"plugin_version":"2.1.0","time_elapsed":1404661,"subject_id":"87392","group":"Group1","full_date":"2025-12-07T02:39:38.612Z","date":"2025-12-07","time":"02:39:38"},{"task":"memory_phase","broad_category":"M","image_png":"M_Slate_03.png","image_id":307,"category_name":"Slate","category":20,"distinct_rating":1.87,"distinct_type":"Bottom","rt":null,"stimulus":"Stimuli_Rocks480/M_Slate_03.png","response":null,"trial_type":"image-keyboard-response","trial_index":226,"plugin_version":"2.1.0","time_elapsed":1407196,"subject_id":"87392","group":"Group1","full_date":"2025-12-07T02:39:38.612Z","date":"2025-12-07","time":"02:39:38"},{"rt":null,"stimulus":"<p style=\"font-size: 50px; margin: 0; text-align: center;\">+</p>","response":null,"trial_type":"html-keyboard-response","trial_index":227,"plugin_version":"2.1.0","time_elapsed":1408202,"subject_id":"87392","group":"Group1","full_date":"2025-12-07T02:39:38.612Z","date":"2025-12-07","time":"02:39:38"},{"task":"memory_phase","broad_category":"S","image_png":"S_Chert_10.png","image_id":362,"category_name":"Chert","category":23,"distinct_rating":7.17,"distinct_type":"Top","rt":null,"stimulus":"Stimuli_Rocks480/S_Chert_10.png","response":null,"trial_type":"image-keyboard-response","trial_index":228,"plugin_version":"2.1.0","time_elapsed":1410732,"subject_id":"87392","group":"Group1","full_date":"2025-12-07T02:39:38.612Z","date":"2025-12-07","time":"02:39:38"},{"rt":null,"stimulus":"<p style=\"font-size: 50px; margin: 0; text-align: center;\">+</p>","response":null,"trial_type":"html-keyboard-response","trial_index":229,"plugin_version":"2.1.0","time_elapsed":1411735,"subject_id":"87392","group":"Group1","full_date":"2025-12-07T02:39:38.612Z","date":"2025-12-07","time":"02:39:38"},{"task":"memory_phase","broad_category":"S","image_png":"S_Sandstone_16.png","image_id":464,"category_name":"Sandstone","category":29,"distinct_rating":1.93,"distinct_type":"Bottom","rt":null,"stimulus":"Stimuli_Rocks480/S_Sandstone_16.png","response":null,"trial_type":"image-keyboard-response","trial_index":230,"plugin_version":"2.1.0","time_elapsed":1414263,"subject_id":"87392","group":"Group1","full_date":"2025-12-07T02:39:38.612Z","date":"2025-12-07","time":"02:39:38"},{"rt":null,"stimulus":"<p style=\"font-size: 50px; margin: 0; text-align: center;\">+</p>","response":null,"trial_type":"html-keyboard-response","trial_index":231,"plugin_version":"2.1.0","time_elapsed":1415269,"subject_id":"87392","group":"Group1","full_date":"2025-12-07T02:39:38.612Z","date":"2025-12-07","time":"02:39:38"},{"task":"memory_phase","broad_category":"M","image_png":"M_Gneiss_13.png","image_id":205,"category_name":"Gneiss","category":13,"distinct_rating":3.26,"distinct_type":"Bottom","rt":null,"stimulus":"Stimuli_Rocks480/M_Gneiss_13.png","response":null,"trial_type":"image-keyboard-response","trial_index":232,"plugin_version":"2.1.0","time_elapsed":1417799,"subject_id":"87392","group":"Group1","full_date":"2025-12-07T02:39:38.612Z","date":"2025-12-07","time":"02:39:38"},{"rt":null,"stimulus":"<p style=\"font-size: 50px; margin: 0; text-align: center;\">+</p>","response":null,"trial_type":"html-keyboard-response","trial_index":233,"plugin_version":"2.1.0","time_elapsed":1418802,"subject_id":"87392","group":"Group1","full_date":"2025-12-07T02:39:38.612Z","date":"2025-12-07","time":"02:39:38"},{"task":"memory_phase","broad_category":"M","image_png":"M_Marble_06.png","image_id":230,"category_name":"Marble","category":15,"distinct_rating":3.4,"distinct_type":"Bottom","rt":null,"stimulus":"Stimuli_Rocks480/M_Marble_06.png","response":null,"trial_type":"image-keyboard-response","trial_index":234,"plugin_version":"2.1.0","time_elapsed":1421308,"subject_id":"87392","group":"Group1","full_date":"2025-12-07T02:39:38.612Z","date":"2025-12-07","time":"02:39:38"},{"rt":null,"stimulus":"<p style=\"font-size: 50px; margin: 0; text-align: center;\">+</p>","response":null,"trial_type":"html-keyboard-response","trial_index":235,"plugin_version":"2.1.0","time_elapsed":1422311,"subject_id":"87392","group":"Group1","full_date":"2025-12-07T02:39:38.612Z","date":"2025-12-07","time":"02:39:38"},{"task":"memory_phase","broad_category":"S","image_png":"S_Sandstone_03.png","image_id":451,"category_name":"Sandstone","category":29,"distinct_rating":1.86,"distinct_type":"Bottom","rt":null,"stimulus":"Stimuli_Rocks480/S_Sandstone_03.png","response":null,"trial_type":"image-keyboard-response","trial_index":236,"plugin_version":"2.1.0","time_elapsed":1424844,"subject_id":"87392","group":"Group1","full_date":"2025-12-07T02:39:38.612Z","date":"2025-12-07","time":"02:39:38"},{"rt":null,"stimulus":"<p style=\"font-size: 50px; margin: 0; text-align: center;\">+</p>","response":null,"trial_type":"html-keyboard-response","trial_index":237,"plugin_version":"2.1.0","time_elapsed":1425850,"subject_id":"87392","group":"Group1","full_date":"2025-12-07T02:39:38.612Z","date":"2025-12-07","time":"02:39:38"},{"task":"memory_phase","broad_category":"M","image_png":"M_Quartzite_05.png","image_id":277,"category_name":"Quartzite","category":18,"distinct_rating":2.23,"distinct_type":"Bottom","rt":null,"stimulus":"Stimuli_Rocks480/M_Quartzite_05.png","response":null,"trial_type":"image-keyboard-response","trial_index":238,"plugin_version":"2.1.0","time_elapsed":1428387,"subject_id":"87392","group":"Group1","full_date":"2025-12-07T02:39:38.612Z","date":"2025-12-07","time":"02:39:38"},{"rt":null,"stimulus":"<p style=\"font-size: 50px; margin: 0; text-align: center;\">+</p>","response":null,"trial_type":"html-keyboard-response","trial_index":239,"plugin_version":"2.1.0","time_elapsed":1429394,"subject_id":"87392","group":"Group1","full_date":"2025-12-07T02:39:38.612Z","date":"2025-12-07","time":"02:39:38"},{"task":"memory_phase","broad_category":"I","image_png":"I_Obsidian_05.png","image_id":85,"category_name":"Obsidian","category":6,"distinct_rating":7.32,"distinct_type":"Top","rt":null,"stimulus":"Stimuli_Rocks480/I_Obsidian_05.png","response":null,"trial_type":"image-keyboard-response","trial_index":240,"plugin_version":"2.1.0","time_elapsed":1431929,"subject_id":"87392","group":"Group1","full_date":"2025-12-07T02:39:38.612Z","date":"2025-12-07","time":"02:39:38"},{"rt":null,"stimulus":"<p style=\"font-size: 50px; margin: 0; text-align: center;\">+</p>","response":null,"trial_type":"html-keyboard-response","trial_index":241,"plugin_version":"2.1.0","time_elapsed":1432932,"subject_id":"87392","group":"Group1","full_date":"2025-12-07T02:39:38.612Z","date":"2025-12-07","time":"02:39:38"},{"task":"memory_phase","broad_category":"S","image_png":"S_Sandstone_15.png","image_id":463,"category_name":"Sandstone","category":29,"distinct_rating":2,"distinct_type":"Bottom","rt":null,"stimulus":"Stimuli_Rocks480/S_Sandstone_15.png","response":null,"trial_type":"image-keyboard-response","trial_index":242,"plugin_version":"2.1.0","time_elapsed":1435473,"subject_id":"87392","group":"Group1","full_date":"2025-12-07T02:39:38.612Z","date":"2025-12-07","time":"02:39:38"},{"rt":null,"stimulus":"<p style=\"font-size: 50px; margin: 0; text-align: center;\">+</p>","response":null,"trial_type":"html-keyboard-response","trial_index":243,"plugin_version":"2.1.0","time_elapsed":1436477,"subject_id":"87392","group":"Group1","full_date":"2025-12-07T02:39:38.612Z","date":"2025-12-07","time":"02:39:38"},{"task":"memory_phase","broad_category":"I","image_png":"I_Andesite_08.png","image_id":8,"category_name":"Andesite","category":1,"distinct_rating":1.95,"distinct_type":"Bottom","rt":null,"stimulus":"Stimuli_Rocks480/I_Andesite_08.png","response":null,"trial_type":"image-keyboard-response","trial_index":244,"plugin_version":"2.1.0","time_elapsed":1439012,"subject_id":"87392","group":"Group1","full_date":"2025-12-07T02:39:38.612Z","date":"2025-12-07","time":"02:39:38"},{"rt":null,"stimulus":"<p style=\"font-size: 50px; margin: 0; text-align: center;\">+</p>","response":null,"trial_type":"html-keyboard-response","trial_index":245,"plugin_version":"2.1.0","time_elapsed":1440018,"subject_id":"87392","group":"Group1","full_date":"2025-12-07T02:39:38.612Z","date":"2025-12-07","time":"02:39:38"},{"task":"memory_phase","broad_category":"I","image_png":"I_Rhyolite_11.png","image_id":155,"category_name":"Rhyolite","category":10,"distinct_rating":1.73,"distinct_type":"Bottom","rt":null,"stimulus":"Stimuli_Rocks480/I_Rhyolite_11.png","response":null,"trial_type":"image-keyboard-response","trial_index":246,"plugin_version":"2.1.0","time_elapsed":1442550,"subject_id":"87392","group":"Group1","full_date":"2025-12-07T02:39:38.612Z","date":"2025-12-07","time":"02:39:38"},{"rt":null,"stimulus":"<p style=\"font-size: 50px; margin: 0; text-align: center;\">+</p>","response":null,"trial_type":"html-keyboard-response","trial_index":247,"plugin_version":"2.1.0","time_elapsed":1443554,"subject_id":"87392","group":"Group1","full_date":"2025-12-07T02:39:38.612Z","date":"2025-12-07","time":"02:39:38"},{"task":"memory_phase","broad_category":"S","image_png":"S_Rock Salt_01.png","image_id":433,"category_name":"Rock Salt","category":28,"distinct_rating":7.18,"distinct_type":"Top","rt":null,"stimulus":"Stimuli_Rocks480/S_Rock Salt_01.png","response":null,"t