[{"width":1710,"height":981,"webaudio":true,"browser":"chrome","browser_version":"141.0.0","mobile":false,"os":"Mac OS","fullscreen":true,"vsync_rate":60.02,"webcam":true,"microphone":true,"trial_type":"browser-check","trial_index":0,"plugin_version":"2.1.0","time_elapsed":1084,"subject_id":"88273","group":"Group2","full_date":"2025-12-04T19:52:51.017Z","date":"2025-12-04","time":"19:52:51"},{"success":true,"timeout":false,"failed_images":[],"failed_audio":[],"failed_video":[],"trial_type":"preload","trial_index":1,"plugin_version":"2.1.0","time_elapsed":3312,"subject_id":"88273","group":"Group2","full_date":"2025-12-04T19:52:51.017Z","date":"2025-12-04","time":"19:52:51"},{"rt":3766,"url":"SONA_consent_memorability.html","trial_type":"external-html","trial_index":2,"plugin_version":"2.1.0","time_elapsed":7128,"subject_id":"88273","group":"Group2","full_date":"2025-12-04T19:52:51.017Z","date":"2025-12-04","time":"19:52:51"},{"success":true,"rt":1265,"trial_type":"fullscreen","trial_index":3,"plugin_version":"2.1.0","time_elapsed":9396,"subject_id":"88273","group":"Group2","full_date":"2025-12-04T19:52:51.017Z","date":"2025-12-04","time":"19:52:51"},{"rt":1312,"stimulus":"<div style=\"max-width: 760px; margin: auto; font-size: 20px; line-height: 1.5;\">\n      <h1 style=\"text-align:center; font-size: 30px;\">Instructions</h1>\n      <p>\n        Welcome to the study on <b>visual memory</b>. This experiment consists of <b>two phases</b>: \n        a <b>study phase</b> and a <b>test phase</b>.\n      </p>\n      <p>\n        In the study phase, you will see a series of rock images along with their category labels.\n        The images will appear one at a time.\n        <b>Your task</b> is to learn the categories to which the rock images belong \n        and to remember each image as accurately as possible.\n      </p> \n      <p>\n        Note that we will repeat the study phase <b>3 times</b>, \n        so you will have multiple opportunities to see and remember each image.\n      </p>\n      <p>\n        After the study phase, <b>your memory will be tested</b>. \n        Additional instructions for the test phase will be provided at that time.\n      </p>\n      <p>\n        If your computer has multiple <b>language settings</b> (e.g., English and another language),\n        please make sure it is set to English before starting.\n      </p>\n      <p>\n        You can track your progress using the <b>completion bar</b> at the top of the screen. \n        Please note that the bar will refresh when the test phase begins \n        to give you an accurate sense of your progress in both phases.\n      </p> \n      <p>\n        Press the button below when you are ready to begin.\n      </p>\n    </div>","response":0,"trial_type":"html-button-response","trial_index":4,"plugin_version":"2.1.0","time_elapsed":10711,"subject_id":"88273","group":"Group2","full_date":"2025-12-04T19:52:51.017Z","date":"2025-12-04","time":"19:52:51"},{"rt":null,"stimulus":"<p style=\"font-size: 50px; margin: 0; text-align: center;\">+</p>","response":null,"trial_type":"html-keyboard-response","trial_index":5,"plugin_version":"2.1.0","time_elapsed":11714,"subject_id":"88273","group":"Group2","full_date":"2025-12-04T19:52:51.017Z","date":"2025-12-04","time":"19:52:51"},{"task":"memory_phase","broad_category":"M","image_png":"M_Quartzite_15.png","image_id":287,"category_name":"Quartzite","category":18,"distinct_rating":2.19,"distinct_type":"Bottom","rt":null,"stimulus":"Stimuli_Rocks480/M_Quartzite_15.png","response":null,"trial_type":"image-keyboard-response","trial_index":6,"plugin_version":"2.1.0","time_elapsed":14219,"subject_id":"88273","group":"Group2","full_date":"2025-12-04T19:52:51.017Z","date":"2025-12-04","time":"19:52:51"},{"rt":null,"stimulus":"<p style=\"font-size: 50px; margin: 0; text-align: center;\">+</p>","response":null,"trial_type":"html-keyboard-response","trial_index":7,"plugin_version":"2.1.0","time_elapsed":15221,"subject_id":"88273","group":"Group2","full_date":"2025-12-04T19:52:51.017Z","date":"2025-12-04","time":"19:52:51"},{"task":"memory_phase","broad_category":"M","image_png":"M_Slate_14.png","image_id":318,"category_name":"Slate","category":20,"distinct_rating":2.58,"distinct_type":"Bottom","rt":null,"stimulus":"Stimuli_Rocks480/M_Slate_14.png","response":null,"trial_type":"image-keyboard-response","trial_index":8,"plugin_version":"2.1.0","time_elapsed":17726,"subject_id":"88273","group":"Group2","full_date":"2025-12-04T19:52:51.017Z","date":"2025-12-04","time":"19:52:51"},{"rt":null,"stimulus":"<p style=\"font-size: 50px; margin: 0; text-align: center;\">+</p>","response":null,"trial_type":"html-keyboard-response","trial_index":9,"plugin_version":"2.1.0","time_elapsed":18728,"subject_id":"88273","group":"Group2","full_date":"2025-12-04T19:52:51.017Z","date":"2025-12-04","time":"19:52:51"},{"task":"memory_phase","broad_category":"S","image_png":"S_Rock Salt_15.png","image_id":447,"category_name":"Rock Salt","category":28,"distinct_rating":7.79,"distinct_type":"Top","rt":null,"stimulus":"Stimuli_Rocks480/S_Rock Salt_15.png","response":null,"trial_type":"image-keyboard-response","trial_index":10,"plugin_version":"2.1.0","time_elapsed":21233,"subject_id":"88273","group":"Group2","full_date":"2025-12-04T19:52:51.017Z","date":"2025-12-04","time":"19:52:51"},{"rt":null,"stimulus":"<p style=\"font-size: 50px; margin: 0; text-align: center;\">+</p>","response":null,"trial_type":"html-keyboard-response","trial_index":11,"plugin_version":"2.1.0","time_elapsed":22235,"subject_id":"88273","group":"Group2","full_date":"2025-12-04T19:52:51.017Z","date":"2025-12-04","time":"19:52:51"},{"task":"memory_phase","broad_category":"I","image_png":"I_Rhyolite_10.png","image_id":154,"category_name":"Rhyolite","category":10,"distinct_rating":2.88,"distinct_type":"Bottom","rt":null,"stimulus":"Stimuli_Rocks480/I_Rhyolite_10.png","response":null,"trial_type":"image-keyboard-response","trial_index":12,"plugin_version":"2.1.0","time_elapsed":24739,"subject_id":"88273","group":"Group2","full_date":"2025-12-04T19:52:51.017Z","date":"2025-12-04","time":"19:52:51"},{"rt":null,"stimulus":"<p style=\"font-size: 50px; margin: 0; text-align: center;\">+</p>","response":null,"trial_type":"html-keyboard-response","trial_index":13,"plugin_version":"2.1.0","time_elapsed":25741,"subject_id":"88273","group":"Group2","full_date":"2025-12-04T19:52:51.017Z","date":"2025-12-04","time":"19:52:51"},{"task":"memory_phase","broad_category":"I","image_png":"I_Rhyolite_05.png","image_id":149,"category_name":"Rhyolite","category":10,"distinct_rating":3.02,"distinct_type":"Bottom","rt":null,"stimulus":"Stimuli_Rocks480/I_Rhyolite_05.png","response":null,"trial_type":"image-keyboard-response","trial_index":14,"plugin_version":"2.1.0","time_elapsed":28245,"subject_id":"88273","group":"Group2","full_date":"2025-12-04T19:52:51.017Z","date":"2025-12-04","time":"19:52:51"},{"rt":null,"stimulus":"<p style=\"font-size: 50px; margin: 0; text-align: center;\">+</p>","response":null,"trial_type":"html-keyboard-response","trial_index":15,"plugin_version":"2.1.0","time_elapsed":29247,"subject_id":"88273","group":"Group2","full_date":"2025-12-04T19:52:51.017Z","date":"2025-12-04","time":"19:52:51"},{"task":"memory_phase","broad_category":"S","image_png":"S_Shale_03.png","image_id":467,"category_name":"Shale","category":30,"distinct_rating":1.95,"distinct_type":"Bottom","rt":null,"stimulus":"Stimuli_Rocks480/S_Shale_03.png","response":null,"trial_type":"image-keyboard-response","trial_index":16,"plugin_version":"2.1.0","time_elapsed":31751,"subject_id":"88273","group":"Group2","full_date":"2025-12-04T19:52:51.017Z","date":"2025-12-04","time":"19:52:51"},{"rt":null,"stimulus":"<p style=\"font-size: 50px; margin: 0; text-align: center;\">+</p>","response":null,"trial_type":"html-keyboard-response","trial_index":17,"plugin_version":"2.1.0","time_elapsed":32752,"subject_id":"88273","group":"Group2","full_date":"2025-12-04T19:52:51.017Z","date":"2025-12-04","time":"19:52:51"},{"task":"memory_phase","broad_category":"I","image_png":"I_Pegmatite_11.png","image_id":107,"category_name":"Pegmatite","category":7,"distinct_rating":7.11,"distinct_type":"Top","rt":null,"stimulus":"Stimuli_Rocks480/I_Pegmatite_11.png","response":null,"trial_type":"image-keyboard-response","trial_index":18,"plugin_version":"2.1.0","time_elapsed":35256,"subject_id":"88273","group":"Group2","full_date":"2025-12-04T19:52:51.017Z","date":"2025-12-04","time":"19:52:51"},{"rt":null,"stimulus":"<p style=\"font-size: 50px; margin: 0; text-align: center;\">+</p>","response":null,"trial_type":"html-keyboard-response","trial_index":19,"plugin_version":"2.1.0","time_elapsed":36257,"subject_id":"88273","group":"Group2","full_date":"2025-12-04T19:52:51.017Z","date":"2025-12-04","time":"19:52:51"},{"task":"memory_phase","broad_category":"S","image_png":"S_Chert_13.png","image_id":365,"category_name":"Chert","category":23,"distinct_rating":6.57,"distinct_type":"Top","rt":null,"stimulus":"Stimuli_Rocks480/S_Chert_13.png","response":null,"trial_type":"image-keyboard-response","trial_index":20,"plugin_version":"2.1.0","time_elapsed":38760,"subject_id":"88273","group":"Group2","full_date":"2025-12-04T19:52:51.017Z","date":"2025-12-04","time":"19:52:51"},{"rt":null,"stimulus":"<p style=\"font-size: 50px; margin: 0; text-align: center;\">+</p>","response":null,"trial_type":"html-keyboard-response","trial_index":21,"plugin_version":"2.1.0","time_elapsed":39762,"subject_id":"88273","group":"Group2","full_date":"2025-12-04T19:52:51.017Z","date":"2025-12-04","time":"19:52:51"},{"task":"memory_phase","broad_category":"I","image_png":"I_Peridotite_13.png","image_id":125,"category_name":"Peridotite","category":8,"distinct_rating":7.28,"distinct_type":"Top","rt":null,"stimulus":"Stimuli_Rocks480/I_Peridotite_13.png","response":null,"trial_type":"image-keyboard-response","trial_index":22,"plugin_version":"2.1.0","time_elapsed":42265,"subject_id":"88273","group":"Group2","full_date":"2025-12-04T19:52:51.017Z","date":"2025-12-04","time":"19:52:51"},{"rt":null,"stimulus":"<p style=\"font-size: 50px; margin: 0; text-align: center;\">+</p>","response":null,"trial_type":"html-keyboard-response","trial_index":23,"plugin_version":"2.1.0","time_elapsed":43268,"subject_id":"88273","group":"Group2","full_date":"2025-12-04T19:52:51.017Z","date":"2025-12-04","time":"19:52:51"},{"task":"memory_phase","broad_category":"S","image_png":"S_Dolomite_01.png","image_id":385,"category_name":"Dolomite","category":25,"distinct_rating":1.43,"distinct_type":"Bottom","rt":null,"stimulus":"Stimuli_Rocks480/S_Dolomite_01.png","response":null,"trial_type":"image-keyboard-response","trial_index":24,"plugin_version":"2.1.0","time_elapsed":45772,"subject_id":"88273","group":"Group2","full_date":"2025-12-04T19:52:51.017Z","date":"2025-12-04","time":"19:52:51"},{"rt":null,"stimulus":"<p style=\"font-size: 50px; margin: 0; text-align: center;\">+</p>","response":null,"trial_type":"html-keyboard-response","trial_index":25,"plugin_version":"2.1.0","time_elapsed":46774,"subject_id":"88273","group":"Group2","full_date":"2025-12-04T19:52:51.017Z","date":"2025-12-04","time":"19:52:51"},{"task":"memory_phase","broad_category":"I","image_png":"I_Pegmatite_03.png","image_id":99,"category_name":"Pegmatite","category":7,"distinct_rating":7.24,"distinct_type":"Top","rt":null,"stimulus":"Stimuli_Rocks480/I_Pegmatite_03.png","response":null,"trial_type":"image-keyboard-response","trial_index":26,"plugin_version":"2.1.0","time_elapsed":49278,"subject_id":"88273","group":"Group2","full_date":"2025-12-04T19:52:51.017Z","date":"2025-12-04","time":"19:52:51"},{"rt":null,"stimulus":"<p style=\"font-size: 50px; margin: 0; text-align: center;\">+</p>","response":null,"trial_type":"html-keyboard-response","trial_index":27,"plugin_version":"2.1.0","time_elapsed":50280,"subject_id":"88273","group":"Group2","full_date":"2025-12-04T19:52:51.017Z","date":"2025-12-04","time":"19:52:51"},{"task":"memory_phase","broad_category":"I","image_png":"I_Andesite_09.png","image_id":9,"category_name":"Andesite","category":1,"distinct_rating":2.49,"distinct_type":"Bottom","rt":null,"stimulus":"Stimuli_Rocks480/I_Andesite_09.png","response":null,"trial_type":"image-keyboard-response","trial_index":28,"plugin_version":"2.1.0","time_elapsed":52783,"subject_id":"88273","group":"Group2","full_date":"2025-12-04T19:52:51.017Z","date":"2025-12-04","time":"19:52:51"},{"rt":null,"stimulus":"<p style=\"font-size: 50px; margin: 0; text-align: center;\">+</p>","response":null,"trial_type":"html-keyboard-response","trial_index":29,"plugin_version":"2.1.0","time_elapsed":53785,"subject_id":"88273","group":"Group2","full_date":"2025-12-04T19:52:51.017Z","date":"2025-12-04","time":"19:52:51"},{"task":"memory_phase","broad_category":"I","image_png":"I_Diorite_01.png","image_id":33,"category_name":"Diorite","category":3,"distinct_rating":2.97,"distinct_type":"Bottom","rt":null,"stimulus":"Stimuli_Rocks480/I_Diorite_01.png","response":null,"trial_type":"image-keyboard-response","trial_index":30,"plugin_version":"2.1.0","time_elapsed":56288,"subject_id":"88273","group":"Group2","full_date":"2025-12-04T19:52:51.017Z","date":"2025-12-04","time":"19:52:51"},{"rt":null,"stimulus":"<p style=\"font-size: 50px; margin: 0; text-align: center;\">+</p>","response":null,"trial_type":"html-keyboard-response","trial_index":31,"plugin_version":"2.1.0","time_elapsed":57290,"subject_id":"88273","group":"Group2","full_date":"2025-12-04T19:52:51.017Z","date":"2025-12-04","time":"19:52:51"},{"task":"memory_phase","broad_category":"I","image_png":"I_Diorite_15.png","image_id":47,"category_name":"Diorite","category":3,"distinct_rating":3.05,"distinct_type":"Bottom","rt":null,"stimulus":"Stimuli_Rocks480/I_Diorite_15.png","response":null,"trial_type":"image-keyboard-response","trial_index":32,"plugin_version":"2.1.0","time_elapsed":59796,"subject_id":"88273","group":"Group2","full_date":"2025-12-04T19:52:51.017Z","date":"2025-12-04","time":"19:52:51"},{"rt":null,"stimulus":"<p style=\"font-size: 50px; margin: 0; text-align: center;\">+</p>","response":null,"trial_type":"html-keyboard-response","trial_index":33,"plugin_version":"2.1.0","time_elapsed":60797,"subject_id":"88273","group":"Group2","full_date":"2025-12-04T19:52:51.017Z","date":"2025-12-04","time":"19:52:51"},{"task":"memory_phase","broad_category":"I","image_png":"I_Pumice_13.png","image_id":141,"category_name":"Pumice","category":9,"distinct_rating":3.12,"distinct_type":"Bottom","rt":null,"stimulus":"Stimuli_Rocks480/I_Pumice_13.png","response":null,"trial_type":"image-keyboard-response","trial_index":34,"plugin_version":"2.1.0","time_elapsed":63299,"subject_id":"88273","group":"Group2","full_date":"2025-12-04T19:52:51.017Z","date":"2025-12-04","time":"19:52:51"},{"rt":null,"stimulus":"<p style=\"font-size: 50px; margin: 0; text-align: center;\">+</p>","response":null,"trial_type":"html-keyboard-response","trial_index":35,"plugin_version":"2.1.0","time_elapsed":64301,"subject_id":"88273","group":"Group2","full_date":"2025-12-04T19:52:51.017Z","date":"2025-12-04","time":"19:52:51"},{"task":"memory_phase","broad_category":"M","image_png":"M_Marble_02.png","image_id":226,"category_name":"Marble","category":15,"distinct_rating":3.2,"distinct_type":"Bottom","rt":null,"stimulus":"Stimuli_Rocks480/M_Marble_02.png","response":null,"trial_type":"image-keyboard-response","trial_index":36,"plugin_version":"2.1.0","time_elapsed":66803,"subject_id":"88273","group":"Group2","full_date":"2025-12-04T19:52:51.017Z","date":"2025-12-04","time":"19:52:51"},{"rt":null,"stimulus":"<p style=\"font-size: 50px; margin: 0; text-align: center;\">+</p>","response":null,"trial_type":"html-keyboard-response","trial_index":37,"plugin_version":"2.1.0","time_elapsed":67805,"subject_id":"88273","group":"Group2","full_date":"2025-12-04T19:52:51.017Z","date":"2025-12-04","time":"19:52:51"},{"task":"memory_phase","broad_category":"I","image_png":"I_Basalt_13.png","image_id":29,"category_name":"Basalt","category":2,"distinct_rating":2.68,"distinct_type":"Bottom","rt":null,"stimulus":"Stimuli_Rocks480/I_Basalt_13.png","response":null,"trial_type":"image-keyboard-response","trial_index":38,"plugin_version":"2.1.0","time_elapsed":70306,"subject_id":"88273","group":"Group2","full_date":"2025-12-04T19:52:51.017Z","date":"2025-12-04","time":"19:52:51"},{"rt":null,"stimulus":"<p style=\"font-size: 50px; margin: 0; text-align: center;\">+</p>","response":null,"trial_type":"html-keyboard-response","trial_index":39,"plugin_version":"2.1.0","time_elapsed":71308,"subject_id":"88273","group":"Group2","full_date":"2025-12-04T19:52:51.017Z","date":"2025-12-04","time":"19:52:51"},{"task":"memory_phase","broad_category":"M","image_png":"M_Slate_04.png","image_id":308,"category_name":"Slate","category":20,"distinct_rating":2.2,"distinct_type":"Bottom","rt":null,"stimulus":"Stimuli_Rocks480/M_Slate_04.png","response":null,"trial_type":"image-keyboard-response","trial_index":40,"plugin_version":"2.1.0","time_elapsed":73812,"subject_id":"88273","group":"Group2","full_date":"2025-12-04T19:52:51.017Z","date":"2025-12-04","time":"19:52:51"},{"rt":null,"stimulus":"<p style=\"font-size: 50px; margin: 0; text-align: center;\">+</p>","response":null,"trial_type":"html-keyboard-response","trial_index":41,"plugin_version":"2.1.0","time_elapsed":74815,"subject_id":"88273","group":"Group2","full_date":"2025-12-04T19:52:51.017Z","date":"2025-12-04","time":"19:52:51"},{"task":"memory_phase","broad_category":"S","image_png":"S_Sandstone_08.png","image_id":456,"category_name":"Sandstone","category":29,"distinct_rating":1.5,"distinct_type":"Bottom","rt":null,"stimulus":"Stimuli_Rocks480/S_Sandstone_08.png","response":null,"trial_type":"image-keyboard-response","trial_index":42,"plugin_version":"2.1.0","time_elapsed":77318,"subject_id":"88273","group":"Group2","full_date":"2025-12-04T19:52:51.017Z","date":"2025-12-04","time":"19:52:51"},{"rt":null,"stimulus":"<p style=\"font-size: 50px; margin: 0; text-align: center;\">+</p>","response":null,"trial_type":"html-keyboard-response","trial_index":43,"plugin_version":"2.1.0","time_elapsed":78320,"subject_id":"88273","group":"Group2","full_date":"2025-12-04T19:52:51.017Z","date":"2025-12-04","time":"19:52:51"},{"task":"memory_phase","broad_category":"I","image_png":"I_Obsidian_06.png","image_id":86,"category_name":"Obsidian","category":6,"distinct_rating":8.01,"distinct_type":"Top","rt":null,"stimulus":"Stimuli_Rocks480/I_Obsidian_06.png","response":null,"trial_type":"image-keyboard-response","trial_index":44,"plugin_version":"2.1.0","time_elapsed":80823,"subject_id":"88273","group":"Group2","full_date":"2025-12-04T19:52:51.017Z","date":"2025-12-04","time":"19:52:51"},{"rt":null,"stimulus":"<p style=\"font-size: 50px; margin: 0; text-align: center;\">+</p>","response":null,"trial_type":"html-keyboard-response","trial_index":45,"plugin_version":"2.1.0","time_elapsed":81825,"subject_id":"88273","group":"Group2","full_date":"2025-12-04T19:52:51.017Z","date":"2025-12-04","time":"19:52:51"},{"task":"memory_phase","broad_category":"S","image_png":"S_Sandstone_11.png","image_id":459,"category_name":"Sandstone","category":29,"distinct_rating":1.82,"distinct_type":"Bottom","rt":null,"stimulus":"Stimuli_Rocks480/S_Sandstone_11.png","response":null,"trial_type":"image-keyboard-response","trial_index":46,"plugin_version":"2.1.0","time_elapsed":84329,"subject_id":"88273","group":"Group2","full_date":"2025-12-04T19:52:51.017Z","date":"2025-12-04","time":"19:52:51"},{"rt":null,"stimulus":"<p style=\"font-size: 50px; margin: 0; text-align: center;\">+</p>","response":null,"trial_type":"html-keyboard-response","trial_index":47,"plugin_version":"2.1.0","time_elapsed":85331,"subject_id":"88273","group":"Group2","full_date":"2025-12-04T19:52:51.017Z","date":"2025-12-04","time":"19:52:51"},{"task":"memory_phase","broad_category":"M","image_png":"M_Gneiss_15.png","image_id":207,"category_name":"Gneiss","category":13,"distinct_rating":3.11,"distinct_type":"Bottom","rt":null,"stimulus":"Stimuli_Rocks480/M_Gneiss_15.png","response":null,"trial_type":"image-keyboard-response","trial_index":48,"plugin_version":"2.1.0","time_elapsed":87834,"subject_id":"88273","group":"Group2","full_date":"2025-12-04T19:52:51.017Z","date":"2025-12-04","time":"19:52:51"},{"rt":null,"stimulus":"<p style=\"font-size: 50px; margin: 0; text-align: center;\">+</p>","response":null,"trial_type":"html-keyboard-response","trial_index":49,"plugin_version":"2.1.0","time_elapsed":88837,"subject_id":"88273","group":"Group2","full_date":"2025-12-04T19:52:51.017Z","date":"2025-12-04","time":"19:52:51"},{"task":"memory_phase","broad_category":"I","image_png":"I_Gabbro_02.png","image_id":50,"category_name":"Gabbro","category":4,"distinct_rating":2.73,"distinct_type":"Bottom","rt":null,"stimulus":"Stimuli_Rocks480/I_Gabbro_02.png","response":null,"trial_type":"image-keyboard-response","trial_index":50,"plugin_version":"2.1.0","time_elapsed":91340,"subject_id":"88273","group":"Group2","full_date":"2025-12-04T19:52:51.017Z","date":"2025-12-04","time":"19:52:51"},{"rt":null,"stimulus":"<p style=\"font-size: 50px; margin: 0; text-align: center;\">+</p>","response":null,"trial_type":"html-keyboard-response","trial_index":51,"plugin_version":"2.1.0","time_elapsed":92342,"subject_id":"88273","group":"Group2","full_date":"2025-12-04T19:52:51.017Z","date":"2025-12-04","time":"19:52:51"},{"task":"memory_phase","broad_category":"M","image_png":"M_Quartzite_12.png","image_id":284,"category_name":"Quartzite","category":18,"distinct_rating":1.92,"distinct_type":"Bottom","rt":null,"stimulus":"Stimuli_Rocks480/M_Quartzite_12.png","response":null,"trial_type":"image-keyboard-response","trial_index":52,"plugin_version":"2.1.0","time_elapsed":94845,"subject_id":"88273","group":"Group2","full_date":"2025-12-04T19:52:51.017Z","date":"2025-12-04","time":"19:52:51"},{"rt":null,"stimulus":"<p style=\"font-size: 50px; margin: 0; text-align: center;\">+</p>","response":null,"trial_type":"html-keyboard-response","trial_index":53,"plugin_version":"2.1.0","time_elapsed":95847,"subject_id":"88273","group":"Group2","full_date":"2025-12-04T19:52:51.017Z","date":"2025-12-04","time":"19:52:51"},{"task":"memory_phase","broad_category":"S","image_png":"S_Sandstone_04.png","image_id":452,"category_name":"Sandstone","category":29,"distinct_rating":1.8,"distinct_type":"Bottom","rt":null,"stimulus":"Stimuli_Rocks480/S_Sandstone_04.png","response":null,"trial_type":"image-keyboard-response","trial_index":54,"plugin_version":"2.1.0","time_elapsed":98351,"subject_id":"88273","group":"Group2","full_date":"2025-12-04T19:52:51.017Z","date":"2025-12-04","time":"19:52:51"},{"rt":189358,"stimulus":"<p style=\"max-width: 760px; margin: auto; font-size: 35px; line-height: 1.5;\">Press SPACE to continue study phase</p>","response":" ","trial_type":"html-keyboard-response","trial_index":55,"plugin_version":"2.1.0","time_elapsed":287715,"subject_id":"88273","group":"Group2","full_date":"2025-12-04T19:52:51.017Z","date":"2025-12-04","time":"19:52:51"},{"rt":null,"stimulus":"<p style=\"font-size: 50px; margin: 0; text-align: center;\">+</p>","response":null,"trial_type":"html-keyboard-response","trial_index":56,"plugin_version":"2.1.0","time_elapsed":288717,"subject_id":"88273","group":"Group2","full_date":"2025-12-04T19:52:51.017Z","date":"2025-12-04","time":"19:52:51"},{"task":"memory_phase","broad_category":"M","image_png":"M_Phyllite_13.png","image_id":269,"category_name":"Phyllite","category":17,"distinct_rating":2.8,"distinct_type":"Bottom","rt":null,"stimulus":"Stimuli_Rocks480/M_Phyllite_13.png","response":null,"trial_type":"image-keyboard-response","trial_index":57,"plugin_version":"2.1.0","time_elapsed":291221,"subject_id":"88273","group":"Group2","full_date":"2025-12-04T19:52:51.017Z","date":"2025-12-04","time":"19:52:51"},{"rt":null,"stimulus":"<p style=\"font-size: 50px; margin: 0; text-align: center;\">+</p>","response":null,"trial_type":"html-keyboard-response","trial_index":58,"plugin_version":"2.1.0","time_elapsed":292223,"subject_id":"88273","group":"Group2","full_date":"2025-12-04T19:52:51.017Z","date":"2025-12-04","time":"19:52:51"},{"task":"memory_phase","broad_category":"I","image_png":"I_Basalt_08.png","image_id":24,"category_name":"Basalt","category":2,"distinct_rating":2.31,"distinct_type":"Bottom","rt":null,"stimulus":"Stimuli_Rocks480/I_Basalt_08.png","response":null,"trial_type":"image-keyboard-response","trial_index":59,"plugin_version":"2.1.0","time_elapsed":294726,"subject_id":"88273","group":"Group2","full_date":"2025-12-04T19:52:51.017Z","date":"2025-12-04","time":"19:52:51"},{"rt":null,"stimulus":"<p style=\"font-size: 50px; margin: 0; text-align: center;\">+</p>","response":null,"trial_type":"html-keyboard-response","trial_index":60,"plugin_version":"2.1.0","time_elapsed":295728,"subject_id":"88273","group":"Group2","full_date":"2025-12-04T19:52:51.017Z","date":"2025-12-04","time":"19:52:51"},{"task":"memory_phase","broad_category":"S","image_png":"S_Conglomerate_14.png","image_id":382,"category_name":"Conglomerate","category":24,"distinct_rating":6.86,"distinct_type":"Top","rt":null,"stimulus":"Stimuli_Rocks480/S_Conglomerate_14.png","response":null,"trial_type":"image-keyboard-response","trial_index":61,"plugin_version":"2.1.0","time_elapsed":298231,"subject_id":"88273","group":"Group2","full_date":"2025-12-04T19:52:51.017Z","date":"2025-12-04","time":"19:52:51"},{"rt":null,"stimulus":"<p style=\"font-size: 50px; margin: 0; text-align: center;\">+</p>","response":null,"trial_type":"html-keyboard-response","trial_index":62,"plugin_version":"2.1.0","time_elapsed":299234,"subject_id":"88273","group":"Group2","full_date":"2025-12-04T19:52:51.017Z","date":"2025-12-04","time":"19:52:51"},{"task":"memory_phase","broad_category":"S","image_png":"S_Dolomite_16.png","image_id":400,"category_name":"Dolomite","category":25,"distinct_rating":1.71,"distinct_type":"Bottom","rt":null,"stimulus":"Stimuli_Rocks480/S_Dolomite_16.png","response":null,"trial_type":"image-keyboard-response","trial_index":63,"plugin_version":"2.1.0","time_elapsed":301738,"subject_id":"88273","group":"Group2","full_date":"2025-12-04T19:52:51.017Z","date":"2025-12-04","time":"19:52:51"},{"rt":null,"stimulus":"<p style=\"font-size: 50px; margin: 0; text-align: center;\">+</p>","response":null,"trial_type":"html-keyboard-response","trial_index":64,"plugin_version":"2.1.0","time_elapsed":302740,"subject_id":"88273","group":"Group2","full_date":"2025-12-04T19:52:51.017Z","date":"2025-12-04","time":"19:52:51"},{"task":"memory_phase","broad_category":"I","image_png":"I_Andesite_03.png","image_id":3,"category_name":"Andesite","category":1,"distinct_rating":3.17,"distinct_type":"Bottom","rt":null,"stimulus":"Stimuli_Rocks480/I_Andesite_03.png","response":null,"trial_type":"image-keyboard-response","trial_index":65,"plugin_version":"2.1.0","time_elapsed":305244,"subject_id":"88273","group":"Group2","full_date":"2025-12-04T19:52:51.017Z","date":"2025-12-04","time":"19:52:51"},{"rt":null,"stimulus":"<p style=\"font-size: 50px; margin: 0; text-align: center;\">+</p>","response":null,"trial_type":"html-keyboard-response","trial_index":66,"plugin_version":"2.1.0","time_elapsed":306246,"subject_id":"88273","group":"Group2","full_date":"2025-12-04T19:52:51.017Z","date":"2025-12-04","time":"19:52:51"},{"task":"memory_phase","broad_category":"M","image_png":"M_Slate_10.png","image_id":314,"category_name":"Slate","category":20,"distinct_rating":1.94,"distinct_type":"Bottom","rt":null,"stimulus":"Stimuli_Rocks480/M_Slate_10.png","response":null,"trial_type":"image-keyboard-response","trial_index":67,"plugin_version":"2.1.0","time_elapsed":308749,"subject_id":"88273","group":"Group2","full_date":"2025-12-04T19:52:51.017Z","date":"2025-12-04","time":"19:52:51"},{"rt":null,"stimulus":"<p style=\"font-size: 50px; margin: 0; text-align: center;\">+</p>","response":null,"trial_type":"html-keyboard-response","trial_index":68,"plugin_version":"2.1.0","time_elapsed":309752,"subject_id":"88273","group":"Group2","full_date":"2025-12-04T19:52:51.017Z","date":"2025-12-04","time":"19:52:51"},{"task":"memory_phase","broad_category":"I","image_png":"I_Rhyolite_08.png","image_id":152,"category_name":"Rhyolite","category":10,"distinct_rating":1.38,"distinct_type":"Bottom","rt":null,"stimulus":"Stimuli_Rocks480/I_Rhyolite_08.png","response":null,"trial_type":"image-keyboard-response","trial_index":69,"plugin_version":"2.1.0","time_elapsed":312256,"subject_id":"88273","group":"Group2","full_date":"2025-12-04T19:52:51.017Z","date":"2025-12-04","time":"19:52:51"},{"rt":null,"stimulus":"<p style=\"font-size: 50px; margin: 0; text-align: center;\">+</p>","response":null,"trial_type":"html-keyboard-response","trial_index":70,"plugin_version":"2.1.0","time_elapsed":313259,"subject_id":"88273","group":"Group2","full_date":"2025-12-04T19:52:51.017Z","date":"2025-12-04","time":"19:52:51"},{"task":"memory_phase","broad_category":"S","image_png":"S_Dolomite_07.png","image_id":391,"category_name":"Dolomite","category":25,"distinct_rating":1.73,"distinct_type":"Bottom","rt":null,"stimulus":"Stimuli_Rocks480/S_Dolomite_07.png","response":null,"trial_type":"image-keyboard-response","trial_index":71,"plugin_version":"2.1.0","time_elapsed":315763,"subject_id":"88273","group":"Group2","full_date":"2025-12-04T19:52:51.017Z","date":"2025-12-04","time":"19:52:51"},{"rt":null,"stimulus":"<p style=\"font-size: 50px; margin: 0; text-align: center;\">+</p>","response":null,"trial_type":"html-keyboard-response","trial_index":72,"plugin_version":"2.1.0","time_elapsed":316765,"subject_id":"88273","group":"Group2","full_date":"2025-12-04T19:52:51.017Z","date":"2025-12-04","time":"19:52:51"},{"task":"memory_phase","broad_category":"I","image_png":"I_Diorite_10.png","image_id":42,"category_name":"Diorite","category":3,"distinct_rating":2.84,"distinct_type":"Bottom","rt":null,"stimulus":"Stimuli_Rocks480/I_Diorite_10.png","response":null,"trial_type":"image-keyboard-response","trial_index":73,"plugin_version":"2.1.0","time_elapsed":319268,"subject_id":"88273","group":"Group2","full_date":"2025-12-04T19:52:51.017Z","date":"2025-12-04","time":"19:52:51"},{"rt":null,"stimulus":"<p style=\"font-size: 50px; margin: 0; text-align: center;\">+</p>","response":null,"trial_type":"html-keyboard-response","trial_index":74,"plugin_version":"2.1.0","time_elapsed":320269,"subject_id":"88273","group":"Group2","full_date":"2025-12-04T19:52:51.017Z","date":"2025-12-04","time":"19:52:51"},{"task":"memory_phase","broad_category":"S","image_png":"S_Shale_07.png","image_id":471,"category_name":"Shale","category":30,"distinct_rating":2.73,"distinct_type":"Bottom","rt":null,"stimulus":"Stimuli_Rocks480/S_Shale_07.png","response":null,"trial_type":"image-keyboard-response","trial_index":75,"plugin_version":"2.1.0","time_elapsed":322773,"subject_id":"88273","group":"Group2","full_date":"2025-12-04T19:52:51.017Z","date":"2025-12-04","time":"19:52:51"},{"rt":null,"stimulus":"<p style=\"font-size: 50px; margin: 0; text-align: center;\">+</p>","response":null,"trial_type":"html-keyboard-response","trial_index":76,"plugin_version":"2.1.0","time_elapsed":323775,"subject_id":"88273","group":"Group2","full_date":"2025-12-04T19:52:51.017Z","date":"2025-12-04","time":"19:52:51"},{"task":"memory_phase","broad_category":"M","image_png":"M_Marble_14.png","image_id":238,"category_name":"Marble","category":15,"distinct_rating":3.31,"distinct_type":"Bottom","rt":null,"stimulus":"Stimuli_Rocks480/M_Marble_14.png","response":null,"trial_type":"image-keyboard-response","trial_index":77,"plugin_version":"2.1.0","time_elapsed":326279,"subject_id":"88273","group":"Group2","full_date":"2025-12-04T19:52:51.017Z","date":"2025-12-04","time":"19:52:51"},{"rt":null,"stimulus":"<p style=\"font-size: 50px; margin: 0; text-align: center;\">+</p>","response":null,"trial_type":"html-keyboard-response","trial_index":78,"plugin_version":"2.1.0","time_elapsed":327282,"subject_id":"88273","group":"Group2","full_date":"2025-12-04T19:52:51.017Z","date":"2025-12-04","time":"19:52:51"},{"task":"memory_phase","broad_category":"I","image_png":"I_Pumice_14.png","image_id":142,"category_name":"Pumice","category":9,"distinct_rating":3.22,"distinct_type":"Bottom","rt":null,"stimulus":"Stimuli_Rocks480/I_Pumice_14.png","response":null,"trial_type":"image-keyboard-response","trial_index":79,"plugin_version":"2.1.0","time_elapsed":329785,"subject_id":"88273","group":"Group2","full_date":"2025-12-04T19:52:51.017Z","date":"2025-12-04","time":"19:52:51"},{"rt":null,"stimulus":"<p style=\"font-size: 50px; margin: 0; text-align: center;\">+</p>","response":null,"trial_type":"html-keyboard-response","trial_index":80,"plugin_version":"2.1.0","time_elapsed":330788,"subject_id":"88273","group":"Group2","full_date":"2025-12-04T19:52:51.017Z","date":"2025-12-04","time":"19:52:51"},{"task":"memory_phase","broad_category":"M","image_png":"M_Gneiss_10.png","image_id":202,"category_name":"Gneiss","category":13,"distinct_rating":3.09,"distinct_type":"Bottom","rt":null,"stimulus":"Stimuli_Rocks480/M_Gneiss_10.png","response":null,"trial_type":"image-keyboard-response","trial_index":81,"plugin_version":"2.1.0","time_elapsed":333291,"subject_id":"88273","group":"Group2","full_date":"2025-12-04T19:52:51.017Z","date":"2025-12-04","time":"19:52:51"},{"rt":null,"stimulus":"<p style=\"font-size: 50px; margin: 0; text-align: center;\">+</p>","response":null,"trial_type":"html-keyboard-response","trial_index":82,"plugin_version":"2.1.0","time_elapsed":334293,"subject_id":"88273","group":"Group2","full_date":"2025-12-04T19:52:51.017Z","date":"2025-12-04","time":"19:52:51"},{"task":"memory_phase","broad_category":"I","image_png":"I_Basalt_10.png","image_id":26,"category_name":"Basalt","category":2,"distinct_rating":2.76,"distinct_type":"Bottom","rt":null,"stimulus":"Stimuli_Rocks480/I_Basalt_10.png","response":null,"trial_type":"image-keyboard-response","trial_index":83,"plugin_version":"2.1.0","time_elapsed":336796,"subject_id":"88273","group":"Group2","full_date":"2025-12-04T19:52:51.017Z","date":"2025-12-04","time":"19:52:51"},{"rt":null,"stimulus":"<p style=\"font-size: 50px; margin: 0; text-align: center;\">+</p>","response":null,"trial_type":"html-keyboard-response","trial_index":84,"plugin_version":"2.1.0","time_elapsed":337799,"subject_id":"88273","group":"Group2","full_date":"2025-12-04T19:52:51.017Z","date":"2025-12-04","time":"19:52:51"},{"task":"memory_phase","broad_category":"M","image_png":"M_Marble_03.png","image_id":227,"category_name":"Marble","category":15,"distinct_rating":2.67,"distinct_type":"Bottom","rt":null,"stimulus":"Stimuli_Rocks480/M_Marble_03.png","response":null,"trial_type":"image-keyboard-response","trial_index":85,"plugin_version":"2.1.0","time_elapsed":340302,"subject_id":"88273","group":"Group2","full_date":"2025-12-04T19:52:51.017Z","date":"2025-12-04","time":"19:52:51"},{"rt":null,"stimulus":"<p style=\"font-size: 50px; margin: 0; text-align: center;\">+</p>","response":null,"trial_type":"html-keyboard-response","trial_index":86,"plugin_version":"2.1.0","time_elapsed":341304,"subject_id":"88273","group":"Group2","full_date":"2025-12-04T19:52:51.017Z","date":"2025-12-04","time":"19:52:51"},{"task":"memory_phase","broad_category":"M","image_png":"M_Phyllite_02.png","image_id":258,"category_name":"Phyllite","category":17,"distinct_rating":2.89,"distinct_type":"Bottom","rt":null,"stimulus":"Stimuli_Rocks480/M_Phyllite_02.png","response":null,"trial_type":"image-keyboard-response","trial_index":87,"plugin_version":"2.1.0","time_elapsed":343806,"subject_id":"88273","group":"Group2","full_date":"2025-12-04T19:52:51.017Z","date":"2025-12-04","time":"19:52:51"},{"rt":null,"stimulus":"<p style=\"font-size: 50px; margin: 0; text-align: center;\">+</p>","response":null,"trial_type":"html-keyboard-response","trial_index":88,"plugin_version":"2.1.0","time_elapsed":344809,"subject_id":"88273","group":"Group2","full_date":"2025-12-04T19:52:51.017Z","date":"2025-12-04","time":"19:52:51"},{"task":"memory_phase","broad_category":"M","image_png":"M_Quartzite_07.png","image_id":279,"category_name":"Quartzite","category":18,"distinct_rating":1.97,"distinct_type":"Bottom","rt":null,"stimulus":"Stimuli_Rocks480/M_Quartzite_07.png","response":null,"trial_type":"image-keyboard-response","trial_index":89,"plugin_version":"2.1.0","time_elapsed":347312,"subject_id":"88273","group":"Group2","full_date":"2025-12-04T19:52:51.017Z","date":"2025-12-04","time":"19:52:51"},{"rt":null,"stimulus":"<p style=\"font-size: 50px; margin: 0; text-align: center;\">+</p>","response":null,"trial_type":"html-keyboard-response","trial_index":90,"plugin_version":"2.1.0","time_elapsed":348315,"subject_id":"88273","group":"Group2","full_date":"2025-12-04T19:52:51.017Z","date":"2025-12-04","time":"19:52:51"},{"task":"memory_phase","broad_category":"M","image_png":"M_Gneiss_14.png","image_id":206,"category_name":"Gneiss","category":13,"distinct_rating":3.41,"distinct_type":"Bottom","rt":null,"stimulus":"Stimuli_Rocks480/M_Gneiss_14.png","response":null,"trial_type":"image-keyboard-response","trial_index":91,"plugin_version":"2.1.0","time_elapsed":350818,"subject_id":"88273","group":"Group2","full_date":"2025-12-04T19:52:51.017Z","date":"2025-12-04","time":"19:52:51"},{"rt":null,"stimulus":"<p style=\"font-size: 50px; margin: 0; text-align: center;\">+</p>","response":null,"trial_type":"html-keyboard-response","trial_index":92,"plugin_version":"2.1.0","time_elapsed":351821,"subject_id":"88273","group":"Group2","full_date":"2025-12-04T19:52:51.017Z","date":"2025-12-04","time":"19:52:51"},{"task":"memory_phase","broad_category":"I","image_png":"I_Pumice_01.png","image_id":129,"category_name":"Pumice","category":9,"distinct_rating":3.25,"distinct_type":"Bottom","rt":null,"stimulus":"Stimuli_Rocks480/I_Pumice_01.png","response":null,"trial_type":"image-keyboard-response","trial_index":93,"plugin_version":"2.1.0","time_elapsed":354324,"subject_id":"88273","group":"Group2","full_date":"2025-12-04T19:52:51.017Z","date":"2025-12-04","time":"19:52:51"},{"rt":null,"stimulus":"<p style=\"font-size: 50px; margin: 0; text-align: center;\">+</p>","response":null,"trial_type":"html-keyboard-response","trial_index":94,"plugin_version":"2.1.0","time_elapsed":355326,"subject_id":"88273","group":"Group2","full_date":"2025-12-04T19:52:51.017Z","date":"2025-12-04","time":"19:52:51"},{"task":"memory_phase","broad_category":"I","image_png":"I_Andesite_04.png","image_id":4,"category_name":"Andesite","category":1,"distinct_rating":3.18,"distinct_type":"Bottom","rt":null,"stimulus":"Stimuli_Rocks480/I_Andesite_04.png","response":null,"trial_type":"image-keyboard-response","trial_index":95,"plugin_version":"2.1.0","time_elapsed":357830,"subject_id":"88273","group":"Group2","full_date":"2025-12-04T19:52:51.017Z","date":"2025-12-04","time":"19:52:51"},{"rt":null,"stimulus":"<p style=\"font-size: 50px; margin: 0; text-align: center;\">+</p>","response":null,"trial_type":"html-keyboard-response","trial_index":96,"plugin_version":"2.1.0","time_elapsed":358832,"subject_id":"88273","group":"Group2","full_date":"2025-12-04T19:52:51.017Z","date":"2025-12-04","time":"19:52:51"},{"task":"memory_phase","broad_category":"I","image_png":"I_Gabbro_14.png","image_id":62,"category_name":"Gabbro","category":4,"distinct_rating":2.95,"distinct_type":"Bottom","rt":null,"stimulus":"Stimuli_Rocks480/I_Gabbro_14.png","response":null,"trial_type":"image-keyboard-response","trial_index":97,"plugin_version":"2.1.0","time_elapsed":361336,"subject_id":"88273","group":"Group2","full_date":"2025-12-04T19:52:51.017Z","date":"2025-12-04","time":"19:52:51"},{"rt":null,"stimulus":"<p style=\"font-size: 50px; margin: 0; text-align: center;\">+</p>","response":null,"trial_type":"html-keyboard-response","trial_index":98,"plugin_version":"2.1.0","time_elapsed":362338,"subject_id":"88273","group":"Group2","full_date":"2025-12-04T19:52:51.017Z","date":"2025-12-04","time":"19:52:51"},{"task":"memory_phase","broad_category":"S","image_png":"S_Rock Salt_13.png","image_id":445,"category_name":"Rock Salt","category":28,"distinct_rating":7.58,"distinct_type":"Top","rt":null,"stimulus":"Stimuli_Rocks480/S_Rock Salt_13.png","response":null,"trial_type":"image-keyboard-response","trial_index":99,"plugin_version":"2.1.0","time_elapsed":364841,"subject_id":"88273","group":"Group2","full_date":"2025-12-04T19:52:51.017Z","date":"2025-12-04","time":"19:52:51"},{"rt":null,"stimulus":"<p style=\"font-size: 50px; margin: 0; text-align: center;\">+</p>","response":null,"trial_type":"html-keyboard-response","trial_index":100,"plugin_version":"2.1.0","time_elapsed":365844,"subject_id":"88273","group":"Group2","full_date":"2025-12-04T19:52:51.017Z","date":"2025-12-04","time":"19:52:51"},{"task":"memory_phase","broad_category":"I","image_png":"I_Gabbro_12.png","image_id":60,"category_name":"Gabbro","category":4,"distinct_rating":2.6,"distinct_type":"Bottom","rt":null,"stimulus":"Stimuli_Rocks480/I_Gabbro_12.png","response":null,"trial_type":"image-keyboard-response","trial_index":101,"plugin_version":"2.1.0","time_elapsed":368347,"subject_id":"88273","group":"Group2","full_date":"2025-12-04T19:52:51.017Z","date":"2025-12-04","time":"19:52:51"},{"rt":null,"stimulus":"<p style=\"font-size: 50px; margin: 0; text-align: center;\">+</p>","response":null,"trial_type":"html-keyboard-response","trial_index":102,"plugin_version":"2.1.0","time_elapsed":369349,"subject_id":"88273","group":"Group2","full_date":"2025-12-04T19:52:51.017Z","date":"2025-12-04","time":"19:52:51"},{"task":"memory_phase","broad_category":"S","image_png":"S_Shale_02.png","image_id":466,"category_name":"Shale","category":30,"distinct_rating":2.9,"distinct_type":"Bottom","rt":null,"stimulus":"Stimuli_Rocks480/S_Shale_02.png","response":null,"trial_type":"image-keyboard-response","trial_index":103,"plugin_version":"2.1.0","time_elapsed":371854,"subject_id":"88273","group":"Group2","full_date":"2025-12-04T19:52:51.017Z","date":"2025-12-04","time":"19:52:51"},{"rt":null,"stimulus":"<p style=\"font-size: 50px; margin: 0; text-align: center;\">+</p>","response":null,"trial_type":"html-keyboard-response","trial_index":104,"plugin_version":"2.1.0","time_elapsed":372856,"subject_id":"88273","group":"Group2","full_date":"2025-12-04T19:52:51.017Z","date":"2025-12-04","time":"19:52:51"},{"task":"memory_phase","broad_category":"M","image_png":"M_Phyllite_05.png","image_id":261,"category_name":"Phyllite","category":17,"distinct_rating":2.14,"distinct_type":"Bottom","rt":null,"stimulus":"Stimuli_Rocks480/M_Phyllite_05.png","response":null,"trial_type":"image-keyboard-response","trial_index":105,"plugin_version":"2.1.0","time_elapsed":375360,"subject_id":"88273","group":"Group2","full_date":"2025-12-04T19:52:51.017Z","date":"2025-12-04","time":"19:52:51"},{"rt":252132,"stimulus":"<p style=\"max-width: 760px; margin: auto; font-size: 35px; line-height: 1.5;\">You have completed 1 study phase. Now, we'll show you all the images again 2 more times.<br><br>Press SPACE to continue</p>","response":" ","trial_type":"html-keyboard-response","trial_index":106,"plugin_version":"2.1.0","time_elapsed":627496,"subject_id":"88273","group":"Group2","full_date":"2025-12-04T19:52:51.017Z","date":"2025-12-04","time":"19:52:51"},{"rt":null,"stimulus":"<p style=\"font-size: 50px; margin: 0; text-align: center;\">+</p>","response":null,"trial_type":"html-keyboard-response","trial_index":107,"plugin_version":"2.1.0","time_elapsed":628498,"subject_id":"88273","group":"Group2","full_date":"2025-12-04T19:52:51.017Z","date":"2025-12-04","time":"19:52:51"},{"task":"memory_phase","broad_category":"I","image_png":"I_Gabbro_12.png","image_id":60,"category_name":"Gabbro","category":4,"distinct_rating":2.6,"distinct_type":"Bottom","rt":null,"stimulus":"Stimuli_Rocks480/I_Gabbro_12.png","response":null,"trial_type":"image-keyboard-response","trial_index":108,"plugin_version":"2.1.0","time_elapsed":631003,"subject_id":"88273","group":"Group2","full_date":"2025-12-04T19:52:51.017Z","date":"2025-12-04","time":"19:52:51"},{"rt":null,"stimulus":"<p style=\"font-size: 50px; margin: 0; text-align: center;\">+</p>","response":null,"trial_type":"html-keyboard-response","trial_index":109,"plugin_version":"2.1.0","time_elapsed":632006,"subject_id":"88273","group":"Group2","full_date":"2025-12-04T19:52:51.017Z","date":"2025-12-04","time":"19:52:51"},{"task":"memory_phase","broad_category":"S","image_png":"S_Conglomerate_14.png","image_id":382,"category_name":"Conglomerate","category":24,"distinct_rating":6.86,"distinct_type":"Top","rt":null,"stimulus":"Stimuli_Rocks480/S_Conglomerate_14.png","response":null,"trial_type":"image-keyboard-response","trial_index":110,"plugin_version":"2.1.0","time_elapsed":634509,"subject_id":"88273","group":"Group2","full_date":"2025-12-04T19:52:51.017Z","date":"2025-12-04","time":"19:52:51"},{"rt":null,"stimulus":"<p style=\"font-size: 50px; margin: 0; text-align: center;\">+</p>","response":null,"trial_type":"html-keyboard-response","trial_index":111,"plugin_version":"2.1.0","time_elapsed":635511,"subject_id":"88273","group":"Group2","full_date":"2025-12-04T19:52:51.017Z","date":"2025-12-04","time":"19:52:51"},{"task":"memory_phase","broad_category":"M","image_png":"M_Marble_02.png","image_id":226,"category_name":"Marble","category":15,"distinct_rating":3.2,"distinct_type":"Bottom","rt":null,"stimulus":"Stimuli_Rocks480/M_Marble_02.png","response":null,"trial_type":"image-keyboard-response","trial_index":112,"plugin_version":"2.1.0","time_elapsed":638014,"subject_id":"88273","group":"Group2","full_date":"2025-12-04T19:52:51.017Z","date":"2025-12-04","time":"19:52:51"},{"rt":null,"stimulus":"<p style=\"font-size: 50px; margin: 0; text-align: center;\">+</p>","response":null,"trial_type":"html-keyboard-response","trial_index":113,"plugin_version":"2.1.0","time_elapsed":639016,"subject_id":"88273","group":"Group2","full_date":"2025-12-04T19:52:51.017Z","date":"2025-12-04","time":"19:52:51"},{"task":"memory_phase","broad_category":"I","image_png":"I_Andesite_09.png","image_id":9,"category_name":"Andesite","category":1,"distinct_rating":2.49,"distinct_type":"Bottom","rt":null,"stimulus":"Stimuli_Rocks480/I_Andesite_09.png","response":null,"trial_type":"image-keyboard-response","trial_index":114,"plugin_version":"2.1.0","time_elapsed":641519,"subject_id":"88273","group":"Group2","full_date":"2025-12-04T19:52:51.017Z","date":"2025-12-04","time":"19:52:51"},{"rt":null,"stimulus":"<p style=\"font-size: 50px; margin: 0; text-align: center;\">+</p>","response":null,"trial_type":"html-keyboard-response","trial_index":115,"plugin_version":"2.1.0","time_elapsed":642521,"subject_id":"88273","group":"Group2","full_date":"2025-12-04T19:52:51.017Z","date":"2025-12-04","time":"19:52:51"},{"task":"memory_phase","broad_category":"M","image_png":"M_Quartzite_07.png","image_id":279,"category_name":"Quartzite","category":18,"distinct_rating":1.97,"distinct_type":"Bottom","rt":null,"stimulus":"Stimuli_Rocks480/M_Quartzite_07.png","response":null,"trial_type":"image-keyboard-response","trial_index":116,"plugin_version":"2.1.0","time_elapsed":645023,"subject_id":"88273","group":"Group2","full_date":"2025-12-04T19:52:51.017Z","date":"2025-12-04","time":"19:52:51"},{"rt":null,"stimulus":"<p style=\"font-size: 50px; margin: 0; text-align: center;\">+</p>","response":null,"trial_type":"html-keyboard-response","trial_index":117,"plugin_version":"2.1.0","time_elapsed":646025,"subject_id":"88273","group":"Group2","full_date":"2025-12-04T19:52:51.017Z","date":"2025-12-04","time":"19:52:51"},{"task":"memory_phase","broad_category":"I","image_png":"I_Diorite_01.png","image_id":33,"category_name":"Diorite","category":3,"distinct_rating":2.97,"distinct_type":"Bottom","rt":null,"stimulus":"Stimuli_Rocks480/I_Diorite_01.png","response":null,"trial_type":"image-keyboard-response","trial_index":118,"plugin_version":"2.1.0","time_elapsed":648528,"subject_id":"88273","group":"Group2","full_date":"2025-12-04T19:52:51.017Z","date":"2025-12-04","time":"19:52:51"},{"rt":null,"stimulus":"<p style=\"font-size: 50px; margin: 0; text-align: center;\">+</p>","response":null,"trial_type":"html-keyboard-response","trial_index":119,"plugin_version":"2.1.0","time_elapsed":649531,"subject_id":"88273","group":"Group2","full_date":"2025-12-04T19:52:51.017Z","date":"2025-12-04","time":"19:52:51"},{"task":"memory_phase","broad_category":"I","image_png":"I_Diorite_15.png","image_id":47,"category_name":"Diorite","category":3,"distinct_rating":3.05,"distinct_type":"Bottom","rt":null,"stimulus":"Stimuli_Rocks480/I_Diorite_15.png","response":null,"trial_type":"image-keyboard-response","trial_index":120,"plugin_version":"2.1.0","time_elapsed":652035,"subject_id":"88273","group":"Group2","full_date":"2025-12-04T19:52:51.017Z","date":"2025-12-04","time":"19:52:51"},{"rt":null,"stimulus":"<p style=\"font-size: 50px; margin: 0; text-align: center;\">+</p>","response":null,"trial_type":"html-keyboard-response","trial_index":121,"plugin_version":"2.1.0","time_elapsed":653037,"subject_id":"88273","group":"Group2","full_date":"2025-12-04T19:52:51.017Z","date":"2025-12-04","time":"19:52:51"},{"task":"memory_phase","broad_category":"I","image_png":"I_Pumice_01.png","image_id":129,"category_name":"Pumice","category":9,"distinct_rating":3.25,"distinct_type":"Bottom","rt":null,"stimulus":"Stimuli_Rocks480/I_Pumice_01.png","response":null,"trial_type":"image-keyboard-response","trial_index":122,"plugin_version":"2.1.0","time_elapsed":655540,"subject_id":"88273","group":"Group2","full_date":"2025-12-04T19:52:51.017Z","date":"2025-12-04","time":"19:52:51"},{"rt":null,"stimulus":"<p style=\"font-size: 50px; margin: 0; text-align: center;\">+</p>","response":null,"trial_type":"html-keyboard-response","trial_index":123,"plugin_version":"2.1.0","time_elapsed":656542,"subject_id":"88273","group":"Group2","full_date":"2025-12-04T19:52:51.017Z","date":"2025-12-04","time":"19:52:51"},{"task":"memory_phase","broad_category":"S","image_png":"S_Chert_13.png","image_id":365,"category_name":"Chert","category":23,"distinct_rating":6.57,"distinct_type":"Top","rt":null,"stimulus":"Stimuli_Rocks480/S_Chert_13.png","response":null,"trial_type":"image-keyboard-response","trial_index":124,"plugin_version":"2.1.0","time_elapsed":659046,"subject_id":"88273","group":"Group2","full_date":"2025-12-04T19:52:51.017Z","date":"2025-12-04","time":"19:52:51"},{"rt":null,"stimulus":"<p style=\"font-size: 50px; margin: 0; text-align: center;\">+</p>","response":null,"trial_type":"html-keyboard-response","trial_index":125,"plugin_version":"2.1.0","time_elapsed":660048,"subject_id":"88273","group":"Group2","full_date":"2025-12-04T19:52:51.017Z","date":"2025-12-04","time":"19:52:51"},{"task":"memory_phase","broad_category":"S","image_png":"S_Dolomite_01.png","image_id":385,"category_name":"Dolomite","category":25,"distinct_rating":1.43,"distinct_type":"Bottom","rt":null,"stimulus":"Stimuli_Rocks480/S_Dolomite_01.png","response":null,"trial_type":"image-keyboard-response","trial_index":126,"plugin_version":"2.1.0","time_elapsed":662552,"subject_id":"88273","group":"Group2","full_date":"2025-12-04T19:52:51.017Z","date":"2025-12-04","time":"19:52:51"},{"rt":null,"stimulus":"<p style=\"font-size: 50px; margin: 0; text-align: center;\">+</p>","response":null,"trial_type":"html-keyboard-response","trial_index":127,"plugin_version":"2.1.0","time_elapsed":663554,"subject_id":"88273","group":"Group2","full_date":"2025-12-04T19:52:51.017Z","date":"2025-12-04","time":"19:52:51"},{"task":"memory_phase","broad_category":"I","image_png":"I_Andesite_03.png","image_id":3,"category_name":"Andesite","category":1,"distinct_rating":3.17,"distinct_type":"Bottom","rt":null,"stimulus":"Stimuli_Rocks480/I_Andesite_03.png","response":null,"trial_type":"image-keyboard-response","trial_index":128,"plugin_version":"2.1.0","time_elapsed":666056,"subject_id":"88273","group":"Group2","full_date":"2025-12-04T19:52:51.017Z","date":"2025-12-04","time":"19:52:51"},{"rt":null,"stimulus":"<p style=\"font-size: 50px; margin: 0; text-align: center;\">+</p>","response":null,"trial_type":"html-keyboard-response","trial_index":129,"plugin_version":"2.1.0","time_elapsed":667059,"subject_id":"88273","group":"Group2","full_date":"2025-12-04T19:52:51.017Z","date":"2025-12-04","time":"19:52:51"},{"task":"memory_phase","broad_category":"S","image_png":"S_Sandstone_11.png","image_id":459,"category_name":"Sandstone","category":29,"distinct_rating":1.82,"distinct_type":"Bottom","rt":null,"stimulus":"Stimuli_Rocks480/S_Sandstone_11.png","response":null,"trial_type":"image-keyboard-response","trial_index":130,"plugin_version":"2.1.0","time_elapsed":669562,"subject_id":"88273","group":"Group2","full_date":"2025-12-04T19:52:51.017Z","date":"2025-12-04","time":"19:52:51"},{"rt":null,"stimulus":"<p style=\"font-size: 50px; margin: 0; text-align: center;\">+</p>","response":null,"trial_type":"html-keyboard-response","trial_index":131,"plugin_version":"2.1.0","time_elapsed":670564,"subject_id":"88273","group":"Group2","full_date":"2025-12-04T19:52:51.017Z","date":"2025-12-04","time":"19:52:51"},{"task":"memory_phase","broad_category":"S","image_png":"S_Rock Salt_15.png","image_id":447,"category_name":"Rock Salt","category":28,"distinct_rating":7.79,"distinct_type":"Top","rt":null,"stimulus":"Stimuli_Rocks480/S_Rock Salt_15.png","response":null,"trial_type":"image-keyboard-response","trial_index":132,"plugin_version":"2.1.0","time_elapsed":673067,"subject_id":"88273","group":"Group2","full_date":"2025-12-04T19:52:51.017Z","date":"2025-12-04","time":"19:52:51"},{"rt":null,"stimulus":"<p style=\"font-size: 50px; margin: 0; text-align: center;\">+</p>","response":null,"trial_type":"html-keyboard-response","trial_index":133,"plugin_version":"2.1.0","time_elapsed":674070,"subject_id":"88273","group":"Group2","full_date":"2025-12-04T19:52:51.017Z","date":"2025-12-04","time":"19:52:51"},{"task":"memory_phase","broad_category":"S","image_png":"S_Shale_02.png","image_id":466,"category_name":"Shale","category":30,"distinct_rating":2.9,"distinct_type":"Bottom","rt":null,"stimulus":"Stimuli_Rocks480/S_Shale_02.png","response":null,"trial_type":"image-keyboard-response","trial_index":134,"plugin_version":"2.1.0","time_elapsed":676574,"subject_id":"88273","group":"Group2","full_date":"2025-12-04T19:52:51.017Z","date":"2025-12-04","time":"19:52:51"},{"rt":null,"stimulus":"<p style=\"font-size: 50px; margin: 0; text-align: center;\">+</p>","response":null,"trial_type":"html-keyboard-response","trial_index":135,"plugin_version":"2.1.0","time_elapsed":677577,"subject_id":"88273","group":"Group2","full_date":"2025-12-04T19:52:51.017Z","date":"2025-12-04","time":"19:52:51"},{"task":"memory_phase","broad_category":"M","image_png":"M_Phyllite_02.png","image_id":258,"category_name":"Phyllite","category":17,"distinct_rating":2.89,"distinct_type":"Bottom","rt":null,"stimulus":"Stimuli_Rocks480/M_Phyllite_02.png","response":null,"trial_type":"image-keyboard-response","trial_index":136,"plugin_version":"2.1.0","time_elapsed":680079,"subject_id":"88273","group":"Group2","full_date":"2025-12-04T19:52:51.017Z","date":"2025-12-04","time":"19:52:51"},{"rt":null,"stimulus":"<p style=\"font-size: 50px; margin: 0; text-align: center;\">+</p>","response":null,"trial_type":"html-keyboard-response","trial_index":137,"plugin_version":"2.1.0","time_elapsed":681081,"subject_id":"88273","group":"Group2","full_date":"2025-12-04T19:52:51.017Z","date":"2025-12-04","time":"19:52:51"},{"task":"memory_phase","broad_category":"S","image_png":"S_Dolomite_16.png","image_id":400,"category_name":"Dolomite","category":25,"distinct_rating":1.71,"distinct_type":"Bottom","rt":null,"stimulus":"Stimuli_Rocks480/S_Dolomite_16.png","response":null,"trial_type":"image-keyboard-response","trial_index":138,"plugin_version":"2.1.0","time_elapsed":683583,"subject_id":"88273","group":"Group2","full_date":"2025-12-04T19:52:51.017Z","date":"2025-12-04","time":"19:52:51"},{"rt":null,"stimulus":"<p style=\"font-size: 50px; margin: 0; text-align: center;\">+</p>","response":null,"trial_type":"html-keyboard-response","trial_index":139,"plugin_version":"2.1.0","time_elapsed":684587,"subject_id":"88273","group":"Group2","full_date":"2025-12-04T19:52:51.017Z","date":"2025-12-04","time":"19:52:51"},{"task":"memory_phase","broad_category":"S","image_png":"S_Rock Salt_13.png","image_id":445,"category_name":"Rock Salt","category":28,"distinct_rating":7.58,"distinct_type":"Top","rt":null,"stimulus":"Stimuli_Rocks480/S_Rock Salt_13.png","response":null,"trial_type":"image-keyboard-response","trial_index":140,"plugin_version":"2.1.0","time_elapsed":687089,"subject_id":"88273","group":"Group2","full_date":"2025-12-04T19:52:51.017Z","date":"2025-12-04","time":"19:52:51"},{"rt":null,"stimulus":"<p style=\"font-size: 50px; margin: 0; text-align: center;\">+</p>","response":null,"trial_type":"html-keyboard-response","trial_index":141,"plugin_version":"2.1.0","time_elapsed":688093,"subject_id":"88273","group":"Group2","full_date":"2025-12-04T19:52:51.017Z","date":"2025-12-04","time":"19:52:51"},{"task":"memory_phase","broad_category":"S","image_png":"S_Dolomite_07.png","image_id":391,"category_name":"Dolomite","category":25,"distinct_rating":1.73,"distinct_type":"Bottom","rt":null,"stimulus":"Stimuli_Rocks480/S_Dolomite_07.png","response":null,"trial_type":"image-keyboard-response","trial_index":142,"plugin_version":"2.1.0","time_elapsed":690597,"subject_id":"88273","group":"Group2","full_date":"2025-12-04T19:52:51.017Z","date":"2025-12-04","time":"19:52:51"},{"rt":null,"stimulus":"<p style=\"font-size: 50px; margin: 0; text-align: center;\">+</p>","response":null,"trial_type":"html-keyboard-response","trial_index":143,"plugin_version":"2.1.0","time_elapsed":691599,"subject_id":"88273","group":"Group2","full_date":"2025-12-04T19:52:51.017Z","date":"2025-12-04","time":"19:52:51"},{"task":"memory_phase","broad_category":"I","image_png":"I_Gabbro_02.png","image_id":50,"category_name":"Gabbro","category":4,"distinct_rating":2.73,"distinct_type":"Bottom","rt":null,"stimulus":"Stimuli_Rocks480/I_Gabbro_02.png","response":null,"trial_type":"image-keyboard-response","trial_index":144,"plugin_version":"2.1.0","time_elapsed":694103,"subject_id":"88273","group":"Group2","full_date":"2025-12-04T19:52:51.017Z","date":"2025-12-04","time":"19:52:51"},{"rt":null,"stimulus":"<p style=\"font-size: 50px; margin: 0; text-align: center;\">+</p>","response":null,"trial_type":"html-keyboard-response","trial_index":145,"plugin_version":"2.1.0","time_elapsed":695105,"subject_id":"88273","group":"Group2","full_date":"2025-12-04T19:52:51.017Z","date":"2025-12-04","time":"19:52:51"},{"task":"memory_phase","broad_category":"M","image_png":"M_Phyllite_13.png","image_id":269,"category_name":"Phyllite","category":17,"distinct_rating":2.8,"distinct_type":"Bottom","rt":null,"stimulus":"Stimuli_Rocks480/M_Phyllite_13.png","response":null,"trial_type":"image-keyboard-response","trial_index":146,"plugin_version":"2.1.0","time_elapsed":697609,"subject_id":"88273","group":"Group2","full_date":"2025-12-04T19:52:51.017Z","date":"2025-12-04","time":"19:52:51"},{"rt":null,"stimulus":"<p style=\"font-size: 50px; margin: 0; text-align: center;\">+</p>","response":null,"trial_type":"html-keyboard-response","trial_index":147,"plugin_version":"2.1.0","time_elapsed":698611,"subject_id":"88273","group":"Group2","full_date":"2025-12-04T19:52:51.017Z","date":"2025-12-04","time":"19:52:51"},{"task":"memory_phase","broad_category":"M","image_png":"M_Marble_03.png","image_id":227,"category_name":"Marble","category":15,"distinct_rating":2.67,"distinct_type":"Bottom","rt":null,"stimulus":"Stimuli_Rocks480/M_Marble_03.png","response":null,"trial_type":"image-keyboard-response","trial_index":148,"plugin_version":"2.1.0","time_elapsed":701114,"subject_id":"88273","group":"Group2","full_date":"2025-12-04T19:52:51.017Z","date":"2025-12-04","time":"19:52:51"},{"rt":null,"stimulus":"<p style=\"font-size: 50px; margin: 0; text-align: center;\">+</p>","response":null,"trial_type":"html-keyboard-response","trial_index":149,"plugin_version":"2.1.0","time_elapsed":702117,"subject_id":"88273","group":"Group2","full_date":"2025-12-04T19:52:51.017Z","date":"2025-12-04","time":"19:52:51"},{"task":"memory_phase","broad_category":"I","image_png":"I_Basalt_13.png","image_id":29,"category_name":"Basalt","category":2,"distinct_rating":2.68,"distinct_type":"Bottom","rt":null,"stimulus":"Stimuli_Rocks480/I_Basalt_13.png","response":null,"trial_type":"image-keyboard-response","trial_index":150,"plugin_version":"2.1.0","time_elapsed":704621,"subject_id":"88273","group":"Group2","full_date":"2025-12-04T19:52:51.017Z","date":"2025-12-04","time":"19:52:51"},{"rt":null,"stimulus":"<p style=\"font-size: 50px; margin: 0; text-align: center;\">+</p>","response":null,"trial_type":"html-keyboard-response","trial_index":151,"plugin_version":"2.1.0","time_elapsed":705623,"subject_id":"88273","group":"Group2","full_date":"2025-12-04T19:52:51.017Z","date":"2025-12-04","time":"19:52:51"},{"task":"memory_phase","broad_category":"M","image_png":"M_Gneiss_10.png","image_id":202,"category_name":"Gneiss","category":13,"distinct_rating":3.09,"distinct_type":"Bottom","rt":null,"stimulus":"Stimuli_Rocks480/M_Gneiss_10.png","response":null,"trial_type":"image-keyboard-response","trial_index":152,"plugin_version":"2.1.0","time_elapsed":708126,"subject_id":"88273","group":"Group2","full_date":"2025-12-04T19:52:51.017Z","date":"2025-12-04","time":"19:52:51"},{"rt":null,"stimulus":"<p style=\"font-size: 50px; margin: 0; text-align: center;\">+</p>","response":null,"trial_type":"html-keyboard-response","trial_index":153,"plugin_version":"2.1.0","time_elapsed":709129,"subject_id":"88273","group":"Group2","full_date":"2025-12-04T19:52:51.017Z","date":"2025-12-04","time":"19:52:51"},{"task":"memory_phase","broad_category":"I","image_png":"I_Pumice_14.png","image_id":142,"category_name":"Pumice","category":9,"distinct_rating":3.22,"distinct_type":"Bottom","rt":null,"stimulus":"Stimuli_Rocks480/I_Pumice_14.png","response":null,"trial_type":"image-keyboard-response","trial_index":154,"plugin_version":"2.1.0","time_elapsed":711633,"subject_id":"88273","group":"Group2","full_date":"2025-12-04T19:52:51.017Z","date":"2025-12-04","time":"19:52:51"},{"rt":null,"stimulus":"<p style=\"font-size: 50px; margin: 0; text-align: center;\">+</p>","response":null,"trial_type":"html-keyboard-response","trial_index":155,"plugin_version":"2.1.0","time_elapsed":712636,"subject_id":"88273","group":"Group2","full_date":"2025-12-04T19:52:51.017Z","date":"2025-12-04","time":"19:52:51"},{"task":"memory_phase","broad_category":"I","image_png":"I_Obsidian_06.png","image_id":86,"category_name":"Obsidian","category":6,"distinct_rating":8.01,"distinct_type":"Top","rt":null,"stimulus":"Stimuli_Rocks480/I_Obsidian_06.png","response":null,"trial_type":"image-keyboard-response","trial_index":156,"plugin_version":"2.1.0","time_elapsed":715139,"subject_id":"88273","group":"Group2","full_date":"2025-12-04T19:52:51.017Z","date":"2025-12-04","time":"19:52:51"},{"rt":25948,"stimulus":"<p style=\"max-width: 760px; margin: auto; font-size: 35px; line-height: 1.5;\">Press SPACE to continue study phase</p>","response":" ","trial_type":"html-keyboard-response","trial_index":157,"plugin_version":"2.1.0","time_elapsed":741088,"subject_id":"88273","group":"Group2","full_date":"2025-12-04T19:52:51.017Z","date":"2025-12-04","time":"19:52:51"},{"rt":null,"stimulus":"<p style=\"font-size: 50px; margin: 0; text-align: center;\">+</p>","response":null,"trial_type":"html-keyboard-response","trial_index":158,"plugin_version":"2.1.0","time_elapsed":742091,"subject_id":"88273","group":"Group2","full_date":"2025-12-04T19:52:51.017Z","date":"2025-12-04","time":"19:52:51"},{"task":"memory_phase","broad_category":"I","image_png":"I_Gabbro_14.png","image_id":62,"category_name":"Gabbro","category":4,"distinct_rating":2.95,"distinct_type":"Bottom","rt":null,"stimulus":"Stimuli_Rocks480/I_Gabbro_14.png","response":null,"trial_type":"image-keyboard-response","trial_index":159,"plugin_version":"2.1.0","time_elapsed":744592,"subject_id":"88273","group":"Group2","full_date":"2025-12-04T19:52:51.017Z","date":"2025-12-04","time":"19:52:51"},{"rt":null,"stimulus":"<p style=\"font-size: 50px; margin: 0; text-align: center;\">+</p>","response":null,"trial_type":"html-keyboard-response","trial_index":160,"plugin_version":"2.1.0","time_elapsed":745593,"subject_id":"88273","group":"Group2","full_date":"2025-12-04T19:52:51.017Z","date":"2025-12-04","time":"19:52:51"},{"task":"memory_phase","broad_category":"I","image_png":"I_Rhyolite_10.png","image_id":154,"category_name":"Rhyolite","category":10,"distinct_rating":2.88,"distinct_type":"Bottom","rt":null,"stimulus":"Stimuli_Rocks480/I_Rhyolite_10.png","response":null,"trial_type":"image-keyboard-response","trial_index":161,"plugin_version":"2.1.0","time_elapsed":748095,"subject_id":"88273","group":"Group2","full_date":"2025-12-04T19:52:51.017Z","date":"2025-12-04","time":"19:52:51"},{"rt":null,"stimulus":"<p style=\"font-size: 50px; margin: 0; text-align: center;\">+</p>","response":null,"trial_type":"html-keyboard-response","trial_index":162,"plugin_version":"2.1.0","time_elapsed":749097,"subject_id":"88273","group":"Group2","full_date":"2025-12-04T19:52:51.017Z","date":"2025-12-04","time":"19:52:51"},{"task":"memory_phase","broad_category":"I","image_png":"I_Peridotite_13.png","image_id":125,"category_name":"Peridotite","category":8,"distinct_rating":7.28,"distinct_type":"Top","rt":null,"stimulus":"Stimuli_Rocks480/I_Peridotite_13.png","response":null,"trial_type":"image-keyboard-response","trial_index":163,"plugin_version":"2.1.0","time_elapsed":751598,"subject_id":"88273","group":"Group2","full_date":"2025-12-04T19:52:51.017Z","date":"2025-12-04","time":"19:52:51"},{"rt":null,"stimulus":"<p style=\"font-size: 50px; margin: 0; text-align: center;\">+</p>","response":null,"trial_type":"html-keyboard-response","trial_index":164,"plugin_version":"2.1.0","time_elapsed":752600,"subject_id":"88273","group":"Group2","full_date":"2025-12-04T19:52:51.017Z","date":"2025-12-04","time":"19:52:51"},{"task":"memory_phase","broad_category":"M","image_png":"M_Phyllite_05.png","image_id":261,"category_name":"Phyllite","category":17,"distinct_rating":2.14,"distinct_type":"Bottom","rt":null,"stimulus":"Stimuli_Rocks480/M_Phyllite_05.png","response":null,"trial_type":"image-keyboard-response","trial_index":165,"plugin_version":"2.1.0","time_elapsed":755102,"subject_id":"88273","group":"Group2","full_date":"2025-12-04T19:52:51.017Z","date":"2025-12-04","time":"19:52:51"},{"rt":null,"stimulus":"<p style=\"font-size: 50px; margin: 0; text-align: center;\">+</p>","response":null,"trial_type":"html-keyboard-response","trial_index":166,"plugin_version":"2.1.0","time_elapsed":756104,"subject_id":"88273","group":"Group2","full_date":"2025-12-04T19:52:51.017Z","date":"2025-12-04","time":"19:52:51"},{"task":"memory_phase","broad_category":"I","image_png":"I_Basalt_08.png","image_id":24,"category_name":"Basalt","category":2,"distinct_rating":2.31,"distinct_type":"Bottom","rt":null,"stimulus":"Stimuli_Rocks480/I_Basalt_08.png","response":null,"trial_type":"image-keyboard-response","trial_index":167,"plugin_version":"2.1.0","time_elapsed":758607,"subject_id":"88273","group":"Group2","full_date":"2025-12-04T19:52:51.017Z","date":"2025-12-04","time":"19:52:51"},{"rt":null,"stimulus":"<p style=\"font-size: 50px; margin: 0; text-align: center;\">+</p>","response":null,"trial_type":"html-keyboard-response","trial_index":168,"plugin_version":"2.1.0","time_elapsed":759609,"subject_id":"88273","group":"Group2","full_date":"2025-12-04T19:52:51.017Z","date":"2025-12-04","time":"19:52:51"},{"task":"memory_phase","broad_category":"M","image_png":"M_Slate_14.png","image_id":318,"category_name":"Slate","category":20,"distinct_rating":2.58,"distinct_type":"Bottom","rt":null,"stimulus":"Stimuli_Rocks480/M_Slate_14.png","response":null,"trial_type":"image-keyboard-response","trial_index":169,"plugin_version":"2.1.0","time_elapsed":762112,"subject_id":"88273","group":"Group2","full_date":"2025-12-04T19:52:51.017Z","date":"2025-12-04","time":"19:52:51"},{"rt":null,"stimulus":"<p style=\"font-size: 50px; margin: 0; text-align: center;\">+</p>","response":null,"trial_type":"html-keyboard-response","trial_index":170,"plugin_version":"2.1.0","time_elapsed":763115,"subject_id":"88273","group":"Group2","full_date":"2025-12-04T19:52:51.017Z","date":"2025-12-04","time":"19:52:51"},{"task":"memory_phase","broad_category":"I","image_png":"I_Andesite_04.png","image_id":4,"category_name":"Andesite","category":1,"distinct_rating":3.18,"distinct_type":"Bottom","rt":null,"stimulus":"Stimuli_Rocks480/I_Andesite_04.png","response":null,"trial_type":"image-keyboard-response","trial_index":171,"plugin_version":"2.1.0","time_elapsed":765618,"subject_id":"88273","group":"Group2","full_date":"2025-12-04T19:52:51.017Z","date":"2025-12-04","time":"19:52:51"},{"rt":null,"stimulus":"<p style=\"font-size: 50px; margin: 0; text-align: center;\">+</p>","response":null,"trial_type":"html-keyboard-response","trial_index":172,"plugin_version":"2.1.0","time_elapsed":766620,"subject_id":"88273","group":"Group2","full_date":"2025-12-04T19:52:51.017Z","date":"2025-12-04","time":"19:52:51"},{"task":"memory_phase","broad_category":"I","image_png":"I_Diorite_10.png","image_id":42,"category_name":"Diorite","category":3,"distinct_rating":2.84,"distinct_type":"Bottom","rt":null,"stimulus":"Stimuli_Rocks480/I_Diorite_10.png","response":null,"trial_type":"image-keyboard-response","trial_index":173,"plugin_version":"2.1.0","time_elapsed":769123,"subject_id":"88273","group":"Group2","full_date":"2025-12-04T19:52:51.017Z","date":"2025-12-04","time":"19:52:51"},{"rt":null,"stimulus":"<p style=\"font-size: 50px; margin: 0; text-align: center;\">+</p>","response":null,"trial_type":"html-keyboard-response","trial_index":174,"plugin_version":"2.1.0","time_elapsed":770126,"subject_id":"88273","group":"Group2","full_date":"2025-12-04T19:52:51.017Z","date":"2025-12-04","time":"19:52:51"},{"task":"memory_phase","broad_category":"I","image_png":"I_Basalt_10.png","image_id":26,"category_name":"Basalt","category":2,"distinct_rating":2.76,"distinct_type":"Bottom","rt":null,"stimulus":"Stimuli_Rocks480/I_Basalt_10.png","response":null,"trial_type":"image-keyboard-response","trial_index":175,"plugin_version":"2.1.0","time_elapsed":772629,"subject_id":"88273","group":"Group2","full_date":"2025-12-04T19:52:51.017Z","date":"2025-12-04","time":"19:52:51"},{"rt":null,"stimulus":"<p style=\"font-size: 50px; margin: 0; text-align: center;\">+</p>","response":null,"trial_type":"html-keyboard-response","trial_index":176,"plugin_version":"2.1.0","time_elapsed":773632,"subject_id":"88273","group":"Group2","full_date":"2025-12-04T19:52:51.017Z","date":"2025-12-04","time":"19:52:51"},{"task":"memory_phase","broad_category":"M","image_png":"M_Quartzite_15.png","image_id":287,"category_name":"Quartzite","category":18,"distinct_rating":2.19,"distinct_type":"Bottom","rt":null,"stimulus":"Stimuli_Rocks480/M_Quartzite_15.png","response":null,"trial_type":"image-keyboard-response","trial_index":177,"plugin_version":"2.1.0","time_elapsed":776135,"subject_id":"88273","group":"Group2","full_date":"2025-12-04T19:52:51.017Z","date":"2025-12-04","time":"19:52:51"},{"rt":null,"stimulus":"<p style=\"font-size: 50px; margin: 0; text-align: center;\">+</p>","response":null,"trial_type":"html-keyboard-response","trial_index":178,"plugin_version":"2.1.0","time_elapsed":777137,"subject_id":"88273","group":"Group2","full_date":"2025-12-04T19:52:51.017Z","date":"2025-12-04","time":"19:52:51"},{"task":"memory_phase","broad_category":"S","image_png":"S_Sandstone_08.png","image_id":456,"category_name":"Sandstone","category":29,"distinct_rating":1.5,"distinct_type":"Bottom","rt":null,"stimulus":"Stimuli_Rocks480/S_Sandstone_08.png","response":null,"trial_type":"image-keyboard-response","trial_index":179,"plugin_version":"2.1.0","time_elapsed":779640,"subject_id":"88273","group":"Group2","full_date":"2025-12-04T19:52:51.017Z","date":"2025-12-04","time":"19:52:51"},{"rt":null,"stimulus":"<p style=\"font-size: 50px; margin: 0; text-align: center;\">+</p>","response":null,"trial_type":"html-keyboard-response","trial_index":180,"plugin_version":"2.1.0","time_elapsed":780642,"subject_id":"88273","group":"Group2","full_date":"2025-12-04T19:52:51.017Z","date":"2025-12-04","time":"19:52:51"},{"task":"memory_phase","broad_category":"S","image_png":"S_Shale_07.png","image_id":471,"category_name":"Shale","category":30,"distinct_rating":2.73,"distinct_type":"Bottom","rt":null,"stimulus":"Stimuli_Rocks480/S_Shale_07.png","response":null,"trial_type":"image-keyboard-response","trial_index":181,"plugin_version":"2.1.0","time_elapsed":783145,"subject_id":"88273","group":"Group2","full_date":"2025-12-04T19:52:51.017Z","date":"2025-12-04","time":"19:52:51"},{"rt":null,"stimulus":"<p style=\"font-size: 50px; margin: 0; text-align: center;\">+</p>","response":null,"trial_type":"html-keyboard-response","trial_index":182,"plugin_version":"2.1.0","time_elapsed":784147,"subject_id":"88273","group":"Group2","full_date":"2025-12-04T19:52:51.017Z","date":"2025-12-04","time":"19:52:51"},{"task":"memory_phase","broad_category":"M","image_png":"M_Quartzite_12.png","image_id":284,"category_name":"Quartzite","category":18,"distinct_rating":1.92,"distinct_type":"Bottom","rt":null,"stimulus":"Stimuli_Rocks480/M_Quartzite_12.png","response":null,"trial_type":"image-keyboard-response","trial_index":183,"plugin_version":"2.1.0","time_elapsed":786651,"subject_id":"88273","group":"Group2","full_date":"2025-12-04T19:52:51.017Z","date":"2025-12-04","time":"19:52:51"},{"rt":null,"stimulus":"<p style=\"font-size: 50px; margin: 0; text-align: center;\">+</p>","response":null,"trial_type":"html-keyboard-response","trial_index":184,"plugin_version":"2.1.0","time_elapsed":787653,"subject_id":"88273","group":"Group2","full_date":"2025-12-04T19:52:51.017Z","date":"2025-12-04","time":"19:52:51"},{"task":"memory_phase","broad_category":"M","image_png":"M_Marble_14.png","image_id":238,"category_name":"Marble","category":15,"distinct_rating":3.31,"distinct_type":"Bottom","rt":null,"stimulus":"Stimuli_Rocks480/M_Marble_14.png","response":null,"trial_type":"image-keyboard-response","trial_index":185,"plugin_version":"2.1.0","time_elapsed":790157,"subject_id":"88273","group":"Group2","full_date":"2025-12-04T19:52:51.017Z","date":"2025-12-04","time":"19:52:51"},{"rt":null,"stimulus":"<p style=\"font-size: 50px; margin: 0; text-align: center;\">+</p>","response":null,"trial_type":"html-keyboard-response","trial_index":186,"plugin_version":"2.1.0","time_elapsed":791159,"subject_id":"88273","group":"Group2","full_date":"2025-12-04T19:52:51.017Z","date":"2025-12-04","time":"19:52:51"},{"task":"memory_phase","broad_category":"I","image_png":"I_Rhyolite_05.png","image_id":149,"category_name":"Rhyolite","category":10,"distinct_rating":3.02,"distinct_type":"Bottom","rt":null,"stimulus":"Stimuli_Rocks480/I_Rhyolite_05.png","response":null,"trial_type":"image-keyboard-response","trial_index":187,"plugin_version":"2.1.0","time_elapsed":793662,"subject_id":"88273","group":"Group2","full_date":"2025-12-04T19:52:51.017Z","date":"2025-12-04","time":"19:52:51"},{"rt":null,"stimulus":"<p style=\"font-size: 50px; margin: 0; text-align: center;\">+</p>","response":null,"trial_type":"html-keyboard-response","trial_index":188,"plugin_version":"2.1.0","time_elapsed":794664,"subject_id":"88273","group":"Group2","full_date":"2025-12-04T19:52:51.017Z","date":"2025-12-04","time":"19:52:51"},{"task":"memory_phase","broad_category":"S","image_png":"S_Sandstone_04.png","image_id":452,"category_name":"Sandstone","category":29,"distinct_rating":1.8,"distinct_type":"Bottom","rt":null,"stimulus":"Stimuli_Rocks480/S_Sandstone_04.png","response":null,"trial_type":"image-keyboard-response","trial_index":189,"plugin_version":"2.1.0","time_elapsed":797167,"subject_id":"88273","group":"Group2","full_date":"2025-12-04T19:52:51.017Z","date":"2025-12-04","time":"19:52:51"},{"rt":null,"stimulus":"<p style=\"font-size: 50px; margin: 0; text-align: center;\">+</p>","response":null,"trial_type":"html-keyboard-response","trial_index":190,"plugin_version":"2.1.0","time_elapsed":798168,"subject_id":"88273","group":"Group2","full_date":"2025-12-04T19:52:51.017Z","date":"2025-12-04","time":"19:52:51"},{"task":"memory_phase","broad_category":"M","image_png":"M_Gneiss_15.png","image_id":207,"category_name":"Gneiss","category":13,"distinct_rating":3.11,"distinct_type":"Bottom","rt":null,"stimulus":"Stimuli_Rocks480/M_Gneiss_15.png","response":null,"trial_type":"image-keyboard-response","trial_index":191,"plugin_version":"2.1.0","time_elapsed":800672,"subject_id":"88273","group":"Group2","full_date":"2025-12-04T19:52:51.017Z","date":"2025-12-04","time":"19:52:51"},{"rt":null,"stimulus":"<p style=\"font-size: 50px; margin: 0; text-align: center;\">+</p>","response":null,"trial_type":"html-keyboard-response","trial_index":192,"plugin_version":"2.1.0","time_elapsed":801674,"subject_id":"88273","group":"Group2","full_date":"2025-12-04T19:52:51.017Z","date":"2025-12-04","time":"19:52:51"},{"task":"memory_phase","broad_category":"M","image_png":"M_Slate_04.png","image_id":308,"category_name":"Slate","category":20,"distinct_rating":2.2,"distinct_type":"Bottom","rt":null,"stimulus":"Stimuli_Rocks480/M_Slate_04.png","response":null,"trial_type":"image-keyboard-response","trial_index":193,"plugin_version":"2.1.0","time_elapsed":804178,"subject_id":"88273","group":"Group2","full_date":"2025-12-04T19:52:51.017Z","date":"2025-12-04","time":"19:52:51"},{"rt":null,"stimulus":"<p style=\"font-size: 50px; margin: 0; text-align: center;\">+</p>","response":null,"trial_type":"html-keyboard-response","trial_index":194,"plugin_version":"2.1.0","time_elapsed":805180,"subject_id":"88273","group":"Group2","full_date":"2025-12-04T19:52:51.017Z","date":"2025-12-04","time":"19:52:51"},{"task":"memory_phase","broad_category":"I","image_png":"I_Pumice_13.png","image_id":141,"category_name":"Pumice","category":9,"distinct_rating":3.12,"distinct_type":"Bottom","rt":null,"stimulus":"Stimuli_Rocks480/I_Pumice_13.png","response":null,"trial_type":"image-keyboard-response","trial_index":195,"plugin_version":"2.1.0","time_elapsed":807683,"subject_id":"88273","group":"Group2","full_date":"2025-12-04T19:52:51.017Z","date":"2025-12-04","time":"19:52:51"},{"rt":null,"stimulus":"<p style=\"font-size: 50px; margin: 0; text-align: center;\">+</p>","response":null,"trial_type":"html-keyboard-response","trial_index":196,"plugin_version":"2.1.0","time_elapsed":808685,"subject_id":"88273","group":"Group2","full_date":"2025-12-04T19:52:51.017Z","date":"2025-12-04","time":"19:52:51"},{"task":"memory_phase","broad_category":"M","image_png":"M_Slate_10.png","image_id":314,"category_name":"Slate","category":20,"distinct_rating":1.94,"distinct_type":"Bottom","rt":null,"stimulus":"Stimuli_Rocks480/M_Slate_10.png","response":null,"trial_type":"image-keyboard-response","trial_index":197,"plugin_version":"2.1.0","time_elapsed":811189,"subject_id":"88273","group":"Group2","full_date":"2025-12-04T19:52:51.017Z","date":"2025-12-04","time":"19:52:51"},{"rt":null,"stimulus":"<p style=\"font-size: 50px; margin: 0; text-align: center;\">+</p>","response":null,"trial_type":"html-keyboard-response","trial_index":198,"plugin_version":"2.1.0","time_elapsed":812190,"subject_id":"88273","group":"Group2","full_date":"2025-12-04T19:52:51.017Z","date":"2025-12-04","time":"19:52:51"},{"task":"memory_phase","broad_category":"I","image_png":"I_Rhyolite_08.png","image_id":152,"category_name":"Rhyolite","category":10,"distinct_rating":1.38,"distinct_type":"Bottom","rt":null,"stimulus":"Stimuli_Rocks480/I_Rhyolite_08.png","response":null,"trial_type":"image-keyboard-response","trial_index":199,"plugin_version":"2.1.0","time_elapsed":814693,"subject_id":"88273","group":"Group2","full_date":"2025-12-04T19:52:51.017Z","date":"2025-12-04","time":"19:52:51"},{"rt":null,"stimulus":"<p style=\"font-size: 50px; margin: 0; text-align: center;\">+</p>","response":null,"trial_type":"html-keyboard-response","trial_index":200,"plugin_version":"2.1.0","time_elapsed":815695,"subject_id":"88273","group":"Group2","full_date":"2025-12-04T19:52:51.017Z","date":"2025-12-04","time":"19:52:51"},{"task":"memory_phase","broad_category":"I","image_png":"I_Pegmatite_11.png","image_id":107,"category_name":"Pegmatite","category":7,"distinct_rating":7.11,"distinct_type":"Top","rt":null,"stimulus":"Stimuli_Rocks480/I_Pegmatite_11.png","response":null,"trial_type":"image-keyboard-response","trial_index":201,"plugin_version":"2.1.0","time_elapsed":818199,"subject_id":"88273","group":"Group2","full_date":"2025-12-04T19:52:51.017Z","date":"2025-12-04","time":"19:52:51"},{"rt":null,"stimulus":"<p style=\"font-size: 50px; margin: 0; text-align: center;\">+</p>","response":null,"trial_type":"html-keyboard-response","trial_index":202,"plugin_version":"2.1.0","time_elapsed":819202,"subject_id":"88273","group":"Group2","full_date":"2025-12-04T19:52:51.017Z","date":"2025-12-04","time":"19:52:51"},{"task":"memory_phase","broad_category":"I","image_png":"I_Pegmatite_03.png","image_id":99,"category_name":"Pegmatite","category":7,"distinct_rating":7.24,"distinct_type":"Top","rt":null,"stimulus":"Stimuli_Rocks480/I_Pegmatite_03.png","response":null,"trial_type":"image-keyboard-response","trial_index":203,"plugin_version":"2.1.0","time_elapsed":821708,"subject_id":"88273","group":"Group2","full_date":"2025-12-04T19:52:51.017Z","date":"2025-12-04","time":"19:52:51"},{"rt":null,"stimulus":"<p style=\"font-size: 50px; margin: 0; text-align: center;\">+</p>","response":null,"trial_type":"html-keyboard-response","trial_index":204,"plugin_version":"2.1.0","time_elapsed":822710,"subject_id":"88273","group":"Group2","full_date":"2025-12-04T19:52:51.017Z","date":"2025-12-04","time":"19:52:51"},{"task":"memory_phase","broad_category":"M","image_png":"M_Gneiss_14.png","image_id":206,"category_name":"Gneiss","category":13,"distinct_rating":3.41,"distinct_type":"Bottom","rt":null,"stimulus":"Stimuli_Rocks480/M_Gneiss_14.png","response":null,"trial_type":"image-keyboard-response","trial_index":205,"plugin_version":"2.1.0","time_elapsed":825213,"subject_id":"88273","group":"Group2","full_date":"2025-12-04T19:52:51.017Z","date":"2025-12-04","time":"19:52:51"},{"rt":null,"stimulus":"<p style=\"font-size: 50px; margin: 0; text-align: center;\">+</p>","response":null,"trial_type":"html-keyboard-response","trial_index":206,"plugin_version":"2.1.0","time_elapsed":826215,"subject_id":"88273","group":"Group2","full_date":"2025-12-04T19:52:51.017Z","date":"2025-12-04","time":"19:52:51"},{"task":"memory_phase","broad_category":"S","image_png":"S_Shale_03.png","image_id":467,"category_name":"Shale","category":30,"distinct_rating":1.95,"distinct_type":"Bottom","rt":null,"stimulus":"Stimuli_Rocks480/S_Shale_03.png","response":null,"trial_type":"image-keyboard-response","trial_index":207,"plugin_version":"2.1.0","time_elapsed":828718,"subject_id":"88273","group":"Group2","full_date":"2025-12-04T19:52:51.017Z","date":"2025-12-04","time":"19:52:51"},{"rt":13035,"stimulus":"<p style=\"max-width: 760px; margin: auto; font-size: 35px; line-height: 1.5;\">You have completed 2 study phases. Now, we'll show you all the images again 1 more time.<br><br>Press SPACE to continue</p>","response":" ","trial_type":"html-keyboard-response","trial_index":208,"plugin_version":"2.1.0","time_elapsed":841754,"subject_id":"88273","group":"Group2","full_date":"2025-12-04T19:52:51.017Z","date":"2025-12-04","time":"19:52:51"},{"rt":null,"stimulus":"<p style=\"font-size: 50px; margin: 0; text-align: center;\">+</p>","response":null,"trial_type":"html-keyboard-response","trial_index":209,"plugin_version":"2.1.0","time_elapsed":842757,"subject_id":"88273","group":"Group2","full_date":"2025-12-04T19:52:51.017Z","date":"2025-12-04","time":"19:52:51"},{"task":"memory_phase","broad_category":"S","image_png":"S_Chert_13.png","image_id":365,"category_name":"Chert","category":23,"distinct_rating":6.57,"distinct_type":"Top","rt":null,"stimulus":"Stimuli_Rocks480/S_Chert_13.png","response":null,"trial_type":"image-keyboard-response","trial_index":210,"plugin_version":"2.1.0","time_elapsed":845260,"subject_id":"88273","group":"Group2","full_date":"2025-12-04T19:52:51.017Z","date":"2025-12-04","time":"19:52:51"},{"rt":null,"stimulus":"<p style=\"font-size: 50px; margin: 0; text-align: center;\">+</p>","response":null,"trial_type":"html-keyboard-response","trial_index":211,"plugin_version":"2.1.0","time_elapsed":846263,"subject_id":"88273","group":"Group2","full_date":"2025-12-04T19:52:51.017Z","date":"2025-12-04","time":"19:52:51"},{"task":"memory_phase","broad_category":"S","image_png":"S_Shale_02.png","image_id":466,"category_name":"Shale","category":30,"distinct_rating":2.9,"distinct_type":"Bottom","rt":null,"stimulus":"Stimuli_Rocks480/S_Shale_02.png","response":null,"trial_type":"image-keyboard-response","trial_index":212,"plugin_version":"2.1.0","time_elapsed":848766,"subject_id":"88273","group":"Group2","full_date":"2025-12-04T19:52:51.017Z","date":"2025-12-04","time":"19:52:51"},{"rt":null,"stimulus":"<p style=\"font-size: 50px; margin: 0; text-align: center;\">+</p>","response":null,"trial_type":"html-keyboard-response","trial_index":213,"plugin_version":"2.1.0","time_elapsed":849768,"subject_id":"88273","group":"Group2","full_date":"2025-12-04T19:52:51.017Z","date":"2025-12-04","time":"19:52:51"},{"task":"memory_phase","broad_category":"S","image_png":"S_Rock Salt_15.png","image_id":447,"category_name":"Rock Salt","category":28,"distinct_rating":7.79,"distinct_type":"Top","rt":null,"stimulus":"Stimuli_Rocks480/S_Rock Salt_15.png","response":null,"trial_type":"image-keyboard-response","trial_index":214,"plugin_version":"2.1.0","time_elapsed":852272,"subject_id":"88273","group":"Group2","full_date":"2025-12-04T19:52:51.017Z","date":"2025-12-04","time":"19:52:51"},{"rt":null,"stimulus":"<p style=\"font-size: 50px; margin: 0; text-align: center;\">+</p>","response":null,"trial_type":"html-keyboard-response","trial_index":215,"plugin_version":"2.1.0","time_elapsed":853275,"subject_id":"88273","group":"Group2","full_date":"2025-12-04T19:52:51.017Z","date":"2025-12-04","time":"19:52:51"},{"task":"memory_phase","broad_category":"I","image_png":"I_Pegmatite_11.png","image_id":107,"category_name":"Pegmatite","category":7,"distinct_rating":7.11,"distinct_type":"Top","rt":null,"stimulus":"Stimuli_Rocks480/I_Pegmatite_11.png","response":null,"trial_type":"image-keyboard-response","trial_index":216,"plugin_version":"2.1.0","time_elapsed":855778,"subject_id":"88273","group":"Group2","full_date":"2025-12-04T19:52:51.017Z","date":"2025-12-04","time":"19:52:51"},{"rt":null,"stimulus":"<p style=\"font-size: 50px; margin: 0; text-align: center;\">+</p>","response":null,"trial_type":"html-keyboard-response","trial_index":217,"plugin_version":"2.1.0","time_elapsed":856780,"subject_id":"88273","group":"Group2","full_date":"2025-12-04T19:52:51.017Z","date":"2025-12-04","time":"19:52:51"},{"task":"memory_phase","broad_category":"I","image_png":"I_Pegmatite_03.png","image_id":99,"category_name":"Pegmatite","category":7,"distinct_rating":7.24,"distinct_type":"Top","rt":null,"stimulus":"Stimuli_Rocks480/I_Pegmatite_03.png","response":null,"trial_type":"image-keyboard-response","trial_index":218,"plugin_version":"2.1.0","time_elapsed":859282,"subject_id":"88273","group":"Group2","full_date":"2025-12-04T19:52:51.017Z","date":"2025-12-04","time":"19:52:51"},{"rt":null,"stimulus":"<p style=\"font-size: 50px; margin: 0; text-align: center;\">+</p>","response":null,"trial_type":"html-keyboard-response","trial_index":219,"plugin_version":"2.1.0","time_elapsed":860285,"subject_id":"88273","group":"Group2","full_date":"2025-12-04T19:52:51.017Z","date":"2025-12-04","time":"19:52:51"},{"task":"memory_phase","broad_category":"I","image_png":"I_Andesite_03.png","image_id":3,"category_name":"Andesite","category":1,"distinct_rating":3.17,"distinct_type":"Bottom","rt":null,"stimulus":"Stimuli_Rocks480/I_Andesite_03.png","response":null,"trial_type":"image-keyboard-response","trial_index":220,"plugin_version":"2.1.0","time_elapsed":862788,"subject_id":"88273","group":"Group2","full_date":"2025-12-04T19:52:51.017Z","date":"2025-12-04","time":"19:52:51"},{"rt":null,"stimulus":"<p style=\"font-size: 50px; margin: 0; text-align: center;\">+</p>","response":null,"trial_type":"html-keyboard-response","trial_index":221,"plugin_version":"2.1.0","time_elapsed":863790,"subject_id":"88273","group":"Group2","full_date":"2025-12-04T19:52:51.017Z","date":"2025-12-04","time":"19:52:51"},{"task":"memory_phase","broad_category":"M","image_png":"M_Gneiss_10.png","image_id":202,"category_name":"Gneiss","category":13,"distinct_rating":3.09,"distinct_type":"Bottom","rt":null,"stimulus":"Stimuli_Rocks480/M_Gneiss_10.png","response":null,"trial_type":"image-keyboard-response","trial_index":222,"plugin_version":"2.1.0","time_elapsed":866293,"subject_id":"88273","group":"Group2","full_date":"2025-12-04T19:52:51.017Z","date":"2025-12-04","time":"19:52:51"},{"rt":null,"stimulus":"<p style=\"font-size: 50px; margin: 0; text-align: center;\">+</p>","response":null,"trial_type":"html-keyboard-response","trial_index":223,"plugin_version":"2.1.0","time_elapsed":867296,"subject_id":"88273","group":"Group2","full_date":"2025-12-04T19:52:51.017Z","date":"2025-12-04","time":"19:52:51"},{"task":"memory_phase","broad_category":"M","image_png":"M_Slate_10.png","image_id":314,"category_name":"Slate","category":20,"distinct_rating":1.94,"distinct_type":"Bottom","rt":null,"stimulus":"Stimuli_Rocks480/M_Slate_10.png","response":null,"trial_type":"image-keyboard-response","trial_index":224,"plugin_version":"2.1.0","time_elapsed":869800,"subject_id":"88273","group":"Group2","full_date":"2025-12-04T19:52:51.017Z","date":"2025-12-04","time":"19:52:51"},{"rt":null,"stimulus":"<p style=\"font-size: 50px; margin: 0; text-align: center;\">+</p>","response":null,"trial_type":"html-keyboard-response","trial_index":225,"plugin_version":"2.1.0","time_elapsed":870803,"subject_id":"88273","group":"Group2","full_date":"2025-12-04T19:52:51.017Z","date":"2025-12-04","time":"19:52:51"},{"task":"memory_phase","broad_category":"M","image_png":"M_Quartzite_15.png","image_id":287,"category_name":"Quartzite","category":18,"distinct_rating":2.19,"distinct_type":"Bottom","rt":null,"stimulus":"Stimuli_Rocks480/M_Quartzite_15.png","response":null,"trial_type":"image-keyboard-response","trial_index":226,"plugin_version":"2.1.0","time_elapsed":873305,"subject_id":"88273","group":"Group2","full_date":"2025-12-04T19:52:51.017Z","date":"2025-12-04","time":"19:52:51"},{"rt":null,"stimulus":"<p style=\"font-size: 50px; margin: 0; text-align: center;\">+</p>","response":null,"trial_type":"html-keyboard-response","trial_index":227,"plugin_version":"2.1.0","time_elapsed":874307,"subject_id":"88273","group":"Group2","full_date":"2025-12-04T19:52:51.017Z","date":"2025-12-04","time":"19:52:51"},{"task":"memory_phase","broad_category":"I","image_png":"I_Andesite_09.png","image_id":9,"category_name":"Andesite","category":1,"distinct_rating":2.49,"distinct_type":"Bottom","rt":null,"stimulus":"Stimuli_Rocks480/I_Andesite_09.png","response":null,"trial_type":"image-keyboard-response","trial_index":228,"plugin_version":"2.1.0","time_elapsed":876810,"subject_id":"88273","group":"Group2","full_date":"2025-12-04T19:52:51.017Z","date":"2025-12-04","time":"19:52:51"},{"rt":null,"stimulus":"<p style=\"font-size: 50px; margin: 0; text-align: center;\">+</p>","response":null,"trial_type":"html-keyboard-response","trial_index":229,"plugin_version":"2.1.0","time_elapsed":877813,"subject_id":"88273","group":"Group2","full_date":"2025-12-04T19:52:51.017Z","date":"2025-12-04","time":"19:52:51"},{"task":"memory_phase","broad_category":"S","image_png":"S_Dolomite_16.png","image_id":400,"category_name":"Dolomite","category":25,"distinct_rating":1.71,"distinct_type":"Bottom","rt":null,"stimulus":"Stimuli_Rocks480/S_Dolomite_16.png","response":null,"trial_type":"image-keyboard-response","trial_index":230,"plugin_version":"2.1.0","time_elapsed":880317,"subject_id":"88273","group":"Group2","full_date":"2025-12-04T19:52:51.017Z","date":"2025-12-04","time":"19:52:51"},{"rt":null,"stimulus":"<p style=\"font-size: 50px; margin: 0; text-align: center;\">+</p>","response":null,"trial_type":"html-keyboard-response","trial_index":231,"plugin_version":"2.1.0","time_elapsed":881319,"subject_id":"88273","group":"Group2","full_date":"2025-12-04T19:52:51.017Z","date":"2025-12-04","time":"19:52:51"},{"task":"memory_phase","broad_category":"I","image_png":"I_Rhyolite_08.png","image_id":152,"category_name":"Rhyolite","category":10,"distinct_rating":1.38,"distinct_type":"Bottom","rt":null,"stimulus":"Stimuli_Rocks480/I_Rhyolite_08.png","response":null,"trial_type":"image-keyboard-response","trial_index":232,"plugin_version":"2.1.0","time_elapsed":883823,"subject_id":"88273","group":"Group2","full_date":"2025-12-04T19:52:51.017Z","date":"2025-12-04","time":"19:52:51"},{"rt":null,"stimulus":"<p style=\"font-size: 50px; margin: 0; text-align: center;\">+</p>","response":null,"trial_type":"html-keyboard-response","trial_index":233,"plugin_version":"2.1.0","time_elapsed":884825,"subject_id":"88273","group":"Group2","full_date":"2025-12-04T19:52:51.017Z","date":"2025-12-04","time":"19:52:51"},{"task":"memory_phase","broad_category":"S","image_png":"S_Rock Salt_13.png","image_id":445,"category_name":"Rock Salt","category":28,"distinct_rating":7.58,"distinct_type":"Top","rt":null,"stimulus":"Stimuli_Rocks480/S_Rock Salt_13.png","response":null,"trial_type":"image-keyboard-response","trial_index":234,"plugin_version":"2.1.0","time_elapsed":887328,"subject_id":"88273","group":"Group2","full_date":"2025-12-04T19:52:51.017Z","date":"2025-12-04","time":"19:52:51"},{"rt":null,"stimulus":"<p style=\"font-size: 50px; margin: 0; text-align: center;\">+</p>","response":null,"trial_type":"html-keyboard-response","trial_index":235,"plugin_version":"2.1.0","time_elapsed":888330,"subject_id":"88273","group":"Group2","full_date":"2025-12-04T19:52:51.017Z","date":"2025-12-04","time":"19:52:51"},{"task":"memory_phase","broad_category":"I","image_png":"I_Pumice_14.png","image_id":142,"category_name":"Pumice","category":9,"distinct_rating":3.22,"distinct_type":"Bottom","rt":null,"stimulus":"Stimuli_Rocks480/I_Pumice_14.png","response":null,"trial_type":"image-keyboard-response","trial_index":236,"plugin_version":"2.1.0","time_elapsed":890834,"subject_id":"88273","group":"Group2","full_date":"2025-12-04T19:52:51.017Z","date":"2025-12-04","time":"19:52:51"},{"rt":null,"stimulus":"<p style=\"font-size: 50px; margin: 0; text-align: center;\">+</p>","response":null,"trial_type":"html-keyboard-response","trial_index":237,"plugin_version":"2.1.0","time_elapsed":891836,"subject_id":"88273","group":"Group2","full_date":"2025-12-04T19:52:51.017Z","date":"2025-12-04","time":"19:52:51"},{"task":"memory_phase","broad_category":"M","image_png":"M_Quartzite_07.png","image_id":279,"category_name":"Quartzite","category":18,"distinct_rating":1.97,"distinct_type":"Bottom","rt":null,"stimulus":"Stimuli_Rocks480/M_Quartzite_07.png","response":null,"trial_type":"image-keyboard-response","trial_index":238,"plugin_version":"2.1.0","time_elapsed":894340,"subject_id":"88273","group":"Group2","full_date":"2025-12-04T19:52:51.017Z","date":"2025-12-04","time":"19:52:51"},{"rt":null,"stimulus":"<p style=\"font-size: 50px; margin: 0; text-align: center;\">+</p>","response":null,"trial_type":"html-keyboard-response","trial_index":239,"plugin_version":"2.1.0","time_elapsed":895342,"subject_id":"88273","group":"Group2","full_date":"2025-12-04T19:52:51.017Z","date":"2025-12-04","time":"19:52:51"},{"task":"memory_phase","broad_category":"S","image_png":"S_Sandstone_04.png","image_id":452,"category_name":"Sandstone","category":29,"distinct_rating":1.8,"distinct_type":"Bottom","rt":null,"stimulus":"Stimuli_Rocks480/S_Sandstone_04.png","response":null,"trial_type":"image-keyboard-response","trial_index":240,"plugin_version":"2.1.0","time_elapsed":897845,"subject_id":"88273","group":"Group2","full_date":"2025-12-04T19:52:51.017Z","date":"2025-12-04","time":"19:52:51"},{"rt":null,"stimulus":"<p style=\"font-size: 50px; margin: 0; text-align: center;\">+</p>","response":null,"trial_type":"html-keyboard-response","trial_index":241,"plugin_version":"2.1.0","time_elapsed":898847,"subject_id":"88273","group":"Group2","full_date":"2025-12-04T19:52:51.017Z","date":"2025-12-04","time":"19:52:51"},{"task":"memory_phase","broad_category":"M","image_png":"M_Marble_14.png","image_id":238,"category_name":"Marble","category":15,"distinct_rating":3.31,"distinct_type":"Bottom","rt":null,"stimulus":"Stimuli_Rocks480/M_Marble_14.png","response":null,"trial_type":"image-keyboard-response","trial_index":242,"plugin_version":"2.1.0","time_elapsed":901351,"subject_id":"88273","group":"Group2","full_date":"2025-12-04T19:52:51.017Z","date":"2025-12-04","time":"19:52:51"},{"rt":null,"stimulus":"<p style=\"font-size: 50px; margin: 0; text-align: center;\">+</p>","response":null,"trial_type":"html-keyboard-response","trial_index":243,"plugin_version":"2.1.0","time_elapsed":902354,"subject_id":"88273","group":"Group2","full_date":"2025-12-04T19:52:51.017Z","date":"2025-12-04","time":"19:52:51"},{"task":"memory_phase","broad_category":"I","image_png":"I_Diorite_01.png","image_id":33,"category_name":"Diorite","category":3,"distinct_rating":2.97,"distinct_type":"Bottom","rt":null,"stimulus":"Stimuli_Rocks480/I_Diorite_01.png","response":null,"trial_type":"image-keyboard-response","trial_index":244,"plugin_version":"2.1.0","time_elapsed":904857,"subject_id":"88273","group":"Group2","full_date":"2025-12-04T19:52:51.017Z","date":"2025-12-04","time":"19:52:51"},{"rt":null,"stimulus":"<p style=\"font-size: 50px; margin: 0; text-align: center;\">+</p>","response":null,"trial_type":"html-keyboard-response","trial_index":245,"plugin_version":"2.1.0","time_elapsed":905860,"subject_id":"88273","group":"Group2","full_date":"2025-12-04T19:52:51.017Z","date":"2025-12-04","time":"19:52:51"},{"task":"memory_phase","broad_category":"M","image_png":"M_Slate_04.png","image_id":308,"category_name":"Slate","category":20,"distinct_rating":2.2,"distinct_type":"Bottom","rt":null,"stimulus":"Stimuli_Rocks480/M_Slate_04.png","response":null,"trial_type":"image-keyboard-response","trial_index":246,"plugin_version":"2.1.0","time_elapsed":908363,"subject_id":"88273","group":"Group2","full_date":"2025-12-04T19:52:51.017Z","date":"2025-12-04","time":"19:52:51"},{"rt":null,"stimulus":"<p style=\"font-size: 50px; margin: 0; text-align: center;\">+</p>","response":null,"trial_type":"html-keyboard-response","trial_index":247,"plugin_version":"2.1.0","time_elapsed":909365,"subject_id":"88273","group":"Group2","full_date":"2025-12-04T19:52:51.017Z","date":"2025-12-04","time":"19:52:51"},{"task":"memory_phase","broad_category":"S","image_png":"S_Dolomite_01.png","image_id":385,"category_name":"Dolomite","category":25,"distinct_rating":1.43,"distinct_type":"Bottom","rt":null,"stimulus":"Stimuli_Rocks480/S_Dolomite_01.png","response":null,"trial_type":"image-keyboard-response","trial_index":248,"plugin_version":"2.1.0","time_elapsed":911869,"subject_id":"88273","group":"Grou